id,timestamp,acc_x,acc_y,acc_z,gyro_x,gyro_y,gyro_z
0,1747638637200,0.09482261,0.84431756,0.44502598,0.1577513,-1.5689611,-0.74225575
1,1747638637210,0.09018819,0.774404945,0.275534375,-0.22605167,-1.3020209,-0.784098805
2,1747638637220,0.08555377,0.70449233,0.10604277,-0.60985464,-1.0350807,-0.82594186
3,1747638637230,-0.03378246,0.5936932,0.0594242,-1.7286215,-0.89489125,-0.8076164299999999
4,1747638637240,-0.05538433,0.59881545,0.100066815,-1.86865825,-0.9546015750000001,-0.7798228949999999
5,1747638637250,-0.0769862,0.6039377,0.14070943,-2.008695,-1.0143119,-0.75202936
6,1747638637260,0.007698619999999989,0.66897195,0.30250241499999997,-2.28098,-1.2803358500000002,-0.49238107999999997
7,1747638637270,0.09238344,0.7340062,0.4642954,-2.553265,-1.5463598,-0.2327328
8,1747638637280,0.36084422,0.4413977,0.6226888,-2.0199192,-1.0564604,0.34879377
9,1747638637290,0.33326639,0.31023151,0.54471168,-1.8822112999999998,-0.7995991,0.284043965
10,1747638637300,0.30568856,0.17906532,0.46673456,-1.7445034,-0.5427378,0.21929416
11,1747638637310,0.07335794,0.10973201,0.3312998,-1.6323366,0.5305972,-0.3482593
12,1747638637320,-0.06806799000000001,0.225668655,0.35717022,-1.61550015,0.50371992,-0.20955879249999998
13,1747638637330,-0.20949392,0.3416053,0.38304064,-1.5986637,0.47684264,-0.070858285
14,1747638637340,-0.14189851,0.3401418,0.34105647,-1.558195,0.30275118,0.2131857
15,1747638637350,-0.085279359,0.30596298,0.384016285,-1.53421925,0.15274999625,0.343907015
16,1747638637360,-0.028660208,0.27178416,0.4269761,-1.5102435,0.0027488125,0.47462833
17,1747638637370,0.036496032,0.035550855,0.7637641,-1.5830871,0.3290176,0.40804598
18,1747638637380,0.063951901,0.10950333749999999,0.7171455,-1.49214715,-0.063489935,0.34451785999999995
19,1747638637390,0.09140777,0.18345582,0.6705269,-1.4012072,-0.45599747,0.28098974
20,1747638637400,0.12471764,0.30584100999999997,0.7809602200000001,-1.09620355,-1.2937744850000001,0.109647084
21,1747638637410,0.15802751,0.4282262,0.89139354,-0.7911999,-2.1315515,-0.061695572
22,1747638637420,0.44648945,0.41822565,0.838677,-0.2902288,-3.6624112,-0.69583136
23,1747638637430,0.48615640000000004,0.452755095,0.83904288,-0.270605335,-3.7048651,-0.93528353
24,1747638637440,0.52582335,0.48728454,0.83940876,-0.25098187,-3.747319,-1.1747357
25,1747638637450,0.42429304,0.66665477,0.9363047,-0.5587725,-3.3178933,-1.7037294
26,1747638637460,0.400252,0.717907735,0.99487515,-0.6933498,-3.2558923,-1.76786835
27,1747638637470,0.37621096,0.7691607,1.0534456,-0.8279271,-3.1938913,-1.8320073
28,1747638637480,0.37401572,0.9097177,1.3826417,-1.5962203,-2.9935334,-1.8539978
29,1747638637490,0.44014762500000004,1.0213172,1.9574389,-1.9725403999999997,-2.7412152,-1.7205276999999999
30,1747638637500,0.50627953,1.1329167,2.5322361,-2.3488605,-2.488897,-1.5870576
31,1747638637510,0.80279076,1.282148,3.409223,-1.3775369,-2.1126153,-1.3408861
32,1747638637520,0.94348498,1.37549185,3.6269035,-0.35597122000000003,-2.3401940999999997,-1.5665942
33,1747638637530,1.0841792,1.4688357,3.844584,0.66559446,-2.5677729,-1.7923023
34,1747638637540,1.2508656,1.6609201,3.4258096,2.7640839,-2.409487,-2.6126702
35,1747638637550,1.3151834,1.68165305,3.16931605,3.03980505,-1.645317075,-3.06626235
36,1747638637560,1.3795012,1.702386,2.9128225,3.3155262,-0.88114715,-3.5198545
37,1747638637570,1.4338946,1.6711645,2.9643192,3.200916,-0.3063399,-3.850323
38,1747638637580,1.4338946,1.6711645,2.9643192,3.200916,-0.3063399,-3.850323
39,1747638637590,1.3450785,1.5771956,3.0163043,3.1074564,0.17141901,-4.200949
40,1747638637600,1.2403772,1.3587682,3.0641422,2.9740627,0.58801687,-4.3335032
41,1747638637610,1.3628844,1.1889108,3.0245972,2.9740627,0.58801687,-4.3335032
42,1747638637620,1.5639937,0.94194525,2.9877353,3.149223,0.40598437,-4.4287953
43,1747638637630,1.6525812,0.836634225,2.9142859000000003,3.23894125,0.39804335,-4.52164415
44,1747638637640,1.7411687,0.7313232,2.8408365,3.3286595,0.39010233,-4.614493
45,1747638637650,1.8783108,0.26202747,2.4083722,4.0351806,1.2404017,-5.4800634
46,1747638637660,1.81144715,0.1757572,2.3144185999999998,4.2187021,1.42182335,-5.6416707
47,1747638637670,1.7445835,0.08948693,2.220465,4.4022236,1.603245,-5.803278
48,1747638637680,1.3350779,-0.012531219,1.7565354,5.0128417,1.5934714,-6.0018034
49,1747638637690,1.24917355,-0.034483720499999995,1.59131235,4.985124600000001,1.18267665,-5.8851317000000005
50,1747638637700,1.1632692,-0.056436222,1.4260893,4.9574075,0.7718819,-5.76846
51,1747638637710,0.9841428,-0.102810875,0.70568144,4.7336845,0.21662171,-5.691493
52,1747638637720,1.00487575,-0.1180709175,0.559483885,4.5511174,-0.03752892500000002,-5.6645775
53,1747638637730,1.0256087,-0.13333096,0.41328633,4.3685503,-0.29167956,-5.637662
54,1747638637740,1.0766177,-0.19556019,0.013293459,3.3472903,-0.2751867,-5.605898
55,1747638637750,1.0766177,-0.19556019,0.013293459,3.3472903,-0.2751867,-5.605898
56,1747638637760,0.85233635,-0.3405077,0.06649778,2.9236677,0.02351762,-5.5686364
57,1747638637770,0.812440725,-0.3713784,0.107872145,2.78191295,0.22391371,-5.53656695
58,1747638637780,0.7725451,-0.4022491,0.14924651,2.6401582,0.4243098,-5.5044975
59,1747638637790,0.42478088,-0.5494223,0.38157713,3.3934093,-0.30389652,-5.436693
60,1747638637800,0.34790139,-0.58273215,0.29603861,3.66787055,-0.7366818100000001,-5.410732149999999
61,1747638637810,0.2710219,-0.616042,0.21050009,3.9423318,-1.1694671,-5.3847713
62,1747638637820,0.14802693,-0.63387847,-0.30175543,4.152998,-1.7528262,-5.261991
63,1747638637830,0.0673667355,-0.624350485,-0.46624671500000003,4.0498792,-1.69968245,-5.2137341500000005
64,1747638637840,-0.013293459,-0.6148225,-0.630738,3.9467604,-1.6465387,-5.1654773
65,1747638637850,-0.36544815,-0.5611303,-0.9450551,2.288692,-1.1480874,-4.3133454
66,1747638637860,-0.387659805,-0.56795997,-0.9534855,1.8955354,-0.9843803500000001,-4.09252405
67,1747638637870,-0.40987146,-0.57478964,-0.9619159,1.5023788,-0.8206733,-3.8717027
68,1747638637880,-0.48868704,-0.627994,-0.6817471,0.282975,0.067498624,-3.2559686
69,1747638637890,-0.56093212,-0.6903604249999999,-0.40401748000000004,0.176763928,0.48902141200000004,-2.8924763000000002
70,1747638637900,-0.6331772,-0.75272685,-0.12628786,0.070552856,0.9105442,-2.528984
71,1747638637910,-0.63537245,-0.786036725,-0.125068275,0.304201948,0.89130252,-2.40742535
72,1747638637920,-0.6375677,-0.8193466,-0.12384869,0.53785104,0.87206084,-2.2858667
73,1747638637930,-0.620707,-0.8230053,-0.44746515,0.8718318,0.51593685,-2.0183158
74,1747638637940,-0.60473045,-0.7940173500000001,-0.5865586,0.8216659500000001,0.438053825,-1.9376839
75,1747638637950,-0.5887539,-0.7650294,-0.72565205,0.7715001,0.3601708,-1.857052
76,1747638637960,-0.4764912,-0.70415694,-0.68857676,-0.26655847,0.28076068,-0.9566632
77,1747638637970,-0.427197165,-0.7156210199999999,-0.5314715525,-0.37807627499999996,0.42522604999999997,-0.767300535
78,1747638637980,-0.37790313,-0.7270851,-0.374366345,-0.48959408,0.56969142,-0.57793787
79,1747638637990,-0.29638925,-0.74806195,-0.0843037,-0.2267007,0.8280798,-0.28648737
80,1747638638000,-0.278324175,-0.760273005,-0.09919786,0.07269081000000002,0.9713235,-0.24525518000000002
81,1747638638010,-0.2602591,-0.77248406,-0.11409202,0.37208232,1.1145672,-0.20402299
82,1747638638020,-0.42889696,-0.7783381,-0.5057917,0.9522345,0.78959644,-0.19241689
83,1747638638030,-0.50906933,-0.769069265,-0.6977236499999999,0.768102225,0.672619195,-0.199747055
84,1747638638040,-0.5892417,-0.75980043,-0.8896556,0.58396995,0.55564195,-0.20707722
85,1747638638050,-0.76690453,-0.7995589,-1.0890574,0.21074231,0.55503106,-0.2907633
86,1747638638060,-1.223272615,-0.838859925,-1.0296332,0.03409292,0.33203365,-0.33692045000000004
87,1747638638070,-1.6796407,-0.87816095,-0.970209,-0.14255647,0.10903624,-0.3830776
88,1747638638080,-2.0003759,-0.873092075,-0.778627725,0.041251282500000014,-0.6649072549999999,-0.35572309
89,1747638638090,-2.3211111,-0.8680232,-0.58704645,0.22505903500000002,-1.4388507499999998,-0.32836858
90,1747638638100,-2.5965233,-0.8425186,-0.56826484,0.9578085,-2.6209166,0.23578705
91,1747638638110,-2.5824905,-0.7976760825,-0.771729455,1.2571999999999999,-2.7608006,1.118766725
92,1747638638120,-2.5684577,-0.752833565,-0.9751940699999999,1.5565915,-2.9006846,2.0017464
93,1747638638130,-2.2755902,-0.67290515,-1.4863672,1.0979979,-2.3398504,2.888773
94,1747638638140,-2.0953662,-0.647034705,-1.59509305,0.65654625,-1.8927102,3.29223765
95,1747638638150,-1.9151422,-0.62116426,-1.7038189,0.2150946,-1.44557,3.6957023
96,1747638638160,-1.4487735,-0.5543006,-1.405082,-1.7831395,0.0827698,4.68894
97,1747638638170,-1.24280115,-0.5706583000000001,-1.01095838,-2.3847095,0.2898852,4.90460725
98,1747638638180,-1.0368288,-0.587016,-0.61683476,-2.9862795,0.4970006,5.1202745
99,1747638638190,-0.86404437,-0.55869114,-0.2917548,-2.9420695,0.18913358,4.90518
100,1747638638200,-0.83402735,-0.544056145,-0.22647661,-2.7395736,-0.07967738999999999,4.66786575
101,1747638638210,-0.80401033,-0.52942115,-0.16119842,-2.5370777,-0.34848836,4.4305515
102,1747638638220,-0.6734234,-0.4847539,-0.052350618,-2.001212,-0.8194516,4.00418
103,1747638638230,-0.6734234,-0.4847539,-0.052350618,-2.001212,-0.8194516,4.00418
104,1747638638240,-0.5921687,-0.49865714,-0.18802926,-1.7744349,-0.9422319,3.8111525
105,1747638638250,-0.59607137,-0.48963222,-0.26368916,-1.8672455499999998,-0.8222004199999999,3.7595358
106,1747638638260,-0.59997404,-0.4806073,-0.33934906,-1.9600562,-0.70216894,3.7079191
107,1747638638270,-0.5726553,-0.5403974,-0.15409435,-2.3600848,-0.60687673,4.3737426
108,1747638638280,-0.48979989,-0.58065888,-0.128361145,-2.3790974,-0.5708367649999999,4.55180455
109,1747638638290,-0.40694448,-0.62092036,-0.10262794,-2.39811,-0.5347968,4.7298665
110,1747638638300,0.20367043,-0.7695571,-0.08747462,-2.5838075,-0.0015271181,5.4452453
111,1747638638310,0.38291866500000005,-0.802745,-0.049286414,-2.67570185,0.15672049094999999,5.49686165
112,1747638638320,0.5621669,-0.8359329,-0.011098208,-2.7675962,0.3149681,5.548478
113,1747638638330,0.98780155,-0.81666344,0.13900201,-2.9389389,0.5147152,5.097062
114,1747638638340,1.009754025,-0.80628177,0.203304535,-2.9311506,0.378190825,4.8487145
115,1747638638350,1.0317065,-0.7959001,0.26760706,-2.9233623,0.24166645,4.600367
116,1747638638360,0.96484286,-0.8556901,0.45161173,-2.5015721,-0.8670977,3.912553
117,1747638638370,0.9631354299999999,-0.8849754000000001,0.482726365,-2.36478055,-1.18321115,3.916829
118,1747638638380,0.961428,-0.9142607,0.513841,-2.227989,-1.4993246,3.921105
119,1747638638390,1.0807643,-0.89328384,0.4794487,-1.7594692,-2.1407142,4.248519
120,1747638638400,1.1983931,-0.8574128700000001,0.36438101,-1.7273615,-2.0945952,4.3260965
121,1747638638410,1.3160219,-0.8215419,0.24931332,-1.6952538,-2.0484762,4.403674
122,1747638638420,1.4051125,-0.8469091,0.26199698,-2.39811,-0.4755446,4.7640743
123,1747638638430,1.4159668,-0.86046175,0.34814530499999996,-2.5666656999999997,-0.15267364,4.77018265
124,1747638638440,1.4268211,-0.8740144,0.43429363,-2.7352214,0.17019732,4.776291
125,1747638638450,1.4668539,-0.9848135,0.8479458,-2.762633,-0.64780354,4.3798513
126,1747638638460,1.45258475,-0.983715915,0.9170047,-2.64767915,-1.0732586199999998,4.257071
127,1747638638470,1.4383156,-0.98261833,0.9860636,-2.5327253,-1.4987137,4.1342907
128,1747638638480,1.2784587,-0.8813319,1.1312855,-1.5594167,-3.638588,3.6138487
129,1747638638490,1.2784587,-0.8813319,1.1312855,-1.5594167,-3.638588,3.6138487
130,1747638638500,1.1312855,-0.80861425,0.91456556,-0.5438068,-3.5817792,3.7952704
131,1747638638510,1.17131835,-0.805915925,0.81805078,-0.41484165,-3.15907295,3.9724162000000005
132,1747638638520,1.2113512,-0.8032176,0.721536,-0.2858765,-2.7363667,4.149562
133,1747638638530,1.490026,-0.83446944,0.2841934,-0.35749835,-2.0527523,4.4274974
134,1747638638540,1.52487555,-0.7797406200000001,0.292372235,-0.7030088750000001,-1.5796511,4.571657200000001
135,1747638638550,1.5597251,-0.7250118000000001,0.30055107000000003,-1.0485194,-1.1065499,4.715817
136,1747638638560,1.6101245,-0.52990896,0.4982303,-2.4006298,-1.665475,4.8153853
137,1747638638570,1.64684915,-0.51684418,0.53861375,-2.59472645,-1.6834950499999999,4.8685291500000005
138,1747638638580,1.6835738,-0.5037794,0.5789972,-2.7888231,-1.7015151,4.921673
139,1747638638590,1.980085,-0.32904357,0.78327745,-3.1962583,-1.2745328,5.029182
140,1747638638600,2.1837402,-0.156990858,1.018291125,-3.34736665,-0.92787698,4.89662815
141,1747638638610,2.3873954,0.015061854,1.2533048,-3.498475,-0.58122116,4.7640743
142,1747638638620,2.45182,0.2976698,1.4448708,-3.792598,-0.6612422,4.051215
143,1747638638630,2.6036276000000003,0.56574945,1.6728109999999998,-3.8960220999999997,-0.7272137000000001,3.95714465
144,1747638638640,2.7554352,0.8338291,1.9007512,-3.9994462,-0.7931852,3.8630743
145,1747638638650,2.8867233,0.93706685,2.1375027,-4.87983,-0.21349111,3.3395784
146,1747638638660,2.8867233,0.93706685,2.1375027,-4.87983,-0.21349111,3.3395784
147,1747638638670,3.1590867,1.014419,2.893797,-5.177083,0.6014555,2.8118062
148,1747638638680,3.26901685,1.15804015,3.6457005000000002,-4.86677265,0.6982748000000001,2.32003605
149,1747638638690,3.378947,1.3016613,4.397604,-4.5564623,0.7950941,1.8282659
150,1747638638700,3.2225356,1.3888005,6.15914,-2.469121,0.7798229,0.60779303
151,1747638638710,3.10417495,1.4215006,6.461871,-1.64073575,0.75844325,0.45721917999999995
152,1747638638720,2.9858143,1.4542007,6.764602,-0.8123505,0.7370636,0.30664533
153,1747638638730,3.0277681,1.4432244,6.787561,3.0089571,1.4303752,-0.08246438
154,1747638638740,3.2137393999999997,1.26054605,6.466764700000001,4.3800802999999995,1.59652565,-0.478026175
155,1747638638750,3.3997107,1.0778677,6.1459684,5.7512035,1.7626761,-0.87358797
156,1747638638760,3.6159427,0.55683124,4.96404,7.960027,1.2489536,-2.193018
157,1747638638770,3.3052691000000003,0.395404145,4.1063374,8.484325,0.675940685,-3.117268
158,1747638638780,2.9945955,0.23397705,3.2486348,9.008623,0.10292777,-4.041518
159,1747638638790,2.094787,0.37965629,1.8719689,7.7076707,-0.26907822,-4.546689
160,1747638638800,2.08685965,0.467146145,1.6453703,7.1026647,-0.17745112999999998,-4.4578106
161,1747638638810,2.0789323,0.554636,1.4187717,6.4976587,-0.08582404,-4.3689322
162,1747638638820,2.40325,0.6005229,0.856239,3.7579324,1.6777683,-4.309069
163,1747638638830,2.39056635,0.53987908,1.02268165,2.58934335,2.7443457999999996,-4.5848667
164,1747638638840,2.3778827,0.47923526,1.1891243,1.4207543,3.8109233,-4.8606644
165,1747638638850,2.2016833,0.3711192,1.4595363,1.3304254,4.0778637,-4.99444
166,1747638638860,2.0031504,0.1818551157,1.67148465,1.51360315,4.0625925,-5.0145978499999995
167,1747638638870,1.8046175,-0.0074089686,1.883433,1.6967809,4.0473213,-5.0347557
168,1747638638880,1.5974102,-0.402493,1.65842,3.0850077,2.8372328,-5.214956
169,1747638638890,1.5974102,-0.402493,1.65842,3.0850077,2.8372328,-5.214956
170,1747638638900,1.5171312,-0.56478906,1.5210339,3.4464002,2.0644348,-5.4238653
171,1747638638910,1.5237169,-0.67229533,1.3636162,3.6660379499999998,1.8530815999999999,-5.5430188000000005
172,1747638638920,1.5303026,-0.7798016,1.2061985,3.8856757,1.6417284,-5.6621723
173,1747638638930,1.2084242,-0.9071871,0.95533013,4.0913024,2.7993603,-5.644458
174,1747638638940,1.1397159000000001,-0.91035798,0.920434815,4.13990285,2.75106515,-5.576310250000001
175,1747638638950,1.0710076,-0.91352886,0.8855395,4.1885033,2.70277,-5.5081625
176,1747638638960,1.0068271,-0.90596753,0.8149866,4.313727,2.1395688,-5.1654773
177,1747638638970,0.9264717575,-0.8699745725,0.6923041249999999,4.3068550000000005,1.8008540000000002,-5.03628305
178,1747638638980,0.846116415,-0.833981615,0.56962165,4.299983,1.4621392,-4.9070888
179,1747638638990,0.85965383,-0.81788313,0.4928641,4.256384,0.9838459,-4.7598743
180,1747638639000,0.8772310649999999,-0.787256315,0.39817871000000005,4.0613709,0.63321956,-4.6865726500000005
181,1747638639010,0.8948083,-0.7566295,0.30349332,3.8663578,0.28259322,-4.613271
182,1747638639020,0.9067602,-0.6816861,0.23342825,3.2289386,0.44568944,-4.5210333
183,1747638639030,0.86784028,-0.66924635,0.267851,3.05698515,0.72759547,-4.41718935
184,1747638639040,0.82892036,-0.6568066,0.30227375,2.8850317,1.0095015,-4.3133454
185,1747638639050,0.79108274,-0.65729445,0.34252,2.8432648,1.0021713,-4.1966734
186,1747638639060,0.72348732,-0.642888125,0.380479515,2.8619339,0.9022977750000001,-4.1496382
187,1747638639070,0.6558919,-0.6284818,0.41843903,2.880603,0.80242425,-4.102603
188,1747638639080,0.62439615,-0.5996996,0.3559354,3.2881145,-0.3582619,-3.789849
189,1747638639090,0.6355096250000001,-0.5959189149999999,0.29541357,3.3426326499999996,-0.50058932,-3.7302915
190,1747638639100,0.6466231,-0.59213823,0.23489174,3.3971508,-0.64291674,-3.670734
191,1747638639110,0.66955125,-0.553325,-0.057716787,3.2626116,-0.5531222,-3.5088594
192,1747638639120,0.66955125,-0.553325,-0.057716787,3.2626116,-0.5531222,-3.5088594
193,1747638639130,0.5265551,-0.48768088,-0.19851768,2.8893838,-0.018019995,-3.2443626
194,1747638639140,0.49152257,-0.47902184000000003,-0.22365634,2.7578989,0.03726168049999999,-3.13471545
195,1747638639150,0.45649004,-0.4703628,-0.248795,2.626414,0.092543356,-3.0250683
196,1747638639160,0.32886064,-0.47353375,-0.31736606,2.1796558,-0.23975755,-2.6224437
197,1747638639170,0.2987217,-0.498306545,-0.364838345,1.98994955,-0.26388601,-2.4950820499999997
198,1747638639180,0.26858276,-0.52307934,-0.41231063,1.8002433,-0.28801447,-2.3677204
199,1747638639190,0.099457026,-0.5733261,-0.44307464,1.6020997,-0.14629792,-2.2119544
200,1747638639200,-0.20840392950000003,-0.6113390075,-0.4590511825,1.61393485,-0.095292173,-1.933408
201,1747638639210,-0.516264885,-0.649351915,-0.475027725,1.62577,-0.044286426,-1.6548616
202,1747638639220,-0.69272333,-0.73367083,-0.8725814,1.6681476,0.1750841,-1.2077214
203,1747638639230,-0.7376192500000001,-0.741979265,-0.9631201999999999,1.541664,0.3623088,-1.2242142999999999
204,1747638639240,-0.78251517,-0.7502877,-1.053659,1.4151804,0.5495335,-1.2407072
205,1747638639250,-1.2755013,-0.8017541,-1.0944235,0.562743,1.187258,-1.3842562
206,1747638639260,-1.4924498499999999,-0.81640435,-1.026096415,0.43877920000000004,1.14236075,-1.3647091
207,1747638639270,-1.7093984,-0.8310546,-0.95776933,0.3148154,1.0974635,-1.345162
208,1747638639280,-2.1650348,-0.8205661,-1.0038695,0.8101362,0.5263213,-1.1496909
209,1747638639290,-2.1650348,-0.8205661,-1.0038695,0.8101362,0.5263213,-1.1496909
210,1747638639300,-2.4776752,-0.81154126,-1.306753,1.1515998,-0.23609246,-0.8509866
211,1747638639310,-2.573892675,-0.8051841925000001,-1.409739225,1.1310219,-0.34971005499999996,-0.61794837
212,1747638639320,-2.67011015,-0.798827125,-1.51272545,1.110444,-0.46332765,-0.38491014
213,1747638639330,-2.6875653,-0.79833925,-1.5461572,0.9509365,-0.5012002,-0.028709821
214,1747638639340,-2.6555816500000002,-0.7974855249999999,-1.58227215,0.64967425,-0.5598415,0.31275378949999993
215,1747638639350,-2.623598,-0.7966318,-1.6183871,0.348412,-0.6184828,0.6542174
216,1747638639360,-2.380779,-0.7778503,-1.4143509,-0.39239302,-0.4315636,1.4116681
217,1747638639370,-2.3180619499999997,-0.77272805,-1.3322424000000002,-0.49024311,-0.40560258,1.5555226
218,1747638639380,-2.2553449,-0.7676058,-1.2501339,-0.5880932,-0.37964156,1.6993771
219,1747638639390,-1.9617609,-0.7180602,-1.104912,-0.7046123,-0.25686127,2.0964277
220,1747638639400,-1.79068375,-0.69511675,-1.08562735,-0.790111825,-0.2547233075,2.25893225
221,1747638639410,-1.6196066,-0.6721733,-1.0663427,-0.87561135,-0.252585345,2.4214368
222,1747638639420,-1.50795375,-0.6610751349999999,-1.0663427,-1.0899424,-0.285876525,2.68383385
223,1747638639430,-1.333644875,-0.6546723324999999,-1.0663427,-1.29386995,-0.24937839750000002,2.858078025
224,1747638639440,-1.159336,-0.64826953,-1.0663427,-1.4977975,-0.21288027,3.0323222
225,1747638639450,-0.6102185,-0.63851285,-0.87941104,-2.4336154,0.036956258,3.6242332
226,1747638639460,-0.6102185,-0.63851285,-0.87941104,-2.4336154,0.036956258,3.6242332
227,1747638639470,-0.42279905,-0.6067732,-0.693699,-2.8423486,0.16958646,3.8221476
228,1747638639480,-0.29442266500000003,-0.61921295,-0.4991907,-2.97383345,0.346426745,3.92843495
229,1747638639490,-0.16604628,-0.6316527,-0.3046824,-3.1053183,0.52326703,4.0347223
230,1747638639500,0.096042186,-0.6243352,-0.019635292,-2.652986,0.38399386,4.3951225
231,1747638639510,0.19623096299999998,-0.63044835,-0.039285828499999995,-2.5495238000000002,0.344899635,4.4491825
232,1747638639520,0.29641974,-0.6365615,-0.058936365,-2.4460616,0.30580541,4.5032425
233,1747638639530,0.44551378,-0.59165037,-0.11799469,-2.410556,0.21540001,4.549667
234,1747638639540,0.53361344,-0.6065292849999999,-0.129336815,-2.5854874,0.006299359249999997,4.62021975
235,1747638639550,0.6217131,-0.6214082,-0.14067894,-2.7604188,-0.2028012915,4.6907725
236,1747638639560,0.7083645,-0.6243352,-0.06357078,-2.9831870499999997,-0.44164258,4.7671285
237,1747638639570,0.78217978,-0.6261646000000001,0.016845495000000002,-3.087851925,-0.33917294,4.78820275
238,1747638639580,0.85599506,-0.627994,0.09726177,-3.1925168,-0.2367033,4.809277
239,1747638639590,0.8979792,-0.60140705,0.19440159,-3.165716,0.0051922016,4.7225366
240,1747638639600,0.938377915,-0.63154599,0.214402755,-3.1473523500000002,-0.0006108472000000004,4.633047299999999
241,1747638639610,0.97877663,-0.66168493,0.23440392,-3.1289887,-0.006413896,4.543558
242,1747638639620,0.9677699,-0.6570505,0.42722008,-3.0062084,-0.4639385,4.1391773
243,1747638639630,0.9677699,-0.6570505,0.42722008,-3.0062084,-0.4639385,4.1391773
244,1747638639640,0.9109068,-0.64119595,0.55558115,-2.3744397,-1.7558805,3.8270345
245,1747638639650,0.938972475,-0.638268945,0.511523725,-2.24578,-2.03992445,3.81787175
246,1747638639660,0.96703815,-0.63534194,0.4674663,-2.1171203,-2.3239684,3.808709
247,1747638639670,1.0324383,-0.5716187,0.31422567,-1.9949508,-2.4498029,3.8496358
248,1747638639680,1.03146265,-0.5555202,0.31410368499999997,-2.0557301,-2.1678968999999997,3.8878138
249,1747638639690,1.030487,-0.5394217,0.3139817,-2.1165094,-1.8859909,3.9259918
250,1747638639700,1.0199986,-0.5374704,0.34544697,-2.1800375,-1.6001143,3.9760811
251,1747638639710,1.0017048000000002,-0.52966505,0.460636635,-2.21367225,-1.5640743499999998,4.0084560499999995
252,1747638639720,0.983411,-0.5218597,0.5758263,-2.247307,-1.5280344,4.040831
253,1747638639730,1.1232363,-0.573814,0.7488547,-2.0423677,-2.3203032,4.200873
254,1747638639740,1.1969982250000002,-0.5602689875,0.7323293275,-1.99094205,-2.5561285,4.21247915
255,1747638639750,1.27076015,-0.546723975,0.7158039549999999,-1.9395164,-2.7919538,4.2240853
256,1747638639760,1.3360535,-0.4610635,0.7234873,-1.7719152,-2.9483306,4.254017
257,1747638639770,1.37533935,-0.40115146,0.68432345,-1.82551705,-2.55765565,4.3893195
258,1747638639780,1.4146252,-0.34123942,0.6451596,-1.8791189,-2.1669807,4.524622
259,1747638639790,1.4959104,-0.30538365,0.6571115,-2.0647402,-1.9324152,4.665117
260,1747638639800,1.5440992,-0.27804975,0.67516135,-2.19966105,-1.7326682,4.7390295
261,1747638639810,1.592288,-0.25071585,0.6932112,-2.3345819,-1.5329212,4.812942
262,1747638639820,1.8897749,-0.16821103,0.8611173,-2.796917,-1.2727003,4.8300457
263,1747638639830,2.09746995,0.005671059999999978,1.11468395,-2.7302201000000004,-1.62241035,4.52798185
264,1747638639840,2.305165,0.17955315,1.3682506,-2.6635232,-1.9721204,4.225918
265,1747638639850,2.3783705,0.270335895,1.4400078,-2.46725035,-2.1324678,4.0066237000000005
266,1747638639860,2.451576,0.36111864,1.511765,-2.2709775,-2.2928152,3.7873294
267,1747638639870,2.5069757,0.84114665,1.301143,-1.8497982,-2.1242213,3.1062346
268,1747638639880,2.5235771,0.935969225,1.21926325,-1.9544822,-1.8804932499999998,3.0613374
269,1747638639890,2.5401785,1.0307918,1.1373835,-2.0591662,-1.6367652,3.0164402
270,1747638639900,2.6631737,1.2360172,1.2899228,-3.0174327,-0.99109966,2.8276882
271,1747638639910,2.971888375,1.3565807,1.7190179250000002,-3.15918745,-1.1551121800000002,2.603030125
272,1747638639920,3.28060305,1.4771442000000001,2.14811305,-3.3009421999999997,-1.3191247000000001,2.3783720500000003
273,1747638639930,3.8167775,1.6865313,2.8181522,-3.4773245,-1.7442744,1.8246008
274,1747638639940,3.914771,1.74973625,3.0070352500000004,-3.5209235999999997,-1.46725515,1.6196614999999999
275,1747638639950,4.0127645,1.8129412,3.1959183,-3.5645227,-1.1902359,1.4147222
276,1747638639960,3.6654577,1.9762127,4.184787,-3.001856,1.2886586,0.34879377
277,1747638639970,3.48938045,1.9775543,4.5684375,-1.1033428,1.5027606,-0.322565545
278,1747638639980,3.3133032,1.9788959,4.952088,0.7951704,1.7168626,-0.99392486
279,1747638639990,3.3135622,1.82259115,4.6426333,0.7951704,1.7168626,-0.99392486
280,1747638640000,3.3767747,1.6935515749999999,4.05838445,2.48901155,1.05256619,-1.8610225800000002
281,1747638640010,3.4399872,1.564512,3.4741356,4.1828527,0.38826978,-2.7281203
282,1747638640020,3.1812832,1.2408956,1.7133317,4.9411435,-0.27335414,-4.562571
283,1747638640030,3.0593859,1.18183725,1.48722095,4.73677675,-0.252279915,-4.774535
284,1747638640040,2.9374886,1.1227789,1.2611102,4.53241,-0.23120569,-4.986499
285,1747638640050,2.5257876,1.0022231,0.8540437,3.3485882,0.24899662,-5.130048
286,1747638640060,2.5257876,1.0022231,0.8540437,3.3485882,0.24899662,-5.130048
287,1747638640070,2.2409844,0.7452569,0.89871097,1.9572309,1.5543772,-4.9712276
288,1747638640080,2.1462836,0.6381165,0.98679537,1.8494164,1.8188741,-4.9443502
289,1747638640090,2.11931575,0.55916373,0.9886400099999999,1.95940705,1.81704155,-5.0118489
290,1747638640100,2.0923479,0.48021096,0.99048465,2.0693977,1.815209,-5.0793476
291,1747638640110,2.05586695,0.40138013,0.935207025,2.19836285,1.7153355000000001,-5.2051820499999994
292,1747638640120,2.019386,0.3225493,0.8799294,2.327328,1.615462,-5.3310165
293,1747638640130,1.9393204,0.23056222,0.7603492,2.4750004,1.3436348,-5.561917
294,1747638640140,1.8651392,0.18552911,0.6030534599999999,2.50054145,1.131365425,-5.7357412
295,1747638640150,1.790958,0.140496,0.44575772,2.5260825,0.91909605,-5.9095654
296,1747638640160,1.5046915,0.052381106,0.010854292,1.8444533,1.1200649,-6.083046
297,1747638640170,1.45026755,0.034209313,0.016601578999999998,1.5983200499999999,1.2379584000000001,-6.04395175
298,1747638640180,1.3958436,0.01603752,0.022348866,1.3521868,1.3558519,-6.0048575
299,1747638640190,1.2335476,-0.10183521,0.19196242,0.59145284,1.8573575,-5.615061
300,1747638640200,1.215421525,-0.1587668825,0.32722184249999997,0.68613417,1.9373784,-5.428141699999999
301,1747638640210,1.19729545,-0.21569855500000001,0.462481265,0.7808155,2.0173993,-5.2412224
302,1747638640220,1.195466,-0.29928577,0.56363046,1.1216683,1.8872889,-5.1893
303,1747638640230,1.1964416999999998,-0.320750435,0.54202858,1.3098474,1.79963235,-5.1859405
304,1747638640240,1.1974174,-0.3422151,0.5204267,1.4980265,1.7119758,-5.182581
305,1747638640250,1.1866851,-0.46402097,0.23781876,1.949748,1.1377794,-5.4128704
306,1747638640260,1.1472773,-0.48499781,0.18560534499999998,1.95410035,1.037295,-5.4424965499999995
307,1747638640270,1.1078695,-0.50597465,0.13339193,1.9584527,0.9368106,-5.4721227
308,1747638640280,0.95776933,-0.5282015,0.04454528,1.7460306,0.60267717,-5.3493423
309,1747638640290,0.827700765,-0.500379775,0.10787215,1.63294745,0.671702935,-5.12057995
310,1747638640300,0.6976322,-0.47255805,0.17119902,1.5198643,0.7407287,-4.8918176
311,1747638640310,0.65272102,-0.448273105,0.25990845,1.5618982,0.7162947749999999,-4.7549878
312,1747638640320,0.60780984,-0.42398816,0.34861788,1.6039321,0.69186085,-4.618158
313,1747638640330,0.516524,-0.3353854,0.60756594,2.2638,0.12682717,-4.169796
314,1747638640340,0.5741188500000001,-0.35247481999999997,0.60317547,2.5631915,-0.21925599,-4.1175685
315,1747638640350,0.6317137,-0.36956424,0.598785,2.862583,-0.56533915,-4.065341
316,1747638640360,0.82672507,-0.58823556,0.23220867,4.1909466,-3.3820322,-4.8203483
317,1747638640370,0.8278227149999999,-0.60567558,0.13727935,4.2501608,-3.79313245,-5.02742565
318,1747638640380,0.82892036,-0.6231156,0.04235003,4.309375,-4.2042327,-5.234503
319,1747638640390,0.52850646,-0.6450986,-0.5099383,3.6788275,-4.4363546,-6.060445
320,1747638640400,0.393544315,-0.6241065,-0.5360526,3.369128,-4.1407045,-5.98531065
321,1747638640410,0.25858217,-0.6031144,-0.5621669,3.0594285,-3.8450544,-5.9101763
322,1747638640420,-0.0762392075,-0.52904,-0.5865586,2.222644,-2.3325202,-4.7757564
323,1747638640430,-0.20570560375000002,-0.48651467,-0.6084043800000001,1.7388148499999998,-1.4764178,-3.70917895
324,1747638640440,-0.335172,-0.44398934,-0.63025016,1.2549857,-0.6203154,-2.6426015
325,1747638640450,-0.2060791,-0.48402217,-0.70809007,0.7659261,-0.111479625,-1.8808751
326,1747638640460,-0.14153264999999998,-0.49402273499999994,-0.68014637,0.435686805,0.15183372250000002,-1.6017179
327,1747638640470,-0.0769862,-0.5040233,-0.65220267,0.10544751,0.41514707,-1.3225607
328,1747638640480,0.06823569,-0.58994293,-0.49771196,-0.503949,0.97346145,-1.2871315
329,1747638640490,-0.30125233999999995,-0.775045215,-0.345797615,-0.746951675,1.258116275,-1.91630425
330,1747638640500,-0.67074037,-0.9601475,-0.19388327,-0.98995435,1.5427711,-2.545477
331,1747638640510,-1.3345596,-1.1558907,0.024056282,-1.0073634,1.291102,-3.162509
332,1747638640520,-1.3345596,-1.1558907,0.024056282,-1.0073634,1.291102,-3.162509
333,1747638640530,-2.281688,-1.4004171,0.47014937,-0.33138463,-0.114533864,-3.518633
334,1747638640540,-2.7281775,-1.4933341000000002,0.3838867225,0.1720680275,-0.7763868820000001,-3.217466175
335,1747638640550,-3.1746670000000003,-1.5862511000000001,0.297624075,0.675520685,-1.4382399000000001,-2.91629935
336,1747638640560,-3.2886372,-1.5971054,0.21269535,0.80387497,-1.594006,-2.6340497
337,1747638640570,-3.41933085,-1.58698285,0.03125182500000001,0.64936881,-1.2116156,-1.8543032
338,1747638640580,-3.5500245,-1.5768603,-0.1501917,0.49486265,-0.8292252,-1.0745567
339,1747638640590,-3.4326394,-1.5941783,-0.095523864,-0.09025268,0.7724927,0.9113841
340,1747638640600,-3.3145075,-1.589422,-0.1100521495,-0.117969875,0.9273425,1.2760599
341,1747638640610,-3.1963756,-1.5846657,-0.124580435,-0.14568707,1.0821923,1.6407357
342,1747638640620,-2.7615025,-1.4704516,-0.29907233,-0.19363858,1.4297644,2.4959981
343,1747638640630,-2.61849115,-1.4340928000000002,-0.37741531500000003,-0.2959936825,1.2950725375,2.771795675
344,1747638640640,-2.4754798,-1.397734,-0.4557583,-0.39834878500000004,1.160380675,3.0475932500000003
345,1747638640650,-2.2050679,-1.3250164,-0.5033525,-0.49585527,0.98506755,3.1899207
346,1747638640660,-1.93893945,-1.24533185,-0.5412968,-0.6776395925,0.68544697,3.43624485
347,1747638640670,-1.672811,-1.1656473,-0.5792411,-0.859423915,0.38582638999999996,3.682569
348,1747638640680,-1.0697576,-1.021889,-0.65220267,-1.3413442,0.6515449,4.1061916
349,1747638640690,-0.95834865,-0.9963844,-0.592778485,-1.4784412,0.7501967700000001,4.2448539499999995
350,1747638640700,-0.8469397,-0.9708798,-0.5333543,-1.6155382,0.84884864,4.3835163
351,1747638640710,-0.46210015,-0.901577,-0.34764224,-1.772526,1.0504283,4.839208
352,1747638640720,-0.245136262,-0.8676573,-0.28529103499999997,-1.750421,1.10693165,5.04143685
353,1747638640730,-0.028172374,-0.8337376,-0.22293983,-1.728316,1.163435,5.2436657
354,1747638640740,0.07774844,-0.7968757,-0.16851594,-1.6641006,1.0980743,5.2522173
355,1747638640750,0.07774844,-0.7968757,-0.16851594,-1.6641006,1.0980743,5.2522173
356,1747638640760,0.3237384,-0.7768746,-0.2148906,-1.6447825,0.8543463,5.093397
357,1747638640770,0.44063547,-0.7810212,-0.23440392,-1.7357988,0.56724805,4.8538685
358,1747638640780,0.44063547,-0.7810212,-0.23440392,-1.7357988,0.56724805,4.8538685
359,1747638640790,0.48579055,-0.806419,-0.21635409,-1.7825286,0.35833827,4.8141637
360,1747638640800,0.479326755,-0.80898013,-0.1310594785,-1.7806579500000002,0.1671049015,4.90456915
361,1747638640810,0.47286296,-0.81154126,-0.045764867,-1.7787873,-0.024128467,4.9949746
362,1747638640820,0.6776005,-0.8769414,-0.09210903,-1.5451381,0.1830251,5.478231
363,1747638640830,0.748869925,-0.88840548,-0.140069145,-1.59778555,0.34856469999999995,5.5283203499999996
364,1747638640840,0.82013935,-0.89986956,-0.18802926,-1.650433,0.5141043,5.5784097
365,1747638640850,1.115431,-0.98993576,-0.41938424,-2.157589,0.9416974,5.4959455
366,1747638640860,1.1382524,-1.03153878,-0.39119662,-2.5837695,0.91084962,5.3878255
367,1747638640870,1.1610738,-1.0731418,-0.363009,-3.00995,0.88000184,5.2797055
368,1747638640880,1.0961615,-1.1017106,-0.09869478,-3.4635804,0.37849623,5.2357244
369,1747638640890,1.07687685,-1.0692545,0.27554961,-3.290367,-0.4434369349999999,5.30230685
370,1747638640900,1.0575922,-1.0367984,0.649794,-3.1171536,-1.2653701,5.3688893
371,1747638640910,1.4082835,-1.0465549,0.52408546,-1.9806722,-1.7845902,5.4202003
372,1747638640920,1.5081063000000001,-1.0780354,0.379854485,-1.7136556500000002,-1.69571195,5.231448650000001
373,1747638640930,1.6079291,-1.1095159,0.23562351,-1.4466391,-1.6068337,5.042697
374,1747638640940,1.5368885,-1.1480547,0.14217293,-1.7033476,-1.8084133,4.539893
375,1747638640950,1.4647806,-1.1476888500000002,0.21550038500000002,-1.82486805,-2.22779815,4.6037265000000005
376,1747638640960,1.3926727,-1.147323,0.28882784,-1.9463885,-2.647183,4.66756
377,1747638640970,1.3558108,-1.0643609,0.50920653,-1.8485765,-3.0637808,4.968708
378,1747638640980,1.41279585,-1.07753235,0.548126485,-1.67536315,-3.0136913,5.1064922500000005
379,1747638640990,1.4697809,-1.0907038,0.58704644,-1.5021498,-2.9636018,5.2442765
380,1747638641000,1.6818665,-1.1426886,0.7347075,-0.8198334,-2.6923857,5.2992525
381,1747638641010,1.6818665,-1.1426886,0.7347075,-0.8198334,-2.6923857,5.2992525
382,1747638641020,1.8212038,-1.1585736,0.7330001,-0.38865158,-2.8121116,5.3407903
383,1747638641030,1.7966749499999999,-1.1197604,0.73092678,-0.34692307,-2.78004215,5.42203315
384,1747638641040,1.7721461,-1.0809472,0.72885346,-0.30519456,-2.7479727,5.503276
385,1747638641050,1.9368813,-0.9357558,0.6007363,-0.07711947,-2.1865277,6.4116054
386,1747638641060,2.1124708500000002,-0.94880535,0.498474215,-0.081471755,-2.0881813,6.53530195
387,1747638641070,2.2880604,-0.9618549,0.39621213,-0.08582404,-1.9898349,6.6589985
388,1747638641080,2.6734183,-0.98896015,0.2917548,-0.3736858,-1.9556274,6.666329
389,1747638641090,2.908988425,-0.716718655,0.5946231074999999,-0.6885202749999999,-2.198458375,6.479256925
390,1747638641100,3.14455855,-0.44447716,0.897491415,-1.00335475,-2.44128935,6.29218485
391,1747638641110,3.4270294,0.2549539,1.14714,-0.4010976,-2.46935,6.0872455
392,1747638641120,3.5676015999999997,0.45275508500000006,1.01133945,-0.280875215,-2.3126677,5.9895101
393,1747638641130,3.7081738,0.65055627,0.8755389,-0.16065283,-2.1559854,5.8917747
394,1747638641140,4.1323447,1.2626346,0.09311519,-0.8485432,-1.1596935,5.1996846
395,1747638641150,4.1323447,1.2626346,0.09311519,-0.8485432,-1.1596935,5.1996846
396,1747638641160,4.67509,2.0670109,0.10555494,-4.01067,0.3418454,4.101916
397,1747638641170,4.753174,2.1797612,0.9001745,-4.9945164,0.859233,3.2846022
398,1747638641180,4.7026678,2.2718855500000004,1.7166398000000003,-5.1001165,0.9093225,2.9898683000000004
399,1747638641190,4.6521616,2.3640099,2.5331051,-5.2057166,0.959412,2.6951344
400,1747638641200,4.8024904500000005,2.42855635,2.82449405,-4.3140706,0.6830036,1.9834592
401,1747638641210,4.9528193,2.4931028,3.115883,-3.4224246,0.4065952,1.271784
402,1747638641220,5.4274817,2.5050547,3.1776245,-2.2448637,0.60206634,0.27732465
403,1747638641230,5.79062785,2.3392371,3.06560575,-1.4946669,0.86900662,-0.669526775
404,1747638641240,6.153774,2.1734195,2.953587,-0.7444701,1.1359469,-1.6163782
405,1747638641250,5.420408,1.2328464,2.7475994,0.9254336,1.8567466,-5.1483736
406,1747638641260,5.0764245,1.02028825,2.5426026999999998,1.452862,1.8274259,-5.81057
407,1747638641270,4.732441,0.8077301,2.337606,1.9802904,1.7981052,-6.4727664
408,1747638641280,3.8914464,0.5153654,1.5183507,2.600224,1.5348301,-7.270533
409,1747638641290,3.59432545,0.4109081,1.28675185,2.4503755,1.6844877,-7.2558727
410,1747638641300,3.2972045,0.3064508,1.055153,2.300527,1.8341453,-7.2412124
411,1747638641310,3.2322922,0.24227023,1.0029244,2.300527,1.8341453,-7.2412124
412,1747638641320,3.2806182,0.203456995,0.9112879,2.288692,1.8769046,-7.0976634
413,1747638641330,3.3289442,0.16464376,0.8196514,2.276857,1.9196639,-6.9541144
414,1747638641340,3.2798867,-0.048874803,0.57680196,1.8781263,2.123076,-7.403087
415,1747638641350,3.18384445,-0.0842732065,0.57143578,1.8347943,2.0693214,-7.5105962
416,1747638641360,3.0878022,-0.11967161,0.5660696,1.7914623,2.0155668,-7.6181054
417,1747638641370,2.659515,-0.29343176,0.49042496,1.7248036,1.9184421,-7.8526707
418,1747638641380,2.34884135,-0.322838965,0.50237688,1.7316756500000001,1.81093305,-7.6709435
419,1747638641390,2.0381677,-0.35224617,0.5143288,1.7385477,1.703424,-7.4892163
420,1747638641400,1.8329118,-0.34294683,0.4484408,1.6942612,1.6905961,-7.206394
421,1747638641410,1.8329118,-0.34294683,0.4484408,1.6942612,1.6905961,-7.206394
422,1747638641420,1.817545,-0.330751,0.3310559,1.5784293,1.7987161,-6.755589
423,1747638641430,1.97215775,-0.40006907,0.25503012,1.3151541,2.0742083,-6.525605
424,1747638641440,2.1267705,-0.46938714,0.17900434,1.0518789,2.3497005,-6.295621
425,1747638641450,2.2429357,-0.63509804,0.3442274,1.0537878,2.230585,-6.600434
426,1747638641460,2.2317003499999997,-0.668285935,0.36217051499999997,1.155952,2.1756088,-6.707943
427,1747638641470,2.220465,-0.70147383,0.38011363,1.2581162,2.1206326,-6.815452
428,1747638641480,1.9207828,-0.82544446,0.12238518,1.9684553,1.7596219,-7.258316
429,1747638641490,1.85294355,-0.82971298,0.01782115999999999,2.02732575,1.6307331,-7.21067
430,1747638641500,1.7851043,-0.8339815,-0.08674286,2.0861962,1.5018443,-7.163024
431,1747638641510,1.7106487,-0.83227414,-0.51847535,1.6550143,1.283161,-6.899138
432,1747638641520,1.700465125,-0.83221317,-0.560078375,1.241146195,1.3159940749999999,-6.800944250000001
433,1747638641530,1.69028155,-0.8321522,-0.6016814,0.82727809,1.34882715,-6.7027505000000005
434,1747638641540,1.5669206,-0.8742583,-0.39816347,-0.0017561859,1.6197379,-6.5326295
435,1747638641550,1.4947975,-0.869258025,-0.282485995,-0.04191939295,1.67257615,-6.4816239
436,1747638641560,1.4226744,-0.86425775,-0.16680852,-0.0820826,1.7254144,-6.4306183
437,1747638641570,1.1215289,-0.8835272,0.11799469,0.27923355,1.6124077,-6.003636
438,1747638641580,0.96717535,-0.8583885,0.15388093,0.62195705,1.3036244000000001,-5.7021447
439,1747638641590,0.8128218,-0.8332498,0.18976717,0.96468055,0.9948411,-5.4006534
440,1747638641600,1.0114615,-0.81715137,-0.19778593,2.0051825,0.12499462,-4.502097
441,1747638641610,1.1043175,-0.8505831850000001,-0.55190719,1.6413084,0.143014615,-4.495377700000001
442,1747638641620,1.1971735,-0.884015,-0.90602845,1.2774343,0.16103461,-4.4886584
443,1747638641630,0.96533066,-0.89108855,-0.87794757,0.6649836,0.5257104,-4.517979
444,1747638641640,0.79522933,-0.895357105,-0.7864330850000001,0.45748642,0.73064968,-4.4498695
445,1747638641650,0.625128,-0.89962566,-0.6949186,0.24998924,0.93558896,-4.38176
446,1747638641660,0.08945644,-0.907431,-0.4337753,0.16645588,1.4279318,-3.6493542
447,1747638641670,0.08945644,-0.907431,-0.4337753,0.16645588,1.4279318,-3.6493542
448,1747638641680,-0.43426317,-1.1273218,-0.4499043,0.7172874,0.8549571,-2.480727
449,1747638641690,-0.468792615,-1.1577047,-0.595598775,0.742523035,0.6610131,-2.31885255
450,1747638641700,-0.50332206,-1.1880876,-0.74129325,0.76775867,0.4670691,-2.1569781
451,1747638641710,-0.7586113,-1.3455054,-1.1359199,-0.20547375,0.6698704,-2.1191056
452,1747638641720,-1.01217795,-1.3596525499999998,-1.01559277,-0.5117373000000001,0.82930152,-2.1255194
453,1747638641730,-1.2657446,-1.3737997,-0.89526564,-0.81800085,0.98873264,-2.1319332
454,1747638641740,-1.7572367,-1.5397545,-0.59314436,-0.8634326,1.0333245,-2.017094
455,1747638641750,-1.996099675,-1.6372602,-0.59577408,-0.514982416,0.565549115,-1.99983755
456,1747638641760,-2.23496265,-1.7347659,-0.5984038,-0.166532232,0.09777372999999998,-1.9825811
457,1747638641770,-2.6450932,-1.8889822,-0.7295853,0.06620057,-0.83044684,-1.8552195
458,1747638641780,-2.72465585,-1.92035595,-0.76582215,-0.004237751999999997,-1.00728712,-1.71350295
459,1747638641790,-2.8042185,-1.9517297,-0.802059,-0.074676074,-1.1841274,-1.5717864
460,1747638641800,-3.020664,-1.9153557,-0.70711446,-0.5519005,-1.0075926,-0.6946097
461,1747638641810,-3.0459245,-1.88485085,-0.59119305,-0.656889885,-0.7293516499999999,-0.19703642999999998
462,1747638641820,-3.071185,-1.854346,-0.47527164,-0.76187927,-0.4511107,0.30053684
463,1747638641830,-2.8325129,-1.7442787,-0.2712658,-0.50142926,-0.3051182,1.6944903
464,1747638641840,-2.7440473,-1.7127982,-0.28443731,-0.424806105,-0.30664531500000003,1.92539055
465,1747638641850,-2.6555817,-1.6813177,-0.29760882,-0.34818295,-0.30817243,2.1562908
466,1747638641860,-2.1240568,-1.4384986,-0.3632529,-0.09521582,-0.31122667,3.1746495
467,1747638641870,-2.1240568,-1.4384986,-0.3632529,-0.09521582,-0.31122667,3.1746495
468,1747638641880,-1.7023249,-1.2771782,-0.56363046,0.0019852535,-0.17134266,3.6107945
469,1747638641890,-1.1712879,-1.0811912,-0.7530012,-0.3600181,0.19035527,3.9791355
470,1747638641900,-1.1712879,-1.0811912,-0.7530012,-0.3600181,0.19035527,3.9791355
471,1747638641910,-0.6665938,-0.85642195,-0.69833344,-0.8515974,0.25693762,4.4494877
472,1747638641920,-0.572518175,-0.8026230750000001,-0.6548857699999999,-0.9397885,0.148779482,4.61533285
473,1747638641930,-0.47844255,-0.7488242,-0.6114381,-1.0279796,0.040621344,4.781178
474,1747638641940,-0.08479153,-0.6902232,-0.5357935,-1.2952253,0.024739314,5.261991
475,1747638641950,0.024300199999999994,-0.68363745,-0.503215365,-1.4259466,0.120985932,5.417604325
476,1747638641960,0.13339193,-0.6770517,-0.47063723,-1.5566678999999999,0.21723255000000002,5.57321765
477,1747638641970,0.4223417,-0.67924696,-0.38203448,-1.6996062,0.29419932,5.7311215
478,1747638641980,0.46687176499999994,-0.694507,-0.367155565,-1.7201841,0.24594238499999999,5.7470035500000005
479,1747638641990,0.51140183,-0.70976704,-0.35227665,-1.740762,0.19768545,5.7628856
480,1747638642000,0.7598614,-0.72952425,-0.3442274,-1.7625997,-0.22021043,5.757388
481,1747638642010,0.7776673000000001,-0.7289144750000001,-0.35874045,-1.7728696,-0.23884128000000002,5.7433385
482,1747638642020,0.7954732,-0.7283047,-0.3732535,-1.7831395,-0.25747213,5.729289
483,1747638642030,0.84233576,-0.74245185,-0.41450587,-2.0217516,-0.29778802,5.7396736
484,1747638642040,0.90968725,-0.775776955,-0.36776533499999997,-2.28594315,-0.34757208500000003,5.7692998
485,1747638642050,0.97703874,-0.80910206,-0.3210248,-2.5501347,-0.39735615,5.798926
486,1747638642060,1.0073149,-0.8610564,-0.099457026,-2.7918775,-0.44683477,5.7628856
487,1747638642070,1.01573,-0.88278017,0.06003399199999998,-2.84234875,-0.512195435,5.736008399999999
488,1747638642080,1.0241451,-0.90450394,0.21952501,-2.89282,-0.5775561,5.7091312
489,1747638642090,1.1603421,-0.94624424,0.33032414,-2.605569,-0.9856021,5.6963034
490,1747638642100,1.1603421,-0.94624424,0.33032414,-2.605569,-0.9856021,5.6963034
491,1747638642110,1.3223943,-0.9647819,0.32739717,-2.1930943,-1.3557755,5.5710797
492,1747638642120,1.39157515,-0.98931075,0.226476635,-2.05508105,-1.47122565,5.41684085
493,1747638642130,1.460756,-1.0138396,0.1255561,-1.9170678,-1.5866758,5.262602
494,1747638642140,1.4407548,-1.0624095,0.055033702,-2.0890977,-1.6911306,4.94122
495,1747638642150,1.3509324999999999,-1.0184740300000001,0.23208671099999997,-2.097038675,-1.8630841500000002,4.9082341
496,1747638642160,1.2611102,-0.97453856,0.40913972,-2.1049796499999998,-2.0350377,4.8752482
497,1747638642170,1.2506217,-0.94575644,0.52506113,-1.7968072,-2.5237155,4.9015145
498,1747638642180,1.318956525,-0.96046003,0.49492216,-1.5237585,-2.583005875,4.930071675000001
499,1747638642190,1.38729135,-0.97516362,0.46478319,-1.2507098,-2.6422962500000002,4.95862885
500,1747638642200,1.5390837,-1.0121323,0.31959182,-0.8921424,-2.7094893,4.9424415
501,1747638642210,1.5605636,-1.01749845,0.29506296,-0.86129462,-2.8011164500000003,4.94763375
502,1747638642220,1.5820435,-1.0228646,0.2705341,-0.83044684,-2.8927436,4.952826
503,1747638642230,1.7423881,-1.0094491,0.22976951,-1.1494619,-3.0723326,5.1489844
504,1747638642240,1.7697221500000002,-0.993838475,0.396212155,-1.41613485,-2.6923474,5.5038867
505,1747638642250,1.7970562,-0.97822785,0.5626548,-1.6828078,-2.3123622,5.858789
506,1747638642260,1.8609928,-0.98896015,0.88066113,-1.6192797,-1.9373021,6.1367245
507,1747638642270,1.9874025,-1.001155975,1.007680715,-1.127967635,-1.6694455499999998,6.37312225
508,1747638642280,2.1138122,-1.0133518,1.1347003,-0.63665557,-1.401589,6.60952
509,1747638642290,2.3033203,-1.0221328,1.0176813,-0.38773530999999994,-1.45809235,6.5276665000000005
510,1747638642300,2.4928284,-1.0309138,0.9006623,-0.13881505,-1.5145957,6.445813
511,1747638642310,2.695889,-0.9848135,0.57972896,-0.11079242,-1.9342479,6.040821
512,1747638642320,2.6513437,-0.7700449149999999,0.69747973,-0.533231485,-2.397919125,5.741047825000001
513,1747638642330,2.6067984,-0.55527633,0.8152305,-0.95567055,-2.86159035,5.44127465
514,1747638642340,2.6670763,-0.4159389,1.0426828,-1.1949699,-2.1193345,5.973017
515,1747638642350,2.74822435,-0.332595625,1.1695957,-1.11643785,-1.7940583499999998,6.211553
516,1747638642360,2.8293724,-0.24925235,1.2965086,-1.0379058,-1.4687822,6.450089
517,1747638642370,3.7633293,-0.07378479,1.0480795,-0.73759806,-0.7229377,6.6351757
518,1747638642380,4.19565645,0.06337260500000001,0.8949302800000001,-1.24009628,-0.81639735,5.490104199999999
519,1747638642390,4.6279836,0.20053,0.74178106,-1.7425945,-0.909857,4.3450327
520,1747638642400,4.728538,1.0241756,1.2828492,-2.0186212,-1.2690352,3.3847811
521,1747638642410,4.657528,1.3690280000000001,1.57545775,-1.9933855500000002,-1.35669175,3.1016533500000003
522,1747638642420,4.586518,1.7138804,1.8680663,-1.9681499,-1.4443483,2.8185256
523,1747638642430,4.8500695,2.2736998,2.0245085,-0.913293,-0.7174401,2.1501822
524,1747638642440,4.8500695,2.2736998,2.0245085,-0.913293,-0.7174401,2.1501822
525,1747638642450,5.233964,2.460418,1.8312043,-0.53258246,-0.09071082,1.8490347
526,1747638642460,5.7573175,2.30421985,1.6517122,-0.6154668,0.37204413999999997,1.1664128599999999
527,1747638642470,6.280671,2.1480217,1.4722201,-0.69835114,0.8347991,0.48379102
528,1747638642480,5.948274,1.2365052,2.451576,-0.76623154,1.9850246,-3.4398336
529,1747638642490,5.644933,1.03821615,2.7205094,-0.19489846,2.0442768,-4.1050463
530,1747638642500,5.341592,0.8399271,2.9894428,0.37643462,2.103529,-4.770259
531,1747638642510,4.846167,0.22592781,2.577254,3.2413845,1.4047196,-6.802624
532,1747638642520,4.4074369749999995,0.04544472250000001,1.71003879,3.6915791000000002,1.2391800499999999,-7.3545245
533,1747638642530,3.9687069499999996,-0.135038365,0.84282358,4.1417737,1.0736405,-7.906425
534,1747638642540,3.4595006,-0.10061563,0.17436993,3.9349253,1.343024,-8.209405
535,1747638642550,3.4332644,-0.0469234715,0.19792314,2.56536755,1.9807484999999998,-7.7231708
536,1747638642560,3.4070282,0.006768687,0.22147635,1.1958098,2.618473,-7.2369366
537,1747638642570,3.482185,-0.06744295,0.7242191,0.08926006,3.1255527,-6.95106
538,1747638642580,3.4579,-0.14308761,0.94153365,0.0515402395,3.1814452500000003,-6.975493999999999
539,1747638642590,3.433615,-0.21873227,1.1588482,0.013820419,3.2373378,-6.999928
540,1747638642600,3.29257,-0.5152435,1.6169541,1.1628242,3.0039942,-7.2894692
541,1747638642610,3.19581135,-0.7723469,1.47882105,2.1585052,2.6551622000000004,-7.7066780999999995
542,1747638642620,3.0990527,-1.0294503,1.340688,3.1541862,2.3063302,-8.123887
543,1747638642630,2.9028218,-1.2041861,1.007071,3.7529693,1.9300482,-8.52529
544,1747638642640,2.9028218,-1.2041861,1.007071,3.7529693,1.9300482,-8.52529
545,1747638642650,2.4088907,-1.340627,0.40523705,4.0370893,1.6001908,-8.783678
546,1747638642660,2.0899084,-1.3367243,0.07628494,3.6644728,1.3900594,-8.694494
547,1747638642670,2.0899084,-1.3367243,0.07628494,3.6644728,1.3900594,-8.694494
548,1747638642680,1.6393945,-1.2278765,-0.1253122,2.843876,1.586752,-8.005383
549,1747638642690,1.63012565,-1.2175099999999999,-0.13116619499999999,2.649473725,1.60614645,-7.7770785
550,1747638642700,1.6208568,-1.2071435,-0.13702019,2.45507145,1.6255409,-7.548774
551,1747638642710,1.7755609,-1.1741843,-0.27882725,1.8581973,1.6062993,-7.263814
552,1747638642720,1.76677985,-1.1585584,-0.2560058,1.67249975,1.5320813000000002,-7.2607595
553,1747638642730,1.7579988,-1.1429325,-0.23318435,1.4868022,1.4578633,-7.257705
554,1747638642740,1.6132954,-1.0577751,-0.13945936,1.1073134,1.1402228,-7.273587
555,1747638642750,1.4295194,-0.9837007,-0.055628247500000005,1.04470155,0.8699228800000001,-7.062234
556,1747638642760,1.2457434,-0.9096263,0.028202865,0.9820897,0.59962296,-6.850881
557,1747638642770,1.2201321,-0.82081,-0.050155364,1.0063709,0.5666372,-6.41046
558,1747638642780,1.2829712,-0.76053215,-0.205240632,0.8179245,0.8063947,-6.0415085
559,1747638642790,1.3458103,-0.7002543,-0.3603259,0.6294781,1.0461522,-5.672557
560,1747638642800,1.39364845,-0.6725544999999999,-0.41889639,0.321343836,1.3246986,-5.445589
561,1747638642810,1.4414866,-0.6448547,-0.47746688,0.013209572,1.603245,-5.218621
562,1747638642820,1.3875505,-0.6026266,-0.22903776,-0.8515974,2.2055404,-4.6853514
563,1747638642830,1.32140335,-0.5903088350000001,-0.0845628635,-0.8737406299999999,2.21592485,-4.5735662
564,1747638642840,1.2552562,-0.57799107,0.059912033,-0.89588386,2.2263093,-4.461781
565,1747638642850,0.9941434,-0.56186205,0.48164394,0.22318831,1.7565676,-3.8906388
566,1747638642860,0.8937107,-0.60372424,0.51556362,0.623522355,1.5699538,-3.75503075
567,1747638642870,0.793278,-0.64558643,0.5494833,1.0238564,1.38334,-3.6194227
568,1747638642880,0.6319576,-0.68924755,0.4926202,1.9734185,0.9105442,-3.2883434
569,1747638642890,0.4941370675,-0.7674685625,-0.08748225999999998,2.38123535,0.5434249950000001,-2.8518549
570,1747638642900,0.35631653500000005,-0.845689575,-0.66758472,2.7890522,0.17630579,-2.4153664
571,1747638642910,0.19269417,-0.83886,-1.5537187,1.7254144,0.7059104,-2.2541027
572,1747638642920,0.09592023082,-0.88047825,-1.63657415,0.9686892,1.1927556,-2.1945451499999997
573,1747638642930,-0.00085370836,-0.9220965,-1.7194296,0.211964,1.6796008,-2.1349876
574,1747638642940,-0.7068705,-1.2056496,-1.0256087,-1.6317258,3.4914503,-1.8619388
575,1747638642950,-1.1526282,-1.3471975500000002,-0.521768288,-0.9117659149999999,2.79962755,-1.68326595
576,1747638642960,-1.5983859,-1.4887455,-0.017927876,-0.19180603,2.1078048,-1.5045931
577,1747638642970,-1.838278,-1.4809401,-0.13970327,0.82136047,1.1945882,-1.5644562
578,1747638642980,-2.2563207,-1.45996325,-0.675877885,1.6946048349999998,-0.02500649999999993,-1.5705647
579,1747638642990,-2.6743634,-1.4389864,-1.2120525,2.5678492,-1.2446012,-1.5766732
580,1747638643000,-2.8818145,-1.4563044,-1.687202,2.3460352,-1.7955855,-1.2315444
581,1747638643010,-2.8818145,-1.4563044,-1.687202,2.3460352,-1.7955855,-1.2315444
582,1747638643020,-3.0306952,-1.4267601,-1.9146544,1.6674603,-1.729614,-0.70743746
583,1747638643030,-2.9896867,-1.3252603,-1.8655967,0.3016822,-0.43706122,0.47646087
584,1747638643040,-2.9896867,-1.3252603,-1.8655967,0.3016822,-0.43706122,0.47646087
585,1747638643050,-2.651923,-1.3071799,-1.3152902,-0.796163,0.26915458,1.7665703
586,1747638643060,-2.5284401499999998,-1.2826510500000001,-1.2511096,-0.8310576999999999,0.1716862625,1.9006511499999998
587,1747638643070,-2.4049573,-1.2581222,-1.186929,-0.8659524,0.074217945,2.034732
588,1747638643080,-2.0676818,-1.1456157,-1.1114978,-0.9307785,-0.19333316,2.203326
589,1747638643090,-1.7733504999999998,-1.0891184,-1.049146585,-1.12266085,-0.35459683000000003,2.3203415
590,1747638643100,-1.4790192,-1.0326211,-0.98679537,-1.3145432,-0.5158605,2.437357
591,1747638643110,-1.2567197,-1.015547,-0.862093,-1.5002409,-0.5873296,2.5833495
592,1747638643120,-1.0419511000000001,-0.96429403,-0.70589485,-1.60461945,-0.5528167500000001,2.8961032500000004
593,1747638643130,-0.8271825,-0.91304106,-0.5496967,-1.708998,-0.5183039,3.208857
594,1747638643140,-0.6758626,-0.8969426,-0.44307464,-1.7251854,-0.4187358,3.4348705
595,1747638643150,-0.558721625,-0.888649425,-0.37400049,-1.7164808,-0.33596599,3.59613425
596,1747638643160,-0.44158065,-0.88035625,-0.30492634,-1.7077762,-0.25319618,3.757398
597,1747638643170,-0.14555727,-0.8854785,-0.16436934,-1.6491349,-0.054059982,4.1098566
598,1747638643180,-0.14555727,-0.8854785,-0.16436934,-1.6491349,-0.054059982,4.1098566
599,1747638643190,0.09799352,-0.85690975,-0.06625386,-1.5887374,0.05650337,4.2815046
600,1747638643200,0.14375839,-0.851421625,-0.060643780999999994,-1.5709846,0.04459185,4.2992193
601,1747638643210,0.18952326,-0.8459335,-0.055033702,-1.5532318,0.03268033,4.316934
602,1747638643220,0.25297207,-0.86450166,-0.046496615,-1.565067,-0.22204298,4.486139
603,1747638643230,0.296038615,-0.88999096,-0.0308707035,-1.6208259250000001,-0.44775104,4.66847675
604,1747638643240,0.33910516,-0.91548026,-0.015244792,-1.67658485,-0.6734591,4.8508145
605,1747638643250,0.43161055,-0.94087803,0.06625386,-1.6958647,-0.7510367,4.952215
606,1747638643260,0.512392725,-0.967846115,0.131425355,-1.6491349,-0.77363805,5.1037435
607,1747638643270,0.5931749,-0.9948142,0.19659685,-1.6024051,-0.7962394,5.255272
608,1747638643280,0.8047421,-1.0909477,0.21415883,-1.3762388,-0.8029587,5.5551977
609,1747638643290,0.83611587,-1.0958413500000002,0.213792955,-1.3653581,-0.90099968,5.55367065
610,1747638643300,0.86748964,-1.100735,0.21342708,-1.3544774,-0.99904066,5.5521436
611,1747638643310,0.9599645,-1.1414691,0.20586567,-1.3282874,-1.4076976,5.550311
612,1747638643320,1.0797886,-1.1871119499999998,0.20879267499999998,-1.3292036,-1.5915626,5.643159799999999
613,1747638643330,1.1996127,-1.2327548,0.21171968,-1.3301198,-1.7754276,5.7360086
614,1747638643340,1.2721169,-1.2566587,0.28029075,-1.3588297,-1.7021259,5.8807793
615,1747638643350,1.2721169,-1.2566587,0.28029075,-1.3588297,-1.7021259,5.8807793
616,1747638643360,1.3201685,-1.2471459,0.35178882,-1.3513469,-1.5720154,6.0029488
617,1747638643370,1.5198143,-1.2844957,0.49310803,-1.3220261,-1.3967023,6.437872
618,1747638643380,1.674305,-1.3091313,0.50652343,-1.3220261,-1.3967023,6.437872
619,1747638643390,1.674305,-1.3091313,0.50652343,-1.3905938,-1.4229687,6.6241803
620,1747638643400,1.9983789,-1.2537317,0.53289694,-1.5725499,-1.3820419,6.8587456
621,1747638643410,1.9983789,-1.2537317,0.53289694,-1.5725499,-1.3820419,6.8587456
622,1747638643420,2.3173609,-1.0531408,0.5958579,-1.6155382,-1.1871816,6.6748805
623,1747638643430,2.35237815,-1.0259288,0.67138063,-1.5588440000000001,-1.3209572,6.50628675
624,1747638643440,2.3873954,-0.9987168,0.74690336,-1.5021498,-1.4547328,6.337693
625,1747638643450,2.367638,-0.8508118,0.9345972,-0.93383276,-2.4931731,5.7561665
626,1747638643460,2.3407309749999996,-0.736231985,0.853685475,-0.5885131625,-2.726860325,5.6697315
627,1747638643470,2.3138239499999997,-0.62165217,0.77277375,-0.243193565,-2.9605475500000002,5.5832965
628,1747638643480,2.3715408,-0.47694856,0.4071884,-0.1182753,-2.4760695,5.814808
629,1747638643490,2.4414534000000003,-0.44069645,0.284681245,-0.31733515,-2.08604345,5.91865185
630,1747638643500,2.511366,-0.40444434,0.16217409,-0.516395,-1.6960174,6.0224957
631,1747638643510,2.835714,-0.39224848,0.201963,-2.037939,-0.25258535,6.081748
632,1747638643520,2.8779269999999997,-0.320506505,0.3723083,-2.2831561000000002,-0.3307738,5.9934807
633,1747638643530,2.92014,-0.24876453,0.5426536,-2.5283732,-0.40896225,5.9052134
634,1747638643540,3.1446652,-0.030824969,1.0773494,-2.4710298,-1.3392826,5.42692
635,1747638643550,3.1446652,-0.030824969,1.0773494,-2.4710298,-1.3392826,5.42692
636,1747638643560,3.5170956,0.47289345,1.2115647,-1.3550882,-1.7711517,4.8917413
637,1747638643570,3.6409443,0.575140255,1.04318595,-1.15820455,-1.4739745000000002,4.82088315
638,1747638643580,3.764793,0.67738706,0.8748072,-0.9613209,-1.1767973,4.750025
639,1747638643590,4.287293,0.9727092,0.22879384,-1.0516499,-0.4162924,4.552721
640,1747638643600,4.8154182500000005,1.4289554,0.49762052,-1.7896679,0.04127037499999997,4.3432005
641,1747638643610,5.3435435,1.8852016,0.7664472,-2.5276859,0.49883315,4.13368
642,1747638643620,5.5482807,2.426971,1.5613106,-3.269789,-0.12736166,2.429416
643,1747638643630,5.58441085,2.5780317,1.8262193,-2.81932735,-0.23761958,1.8649548999999999
644,1747638643640,5.620541,2.7290924,2.091128,-2.3688657,-0.3478775,1.3004938
645,1747638643650,5.5280356,3.1700935,2.1823833,0.6543701,-0.005803049,-1.0733349
646,1747638643660,5.47458765,3.0723592,1.9522480500000001,1.17183415,-0.1811162095,-1.7519862499999999
647,1747638643670,5.4211397,2.9746249,1.7221128,1.6892982,-0.35642937,-2.4306376
648,1747638643680,4.8918095,2.1687546,0.29077914,2.1104772,-0.9226848,-4.73483
649,1747638643690,4.551363,1.79891595,0.07590381000000002,0.9842657850000001,-0.65024691,-5.56409315
650,1747638643700,4.2109165,1.4290773,-0.13897152,-0.14194563,-0.37780902,-6.3933563
651,1747638643710,3.5249007,0.8628858,0.25443557,-1.4529002,0.5104392,-6.4581065
652,1747638643720,3.2259505,0.5180485,0.7166577,-2.006175,1.2544512,-6.2424774
653,1747638643730,3.2259505,0.5180485,0.7166577,-2.006175,1.2544512,-6.2424774
654,1747638643740,3.1088095,0.368436125,0.99437205,-1.91893845,1.6478369000000002,-6.0155475
655,1747638643750,2.9916685,0.21882375,1.2720864,-1.8317019,2.0412226,-5.7886176
656,1747638643760,3.3028145,0.035794772,1.552743,-0.3425326,1.8799587,-5.897959
657,1747638643770,3.35772635,0.010290234500000002,1.4884404999999998,0.08643490000000004,1.7281632,-6.08915435
658,1747638643780,3.4126382,-0.015214303,1.424138,0.5154024,1.5763677,-6.2803497
659,1747638643790,3.3560188,-0.14820987,1.0595435,1.6376052,0.94230825,-7.0695643
660,1747638643800,3.1964059000000002,-0.219220115,0.8048792499999999,1.8067717,0.678116815,-7.30962725
661,1747638643810,3.036793,-0.29023036,0.550215,1.9759382,0.41392538,-7.5496902
662,1747638643820,2.8269331,-0.34294683,0.26150915,1.8026866,0.30091864,-7.635209
663,1747638643830,2.61308685,-0.3593654825,0.16230367175000002,1.2947289249999998,0.6362737700000001,-7.451496675
664,1747638643840,2.3992405999999997,-0.37578413499999996,0.0630981935,0.7867712499999999,0.9716289,-7.2677843499999994
665,1747638643850,2.184853,-0.4364279,0.20415826,0.26495498,1.5421603,-6.6963367
666,1747638643860,2.1982685,-0.47510392,0.20964638000000002,0.20678451166666667,1.7004715166666666,-6.49699685
667,1747638643870,2.211684,-0.51377994,0.2151345,0.14861404333333333,1.8587827333333333,-6.297657
668,1747638643880,2.2818557,-0.56771602,0.16558893,0.15383170166666665,1.9536677666666666,-6.2465495
669,1747638643890,2.3520274,-0.6216521,0.11604336,0.15904936,2.0485528,-6.195442
670,1747638643900,2.3495579,-0.8952351,-0.030367626,0.1982963,2.178663,-6.552788
671,1747638643910,2.25529935,-0.95637434,-0.061977703,0.219790485,2.10719395,-6.6160105
672,1747638643920,2.1610408,-1.0175135800000001,-0.09358778000000001,0.24128467,2.0357249,-6.679233
673,1747638643930,1.9661818,-1.0995153,-0.15604569,0.32413083,1.7425182,-6.7897964
674,1747638643940,1.7162739,-1.1481919999999999,-0.17569622499999998,0.32195468,1.719306,-6.7277954
675,1747638643950,1.466366,-1.1968687,-0.19534676,0.31977853,1.6960938,-6.6657944
676,1747638643960,1.3221503,-1.1856484,-0.21732976,0.4381302,1.7919968,-5.987754
677,1747638643970,1.2810198499999998,-1.1595341000000001,-0.25844496,0.53380415,1.6963992,-5.66976985
678,1747638643980,1.2398894,-1.1334198,-0.29956016,0.6294781,1.6008016,-5.3517857
679,1747638643990,1.3660553,-1.0599704,-0.42694563,0.54281414,1.451144,-5.0805693
680,1747638644000,1.3871693999999999,-1.05862885,-0.41804267500000003,0.44034451999999996,1.43739995,-5.10072735
681,1747638644010,1.4082835,-1.0572873,-0.40913972,0.3378749,1.4236559,-5.1208854
682,1747638644020,1.2179369,-1.0814351,-0.073327444,0.3004605,1.3760098,-5.105614
683,1747638644030,1.2179369,-1.0814351,-0.073327444,0.3004605,1.3760098,-5.105614
684,1747638644040,0.9216696,-0.9699041,0.22879384,1.3166813,0.8818344,-4.659085
685,1747638644050,0.902506915,-0.92756935,0.21598822,1.63042775,0.82838525,-4.49140725
686,1747638644060,0.88334423,-0.8852346,0.2031826,1.9441742,0.7749361,-4.3237295
687,1747638644070,1.2154977,-0.9110898,-0.41353023,2.6768854,0.85190284,-3.9077427
688,1747638644080,1.3126223000000001,-0.9558789999999999,-0.730301715,2.4441526,0.76730052,-4.063814
689,1747638644090,1.4097469,-1.0006682,-1.0470732,2.2114198,0.6826982,-4.2198853
690,1747638644100,1.2345233,-1.1468352,-1.3321204,1.4911546,0.84884864,-4.6731343
691,1747638644110,0.5973748175,-1.19930775,-1.180137425,0.88927912,1.05470417,-4.79072235
692,1747638644120,-0.039773665,-1.2517803,-1.0281544500000002,0.28740364,1.2605597,-4.9083104
693,1747638644130,-0.8830698,-1.4004171,-0.6683012,0.25686127,0.8586222,-3.8484905
694,1747638644140,-1.02303225,-1.4146862,-0.74676615,0.338485735,0.824414735,-3.56200315
695,1747638644150,-1.1629947,-1.4289553,-0.8252311,0.4201102,0.79020727,-3.2755158
696,1747638644160,-1.6708597,-1.358189,-1.1896122,-0.15752223,0.8806127,-2.856398
697,1747638644170,-1.9659073500000002,-1.3864986,-0.97911205,-0.6354338650000001,1.13136545,-2.5460877
698,1747638644180,-2.260955,-1.4148082,-0.7686119,-1.1133455,1.3821182,-2.2357774
699,1747638644190,-2.537709,-1.3706287,-0.5570447,-1.01801515,1.23093355,-2.11146995
700,1747638644200,-2.5989625,-1.3585549000000001,-0.54824845,-0.8500894050000001,0.954372475,-1.951275225
701,1747638644210,-2.660216,-1.3464811,-0.5394522,-0.68216366,0.6778114,-1.7910805
702,1747638644220,-2.80944735,-1.3323186,-0.58729035,-0.50051296,0.28591469999999997,-1.5653724
703,1747638644230,-2.9586787,-1.3181561,-0.6351285,-0.31886226,-0.105982,-1.3396643
704,1747638644240,-3.0328903,-1.2905936,-0.6675694,-0.2247918,-0.59221643,-0.6048151
705,1747638644250,-2.95930375,-1.3048627499999998,-0.69417158,-0.278699075,-0.545486615,-0.053181875000000045
706,1747638644260,-2.8857172,-1.3191319,-0.72077376,-0.33260635,-0.4987568,0.49845135
707,1747638644270,-2.5867667,-1.3330655,-0.71711504,-0.8067765,-0.14263284,1.3744063
708,1747638644280,-2.55357885,-1.3163420000000001,-0.6564712500000001,-0.8958838499999999,-0.143854535,1.5026842
709,1747638644290,-2.520391,-1.2996185,-0.59582746,-0.9849912,-0.14507623,1.6309621
710,1747638644300,-2.3585827,-1.1856484,-0.3430078,-0.96437514,-0.41140562,2.1037579
711,1747638644310,-2.16322075,-1.12719985,-0.30908815,-0.86469247,-0.51708221,2.27880385
712,1747638644320,-1.9678588,-1.0687513,-0.2751685,-0.7650098,-0.6227588,2.4538498
713,1747638644330,-1.7635787,-1.027255,-0.31858566,-0.52135813,-0.72538114,2.9987257
714,1747638644340,-1.6435106,-1.02127905,-0.337992295,-0.5316661899999999,-0.733322145,3.12761435
715,1747638644350,-1.5234425,-1.0153031,-0.35739893,-0.54197425,-0.74126315,3.256503
716,1747638644360,-1.1071073,-1.0084735,-0.31078032,-0.606724,-0.7266028,3.8539116
717,1747638644370,-0.8454914,-1.003473185,-0.29443790999999997,-0.6132906250000001,-0.84144208,4.1150488
718,1747638644380,-0.5838755,-0.99847287,-0.2780955,-0.61985725,-0.95628136,4.376186
719,1747638644390,-0.5048007999999999,-0.9873594349999999,-0.277607675,-0.6245149750000001,-0.9345962999999999,4.4528473
720,1747638644400,-0.4257261,-0.976246,-0.27711985,-0.6291727,-0.91291124,4.5295086
721,1747638644410,0.043081783,-0.86401385,-0.33032414,-0.8030351,-0.31061584,4.9961963
722,1747638644420,0.1371573915,-0.847046405,-0.33129981,-0.8818344,-0.19333316,5.07167415
723,1747638644430,0.231233,-0.83007896,-0.33227548,-0.9606337,-0.07605048,5.147152
724,1747638644440,0.4355132,-0.8698678,-0.22562292,-1.0927294,-0.07116371,5.3236866
725,1747638644450,0.52166152,-0.8954943,-0.232452585,-1.0494356,-0.266329405,5.411037800000001
726,1747638644460,0.60780984,-0.9211208,-0.23928225,-1.0061418,-0.4614951,5.498389
727,1747638644470,0.9995096,-0.9845696,-0.3073655,-1.0167552,-0.8359445,5.7207375
728,1747638644480,1.05051865,-0.98603315,-0.31602454,-1.002094885,-0.8539645,5.76471825
729,1747638644490,1.1015277,-0.9874967,-0.32468358,-0.98743457,-0.8719845,5.808699
730,1747638644500,1.3341023,-0.9965216,-0.45941702,-1.3650146,-0.8414421,5.9565244
731,1747638644510,1.33471205,-1.00188775,-0.41865246,-1.7229711,-0.80509668,6.081137200000001
732,1747638644520,1.3353218,-1.0072539,-0.3778879,-2.0809276,-0.76875126,6.20575
733,1747638644530,1.3201685,-0.9943263,-0.2470876,-2.4261327,-0.7534801,6.4012213
734,1747638644540,1.40509725,-1.0208065,-0.173760147,-2.53051115,-0.72935162,6.4925429999999995
735,1747638644550,1.490026,-1.0472867,-0.100432694,-2.6348896,-0.70522314,6.5838647
736,1747638644560,1.6628106,-1.1207361,0.10653061,-3.1644943,-0.47798797,6.8269815
737,1747638644570,1.7981384999999999,-1.1581925499999999,0.249785915,-3.14704695,-0.602295385,6.75032025
738,1747638644580,1.9334664,-1.195649,0.39304122,-3.1295996,-0.7266028,6.673659
739,1747638644590,2.1238434,-1.1056132,0.7264143,-2.287852,-2.473015,5.6028438
740,1747638644600,1.9861982500000002,-1.01225415,0.6068341749999999,-1.49436145,-3.5609723,5.02647115
741,1747638644610,1.8485531,-0.9188951,0.48725405,-0.7008709,-4.6489296,4.4500985
742,1747638644620,1.7111365,-0.87962455,0.27638808,-0.51578414,-4.494996,4.6119733
743,1747638644630,1.7111365,-0.87962455,0.27638808,-0.51578414,-4.494996,4.6119733
744,1747638644640,1.535181,-0.92380387,0.11140894,-0.9213867,-2.9410005,5.5399265
745,1747638644650,1.5647255,-0.97453856,0.25614297,-1.2815576,-1.6868547,6.478188
746,1747638644660,1.5647255,-0.97453856,0.25614297,-1.2815576,-1.6868547,6.478188
747,1747638644670,1.6723536,-1.0160348,0.3032494,-1.4005964,-1.2727003,6.8831797
748,1747638644680,1.86930115,-1.1472163,0.386455465,-1.539526,-1.3453911,6.906086350000001
749,1747638644690,2.0662487,-1.2783978,0.46966153,-1.6784556,-1.4180819,6.928993
750,1747638644700,2.177261,-1.3952948,0.9091994,-1.3862416,-2.7320907,6.3034854
751,1747638644710,2.10234815,-1.4067589,0.9933964,-1.12766225,-2.7980622,6.2643912
752,1747638644720,2.0274353,-1.418223,1.0775934,-0.8690829,-2.8640337,6.225297
753,1747638644730,1.7809577,-1.2718121,0.77425253,-0.19302773,-2.730869,6.434207
754,1747638644740,2.16312935,-1.24825885,0.37865016,-0.02557922400000001,-2.070657675,7.138380325
755,1747638644750,2.545301,-1.2247056,-0.01695221,0.14186928199999999,-1.41044635,7.842553650000001
756,1747638644760,2.545301,-1.2247056,-0.01695221,-0.075897776,-1.057682,8.03226
757,1747638644770,2.7827538499999998,-1.2674063,0.11079915000000001,-0.7120570380000001,-0.567171665,7.955904
758,1747638644780,3.0202067,-1.310107,0.23855051,-1.3482163,-0.07666133,7.879548
759,1747638644790,3.1332011,-1.5399984,0.9706969,-1.3444748,-1.2971342,6.8269815
760,1747638644800,3.10306215,-1.4455569499999998,0.9848593,-1.1148726,-1.6428737,6.63364835
761,1747638644810,3.0729232,-1.3511155,0.9990217,-0.8852704,-1.9886132,6.4403152
762,1747638644820,3.4019058,-0.766874,0.4223417,-0.35070267,-1.5707937,6.528888
763,1747638644830,3.6012925,-0.68877495,0.22380878299999998,-1.200582085,-0.3646376200000001,5.925982
764,1747638644840,3.8006792,-0.6106759,0.025275866,-2.0504615,0.84151846,5.323076
765,1747638644850,3.5895693,-0.44642848,0.7344636,-2.451101,0.995452,4.6596193
766,1747638644860,3.3637024,-0.44252580500000005,1.09212165,-2.3479823499999997,0.80914358,4.30257905
767,1747638644870,3.1378355,-0.43862313,1.4497797,-2.2448637,0.62283516,3.9455388
768,1747638644880,3.3562632,-0.0576558,1.2020519,-0.18241426,-1.6141639,4.040831
769,1747638644890,3.3562632,-0.0576558,1.2020519,-0.18241426,-1.6141639,4.040831
770,1747638644900,5.31717,1.0847279,0.08994427,-0.7787539,-0.05833591,4.057324
771,1747638644910,6.3069074999999994,1.6972787999999999,0.17560476000000003,-0.9108496500000001,0.37418213000000006,4.0411365
772,1747638644920,7.296645,2.3098297,0.26126525,-1.0429454,0.80670017,4.024949
773,1747638644930,4.6331058,0.79257673,0.91188246,-2.6997159,2.3851295,-1.4667206
774,1747638644940,4.51315975,0.44359295499999996,1.05806478,-2.4215131000000003,2.98899025,-1.6759358
775,1747638644950,4.3932137,0.09460918,1.2042471,-2.1433103,3.592851,-1.885151
776,1747638644960,4.091824,-0.07036996,1.3299252,-1.7806197,3.5048888,-1.8087951
777,1747638644970,4.04593725,-0.4444924,1.2037593,-1.1874488699999999,3.4941990499999998,-2.1630865
778,1747638644980,4.0000505,-0.81861484,1.0775934,-0.59427804,3.4835093,-2.5173779
779,1747638644990,3.5846908,-1.1353711,1.1137235,0.054976255,2.6367986,-5.010933
780,1747638645000,3.33270965,-1.2658208,1.0957804000000002,0.25247080749999995,2.45873665,-5.32154875
781,1747638645010,3.0807285,-1.3962705,1.0778373,0.44996536,2.2806747,-5.6321645
782,1747638645020,2.4833157,-1.7459861,0.84648234,1.1029611,1.9263831,-5.770903
783,1747638645030,2.47709585,-1.7917509,0.76326099,1.14129175,1.9062252,-5.7150105
784,1747638645040,2.470876,-1.8375157,0.68003964,1.1796224,1.8860673,-5.659118
785,1747638645050,2.5038047,-1.8223624,0.72519475,0.9453625,2.0119019,-5.4702897
786,1747638645060,2.52735795,-1.8023612500000001,0.8316034050000001,1.0609272,2.38574045,-5.446161350000001
787,1747638645070,2.5509112,-1.7823601,0.93801206,1.1764919,2.759579,-5.422033
788,1747638645080,2.4613326,-1.7572062,1.012681,1.4855806,2.892209,-5.4721227
789,1747638645090,2.4613326,-1.7572062,1.012681,1.4855806,2.892209,-5.4721227
790,1747638645100,2.4266965,-1.7411077,1.0085344,1.9073706,2.7669091,-5.5497003
791,1747638645110,2.3551984,-1.6181128,0.7818139,2.5398266,2.2140923,-5.875358
792,1747638645120,2.3551984,-1.6181128,0.7818139,2.5398266,2.2140923,-5.875358
793,1747638645130,2.2512288,-1.520729,0.5728993,2.7092602,1.7565676,-6.4251204
794,1747638645140,2.22791955,-1.5112162,0.5643621999999999,2.6784507,1.7733659,-6.47704245
795,1747638645150,2.2046103,-1.5017034,0.5558251,2.6476412,1.7901642,-6.5289645
796,1747638645160,2.0660048,-1.5065818,0.55216634,2.426438,2.394903,-6.5772214
797,1747638645170,2.0252402,-1.4992643,0.57864657,2.41490825,2.59926965,-6.514915
798,1747638645180,1.9844756,-1.4919468,0.6051268,2.4033785,2.8036363,-6.4526086
799,1747638645190,2.013776,-1.5046304,0.6973577,2.4992816,2.956348,-6.3298283
800,1747638645200,2.0747857,-1.49376085,0.6813811999999999,2.6843683,2.8039035,-6.30569985
801,1747638645210,2.1357954,-1.4828913,0.6654047,2.869455,2.651459,-6.2815714
802,1747638645220,2.3095555,-1.5880805,0.43624496,3.18847,2.3637497,-6.73482
803,1747638645230,2.31016525,-1.62334165,0.40464252,3.2364215,2.2977782500000004,-6.8505755
804,1747638645240,2.310775,-1.6586028,0.37304008,3.284373,2.2318068,-6.966331
805,1747638645250,2.214123,-1.7462299,0.23050125,3.480684,1.9636449,-7.387205
806,1747638645260,2.06416005,-1.77088075,0.04747227500000001,3.4959552,1.79779985,-7.5784
807,1747638645270,1.9141971,-1.7955316,-0.1355567,3.5112264,1.6319548,-7.769595
808,1747638645280,1.7721461,-1.7662311,-0.28882784,3.44330785,1.5879737999999999,-7.792196499999999
809,1747638645290,1.69223285,-1.7243841999999998,-0.36656100999999996,3.1862747750000002,1.45541995,-7.768679
810,1747638645300,1.6123196,-1.6825373,-0.44429418,2.9292417,1.3228661,-7.7451615
811,1747638645310,1.5221314499999998,-1.6521544,-0.45685590499999995,2.73575585,1.1820658,-7.7173678500000005
812,1747638645320,1.4319433,-1.6217715,-0.46941763,2.54227,1.0412655,-7.6895742
813,1747638645330,1.2994355,-1.5775921,-0.44697732,2.3391633,0.8189171,-7.6248245
814,1747638645340,1.19375865,-1.5378184,-0.48565334,2.21329055,0.67231375,-7.52831075
815,1747638645350,1.0880818,-1.4980447,-0.52432936,2.0874178,0.5257104,-7.431797
816,1747638645360,0.86627007,-1.4365473,-0.58704644,1.585225,0.38093963,-7.1410336
817,1747638645370,0.7903662650000001,-1.40273435,-0.584119435,1.46966035,0.3326827,-7.0319973000000005
818,1747638645380,0.71446246,-1.3689214,-0.58119243,1.3540957,0.28442577,-6.922961
819,1747638645390,0.4367328,-1.2512925,-0.5950957,1.0344698,0.3406237,-6.304173
820,1747638645400,0.35376301499999996,-1.20193755,-0.6522026925,0.822906675,0.603440725,-5.841417925
821,1747638645410,0.27079323,-1.1525826000000001,-0.709309685,0.61134355,0.86625775,-5.3786628499999996
822,1747638645420,0.157311008,-1.1507532,-0.748610765,0.33970742499999995,1.17626275,-5.00512985
823,1747638645430,0.054690691,-1.1499071,-0.7071144325000001,0.18520124999999998,1.324698625,-4.813781925000001
824,1747638645440,-0.047929626,-1.149061,-0.6656181,0.030695075,1.4731345,-4.622434
825,1747638645450,-0.43572664,-1.2100706,-0.5296955,0.16088189,1.1005177,-4.5002646
826,1747638645460,-0.56898137,-1.2195833,-0.5549561350000001,0.18298693,0.952998075,-4.5011808
827,1747638645470,-0.7022361,-1.229096,-0.58021677,0.20509197,0.80547845,-4.502097
828,1747638645480,-1.1134491,-1.3179122,-0.5904613,0.13843326,0.5678589,-4.1832347
829,1747638645490,-1.1134491,-1.3179122,-0.5904613,0.13843326,0.5678589,-4.1832347
830,1747638645500,-1.4148387,-1.3911483,-0.519695,0.016951011,0.59840125,-3.4288385
831,1747638645510,-1.45877415,-1.3868797499999999,-0.50406907,0.014774868,0.625583945,-3.32682695
832,1747638645520,-1.5027096,-1.3826112,-0.48844314,0.012598725,0.65276664,-3.2248154
833,1747638645530,-1.8729142,-1.3572134,-0.44307464,0.12476555,0.7724927,-2.7775989
834,1747638645540,-1.9670049500000002,-1.36881465,-0.462831885,0.162447195,0.8317449,-2.5784626
835,1747638645550,-2.0610957,-1.3804159,-0.48258913,0.20012884,0.8909971,-2.3793263
836,1747638645560,-2.528928,-1.4792327,-0.4545387,0.3639886,0.7596649,-1.9046981
837,1747638645570,-2.60481665,-1.47996445,-0.43196116,0.455921125,0.4325180275,-1.7803906500000002
838,1747638645580,-2.6807053,-1.4806962,-0.40938362,0.54785365,0.105371155,-1.6560832
839,1747638645590,-2.9420924,-1.5219486,-0.42523822,0.9952229,-1.4315206,-1.0550096
840,1747638645600,-3.0138496,-1.52231445,-0.43927868999999997,1.0459995500000001,-1.51093075,-0.9117659
841,1747638645610,-3.0856068,-1.5226803,-0.45331916,1.0967762,-1.5903409,-0.7685222
842,1747638645620,-3.3274503,-1.4226135,-0.42548215,1.0382112,-1.5579659,0.5515951
843,1747638645630,-3.2837586500000002,-1.39357215,-0.434644265,0.96716205,-1.2940798999999998,1.1612206500000002
844,1747638645640,-3.240067,-1.3645308,-0.44380638,0.8961129,-1.0301939,1.7708462
845,1747638645650,-2.678266,-1.2913253,-0.42011598,0.4743229,-0.25502872,3.5264976
846,1747638645660,-2.47387905,-1.2677721499999999,-0.41548156999999997,0.38643724999999995,-0.181727053,3.79618655
847,1747638645670,-2.2694921,-1.244219,-0.41084716,0.2985516,-0.108425386,4.0658755
848,1747638645680,-1.6305829,-1.1107355,-0.3202931,0.047493376,-0.1847813,4.3022738
849,1747638645690,-1.6305829,-1.1107355,-0.3202931,0.047493376,-0.1847813,4.3022738
850,1747638645700,-1.3936179,-1.0038391,-0.27468067,0.076126836,-0.55373305,4.3541956
851,1747638645710,-1.3272420999999999,-0.98711555,-0.27529045500000004,0.10605835300000001,-0.648719775,4.4455173
852,1747638645720,-1.2608663,-0.970392,-0.27590024,0.13598987,-0.7437065,4.536839
853,1747638645730,-0.86184907,-0.89865,-0.44502598,0.09048175,-0.7718055,5.252828
854,1747638645740,-0.760806585,-0.8865761,-0.47931154,-0.022906770000000007,-0.6526902800000001,5.435777
855,1747638645750,-0.6597641,-0.8745022,-0.5135971,-0.13629529,-0.53357506,5.618726
856,1747638645760,-0.2734306,-0.8681604,-0.62903064,-0.7170583,0.21662171,6.284549
857,1747638645770,-0.07758837425000004,-0.89969424,-0.6374457549999999,-1.31209985,0.6582642550000001,6.665718
858,1747638645780,0.11825385149999998,-0.9312280799999999,-0.6458608699999999,-1.9071414,1.0999068,7.046887
859,1747638645790,0.5309456,-0.99213105,-0.44624552,-2.157589,1.0974635,7.104306
860,1747638645800,0.61965505,-0.975895375,-0.36082896,-2.2302034,1.036073335,7.0691825
861,1747638645810,0.7083645,-0.9596597,-0.2754124,-2.3028178,0.97468317,7.034059
862,1747638645820,0.9201756,-0.9664893,-0.0059759584,-2.1993556,0.49150297,6.644338
863,1747638645830,0.9201756,-0.9664893,-0.0059759584,-2.1993556,0.49150297,6.644338
864,1747638645840,0.9306945,-0.92355996,0.13168451,-1.5313941,-0.30817243,5.9675198
865,1747638645850,0.911653775,-0.9257552,0.093481061,-1.4463336500000001,-0.35154259,5.9549974
866,1747638645860,0.89261305,-0.92795044,0.055277612,-1.3612732,-0.39491275,5.942475
867,1747638645870,1.0209743,-0.9562448,-0.22269592,-1.4716074,-0.22021043,6.19842
868,1747638645880,1.1146992500000001,-0.9747977,-0.26600638,-1.7716097499999999,-0.167982995,6.2759975
869,1747638645890,1.2084242,-0.9933506,-0.30931684,-2.0716121,-0.11575556,6.353575
870,1747638645900,1.5444498,-0.99115545,0.057960697,-2.5376885,-0.37841988,6.043265
871,1747638645910,1.5947881499999998,-0.9734028825000001,0.189927241,-2.482216,-0.54151609,5.8707005
872,1747638645920,1.6451265,-0.955650315,0.321893785,-2.4267435,-0.7046123,5.698136
873,1747638645930,1.5849705,-0.8659651,0.43429363,-1.589959,-1.5420839,4.8954062
874,1747638645940,1.5299368,-0.82044418,0.392675355,-1.4482042499999999,-1.6801354,4.7958381
875,1747638645950,1.4749031,-0.77492326,0.35105708,-1.3064495,-1.8181869,4.69627
876,1747638645960,1.340688,-0.7680936,0.14973435,-1.251626,-1.6221049,4.7872863
877,1747638645970,1.4211043,-0.78737825,0.197084675,-1.4743943499999999,-1.1813786,4.98218465
878,1747638645980,1.5015206,-0.8066629,0.244435,-1.6971627,-0.7406523,5.177083
879,1747638645990,1.5635059,-0.78467995,0.23537959,-1.6949865499999999,-0.63344862,5.165476999999999
880,1747638646000,1.5298300999999999,-0.7320854050000001,0.24161471499999998,-1.7359324749999998,-0.49585526,5.051821349999999
881,1747638646010,1.4961543,-0.67949086,0.24784984,-1.7768784,-0.3582619,4.9381657
882,1747638646020,1.4502676,-0.64436686,0.270778,-1.9258487,-0.6795676,4.7347536
883,1747638646030,1.4502676,-0.64436686,0.270778,-1.9258487,-0.6795676,4.7347536
884,1747638646040,1.4453893,-0.67656386,0.35715497,-2.006175,-0.8787038,4.6052537
885,1747638646050,1.3123631,-0.744891,0.50945044,-1.948221,-1.2733111,4.336481
886,1747638646060,1.3123631,-0.744891,0.50945044,-1.948221,-1.2733111,4.336481
887,1747638646070,1.1893682,-0.7871191,0.48359528,-1.6323366,-1.3172921,4.5160704
888,1747638646080,1.1808311,-0.7975007999999999,0.448684705,-1.6342073,-1.2253596,4.57990385
889,1747638646090,1.172294,-0.8078825,0.41377413,-1.636078,-1.1334271,4.6437373
890,1747638646100,1.192783,-0.95917183,0.55192244,-1.9532604,-1.0839485,4.888687
891,1747638646110,1.191997875,-1.033734115,0.6892018075,-1.9245888,-1.1169342,5.198424749999999
892,1747638646120,1.19121275,-1.1082964,0.8264811750000001,-1.8959172,-1.1499199,5.508162499999999
893,1747638646130,1.2157416,-1.1597934,0.8745633,-1.8217756,-1.1627477,5.6993575
894,1747638646140,1.3626557,-1.17650165,0.85942517,-1.6311149,-1.2827792,6.00294875
895,1747638646150,1.5095698,-1.1932099,0.84428704,-1.4404542,-1.4028107,6.30654
896,1747638646160,2.3295565,-1.0172545,0.5001817,-1.4348038,-1.0369133,6.4360394
897,1747638646170,2.44169725,-0.9444149,0.49908405,-1.6388649499999999,-0.94559158,6.1892572
898,1747638646180,2.553838,-0.8715753,0.4979864,-1.8429261,-0.85426986,5.942475
899,1747638646190,2.4855108,-0.4408184,0.84014046,-2.1488843,-1.0979979,5.1960196
900,1747638646200,2.6841657000000003,-0.344791465,0.72921938,-2.0030827,-1.4971866,5.0973296
901,1747638646210,2.8828206,-0.24876453,0.6182983,-1.8572811,-1.8963753,4.9986396
902,1747638646220,2.8828206,-0.24876453,0.6182983,-1.8572811,-1.8963753,4.9986396
903,1747638646230,3.2979363,-0.1984872,0.5371502699999999,-2.33423825,-1.50665475,4.8343215
904,1747638646240,3.713052,-0.14820987,0.45600224,-2.8111954,-1.1169342,4.6700034
905,1747638646250,4.132101,0.049210187,1.2369624,-3.623088,-0.22815146,3.4360921
906,1747638646260,4.2331283,0.1108448785,1.58423875,-3.5944162,-0.41751409500000003,2.83589655
907,1747638646270,4.3341556,0.17247957,1.9315151,-3.5657444,-0.60687673,2.235701
908,1747638646280,4.4692395000000005,0.25519781,2.2460914499999998,-3.04671515,-0.69483873,1.63554355
909,1747638646290,4.6043234,0.33791605,2.5606678,-2.5276859,-0.78280073,1.0353861
910,1747638646300,4.743173,0.2183359,2.5245376,-1.0952492,-0.13469182,-0.57488364
911,1747638646310,4.688261499999999,0.163302205,2.4640158,-0.82949243,0.014698514999999995,-0.94780592
912,1747638646320,4.63335,0.10826851,2.403494,-0.56373566,0.16408885,-1.3207282
913,1747638646330,4.235796,-0.21678093,2.1021044,0.005726693,0.7333985,-2.4825597
914,1747638646340,3.92489375,-0.358938615,2.00081795,0.2274069765,0.896189275,-2.83305235
915,1747638646350,3.6139915,-0.5010963,1.8995315,0.44908726,1.05898005,-3.183545
916,1747638646360,3.4834044,-0.62775004,1.7499497,0.97712654,1.3863943,-3.6756206
917,1747638646370,3.4223947,-0.646059035,1.6478095499999998,1.1278912700000001,1.411439,-3.80542565
918,1747638646380,3.361385,-0.66436803,1.5456694,1.278656,1.4364837,-3.9352307
919,1747638646390,3.3513844,-0.77638674,1.0629584,1.5702592,1.3894484,-4.6688585
920,1747638646400,3.23778035,-0.88499062,0.8197582250000001,1.4811901,1.5653724,-5.06865775
921,1747638646410,3.1241763,-0.9935945,0.57655805,1.392121,1.7412964,-5.468457
922,1747638646420,3.02741755,-0.992496925,0.502132965,1.29583615,1.8472784,-5.5524486500000005
923,1747638646430,2.9306588,-0.99139935,0.42770788,1.1995513,1.9532604,-5.6364403
924,1747638646440,2.4955115,-1.0575312,0.54875153,0.63444126,2.879992,-5.3444552
925,1747638646450,2.5041705,-1.0798648499999999,0.6347779149999999,0.6662053299999999,2.9108397999999998,-5.2693211
926,1747638646460,2.5128295,-1.1021985,0.7208043,0.6979694,2.9416876,-5.194187
927,1747638646470,2.7300375,-1.2129976,1.1051865,1.2774343,2.451712,-5.422033
928,1747638646480,2.70063015,-1.237274925,1.1817534,1.47061475,2.33778885,-5.5540143
929,1747638646490,2.6712228,-1.2615522499999998,1.2583203,1.6637952,2.2238657,-5.6859956
930,1747638646500,2.5123417,-1.3691653,1.2057105,3.2457368,1.8573575,-6.6535773
931,1747638646510,2.4495027,-1.3950357,1.1222453,3.50649225,1.7919968499999999,-6.786436650000001
932,1747638646520,2.3866637,-1.4209061,1.0387801,3.7672477,1.7266362,-6.919296
933,1747638646530,2.106495,-1.4038318,0.60049236,4.1542196,1.6368415,-7.1330924
934,1747638646540,1.947629,-1.36148185,0.38279673,3.9236629,1.92332885,-6.97060705
935,1747638646550,1.788763,-1.3191319,0.1651011,3.6931062,2.2098162,-6.8081217
936,1747638646560,1.7436079,-1.298399,0.10482319,3.3324008,2.482865,-6.594325
937,1747638646570,1.7436079,-1.298399,0.10482319,3.3324008,2.482865,-6.594325
938,1747638646580,1.6332966,-1.2036983,0.21635409,2.7329307,2.7162087,-6.288902
939,1747638646590,1.6755246,-1.2100706,0.18315093,2.7285783,2.6923857,-6.203994
940,1747638646600,1.7145665499999998,-1.2367947,0.14301139,2.72079,2.6639813500000002,-6.2409502
941,1747638646610,1.7536085,-1.2635188,0.10287185,2.7130017,2.635577,-6.2779064
942,1747638646620,1.7531207,-1.3247725,0.10482319,2.658178,2.2018752,-6.6841197
943,1747638646630,1.6347600999999998,-1.33733415,0.07444031849999999,2.7388863,1.9563147,-6.85790585
944,1747638646640,1.5163995,-1.3498958,0.044057447,2.8195946,1.7107542,-7.031692
945,1747638646650,1.476138,-1.3425783500000001,0.006357077500000002,2.85166405,1.5818653999999999,-7.043298
946,1747638646660,1.4358765,-1.3352609,-0.031343292,2.8837335,1.4529766,-7.054904
947,1747638646670,1.340444,-1.3083994,-0.25903952,2.7236152,1.1426661,-6.8887534
948,1747638646680,1.276560725,-1.2576419250000002,-0.29718198500000004,2.4521126749999995,1.154272225,-6.6764842
949,1747638646690,1.21267745,-1.20688445,-0.33532445,2.1806101499999997,1.1658783499999998,-6.464215
950,1747638646700,1.1779041,-1.1775992,-0.33593425,2.0469491,1.2068051,-6.340213
951,1747638646710,1.1604488,-1.1608756,-0.28919370499999997,1.9027128,1.3127871,-6.12000235
952,1747638646720,1.1429935,-1.144152,-0.24245316,1.7584765,1.4187691,-5.8997917
953,1747638646730,1.0004852,-1.0755811,-0.24611193,1.866902,1.1738194,-5.618726
954,1747638646740,0.96839495,-1.05324745,-0.30785334000000003,1.8653366500000002,1.06814282,-5.5668038
955,1747638646750,0.9363047,-1.0309138,-0.36959475,1.8637713,0.96246624,-5.5148816
956,1747638646760,0.7447081,-1.0363104,-0.56826484,1.4656516,1.0211076,-5.3108587
957,1747638646770,0.592183935,-1.0526528000000002,-0.51810947,1.3519195,1.1875634499999999,-5.08851035
958,1747638646780,0.43965977,-1.0689952,-0.4679541,1.2381874,1.3540193,-4.866162
959,1747638646790,0.24492283,-1.0804594,-0.43133613,1.293011,1.2135245,-4.7274995
960,1747638646800,0.24492283,-1.0804594,-0.43133613,1.293011,1.2135245,-4.7274995
961,1747638646810,-0.059912033,-1.0502137,-0.3942608,1.5042877,0.6515449,-4.509427
962,1747638646820,-0.17315035150000002,-1.04679885,-0.44856275,1.5777803,0.51043922,-4.445593499999999
963,1747638646830,-0.28638867,-1.043384,-0.5028647,1.6512729,0.36933354,-4.38176
964,1747638646840,-0.46990547,-1.0575312,-0.7300731,1.6444771,0.3870481,-4.1429186
965,1747638646850,-0.703089835,-1.11902865,-0.91163855,1.3790258,0.66956495,-3.9773791
966,1747638646860,-0.9362742,-1.1805261,-1.093204,1.1135745,0.9520818,-3.8118396
967,1747638646870,-1.8251065,-1.2876666,-1.125401,0.20577917,1.6001908,-3.4563265
968,1747638646880,-2.0108185499999998,-1.3101221500000002,-1.02778863,0.07459972100000001,1.41143895,-3.4172322499999996
969,1747638646890,-2.1965306,-1.3325777,-0.93017626,-0.056579728,1.2226871,-3.378138
970,1747638646900,-2.7334216,-1.3789524,-0.5699723,0.3558949,-0.04123219,-2.949247
971,1747638646910,-2.9263443999999996,-1.3616190499999998,-0.70333375,0.7867713000000001,-0.634975695,-2.3603902000000003
972,1747638646920,-3.1192672,-1.3442857,-0.8366952,1.2176477,-1.2287192,-1.7715334
973,1747638646930,-3.1617393,-1.3118143,-1.0958872,1.0780691,-1.2268867,-1.0910496
974,1747638646940,-3.1572268,-1.28387055,-1.174596,0.84690157,-1.10074675,-0.70010733
975,1747638646950,-3.1527143,-1.2559268,-1.2533048,0.61573404,-0.9746068,-0.30916506
976,1747638646960,-2.7475994,-1.1866242,-1.0939357,-0.8267054,-0.05955761,1.4171656
977,1747638646970,-2.7475994,-1.1866242,-1.0939357,-0.8267054,-0.05955761,1.4171656
978,1747638646980,-2.5286841,-1.1654034,-0.8486776,-1.2061943,0.11392301,1.9357749
979,1747638646990,-2.36846135,-1.1336789999999999,-0.6824788500000001,-1.20275825,0.0320694785,2.17709775
980,1747638647000,-2.2082386,-1.1019546,-0.5162801,-1.1993222,-0.049784053,2.4184206
981,1747638647010,-1.9456624,-0.99408233,-0.46649066,-0.77623415,-0.7082774,2.6627595
982,1747638647020,-1.9080686500000001,-0.971138965,-0.47844256500000004,-0.7363382,-0.8160919499999999,2.73025825
983,1747638647030,-1.8704749,-0.9481956,-0.49039447,-0.69644225,-0.9239065,2.797757
984,1747638647040,-1.6891536,-0.85471445,-0.55359936,-0.76875126,-1.0815051,3.0799682
985,1747638647050,-1.617838375,-0.819034035,-0.52084594,-0.91533552,-1.00469105,3.2911686749999998
986,1747638647060,-1.54652315,-0.78335362,-0.48809252,-1.06191978,-0.9278770000000001,3.50236915
987,1747638647070,-1.3738606,-0.75833696,-0.38621157,-1.2752963,-0.5714476,4.07626
988,1747638647080,-1.3201684500000002,-0.75480013,-0.35985331,-1.30522785,-0.50058932,4.22927735
989,1747638647090,-1.2664763,-0.7512633,-0.33349505,-1.3351594,-0.42973104,4.3822947
990,1747638647100,-0.7425129,-0.7802894,-0.30712157,-1.5139849,-0.073607095,5.134935
991,1747638647110,-0.6474463500000001,-0.7828505299999999,-0.291145035,-1.555408,0.012216942500000008,5.24366575
992,1747638647120,-0.5523798,-0.78541166,-0.2751685,-1.5968311,0.09804098,5.3523965
993,1747638647130,-0.24367274,-0.74269575,-0.19827376,-1.694643,0.02107423,5.6077304
994,1747638647140,-0.24367274,-0.74269575,-0.19827376,-1.694643,0.02107423,5.6077304
995,1747638647150,0.066772185,-0.74172014,-0.2151345,-1.6940322,-0.22631891,5.822138
996,1747638647160,0.1381483025,-0.75319947,-0.23379412,-1.7201841,-0.212574845,5.88902575
997,1747638647170,0.20952442,-0.7646788,-0.25245374,-1.746336,-0.19883078,5.9559135
998,1747638647180,0.39206555,-0.8198344,-0.31761,-2.0491636,0.042453885,6.158104
999,1747638647190,0.525198325,-0.8664377299999999,-0.328845415,-2.1890476000000003,0.1167100075,6.18681385
1000,1747638647200,0.6583311,-0.91304106,-0.34008083,-2.3289316,0.19096613,6.2155237
