id,timestamp,acc_x,acc_y,acc_z,gyro_x,gyro_y,gyro_z
0,1747638526430,0.96752596,-0.7944366,-0.1343371,-0.1880646,-3.6361446,3.3908894
1,1747638526440,1.5835071,-0.7554099,-0.17071119,-0.7624901,-4.5102673,4.092753
2,1747638526450,1.8192601500000003,-0.637956415,-0.09908353,-1.1943209499999998,-4.4714785,4.26165225
3,1747638526460,2.0550132000000003,-0.52050293,-0.02745587,-1.6261518,-4.4326897,4.4305515
4,1747638526470,2.2829456,-0.2518668295,0.10225445,-1.9049654,-4.23172085,4.50904525
5,1747638526480,2.510878,0.016769271,0.23196477,-2.183779,-4.030752,4.587539
6,1747638526490,2.7869004,0.52693625,0.51957301,-2.594421,-3.586666,4.704211
7,1747638526500,2.9757987,0.846093575,0.812257705,-2.7695050500000002,-3.1025695,4.64740215
8,1747638526510,3.164697,1.1652509,1.1049424,-2.9445891,-2.618473,4.5905933
9,1747638526520,3.1549401,1.510332,1.5059111,-2.305872,-2.1682024,3.7146385
10,1747638526530,3.01985595,1.64053775,1.57631155,-1.94948085,-2.14040885,3.4312054
11,1747638526540,2.8847718,1.7707435,1.646712,-1.5930897,-2.1126153,3.1477723
12,1747638526550,2.2400088,2.4162385,1.4056003,-0.0684149,-2.6899424,2.1990502
13,1747638526560,2.0780786,2.5227692,1.21023825,0.030962315000000004,-2.7064352,1.98189395
14,1747638526570,1.9161484,2.6292999,1.0148762,0.13033953,-2.722928,1.7647377
15,1747638526580,1.5523924500000001,2.7434985999999997,0.74618685,-0.1846285785,-2.299229,1.0619579799999999
16,1747638526590,1.376612325,2.7986465999999997,0.7568048249999999,-0.51063011925,-1.90355275,0.7087355399999999
17,1747638526600,1.2008322,2.8537946,0.7674228,-0.83663166,-1.5078765,0.3555131
18,1747638526610,0.75132436,2.7371414,1.4104786,-1.2578872,0.018630842,-0.8589276
19,1747638526620,0.75132436,2.7371414,1.4104786,-1.2578872,0.018630842,-0.8589276
20,1747638526630,0.5572886,2.735678,1.6630543,-0.89588386,0.35039726,-1.3903648
21,1747638526640,0.575841525,2.7190917,1.7444463,-0.36406496499999996,0.57671618,-1.72846875
22,1747638526650,0.59439445,2.7025054,1.8258383,0.16775393,0.8030351,-2.0665727
23,1747638526660,1.2801661,2.5133784,1.6228081,1.5733898,1.1218973,-3.222372
24,1747638526670,1.4533165000000001,2.4378404500000004,1.5087161,1.7139229,1.2779688,-3.4554102
25,1747638526680,1.6264669,2.3623025,1.3946241,1.854456,1.4340403,-3.6884484
26,1747638526690,2.2255871,1.9923114,1.1125039,2.068176,2.3124387,-4.4630027
27,1747638526700,2.5001458,1.7579074499999998,1.028063,2.1535037499999996,2.75870085,-4.92633035
28,1747638526710,2.7747045,1.5235035,0.9436221,2.2388315,3.204963,-5.389658
29,1747638526720,3.0263045,1.1376579,0.8730997,2.4544606,3.4896176,-6.0854893
30,1747638526730,3.1776245,0.71620035,0.7762038,3.0146077,3.5592542,-7.2015076
31,1747638526740,3.1505194,-0.08720021,0.5687527,3.3853154,3.4309764,-7.682855
32,1747638526750,3.0349636999999996,-0.385418825,0.4461236,3.63923705,3.2480275499999998,-7.847173
33,1747638526760,2.919408,-0.68363744,0.3234945,3.8931587,3.0650787,-8.011491
34,1747638526770,2.796901,-1.0162787,0.19464551,4.08443,2.8488388,-7.9937763
35,1747638526780,2.6553683,-1.2068996,0.08238286,4.113751,2.6123648,-7.8099113
36,1747638526790,2.0354846,-1.5339005,-0.020367041,3.7741199,1.7052565,-7.123319
37,1747638526800,1.7069899,-1.6359186,-0.09674345,3.4657183,1.2422342,-6.6566315
38,1747638526810,1.7069899,-1.6359186,-0.09674345,3.4657183,1.2422342,-6.6566315
39,1747638526820,1.4304798,-1.8828844,-0.23440392,3.0588176,1.0656995,-6.0580015
40,1747638526830,0.809407,-2.325349,-0.5011573,2.542957,1.0040039,-5.43425
41,1747638526840,0.18757193,-2.5501182,-0.71467584,0.6630747,0.5812975,-3.5839937
42,1747638526850,-0.17485777,-2.6577466,-0.63000625,-0.38681903,0.5263213,-2.453239
43,1747638526860,-0.17485777,-2.6577466,-0.63000625,-0.38681903,0.5263213,-2.453239
44,1747638526870,-0.41816464,-2.6604297,-0.5023769,-1.2068051,0.46096063,-1.1081533
45,1747638526880,-0.45940689333333334,-2.6522076666666665,-0.30249734333333334,-1.2398163,-0.25742121333333334,0.28076063333333323
46,1747638526890,-0.5006491466666667,-2.6439856333333336,-0.10261778666666665,-1.2728275,-0.9758030566666667,1.6696745666666664
47,1747638526900,-0.5418914,-2.6357636,0.09726177,-1.3058387,-1.6941849,3.0585885
48,1747638526910,-0.32761055,-2.511305,0.040642615,-1.1076951,-2.2860959,4.372521
49,1747638526920,0.04712166000000001,-2.3827,0.0270899945,-0.9556705,-2.68013045,5.569209
50,1747638526930,0.42185387,-2.254095,0.013537374,-0.8036459,-3.074165,6.765897
51,1747638526940,1.475391,-2.0463998,-0.15433827,-0.03229855,-3.954396,8.319358
52,1747638526950,1.7504374999999999,-1.964886,-0.305536105,0.037185325,-3.9605045,8.485813499999999
53,1747638526960,2.025484,-1.8833722,-0.45673394,0.1066692,-3.966613,8.652269
54,1747638526970,2.6843944,-1.5539321,-0.74178106,-0.35505497,-3.6446965,8.8398
55,1747638526980,2.8175272,-1.4477674,-0.75678193,-0.5382328000000001,-3.54604475,8.808952000000001
56,1747638526990,2.95066,-1.3416027,-0.7717828,-0.72141063,-3.447393,8.778104
57,1747638527000,3.1239324,-0.85326625,-0.6934551,-1.5245221,-3.058894,8.516662
58,1747638527010,3.0905005,-0.5717483050000001,-0.627811,-2.0725284,-2.81547135,8.480622
59,1747638527020,3.0570686,-0.29023036,-0.5621669,-2.6205347,-2.5720487,8.444582
60,1747638527030,3.2659528,0.3498985,-0.018659625,-3.1725879,-2.349624,8.92654
61,1747638527040,3.5878619,0.5586759,0.26346048749999995,-2.9043495999999998,-2.51336925,8.793681
62,1747638527050,3.909771,0.7674533,0.5455806,-2.6361113,-2.6771145,8.660822
63,1747638527060,4.2983,1.5008193,0.6507697,-1.4361019,-2.8005056,7.2643485
64,1747638527070,4.2983,1.5008193,0.6507697,-1.4361019,-2.8005056,7.2643485
65,1747638527080,3.8416877,2.5267937,0.59171134,-1.1039537,-2.5775464,6.549046
66,1747638527090,3.6642536000000003,2.6627314999999996,0.65284297,-1.02110755,-1.8722850500000001,5.4003095
67,1747638527100,3.4868195,2.7986693,0.7139746,-0.9382614,-1.1670237,4.251573
68,1747638527110,3.1478362,2.9223962,0.86794704,-0.9320002,-0.67773503,3.4574718
69,1747638527120,2.9374732999999997,2.97572245,1.00376282,-0.794597735,-0.38483377,2.8365074
70,1747638527130,2.7271104,3.0290487,1.1395786,-0.65719527,-0.09193251,2.215543
71,1747638527140,2.505512,3.0243838,1.1227485,-0.07093464,-0.016187452,0.99201596
72,1747638527150,2.3169949,2.9427632,0.953012975,0.1530936,0.045508119,0.18535398000000003
73,1747638527160,2.1284778,2.8611426,0.78327745,0.37712184,0.10720369,-0.621308
74,1747638527170,1.641102,2.6087804,0.52408546,0.29671904,0.65276664,-2.0916173
75,1747638527180,1.5949711500000001,2.56071355,0.49541001,0.175542224,0.82227677,-2.3533654
76,1747638527190,1.5488403,2.5126467,0.46673456,0.054365408,0.9917869,-2.6151135
77,1747638527200,1.6916232,2.438679,0.47627777,-0.38804072,1.627068,-3.2730722
78,1747638527210,1.8700176,2.387426,0.51188964,-0.38804072,1.627068,-3.2730722
79,1747638527220,2.2512288,2.312025,0.6712587,-0.44912544,1.8842347,-3.57422
80,1747638527230,2.5971636499999997,2.0257584,0.7824237,-0.10705098000000002,2.24432925,-4.42848985
81,1747638527240,2.9430985,1.7394918,0.8935887,0.23502348,2.6044238,-5.2827597
82,1747638527250,3.0865978,1.41662225,0.82280715,0.596416,2.7681308,-5.823436
83,1747638527260,3.1106311499999997,1.188918425,0.7281141250000001,1.1275859000000001,2.8781214,-6.5060578499999995
84,1747638527270,3.1346645,0.9612146,0.6334211,1.6587558,2.988112,-7.1886797
85,1747638527280,2.9098954,0.06411959,0.23733091,2.4662957,2.8903766,-8.120222
86,1747638527290,2.8104537,-0.08976134,0.135206055,2.58934335,2.7831347,-8.2690015
87,1747638527300,2.711012,-0.24364227,0.0330812,2.712391,2.6758928,-8.417781
88,1747638527310,2.4918528,-0.6872962,-0.26611307,2.6195421,2.3234339,-8.565606
89,1747638527320,2.4842913500000003,-0.8177459,-0.35532561,2.43075215,2.27548245,-8.5332305
90,1747638527330,2.4767299,-0.9481956,-0.44453815,2.2419622,2.227531,-8.500855
91,1747638527340,2.439624,-1.3120582,-0.49429715,1.65753405,2.51035325,-8.2090995
92,1747638527350,2.4368188999999996,-1.4105395500000002,-0.483076975,1.337564625,2.784967275,-7.98049005
93,1747638527360,2.4340138,-1.5090209,-0.4718568,1.0175952,3.0595813,-7.7518806
94,1747638527370,2.205586,-2.103263,-0.22733033,0.21135315,4.270891,-6.966331
95,1747638527380,2.0520861999999997,-2.2311515,-0.0830993575,0.28018801,4.40191785,-6.862487
96,1747638527390,1.8985864,-2.35904,0.061131615,0.34902287,4.5329447,-6.758643
97,1747638527400,1.1805872,-2.8602889,0.16144235,1.6930395,3.8475742,-6.101982
98,1747638527410,1.1805872,-2.8602889,0.16144235,1.6930395,3.8475742,-6.101982
99,1747638527420,0.2209885,-2.9916077,-0.32443967,2.8170748,2.626414,-5.198463
100,1747638527430,-0.38387912999999996,-3.0169902,-0.7189443849999999,2.7638166,1.6661622,-3.97886825
101,1747638527440,-0.98874676,-3.0423727,-1.1134491,2.7105584,0.7059104,-2.7592735
102,1747638527450,-1.2986734,-2.9288905,-1.3689823,0.9659022,-0.4187358,-0.07513421
103,1747638527460,-1.3430967,-2.7583012499999997,-1.3468925999999999,-0.23040395000000002,-0.6890357,1.4471353949999999
104,1747638527470,-1.38752,-2.587712,-1.3248029,-1.4267101,-0.9593356,2.969405
105,1747638527480,-0.8701422,-2.6160064,-0.9555435,-2.7071986,-1.3209572,4.8715835
106,1747638527490,-0.2886906,-2.6452917,-0.59168084,-3.2346271,-1.8423153,6.149514
107,1747638527500,0.292761,-2.674577,-0.22781818,-3.7620556,-2.3636734,7.4274445
108,1747638527510,1.9591082,-2.4939868,0.45966098,-2.4479704,-4.6006727,9.365739
109,1747638527520,2.2550097,-2.4097899,0.43586384,-1.97349475,-4.8584501499999995,9.599999
110,1747638527530,2.5509112,-2.325593,0.4120667,-1.4990191,-5.1162276,9.834259
111,1747638527540,2.9662704,-2.120581,0.2866326,-0.34696123,-5.1846423,10.37799
112,1747638527550,3.3649218000000003,-1.66703325,-0.023675149999999978,-0.404266345,-4.77140415,10.567658000000002
113,1747638527560,3.7635732,-1.2134855,-0.3339829,-0.46157146,-4.358166,10.757326
114,1747638527570,4.134296,-0.72049934,-0.44158065,-1.2373475,-3.1138701,10.971122
115,1747638527580,4.2627792499999995,-0.24448072000000004,-0.06697036,-1.58033825,-2.6902095,11.1134495
116,1747638527590,4.3912625,0.2315379,0.30763993,-1.923329,-2.2665489,11.255777
117,1747638527600,5.39626,1.0893623,0.8477019,-1.3332505,-1.8762174,9.252732
118,1747638527610,5.39626,1.0893623,0.8477019,-1.3332505,-1.8762174,9.252732
119,1747638527620,5.254209,1.9542603,0.5346044,-1.1575556,-1.7442744,7.7017913
120,1747638527630,4.8288335,2.35144815,0.5605815199999999,-1.33577025,-1.39731315,6.63918415
121,1747638527640,4.403458,2.748636,0.58655864,-1.5139849,-1.0503519,5.576577
122,1747638527650,3.0006934000000003,3.29150295,1.2945419500000002,-0.39056048,-0.52929914,2.3878782
123,1747638527660,2.60240795,3.3365970750000002,1.237564575,-0.1905461735,-0.5882459,2.02805105
124,1747638527670,2.2041225,3.3816912,1.1805872,0.009468133,-0.64719266,1.6682239
125,1747638527680,1.75336465,3.3420241500000003,0.6979827999999999,0.072996244,-0.5012002,0.13255386
126,1747638527690,1.28687395,3.025313625,0.5673577999999999,-0.31019587800000004,-0.08548044999999999,-0.62462947
127,1747638527700,0.82038325,2.7086031,0.4367328,-0.693388,0.3302393,-1.3818128
128,1747638527710,0.5631426,2.556064,0.61951786,-1.0859337,0.631387,-2.1777468
129,1747638527720,0.5968183499999999,2.44893865,0.6800397,-1.09776885,0.55075516,-2.5106585
130,1747638527730,0.6304941,2.3418133,0.74056154,-1.109604,0.47012332,-2.8435702
131,1747638527740,1.2169613,2.2053726,0.7047058,-0.7046123,0.33146098,-3.1753368
132,1747638527750,1.4866263499999999,2.17511165,0.662721615,-0.70022183,0.40995486000000003,-3.2981170000000004
133,1747638527760,1.7562914,2.1448507,0.62073743,-0.69583136,0.48844874,-3.4208972
134,1747638527770,2.7102802,2.0489306,0.64000684,-0.88710296,1.2006966,-4.2278266
135,1747638527780,2.7102802,2.0489306,0.64000684,-0.88710296,1.2006966,-4.2278266
136,1747638527790,3.1432018,1.8634624,0.67540526,-0.4883724,2.9917772,-5.95599
137,1747638527800,3.2948874,1.5100881,0.88662183,-0.13602806,3.1380751,-6.231482
138,1747638527810,3.446573,1.1567138,1.0978384,0.21631628,3.284373,-6.506974
139,1747638527820,3.4211752,0.5587826,1.0539334,1.9659356,2.9490178,-6.883256
140,1747638527830,3.4697452,0.26032007,0.8159928,2.8762507,2.578768,-6.9932084
141,1747638527840,3.44387475,-0.068281425,0.495059405,3.19434935,2.4785890000000004,-7.1052990000000005
142,1747638527850,3.4180043,-0.39688292,0.17412601,3.512448,2.37841,-7.2173896
143,1747638527860,3.17738055,-0.6848570599999999,-0.11592140499999998,3.4329997,2.4624015999999997,-7.2406018
144,1747638527870,2.9367568,-0.9728312,-0.40596882,3.3535514,2.5463932,-7.263814
145,1747638527880,2.3683698,-1.2725438,-0.5728993,2.3448136,3.0021615,-6.457495
146,1747638527890,2.2193825,-1.3651559500000001,-0.53274452,2.02079725,3.1261635,-6.2522505
147,1747638527900,2.0703952,-1.4577681,-0.49258974,1.6967809,3.2501655,-6.047006
148,1747638527910,1.6880863000000002,-1.7314577500000001,-0.38229364,1.4089192499999998,3.24130825,-5.7143615
149,1747638527920,1.48022355,-1.868668475,-0.40169263,1.433200375,3.1470851250000003,-5.5843846
150,1747638527930,1.2723608,-2.0058792,-0.42109162,1.4574815,3.052862,-5.4544077
151,1747638527940,0.13339193,-2.3863587,-0.6712282,1.6612755,2.0131235,-4.4764414
152,1747638527950,-0.167281085,-2.4518808500000002,-0.8135078,1.5640744,1.4468680999999999,-3.92790055
153,1747638527960,-0.4679541,-2.517403,-0.9557874,1.4668733,0.8806127,-3.3793597
154,1747638527970,-0.9245661,-2.7321715,-1.4087408,0.12789614,-0.057725064,-1.1722922
155,1747638527980,-1.0746511,-2.7382694499999998,-1.45609105,-0.5572072299999999,-0.039399646999999996,-0.38181770000000004
156,1747638527990,-1.2247361,-2.7443674,-1.5034413,-1.2423106,-0.02107423,0.4086568
157,1747638528000,-1.2737938,-2.7446113,-1.2755013,-2.750798,-0.41201648,2.921759
158,1747638528010,-1.2737938,-2.7446113,-1.2755013,-2.750798,-0.41201648,2.921759
159,1747638528020,-0.19022451,-2.6333244,-0.24367274,-2.6952872,-1.8627787,5.7299
160,1747638528030,0.09189560499999999,-2.5847697,-0.16581759499999998,-2.3301914,-2.2427638500000002,6.20208485
161,1747638528040,0.37401572,-2.536215,-0.08796245,-1.9650956,-2.622749,6.6742697
162,1747638528050,0.9592328,-2.4329772,-0.1326297,-1.1425898,-3.0766087,7.3278766
163,1747638528060,1.3509325,-2.08618865,-0.32494275000000006,-0.74038505,-3.1492993499999997,7.7643648
164,1747638528070,1.7426322,-1.7394001,-0.5172558,-0.3381803,-3.22199,8.200853
165,1747638528080,1.7426322,-1.7394001,-0.5172558,-0.3381803,-3.22199,8.200853
166,1747638528090,2.2819624,-1.1256144,-0.5985105,-1.1251806,-2.7779043,8.947309
167,1747638528100,2.5596920499999998,-0.6985315799999999,-0.31980522899999997,-1.6582211999999998,-2.3188144,9.3199255
168,1747638528110,2.8374217,-0.27144876,-0.041099958,-2.1912618,-1.8597245,9.692542
169,1747638528120,3.2579036,0.047258858,0.33739772,-2.3987207,-1.7173971,9.921
170,1747638528130,3.8472826500000004,0.8433419289999999,0.7842530600000001,-2.0404588500000003,-1.8233791,9.3568825
171,1747638528140,4.4366617,1.639425,1.2311084,-1.682197,-1.9293611,8.792765
172,1747638528150,4.658625649999999,2.40756415,1.2358495,-1.2413561,-1.6224103,7.638225
173,1747638528160,4.737395325,2.940011475,1.7063114,-1.19075125,-1.3165285500000001,6.92320915
174,1747638528170,4.816165,3.4724588,2.1767733,-1.1401464,-1.0106468,6.2081933
175,1747638528180,4.816165,3.4724588,2.1767733,-0.4285857,-0.7791357,4.06893
176,1747638528190,4.5746725,3.60571345,2.1556745499999996,0.3521534499999999,-0.70003098,2.53658145
177,1747638528200,4.33318,3.7389681,2.1345758,1.1328926,-0.62092626,1.0042329
178,1747638528210,3.0865824,3.4038877,1.0378045,1.8407118,0.05222744,-2.2308905
179,1747638528220,2.82886935,3.21890735,0.838295885,1.7086161,0.25079098499999997,-2.7211336
180,1747638528230,2.5711563,3.033927,0.63878727,1.5765204,0.44935453,-3.2113767
181,1747638528240,1.820472,2.312757,0.33300725,0.86060745,0.84884864,-4.3402224
182,1747638528250,1.94090595,2.0375883999999997,0.33361703499999995,0.740652325,0.87144997,-4.4071102
183,1747638528260,2.0613399,1.7624198,0.33422682,0.6206972,0.8940513,-4.473998
184,1747638528270,2.3627598,1.4148996,0.36669824,0.10605835,1.0302702,-5.125161
185,1747638528280,2.3627598,1.4148996,0.36669824,0.10605835,1.0302702,-5.125161
186,1747638528290,2.5260315,1.1227789,0.4057249,0.03939965,1.1280059,-5.541759
187,1747638528300,2.6219213,0.40700546,0.5009134,0.11667182,1.3344722,-6.5741673
188,1747638528310,2.59397755,0.180894703,0.49969379999999997,0.191729675,1.35188135,-6.82094965
189,1747638528320,2.5660338,-0.045216054,0.4984742,0.26678753,1.3692905,-7.067732
190,1747638528330,2.263181,-0.9442929,0.42819571,0.54594475,1.4285426,-7.5099854
191,1747638528340,2.263181,-0.9442929,0.42819571,0.54594475,1.4285426,-7.5099854
192,1747638528350,2.0325575,-1.5246316,0.2768759,0.53036815,1.4053304,-7.4660044
193,1747638528360,1.9143189499999997,-1.69705025,0.24783457,0.33940202,1.7480157,-7.3065732
194,1747638528370,1.7960804,-1.8694689,0.21879324,0.14843589,2.090701,-7.147142
195,1747638528380,1.5332297,-2.142808,0.2607774,0.08857285,2.4284997,-6.9199066
196,1747638528390,1.2540366,-2.3803828,0.31666481,0.313517355,2.4016224,-6.6453308
197,1747638528400,0.9748435,-2.6179576,0.37255222,0.53846186,2.3747451,-6.370755
198,1747638528410,0.063113436,-2.974015,0.0389352,1.7067837,0.76149744,-5.054914
199,1747638528420,-0.139337397,-3.01124275,-0.154475475,1.7980671,0.3903695645,-4.59983275
200,1747638528430,-0.34178823,-3.0484705,-0.34788615,1.8893505,0.019241689,-4.1447515
201,1747638528440,-1.0417072,-2.8639476,-1.0504881,1.0363023,-0.3930802,-1.8668256
202,1747638528450,-1.0417072,-2.8639476,-1.0504881,1.0363023,-0.3930802,-1.8668256
203,1747638528460,-1.2291266,-2.7524474,-1.1547015,-0.40552622,-0.5781669,0.731795
204,1747638528470,-1.1041803,-2.7109509,-0.9875271,-1.1070843,-0.84632885,2.5338707
205,1747638528480,-0.9223709,-2.6645763,-0.80596167,-1.1070843,-0.84632885,2.5338707
206,1747638528490,-0.021586625,-2.3363254,-0.7095536,-1.1120474,-1.9201983,5.373776
207,1747638528500,0.43783043749999995,-2.2173550000000004,-0.7866770350000001,-0.6484907,-2.56651285,6.651096000000001
208,1747638528510,0.8972475,-2.0983846,-0.86380047,-0.184934,-3.2128274,7.928416
209,1747638528520,1.6786956,-1.8414185,-1.0651231,0.0025961008,-3.274523,8.36395
210,1747638528530,2.09759195,-1.4815651,-1.1222301,-0.1064401296,-3.0759977,8.43603
211,1747638528540,2.5164883,-1.1217117,-1.1793371,-0.21547636,-2.8774724,8.50811
212,1747638528550,3.091461,0.5041148,-1.4251137,-1.3040062,-2.4278123,9.271668
213,1747638528560,3.3935974,0.65153193,-1.40131655,-1.7354934499999999,-2.18438975,9.387424
214,1747638528570,3.6957338,0.79894906,-1.3775194,-2.1669807,-1.9409672,9.50318
215,1747638528580,4.1081667,0.90752244,-1.1332369,-2.9243168,-1.341726,8.8123115
216,1747638528590,4.0719297,1.17939807,-0.29968215,-2.6929775,-1.3777659999999998,8.02886175
217,1747638528600,4.0356927,1.4512737,0.5338726,-2.4616382,-1.413806,7.245412
218,1747638528610,3.6061556,2.117776,1.0778373,-1.0422581,-1.7986398,6.3022637
219,1747638528620,3.6068873000000004,2.2783493000000004,0.9431190500000001,-0.23849765,-2.04756,5.75097415
220,1747638528630,3.607619,2.4389226,0.8084008,0.5652628,-2.2964802,5.1996846
221,1747638528640,3.5824957,2.9377627,0.37060088,0.4126273,-1.5237585,3.6792095
222,1747638528650,3.5824957,2.9377627,0.37060088,0.4126273,-1.5237585,3.6792095
223,1747638528660,2.7786074,3.2201269,0.6314698,-0.5457157,-0.2678565,1.519788
224,1747638528670,1.7533644,3.1827772,1.3221198,-0.7500441,0.083380654,0.6762079
225,1747638528680,1.7533644,3.1827772,1.3221198,-0.7500441,0.083380654,0.6762079
226,1747638528690,0.98853326,2.7557096,1.3528838,0.8157102,0.35161895,-1.9474574
227,1747638528700,0.9393535550000001,2.6245281499999997,1.2037745000000002,1.051879,0.352229805,-2.2763987
228,1747638528710,0.89017385,2.4933467,1.0546652,1.2880478,0.35284066,-2.60534
229,1747638528720,0.8887104,2.1712244,0.4826196,1.3154596,0.47623178,-3.6487434
230,1747638528730,1.0181692,2.0659133499999998,0.3627803,0.9581139350000001,0.660707665,-3.9712707
231,1747638528740,1.147628,1.9606023,0.242941,0.60076827,0.84518355,-4.293798
232,1747638528750,1.4414866,1.889836,0.27004623,-0.024204822,1.2892694,-4.6248775
233,1747638528760,1.8273169999999999,1.90605645,0.447831015,-0.43137268600000006,1.7599272,-4.80874255
234,1747638528770,2.2131474,1.9222769,0.6256158,-0.83854055,2.230585,-4.9926076
235,1747638528780,3.6862211,1.1811055,1.1068939,-0.6927008,3.4694598,-6.188112
236,1747638528790,3.80555735,0.94353065,1.1761967,-0.39705072,3.61636855,-6.675568
237,1747638528800,3.9248936,0.7059558,1.2454995,-0.10140064,3.7632773,-7.163024
238,1747638528810,3.704759,-0.16601579,1.1007655,1.411439,3.8023715,-8.492915
239,1747638528820,3.5779832000000003,-0.41580169499999997,1.0102266500000001,2.34168295,3.3863845,-8.682583000000001
240,1747638528830,3.4512074,-0.6655876,0.9196878,3.2719269,2.9703975,-8.872251
241,1747638528840,3.2142425,-1.090216,0.6566237,3.2719269,2.9703975,-8.872251
242,1747638528850,2.9016023,-1.6286011,0.050887115,3.2719269,2.9703975,-8.872251
243,1747638528860,2.698816,-1.8223624,-0.240014,3.4095967,2.1126916,-8.514905
244,1747638528870,2.34652415,-1.89570515,-0.44940122000000005,2.65069535,2.27273355,-8.0179427
245,1747638528880,1.9942323,-1.9690479,-0.65878844,1.891794,2.4327755,-7.5209804
246,1747638528890,1.5596032,-2.1054583,-0.6409825,0.71041536,2.8586125,-6.530797
247,1747638528900,1.1996279300000001,-2.2132084499999998,-0.44671812,0.17332790500000006,2.86197225,-5.641976
248,1747638528910,0.83965266,-2.3209586,-0.25245374,-0.36375955,2.865332,-4.753155
249,1747638528920,0.200377525,-2.45592085,-0.13958131000000001,-0.04161397,1.2526187,-2.661538
250,1747638528930,-0.1478134975,-2.449937175,-0.209326245,0.033138465000000006,0.8738933799999999,-2.233334
251,1747638528940,-0.49600452,-2.4439535,-0.27907118,0.1078909,0.49516806,-1.80513
252,1747638528950,-1.0236268,-2.29364,-0.56728923,0.09544489,-0.43767205,-0.43561044
253,1747638528960,-1.05926915,-2.1598974,-0.644031495,-0.586527905,-1.206728775,2.4196042799999997
254,1747638528970,-1.0949115,-2.0261548,-0.72077376,-1.2685007,-1.9757855,5.274819
255,1747638528980,-0.88331375,-2.03359425,-0.68087813,-1.45946685,-2.21676475,6.084497
256,1747638528990,-0.671716,-2.0410337,-0.6409825,-1.650433,-2.457744,6.894175
257,1747638529000,-0.30931684,-2.0798469,-0.5624109,-1.8139490999999999,-3.0665296499999997,8.3492895
258,1747638529010,0.13473345500000006,-2.0844814,-0.451733685,-1.5705073999999999,-3.6588988249999996,8.99464975
259,1747638529020,0.57878375,-2.0891159,-0.34105647,-1.3270657,-4.251268,9.64001
260,1747638529030,1.386331,-2.1386614,-0.47283247,-0.82853794,-4.823632,9.818988
261,1747638529040,2.01194675,-2.0108948,-0.739814535,-0.64005339,-4.82546435,9.0954395
262,1747638529050,2.6375625,-1.8831282,-1.0067966,-0.45156884,-4.8272967,8.371891
263,1747638529060,2.3966641,-1.3308704,-1.1812885,-1.4709965,-3.7161655,6.5478244
264,1747638529070,2.41802215,-1.2039574499999999,-1.08831045,-1.8825167,-3.4199047,6.36762455
265,1747638529080,2.4393802,-1.0770445,-0.9953324,-2.2940369,-3.1236439,6.1874247
266,1747638529090,3.052678,-0.6370494,-0.7944976,-3.1819414999999998,-2.4379295,5.7329542
267,1747638529100,3.21264165,-0.442297155,-0.560688225,-3.5458346499999998,-2.0651409000000003,5.4513536
268,1747638529110,3.3726053,-0.24754491,-0.32687885,-3.9097278,-1.6923523,5.169753
269,1747638529120,3.3150108,1.2228458,0.9304506,-3.2006106,-2.7339232,4.1825476
270,1747638529130,3.3150108,1.2228458,0.9304506,-3.2006106,-2.7339232,4.1825476
271,1747638529140,3.1263714,1.7538828,1.2208639,-2.371309,-2.8579252,4.2668443
272,1747638529150,3.0891588,2.0862803000000003,1.20048155,-1.837963,-2.7412533999999997,4.41344765
273,1747638529160,3.0519462,2.4186778,1.1800992,-1.304617,-2.6245816,4.560051
274,1747638529170,3.5683486,3.0463667,1.2765074,-0.7936433,-1.157861,3.7909944
275,1747638529180,3.6913436500000003,3.1678981999999998,1.4029172,-0.64100785,-1.0521844,3.28307495
276,1747638529190,3.8143387,3.2894297,1.529327,-0.4883724,-0.9465078,2.7751555
277,1747638529200,3.2996438,3.3372676,1.5742382,0.25625043,-0.52716118,0.813953965
278,1747638529210,2.8779271,3.3237152,1.43927605,0.659982265,-0.22189026300000003,-0.26835281749999995
279,1747638529220,2.4562104,3.3101628,1.3043139,1.0637141,0.083380654,-1.3506596
280,1747638529230,2.088689,3.2030528,0.9858197,1.0232456,0.38826978,-1.8472785
281,1747638529240,2.115413,3.1065228,0.7999856999999999,0.5518623600000001,0.8024242399999999,-2.1227706
282,1747638529250,2.142137,3.0099928,0.6141517,0.08047912,1.2165787,-2.3982627
283,1747638529260,2.890382,2.5882912,0.9238344,-0.81738997,1.9098903,-3.8869739
284,1747638529270,2.98872625,2.46235395,0.9727702,-0.8030350850000001,2.13437665,-4.29807395
285,1747638529280,3.0870705,2.3364167,1.021706,-0.7886802,2.358863,-4.709174
286,1747638529290,3.093656,1.5869524,1.1718062,-0.3004986615,3.02262485,-5.77239215
287,1747638529300,2.91940815,1.02955705,1.0390393,0.8345891692499998,3.147085025,-6.645770075
288,1747638529310,2.7451603,0.4721617,0.9062724,1.969677,3.2715452,-7.519148
289,1747638529320,2.566522,-0.11427496,0.5148166,1.969677,3.2715452,-7.519148
290,1747638529330,2.566522,-0.11427496,0.5148166,2.8332622,2.9911664,-7.8532815
291,1747638529340,2.466973,-0.45033115,0.2476059,3.4513633,2.6740603,-8.051806
292,1747638529350,2.2136352,-1.1221997,-0.5074991,3.4968715,2.203097,-7.951017
293,1747638529360,2.2136352,-1.1221997,-0.5074991,3.4968715,2.203097,-7.951017
294,1747638529370,2.1787245,-1.369897,-0.739098,3.0881383,2.3063302,-7.7805905
295,1747638529380,2.13236525,-1.5238998499999998,-0.80327855,2.4058601,2.58644185,-7.549690249999999
296,1747638529390,2.086006,-1.6779027,-0.8674591,1.7235819,2.8665535,-7.31879
297,1747638529400,1.6811347,-2.1250021,-0.46697846,0.22379917,3.8817816,-6.4501653
298,1747638529410,1.5436114,-2.2086959999999998,-0.314698235,0.2322365,3.88147615,-6.28096065
299,1747638529420,1.4060881,-2.2923899,-0.16241801,0.24067383,3.8811707,-6.111756
300,1747638529430,0.80571777,-2.4463928,-0.06064378,0.9509365,2.9972749,-5.3279624
301,1747638529440,0.67699072,-2.467263,-0.12519022999999999,1.07898535,2.81092825,-5.1172202
302,1747638529450,0.54826367,-2.4881332,-0.18973668,1.2070342,2.6245816,-4.906478
303,1747638529460,0.10384752,-2.4717906,-0.49502888,1.2587271,2.1377363,-3.9175162
304,1747638529470,-0.13555669,-2.5033931,-0.60741349,0.97338508,1.85002725,-3.1084108
305,1747638529480,-0.3749609,-2.5349956,-0.7197981,0.68804306,1.5623182,-2.2993054
306,1747638529490,-0.45133728,-2.4588325,-0.7993759,-0.30206397,0.17080817,-0.80639476
307,1747638529500,-0.51553312,-2.35231725,-0.7170083,-0.6382208600000001,-0.375022035,-0.20650455499999998
308,1747638529510,-0.57972896,-2.245802,-0.6346407,-0.97437775,-0.92085224,0.39338565
309,1747638529520,-0.58680254,-2.0808225,-0.52164626,-1.3008755,-1.6685293,1.2956071
310,1747638529530,-0.52469526,-1.98099965,-0.43293683000000005,-1.5011953,-2.482216,2.87926675
311,1747638529540,-0.46258798,-1.8811768,-0.3442274,-1.7015151,-3.2959027,4.4629264
312,1747638529550,0.80769956,-1.4799644,0.114823766,-0.97315603,-4.019757,6.9821367
313,1747638529560,0.80769956,-1.4799644,0.114823766,-0.97315603,-4.019757,6.9821367
314,1747638529570,1.3035821,-1.3872457,0.04966753,-0.2622062,-4.2286663,7.9888897
315,1747638529580,1.74312,-1.289374,-0.07601053,0.24876754,-4.3196826,8.569195
316,1747638529590,2.29892985,-1.0425151000000001,-0.399123915,0.5344531699999999,-4.3410623,8.874618
317,1747638529600,2.8547397,-0.7956562,-0.7222373,0.8201388,-4.362442,9.180041
318,1747638529610,3.1024678,-0.3837114,-0.970209,0.45500484,-3.9537852,9.144612
319,1747638529620,3.0313202500000003,-0.03033712500000002,-0.8193770499999999,-0.18023811500000003,-3.1987398000000002,9.2420425
320,1747638529630,2.9601727,0.32303715,-0.6685451,-0.81548107,-2.4436944,9.339473
321,1747638529640,3.4284925,1.0785995,0.10823802,-1.5021498,-1.5970602,10.024233
322,1747638529650,3.8073866,1.2656683499999999,0.168393965,-1.5351737,-1.5610202,9.8107415
323,1747638529660,4.1862807,1.4527372,0.22854991,-1.5681976,-1.5249802,9.59725
324,1747638529670,4.494256,2.3601072,0.3954804,-1.8236082,-1.1132691,7.2203674
325,1747638529680,4.3910184999999995,2.6688294499999996,0.83672565,-1.678112,-0.9886562999999999,6.25767205
326,1747638529690,4.287781,2.9775517,1.2779709,-1.5326158,-0.8640435,5.2949767
327,1747638529700,3.59873125,3.2103703,1.42756805,-0.5924455,-1.054017,3.1074564
328,1747638529710,3.089471425,3.29761615,1.3122488250000002,-0.09303967999999996,-0.926960735,1.8628168999999999
329,1747638529720,2.5802116,3.384862,1.1969296,0.40636614,-0.79990447,0.6181774
330,1747638529730,1.8209598,3.063685,0.52997,-0.080860905,0.06627693,-1.2761363
331,1747638529740,1.8209598,3.063685,0.52997,-0.080860905,0.06627693,-1.2761363
332,1747638529750,1.5639937,2.8006208,0.40621272,-0.66467816,0.607564,-2.1111646
333,1747638529760,1.075642,2.561186,0.5855829,-1.4018182,1.4444247,-3.0659952
334,1747638529770,1.075642,2.561186,0.5855829,-1.4018182,1.4444247,-3.0659952
335,1747638529780,2.0984457,2.7137253,0.8194075,-1.7681737,1.5824761,-3.350039
336,1747638529790,2.4343799500000003,2.5793730000000004,0.83135945,-1.78313945,1.70556185,-3.7431192500000003
337,1747638529800,2.7703142,2.4450207,0.8433114,-1.7981052,1.8286476,-4.1361995
338,1747638529810,3.0236216,2.2485764,0.8520924,-1.7345008,2.2256982,-4.933966
339,1747638529820,2.9805551,1.934244,0.9710627000000001,-1.1911903499999998,2.7559518499999998,-5.9458727
340,1747638529830,2.9374886,1.6199116,1.090033,-0.6478799,3.2862055,-6.9577794
341,1747638529840,2.7363791,1.1349747,1.0458841,0.3846047,3.3900495,-7.5002117
342,1747638529850,2.6541334,0.756339825,0.8486927500000001,0.9615499500000001,3.37019695,-7.64162285
343,1747638529860,2.5718877,0.37770495,0.6515014,1.5384952,3.3503444,-7.783034
344,1747638529870,2.70467,-0.76297134,-0.3808149,4.1741486,1.6026342,-7.721949
345,1747638529880,2.6883122999999998,-0.90988537,-0.623527225,4.06977,1.4025817,-7.6541452
346,1747638529890,2.6719546,-1.0567994,-0.86623955,3.9653914,1.2025292,-7.5863414
347,1747638529900,2.4297453,-1.2236080500000002,-1.25109435,3.4108946,1.1579373,-7.4330187
348,1747638529910,2.16197055,-1.3237205250000001,-1.1764177249999999,2.2457417,1.68540395,-6.8951676
349,1747638529920,1.8941958,-1.423833,-1.1017411,1.0805888,2.2128706,-6.3573165
350,1747638529930,1.5383519,-1.6188445,-0.82620674,0.5441122,2.5018013,-5.629721
351,1747638529940,1.1688639,-1.9129165499999998,-0.686000405,0.51605141,2.42544535,-4.86524575
352,1747638529950,0.7993759,-2.2069886,-0.54579407,0.48799062,2.3490894,-4.1007705
353,1747638529960,-0.00060979166,-2.5349956,-0.5982666,0.7808155,1.6380633,-2.5399792
354,1747638529970,-0.30968271583000007,-2.6350471,-0.655617535,0.8929822999999999,1.2428451,-1.76481407
355,1747638529980,-0.61875564,-2.7350986,-0.71296847,1.0051491,0.8476269,-0.98964894
356,1747638529990,-1.222297,-2.8959312,-1.2952585,0.75409096,-0.86282176,1.8777444
357,1747638530000,-1.222297,-2.8959312,-1.2952585,0.75409096,-0.86282176,1.8777444
358,1747638530010,-0.90355885,-2.6414042,-1.5058806,0.26991814,-1.3521104,3.0482042
359,1747638530020,-0.693439855,-2.5578169,-1.348722,-0.97781373,-1.55704965,4.9027746
360,1747638530030,-0.48332086,-2.4742296,-1.1915634,-2.2255456,-1.7619889,6.757345
361,1747638530040,0.47969261500000004,-2.30266475,-0.4995566,-2.9109163,-1.9159224,7.775704
362,1747638530050,0.9416708075,-2.137929625,-0.2332377,-2.9498578,-2.2192081,7.9598745
363,1747638530060,1.403649,-1.9731945,0.0330812,-2.9887993,-2.5224938,8.144045
364,1747638530070,1.6752806,-0.79370487,0.55484945,-2.0305326,-2.438197,7.3822417
365,1747638530080,1.59340085,-0.53343052,0.578768525,-1.80680985,-2.3325203,7.35536455
366,1747638530090,1.5115211,-0.27315617,0.6026876,-1.5830871,-2.2268436,7.3284874
367,1747638530100,1.4570973,0.65421504,0.8191636,-0.77501243,-1.2079505,7.7445507
368,1747638530110,1.6181737,0.9113183699999999,0.87259665,-0.63356313,-1.00331665,7.793723849999999
369,1747638530120,1.7792501,1.1684217,0.9260297,-0.49211383,-0.7986828,7.842897
370,1747638530130,2.6668324,2.084573,1.1434814,-0.20860434,-0.661853,7.5380077
371,1747638530140,3.0565807,2.6815132,1.23341045,0.09983534999999999,-0.46363307,6.0047431
372,1747638530150,3.446329,3.2784534,1.3233395,0.40827504,-0.26541314,4.4714785
373,1747638530160,3.295497,3.6689336,1.4112103,0.6774296,0.11942064,3.0164402
374,1747638530170,3.295497,3.6689336,1.4112103,0.6774296,0.11942064,3.0164402
375,1747638530180,2.9791982,3.8126614,1.41804,0.97216344,0.6350521,1.7256435
376,1747638530190,2.856935,3.7429928500000003,1.3841204,1.26033062,0.9126822,0.8417475200000001
377,1747638530200,2.7346718,3.6733243,1.3502008,1.5484978,1.1903123,-0.04214846
378,1747638530210,2.5613995,2.9011447,0.80986434,2.1285737,1.4926816,-2.5143237
379,1747638530220,2.48452,2.7785157,0.71103237,2.16969135,1.44289755,-2.9175211
380,1747638530230,2.4076405,2.6558867,0.6122004,2.210809,1.3931135,-3.3207185
381,1747638530240,2.4755104,2.3139763,0.36864954,2.0481708,1.1066262,-4.200949
382,1747638530250,2.72576895,2.1558422000000004,0.31739657,1.9138989499999999,0.977431975,-4.4119969999999995
383,1747638530260,2.9760275,1.9977081,0.2661436,1.7796271,0.84823775,-4.623045
384,1747638530270,3.3794503000000002,1.7274026999999998,0.164628505,1.1110548,0.45851722,-5.426309
385,1747638530280,3.4858514,1.49770175,0.108733475,0.7960866799999999,0.49791686,-5.6874845
386,1747638530290,3.5922525,1.2680008,0.052838445,0.48111856,0.5373165,-5.94866
387,1747638530300,3.1332011,0.12342183,0.36718607,-0.8902335,1.2813284,-7.023751
388,1747638530310,3.1332011,0.12342183,0.36718607,-0.8902335,1.2813284,-7.023751
389,1747638530320,2.7215002,-0.324897,0.5509468,-1.1512944,1.6624972,-7.150196
390,1747638530330,2.4270623000000002,-0.727451,0.74655272,-0.9400939500000001,1.9688371,-7.068648
391,1747638530340,2.1326244,-1.130005,0.94215864,-0.7288935,2.275177,-6.9871
392,1747638530350,1.4348704,-2.1779318,1.0214621,1.5964493,2.1401796,-6.5283537
393,1747638530360,1.20706742,-2.415522,0.8464823499999999,2.07187935,1.9532604,-6.276684550000001
394,1747638530370,0.97926444,-2.6531122,0.6715026,2.5473094,1.7663412,-6.0250154
395,1747638530380,0.4911567,-3.3188522,0.010122542,3.1922114,1.343024,-5.0347557
396,1747638530390,0.10703368499999999,-3.5095799,-0.295535564,3.0286189500000003,1.25933795,-4.4434555499999995
397,1747638530400,-0.27708933,-3.7003076,-0.60119367,2.8650265,1.1756519,-3.8521554
398,1747638530410,-0.82693845,-3.7813487,-0.8491654,2.2818198,0.8427402,-2.692691
399,1747638530420,-1.047561075,-3.7236318500000003,-0.8947930749999999,1.7067454,0.277057435,-1.1951608
400,1747638530430,-1.2681837,-3.665915,-0.94042075,1.131671,-0.28862533,0.3023694
401,1747638530440,-0.39621213,-3.2688494,-1.0868622,0.009468133,-1.2891932,4.21309
402,1747638530450,-0.103710315,-3.07787775,-1.022193815,-0.1905461735,-1.3655490499999998,4.98676615
403,1747638530460,0.1887915,-2.8869061,-0.95752543,-0.39056048,-1.4419049,5.7604423
404,1747638530470,1.2272058,-2.2533631,-0.765441,-0.4010976,-2.3746688,7.181273
405,1747638530480,1.4929682999999998,-2.07399295,-0.746156335,-0.350664515,-2.5796462,7.32207325
406,1747638530490,1.7587308,-1.8946228,-0.72687167,-0.30023143,-2.7846236,7.4628735
407,1747638530500,2.9513917,-0.6150664,-1.0209743,-0.18676655,-3.1615164,7.070099
408,1747638530510,2.9513917,-0.6150664,-1.0209743,-0.18676655,-3.1615164,7.070099
409,1747638530520,2.9159935,-0.15479562,-1.1173518,-0.4734066,-2.942833,6.8923426
410,1747638530530,2.75907875,0.31035347,-1.165068,-1.3759334499999998,-2.5668184,7.155006800000001
411,1747638530540,2.602164,0.77550256,-1.2127842,-2.2784603,-2.1908038,7.417671
412,1747638530550,2.8349826,1.198942,-0.8230359,-3.3184278,-1.9324152,7.899706
413,1747638530560,3.1407778,1.4511517999999999,-0.32164990000000004,-3.4956879499999998,-1.71556445,7.7228275
414,1747638530570,3.446573,1.7033616,0.1797361,-3.6729481,-1.4987137,7.545949
415,1747638530580,3.68427,2.5467951,1.1727818,-1.7750458,-1.6245483,5.6553764
416,1747638530590,3.5582106500000004,2.72140885,1.06612925,-1.2691115499999999,-1.66883475,5.0997727
417,1747638530600,3.4321513,2.8960226,0.9594767,-0.7631773,-1.7131212,4.544169
418,1747638530610,2.5318856,3.444652,0.6134199,-0.083380654,-1.2690352,3.020716
419,1747638530620,2.4022895,3.531776,0.5735243,-0.12854517199999999,-1.18412745,2.7097948
420,1747638530630,2.2726934,3.6189,0.5336287,-0.17370969,-1.0992197,2.3988736
421,1747638530640,1.9734993,3.5293217,0.6229327,-1.1332744,0.021685077,0.23884128
422,1747638530650,1.84170805,3.44024635,0.740195615,-1.2239087999999998,0.1994798085,-0.12129136000000001
423,1747638530660,1.7099168,3.351171,0.85745853,-1.3145432,0.37727454,-0.481424
424,1747638530670,1.2335476,2.7520509,1.3111435,-1.0304229,0.85251373,-2.3078573
425,1747638530680,1.1654643500000001,2.61599115,1.3467706499999998,-0.7939868750000001,0.9267316649999999,-2.63496605
426,1747638530690,1.0973811,2.4799314,1.3823978,-0.55755085,1.0009496,-2.9620748
427,1747638530700,1.0607631,2.1548514,1.3052896,0.42759308,1.3418024,-3.722656
428,1747638530710,1.0607631,2.1548514,1.3052896,0.42759308,1.3418024,-3.722656
429,1747638530720,1.502984,1.9399760000000001,0.97766378,1.0500464,1.8530815,-4.450175
430,1747638530730,1.8403665,1.79092005,0.81641199,1.0307284,1.96822625,-4.6221285000000005
431,1747638530740,2.177749,1.6418641,0.6551602,1.0114104,2.083371,-4.794082
432,1747638530750,2.4867306,1.3338889,0.53436047,0.9166527,2.4926386,-5.3566723
433,1747638530760,2.5656833,1.019190615,0.54936132,0.96433695,2.7654201,-5.81912185
434,1747638530770,2.644636,0.70449233,0.56436217,1.0120212,3.0382016,-6.2815714
435,1747638530780,2.6375625,0.12708059,0.48603445,1.4425921,3.1499865,-6.724436
436,1747638530790,2.62571725,-0.058158880000000024,0.44587967500000003,1.8154761499999998,2.9786439,-6.794378
437,1747638530800,2.613872,-0.24339835,0.4057249,2.1883602,2.8073013,-6.86432
438,1747638530810,2.5516427,-0.7314756,0.17412601,2.45133005,2.3631389499999997,-6.8130085000000005
439,1747638530820,2.4028993,-0.99028645,-0.098222205,2.260974825,2.230585125,-6.6208972500000005
440,1747638530830,2.2541559,-1.2490973,-0.37057042,2.0706196,2.0980313,-6.428786
441,1747638530840,2.0448754,-1.3342699,-0.40901778499999997,1.5864849,2.288921,-6.0674697
442,1747638530850,1.8355949,-1.4194425,-0.44746515,1.1023502,2.4798107,-5.7061534
443,1747638530860,1.619881,-1.4331019,-0.42401865,0.40262471,2.60747795,-4.9257197
444,1747638530870,1.37765655,-1.5259732000000001,-0.35349624,0.090481755,2.552807125,-4.34556745
445,1747638530880,1.1354321,-1.6188445,-0.28297383,-0.2216612,2.4981363,-3.7654152
446,1747638530890,0.9985339,-1.7218382,-0.3715461,-0.34627405,2.2782311,-3.149681
447,1747638530900,0.7710816,-1.7143835,-0.51785035,-0.5491135,2.02656205,-2.60446175
448,1747638530910,0.5436293,-1.7069288,-0.6641546,-0.75195295,1.774893,-2.0592425
449,1747638530920,-0.032318957,-1.6027155,-0.750806,-1.82082115,0.66712156,-0.26300792
450,1747638530930,-0.032318957,-1.6027155,-0.750806,-1.941864325,0.53044449,-0.06522703000000002
451,1747638530940,-0.032318957,-1.6027155,-0.750806,-2.0629075,0.39376742,0.13255386
452,1747638530950,0.16973552,-1.6142101,-0.03305071,-1.8460568,-2.4284232,2.5069935
453,1747638530960,0.172906435,-1.5496484000000001,-0.057091747,-1.48748945,-2.9156121,2.9886466
454,1747638530970,0.17607735,-1.4850867,-0.081132784,-1.1289221,-3.402801,3.4702997
455,1747638530980,0.22976951,-1.3870018,-0.12580003,-0.81800085,-3.7570925,4.1513944
456,1747638530990,0.407813455,-1.3115857499999999,-0.188761015,-0.756916105,-3.9143855500000004,4.691421549999999
457,1747638531000,0.5858574,-1.2361697,-0.251722,-0.69583136,-4.0716786,5.2314487
458,1747638531010,1.0234133,-0.910358,-0.1782726,-1.0622634,-4.0521317,6.1367245
459,1747638531020,1.08247165,-0.76929795,-0.1359225675,-1.1055572,-4.05365885,6.25645045
460,1747638531030,1.14153,-0.6282379,-0.093572535,-1.148851,-4.055186,6.3761764
461,1747638531040,1.5622863,-0.21800053,0.04600878,-1.2005439,-4.0222,6.6712155
462,1747638531050,1.7458031,-0.03167868500000001,0.084928735,-1.1877925,-3.82428555,6.5487406
463,1747638531060,1.9293199,0.15464316,0.12384869,-1.1750411,-3.6263711,6.4262657
464,1747638531070,2.025728,1.2182114,0.29638925,-1.2640721,-3.1896152,6.230184
465,1747638531080,2.025728,1.2182114,0.29638925,-1.2640721,-3.1896152,6.230184
466,1747638531090,2.111861,1.5913429,0.42843962,-1.6815861,-2.5231047,5.999284
467,1747638531100,2.47634875,2.2353896,0.7093401850000001,-2.09562605,-2.2369227,5.598262650000001
468,1747638531110,2.8408365,2.8794363,0.99024075,-2.509666,-1.9507407,5.1972413
469,1747638531120,3.1676238,3.3038208,1.5229852,-2.5831966,-1.3588297,4.212479
470,1747638531130,3.04523865,3.6104697999999997,1.9898417,-1.9700587,-0.840525815,2.93821345
471,1747638531140,2.9228535,3.9171188,2.4566982,-1.3569208,-0.32222193,1.6639479
472,1747638531150,2.3788583,3.7536032,2.1028361,1.007058,0.38643724,-0.5889331
473,1747638531160,2.3788583,3.7536032,2.1028361,1.36062405,0.53212432,-1.03027025
474,1747638531170,2.3788583,3.7536032,2.1028361,1.7141901,0.6778114,-1.4716074
475,1747638531180,1.8233992,2.9846253,0.87724626,2.183397,1.1744303,-2.637104
476,1747638531190,1.8129107000000002,2.9150633499999996,0.76400798,2.1506786,1.24437225,-2.7962297
477,1747638531200,1.8024222,2.8455014,0.6507697,2.1179602,1.3143142,-2.9553554
478,1747638531210,2.1614065,2.424044,0.3823089,1.52856885,1.76450865,-3.942561
479,1747638531220,2.2338955499999997,2.1182487,0.43283014,1.472180075,1.896146275,-4.38328735
480,1747638531230,2.3063846,1.8124534,0.48335138,1.4157913,2.0277839,-4.8240137
481,1747638531240,2.1316488,1.0842401,0.48969322,1.9410435,2.2263093,-5.8460374
482,1747638531250,2.05233015,0.81102292,0.4469773,2.18870385,2.19088005,-6.0045522
483,1747638531260,1.9730115,0.53780574,0.40426138,2.4363642,2.1554508,-6.163067
484,1747638531270,1.8324239,-0.09085896,0.1521735,2.9510794,1.9642557,-6.356095
485,1747638531280,1.7894793,-0.210195195,0.1040914315,2.98780655,1.91141745,-6.3594545
486,1747638531290,1.7465347,-0.32953143,0.056009363,3.0245337,1.8585792,-6.362814
487,1747638531300,1.6337844,-0.670222,-0.13311753,2.874418,1.7834449,-6.207048
488,1747638531310,1.51566775,-1.01762035,-0.24550212999999999,2.4871790000000003,2.02961635,-6.0069955
489,1747638531320,1.3975511,-1.3650187,-0.35788673,2.09994,2.2757878,-5.806943
490,1747638531330,0.9973143,-1.7615966,-0.39987087,1.3840271,2.6539023,-5.1495953
491,1747638531340,0.9973143,-1.7615966,-0.39987087,1.3840271,2.6539023,-5.1495953
492,1747638531350,0.6822349,-2.0883842,-0.408408,0.9565868,2.6404636,-4.3084583
493,1747638531360,0.570216185,-2.3205928,-0.427936575,0.9023741,2.25074305,-3.83963315
494,1747638531370,0.45819747,-2.5528014,-0.44746515,0.8481614,1.8610225,-3.370808
495,1747638531380,-0.11407677999999999,-2.6659179,-0.657812765,0.74095775,0.9865946999999999,-2.4627070499999997
496,1747638531390,-0.40803448999999997,-2.6466941999999998,-0.8039950825,0.34780117,0.5355985249999999,-1.1910376049999998
497,1747638531400,-0.7019922,-2.6274705,-0.9501774,-0.04535541,0.08460235,0.08063184
498,1747638531410,-0.64317775,-2.4903282,-0.924810075,-0.45286688,-0.029626092,1.1984823
499,1747638531420,-0.407554255,-2.42712325,-0.8662395875,-0.79463594,-0.451721546,2.3750123
500,1747638531430,-0.17193076,-2.3639183,-0.8076691,-1.136405,-0.873817,3.5515423
501,1747638531440,1.0849109,-1.6737561,-0.48697963,-1.4547328,-3.0521746,5.47762
502,1747638531450,1.2452556,-1.4957122,-0.442937415,-1.4914980999999998,-3.3264451,5.717683
503,1747638531460,1.4056003,-1.3176683,-0.3988952,-1.5282634,-3.6007156,5.957746
504,1747638531470,1.5647255,-1.052165,-0.32248834,-1.7663412,-3.7448754,6.9314365
505,1747638531480,2.06074515,-0.33101015,-0.005838769999999993,-1.83487065,-3.5579562,7.34471295
506,1747638531490,2.5567648,0.3901447,0.3108108,-1.9034001,-3.371037,7.7579894
507,1747638531500,2.9037974,0.77281946,0.46112445,-2.19004,-2.5157745,8.605234
508,1747638531510,3.3233342,1.3160828,0.77815515,-2.19004,-2.5157745,8.605234
509,1747638531520,3.601277,1.8244052,1.2555001,-2.3064828,-1.4626738,7.56855
510,1747638531530,3.4311757,2.3823037,1.9017268,-1.8323891,-1.009425,6.497735
511,1747638531540,2.9521234,2.900657,2.368614,-0.9288696,-0.7357655,5.4507427
512,1747638531550,2.4947796,3.4500182,2.5125856,0.24808034,-0.52135813,4.676112
513,1747638531560,2.4769051,3.696259725,2.36102955,0.78690487,-0.4074351125,4.306091325
514,1747638531570,2.4590306,3.9425012500000003,2.2094735,1.3257294,-0.293512095,3.93607065
515,1747638531580,2.5492036,4.063804,2.069877,1.6039321,-0.21104772,3.6559973
516,1747638531590,2.830836,4.1370096,1.3343462,2.020759,0.68819577,1.1001359
517,1747638531600,2.4042460666666665,3.8630301666666664,1.1766032333333332,2.0710266666666666,1.11884308,-0.13156119999999993
518,1747638531610,1.9776561333333333,3.5890507333333335,1.0188602666666666,2.1212943333333336,1.54949039,-1.3632582999999998
519,1747638531620,1.5510662,3.3150713,0.8611173,2.171562,1.9801377,-2.5949554
520,1747638531630,1.100796,2.2075677,0.2004995,2.8768616,1.4047196,-4.1526923
521,1747638531640,1.2551495,2.0206361,0.06297623,2.8603688,1.2608651,-4.34327665
522,1747638531650,1.409503,1.8337045,-0.07454704,2.843876,1.1170106,-4.533861
523,1747638531660,2.2277822,1.0864353,-0.37691224,2.1603377,0.6093965,-5.649268
524,1747638531670,2.3424841,0.9517170699999999,-0.39766039,1.92577235,0.52968093,-5.8627975
525,1747638531680,2.457186,0.81699884,-0.41840854,1.691207,0.44996536,-6.076327
526,1747638531690,2.6133842,0.5336592,-0.41401803,1.3179793,0.43163994,-6.36709
527,1747638531700,2.6600027,0.10875634,-0.34959355,0.85251373,0.48172942,-6.7372637
528,1747638531710,2.5618873,-0.15479562,-0.26343,0.5496862,0.5373165,-6.9174633
529,1747638531720,2.205586,-0.89303994,0.08482202,-0.14568707,0.659486,-6.565615
530,1747638531730,2.205586,-0.89303994,0.08482202,-0.14568707,0.659486,-6.565615
531,1747638531740,2.1401858,-1.2640067,0.18071176,-0.31389913,0.9826242,-6.2247624
532,1747638531750,1.9465312,-1.58590045,0.29687708,-0.1973800175,1.3992220499999999,-6.0039412
533,1747638531760,1.7528766,-1.9077942,0.4130424,-0.080860905,1.8158199,-5.78312
534,1747638531770,0.3764549,-2.465205,0.12872702,1.4849697,1.2611705,-4.512481
535,1747638531780,0.1431486,-2.4938804,-0.017211370000000004,1.64447715,1.0149990500000001,-4.0922183
536,1747638531790,-0.0901577,-2.5225558,-0.16314976,1.8039846,0.7688276,-3.6719556
537,1747638531800,-0.94017684,-2.4144397,-0.8745327,1.6805935,-0.044897273,-0.8577059
538,1747638531810,-1.00118647,-2.36452835,-1.02852035,1.3297763,-0.2229592365,0.47459015000000004
539,1747638531820,-1.0621961,-2.314617,-1.182508,0.9789591,-0.4010212,1.8068862
540,1747638531830,-0.48234522,-2.0234716,-1.3338279,-0.2602973,-1.3661599,4.6907725
541,1747638531840,-0.31968329,-1.96282785,-1.3330961000000001,-0.490853965,-1.5335321,5.09855125
542,1747638531850,-0.15702136,-1.9021841,-1.3323643,-0.72141063,-1.7009043,5.50633
543,1747638531860,0.29995652,-1.63165005,-1.20729605,-1.456947015,-2.10009295,6.481853
544,1747638531870,0.7569344,-1.361116,-1.0822278,-2.1924834,-2.4992816,7.457376
545,1747638531880,1.2689459,-1.175404,-0.88867986,-2.5308166,-2.726593,7.7647085
546,1747638531890,1.5409283,-0.92269105,-0.679902465,-2.7965733000000004,-2.75469205,7.74424505
547,1747638531900,1.8129107,-0.6699781,-0.47112507,-3.06233,-2.7827911,7.7237816
548,1747638531910,1.3851112,0.4340802,0.20440216,-3.2411556,-2.3484023,7.9644556
549,1747638531920,1.4248849,0.61907575,0.39854458,-3.2411556,-2.3484023,7.9644556
550,1747638531930,1.4646586,0.8040713,0.592687,-3.2411556,-2.3484023,7.9644556
551,1747638531940,2.2519608,1.7329061,1.1735137,-2.1918726,-3.6184301,8.5331545
552,1747638531950,2.6387669000000002,2.15925705,1.05344565,-1.67597395,-3.9311838000000003,8.15595625
553,1747638531960,3.025573,2.585608,0.9333776,-1.1600753,-4.2439375,7.778758
554,1747638531970,3.7579632,3.1615565,0.7686424,-1.1270132,-3.2079408,6.688319
555,1747638531980,3.97175625,3.40766835,1.0394051499999999,-1.3158031499999998,-1.402199915,4.7170769
556,1747638531990,4.1855493,3.6537802,1.3101679,-1.5045931,0.40354097,2.7458348
557,1747638532000,2.530178,3.793148,2.349314,0.14965758,2.0729866,-0.9529981
558,1747638532010,2.31760465,3.5732572,2.28013315,0.76806409,2.1838553000000003,-1.5119232999999999
559,1747638532020,2.1050313,3.3533664,2.2109523,1.3864706,2.294724,-2.0708485
560,1747638532030,1.731168,2.4484355,1.6562246,3.58407,2.2721226,-3.7910707
561,1747638532040,1.731168,2.4484355,1.6562246,3.58407,2.2721226,-3.7910707
562,1747638532050,1.6615908,2.2422345,1.2428164,4.484459,1.7938293,-4.4562836
563,1747638532060,2.5804553,1.9635292,-0.33715382,4.1112313,1.4444247,-5.1172204
564,1747638532070,2.5804553,1.9635292,-0.33715382,4.1112313,1.4444247,-5.1172204
565,1747638532080,3.3313835,1.7084838,-0.5755824,3.2831514,1.6221813,-5.5515327
566,1747638532090,3.66742425,1.3385232,-0.6003552000000001,2.6158389,1.7009805500000001,-6.27450835
567,1747638532100,4.003465,0.9685626,-0.625128,1.9485264,1.7797798,-6.997484
568,1747638532110,3.5893252,0.109000266,-0.3556915,1.3298144,1.6343982,-7.991333
569,1747638532120,3.26548015,-0.21704009200000002,-0.215729058,1.1163997,1.3527976,-7.9931655
570,1747638532130,2.9416351,-0.54308045,-0.075766616,0.902985,1.071197,-7.994998
571,1747638532140,2.4091344,-1.5129236,0.020641448,0.36154523,0.65643173,-7.124541
572,1747638532150,2.24988735,-1.6245764999999999,0.0280809075,0.1724116435,0.8149465899999999,-6.87714775
573,1747638532160,2.0906403,-1.7362294,0.035520367,-0.016721943,0.97346145,-6.6297545
574,1747638532170,1.5373763,-2.2848284,0.32325056,-0.27465218999999996,1.50123345,-5.95110315
575,1747638532180,1.3007771,-2.4277179,0.384870005,-0.1310267325,1.5195589250000001,-5.591275925
576,1747638532190,1.0641779,-2.5706074,0.44648945,0.012598725,1.5378844,-5.2314487
577,1747638532200,-0.38618106,-2.7948887,0.3957243,1.2494117,0.27526304,-2.9077094
578,1747638532210,-0.56654221,-2.80661185,0.339471015,1.4840152500000001,-0.16427973,-2.23669365
579,1747638532220,-0.74690336,-2.818335,0.28321773,1.7186188,-0.6038225,-1.5656779
580,1747638532230,-0.94494843,-2.7657406,-0.03282203499999997,1.8036411,-1.1826002500000001,-0.3619652
581,1747638532240,-1.1429935,-2.7131462,-0.3488618,1.8886634,-1.761378,0.8417475
582,1747638532250,-0.9079493,-2.679455,-0.6602519,1.0686773,-1.813911,3.2058027
583,1747638532260,-0.52919245,-2.62637265,-0.539452175,0.36242332499999996,-1.87194145,4.38141635
584,1747638532270,-0.1504356,-2.5732903,-0.41865245,-0.34383065,-1.9299719,5.55703
585,1747638532280,0.44819686,-2.3983107,-0.21415883,-0.8273163,-2.2592187,6.333417
586,1747638532290,0.619030015,-2.29338075,-0.094197565,-0.70923185,-2.4858811999999997,6.54874065
587,1747638532300,0.78986317,-2.1884508,0.0257637,-0.5911474,-2.7125437,6.7640643
588,1747638532310,1.1189677,-1.96660865,0.02160187,0.0076355906,-3.2751338,6.957703
589,1747638532320,1.29974045,-1.763563275,-0.14751623000000003,0.6942660952999999,-3.60529685,7.034364500000001
590,1747638532330,1.4805132,-1.5605179,-0.31663433,1.3808966,-3.9354599,7.111026
591,1747638532340,2.057437,-0.5662525,-1.2735499,1.4968048,-3.3209474,7.442105
592,1747638532350,2.1826425,-0.28951381750000005,-1.46476535,1.09364565,-3.0759977000000003,7.58355435
593,1747638532360,2.307848,-0.012775135,-1.6559808,0.6904865,-2.831048,7.7250037
594,1747638532370,2.8733077,1.3028809,-2.06012,-1.8497982,-1.6526473,8.478178
595,1747638532380,3.2688948499999997,1.6987272,-1.8049680000000001,-3.05919935,-1.40097825,8.57560825
596,1747638532390,3.664482,2.0945735,-1.549816,-4.2686005,-1.1493092,8.6730385
597,1747638532400,4.1018247,2.4533292500000003,-0.921639125,-4.86020625,-1.13098375,7.842247950000001
598,1747638532410,4.5391674,2.812085,-0.29346225,-5.451812,-1.1126583,7.0114574
599,1747638532420,4.672163,3.6972277,0.96508676,-4.9708457,-0.16767757,4.5667706
600,1747638532430,4.42678285,3.8974682,1.52798548,-3.9025503500000003,0.27369773999999997,3.1318520999999997
601,1747638532440,4.1814027,4.0977087,2.0908842,-2.834255,0.71507305,1.6969336
602,1747638532450,3.6376512,4.085269,2.4069088,0.050013117,0.959412,-0.6280273
603,1747638532460,3.1407778,3.685642,2.1441953,0.7353837085,0.96949095,-1.2135243999999998
604,1747638532470,2.6439044,3.286015,1.8814818,1.4207543,0.9795699,-1.7990215
605,1747638532480,1.59863,2.6300313,0.61000514,2.4743896,1.4767996,-3.334157
606,1747638532490,1.59082455,2.5804858,0.44209898999999997,2.30148165,1.6240138000000002,-3.3763055
607,1747638532500,1.5830191,2.5309403,0.27419284,2.1285737,1.771228,-3.418454
608,1747638532510,2.103324,2.3147082,-0.01695221,1.1851964,2.2482996,-3.6988328
609,1747638532520,2.3097842,2.1535098,0.026602165,0.76993479,2.60934855,-4.0894696
610,1747638532530,2.5162444,1.9923114,0.07015654,0.35467318,2.9703975,-4.4801064
611,1747638532540,2.610701,1.4685918,0.34495914,0.21570544,3.5500915,-5.363392
612,1747638532550,2.610701,1.4685918,0.34495914,0.21570544,3.5500915,-5.363392
613,1747638532560,2.3229709,0.25544173,0.6012241,1.90424,3.4474692,-6.9290695
614,1747638532570,2.2097326500000003,-0.025336845000000052,0.41330154500000005,2.528564,3.08183895,-7.1614967499999995
615,1747638532580,2.0964944,-0.30611542,0.22537899,3.152888,2.7162087,-7.393924
616,1747638532590,1.9964274,-0.64583033,-0.14287418,3.551695,2.3875728,-7.489827
617,1747638532600,1.94346705,-0.8734046150000001,-0.38485476500000004,3.4093295,2.27242815,-7.39361875
618,1747638532610,1.8905067,-1.1009789,-0.62683535,3.266964,2.1572835,-7.2974105
619,1747638532620,1.8077885,-1.5143871,-0.89258254,1.6450881,2.383297,-6.6413603
620,1747638532630,1.78338155,-1.63372335,-0.873679045,1.22325985,2.5366197,-6.4950623499999995
621,1747638532640,1.7589746,-1.7530596,-0.85477555,0.8014316,2.6899424,-6.3487644
622,1747638532650,1.449048,-2.3131533,-0.6585445,-0.3276432,3.2782645,-5.9651527
623,1747638532660,1.1077476,-2.5313214000000004,-0.46196292,-0.4749719,3.25719035,-5.8130517
624,1747638532670,0.7664472,-2.7494895,-0.26538134,-0.6223006,3.2361162,-5.6609507
625,1747638532680,0.18598647999999995,-2.87262185,-0.10456403,-0.275263025,2.46060735,-4.9373638500000006
626,1747638532690,-0.39447424,-2.9957542,0.05625328,0.07177455,1.6850985,-4.213777
627,1747638532700,-1.2154673,-2.9830704,-0.14872819,0.489594065,0.66528901,-2.4841248
628,1747638532710,-1.38154405,-2.89080885,-0.228046845,0.5358275575,0.258579275,-0.848065925
629,1747638532720,-1.5476208,-2.7985473,-0.3073655,0.58206105,-0.14813046,0.78799295
630,1747638532730,-1.3526094,-2.644087,-0.34154433,0.33161372,-0.44683477,3.6132379
631,1747638532740,-0.841207625,-2.5963709,-0.28663258,0.221012183,-0.71346961,5.07320095
632,1747638532750,-0.32980585,-2.5486548,-0.23172083,0.110410646,-0.98010445,6.533164
633,1747638532760,1.9312713,-2.1347587,-0.26660094,0.4556157,-2.5267696,8.496504
634,1747638532770,2.30271065,-1.9212097,-0.38973309500000003,0.5144861000000001,-2.6703569500000004,8.319358000000001
635,1747638532780,2.67415,-1.7076607,-0.51286525,0.5733565,-2.8139443,8.142212
636,1747638532790,2.86721,-0.94404894,-0.7815395,0.13095038,-2.2048533,7.3407044
637,1747638532800,2.6840438,-0.66424605,-0.73847297,-0.11919157999999999,-1.81849235,7.39965105
638,1747638532810,2.5008776,-0.38444316,-0.69540644,-0.36933354,-1.4321314,7.4585977
639,1747638532820,2.3739798,0.10265843,0.11506769,-0.76875126,-0.46882528,8.233229
640,1747638532830,2.6119206,0.32730569500000006,0.10470123,-0.6597150300000001,-0.52013644,8.903633750000001
641,1747638532840,2.8498614,0.55195296,0.09433477,-0.5506788,-0.5714476,9.5740385
642,1747638532850,4.1394186,1.2701961,0.17900434,-0.8603784,-0.51524967,9.244181
643,1747638532860,4.1394186,1.2701961,0.17900434,-0.8603784,-0.51524967,9.244181
644,1747638532870,4.603835500000001,1.9675537,0.3433737,-0.450652565,-1.01889325,6.8199951500000005
645,1747638532880,4.30060145,2.2587598,0.33440976499999997,-0.2040611625,-1.043785275,5.689412225
646,1747638532890,3.9973674,2.5499659,0.32544583,0.04253024,-1.0686773,4.5588293
647,1747638532900,2.736623,3.2730875,0.35938072,0.66437274,-0.34848836,2.1904984
648,1747638532910,2.736623,3.2730875,0.35938072,0.66437274,-0.34848836,2.1904984
649,1747638532920,2.5233483,3.2354937,0.20586567,0.78829837,-0.23792501,1.2412416
650,1747638532930,2.1621385,3.006334,-0.0594242,0.63444126,0.17752749,-0.58587885
651,1747638532940,2.1621385,3.006334,-0.0594242,0.63444126,0.17752749,-0.58587885
652,1747638532950,1.5403033,2.5487463,-0.17119902,0.19890714,0.24899662,-2.7623277
653,1747638532960,1.5403033,2.5487463,-0.17119902,0.1082344995,0.014698514999999995,-2.9657780000000002
654,1747638532970,1.5403033,2.5487463,-0.17119902,0.017561859,-0.21959959,-3.1692283
655,1747638532980,1.5844827,2.6966512,-0.08088887,-0.074676074,-0.49325916,-3.1796126
656,1747638532990,2.2447499,2.43136145,-0.11029607,-0.22231021700000003,-0.539072705,-3.8793382999999997
657,1747638533000,2.9050171,2.1660717,-0.13970327,-0.36994436,-0.58488625,-4.579064
658,1747638533010,3.2046993,1.5598775,-0.12043386,-0.49150297,-0.22326468,-5.6456795
659,1747638533020,3.04254045,1.15817728,-0.021830545000000007,-0.492419245,-0.028671644999999996,-6.449249050000001
660,1747638533030,2.8803816,0.75647706,0.07677277,-0.49333552,0.16592139,-7.2528186
661,1747638533040,2.4274282,-0.026190553,0.15534443,-0.2528144,0.080326416,-7.8532815
662,1747638533050,2.28502655,-0.32745812650000006,0.151929595,-0.16966282,0.052838288,-7.84045365
663,1747638533060,2.1426249,-0.6287257,0.14851476,-0.08651124,0.02535016,-7.8276258
664,1747638533070,1.7745852,-1.0004243,0.042837866,-0.033520244,0.07116371,-7.666973
665,1747638533080,1.70967285,-1.0409297,0.027089995500000002,-0.07868476199999999,0.38792619,-7.3242875
666,1747638533090,1.6447605,-1.0814351,0.011342125,-0.12384928,0.70468867,-6.981602
667,1747638533100,1.3172414,-1.4257845,0.08921252,-0.13820419,2.0711539,-5.7415824
668,1747638533110,1.3172414,-1.4257845,0.08921252,-0.13820419,2.0711539,-5.7415824
669,1747638533120,1.1544881,-1.6786345,0.1387581,0.16836478,2.37108,-5.389658
670,1747638533130,0.91238555,-1.9158434,0.0399108675,0.5587343650000001,2.28189625,-5.1746397
671,1747638533140,0.670283,-2.1530523,-0.058936365,0.94910395,2.1927125,-4.9596214
672,1747638533150,-0.111896776,-2.4842303,-0.41962814,1.3478345,1.9318808,-4.391534
673,1747638533160,-0.695894238,-2.41907405,-0.619990435,1.2437996,1.6615809000000001,-3.4306329
674,1747638533170,-1.2798917,-2.3539178,-0.82035273,1.1397647,1.391281,-2.4697318
675,1747638533180,-1.6281438,-2.2377524,-1.0453658,-0.4640912,0.9985062,2.0579443
676,1747638533190,-1.4491394,-2.26397345,-0.97850218,-0.710491725,0.9951465500000001,2.6679135499999997
677,1747638533200,-1.270135,-2.2901945,-0.91163856,-0.95689225,0.9917869,3.2778828
678,1747638533210,-0.7883692,-2.295591,-0.6873572,-1.4566417,0.9453625,4.54478
679,1747638533220,-0.3828882095,-2.2514116,-0.48150675,-1.5273472,0.8012025300000001,5.2185827499999995
680,1747638533230,0.022592781,-2.2072322,-0.2756563,-1.5980527,0.65704256,5.8923855
681,1747638533240,0.77181333,-1.9558762,0.08238286,-0.45347774,0.20562646,6.3670135
682,1747638533250,0.830261865,-1.8903389000000002,0.09567632000000001,-0.19176786500000004,-0.054327234999999974,6.389920249999999
683,1747638533260,0.8887104,-1.8248016,0.10896978,0.06994201,-0.31428093,6.412827
684,1747638533270,1.1205531,-1.383343,-0.26147866,1.071197,-1.7106777,6.629067
685,1747638533280,1.2961426999999999,-1.2589912,-0.383025405,1.03786765,-1.81391095,6.737798
686,1747638533290,1.4717323,-1.1346394,-0.50457215,1.0045383,-1.9171442,6.846529
687,1747638533300,2.196561,-0.06305246,-0.6077794,0.309508665,-1.7512991,7.0450542
688,1747638533310,2.283685,0.18795303500000002,-0.6230394349999999,-0.02338399750000003,-1.6411939,7.1479821
689,1747638533320,2.370809,0.43895853,-0.63829947,-0.35627666,-1.5310887,7.25091
690,1747638533330,2.9892292,1.9366679,-0.31761,-2.1370492,0.163478,8.538041
691,1747638533340,3.46901335,2.1159314,0.007820574999999996,-2.2841106499999997,0.24624780000000002,8.638831
692,1747638533350,3.9487975,2.2951949,0.33325115,-2.4311721,0.3290176,8.739621
693,1747638533360,5.12193,2.3876850999999997,0.6977389250000001,-1.9189766499999998,0.008284610000000026,7.5557608
694,1747638533370,6.2950625,2.4801753,1.0622267,-1.4067812,-0.31244838,6.3719006
695,1747638533380,5.2139626,3.462214,0.46624672,0.14721419,-0.2599155,-0.06352811
696,1747638533390,4.605665,3.5414108,0.44648946,0.02290677499999999,0.10754729999999996,-0.792612505
697,1747638533400,3.9973674,3.6206076,0.4267322,-0.10140064,0.4750101,-1.5216969
698,1747638533410,3.0926805,3.3614159,0.5655818,-0.47279578,1.0583693,-2.1997373
699,1747638533420,3.1068429,2.9503246499999998,0.5520444200000001,-0.46748904,1.0861627999999999,-2.6062944
700,1747638533430,3.1210053,2.5392334,0.53850704,-0.4621823,1.1139563,-3.0128515
701,1747638533440,2.7549474,2.089451,0.7701059,-0.3101577,1.2226871,-3.806342
702,1747638533450,2.7302964999999997,1.97474925,0.78852162,-0.004237749999999985,1.03271365,-4.3234243
703,1747638533460,2.7056456,1.8600475,0.80693734,0.3016822,0.8427402,-4.8405066
704,1747638533470,2.5411544,0.8233407,0.59171134,1.2506334,0.35833827,-6.295621
705,1747638533480,2.5411544,0.8233407,0.59171134,1.2506334,0.35833827,-6.295621
706,1747638533490,2.3219953,0.36136255,0.44600162,1.553461,0.3302393,-6.907079
707,1747638533500,1.8390402,-0.379077,0.24025792,1.7616072,0.4090386,-7.4782214
708,1747638533510,1.8390402,-0.379077,0.24025792,1.7616072,0.4090386,-7.4782214
709,1747638533520,1.6135393,-1.0446037,0.16607676,1.4357201,0.52448875,-7.0683427
710,1747638533530,1.7067459,-1.289374,0.201963,1.2226108,0.46767992,-6.810565
711,1747638533540,1.7067459,-1.289374,0.201963,1.2226108,0.46767992,-6.810565
712,1747638533550,1.7905923000000001,-1.60504795,0.16985747,1.0500464,0.46951246,-6.6963367
713,1747638533560,1.7188961,-1.914311425,0.14880441,0.791161725,0.8198333800000001,-6.79223965
714,1747638533570,1.6471999,-2.2235749,0.12775135,0.53227705,1.1701543,-6.8881426
715,1747638533580,1.315778,-2.5081341,0.22318375,0.5490753,1.4902382,-7.058569
716,1747638533590,0.8461164499999999,-2.70154485,0.24234645,0.9391012999999999,1.4902382,-6.9519763
717,1747638533600,0.3764549,-2.8949556,0.26150915,1.3291273,1.4902382,-6.8453836
718,1747638533610,-1.2037593,-2.682382,-0.19412717,3.142351,0.46157146,-4.294409
719,1747638533620,-1.33468155,-2.63773005,-0.334455485,3.27818815,0.27461402,-3.66432
720,1747638533630,-1.4656038,-2.5930781,-0.4747838,3.4140253,0.08765658,-3.034231
721,1747638533640,-1.624729,-2.4624913,-0.95676315,3.2407737,-0.30206397,-1.2382637
722,1747638533650,-1.3601708,-2.2670226,-1.4426757,0.89672375,-0.5787778,2.1843898
723,1747638533660,-0.7827591,-2.0937502,-1.252817,-1.1376266,-0.4614951,3.9895198
724,1747638533670,-0.7827591,-2.0937502,-1.252817,-1.1376266,-0.4614951,3.9895198
725,1747638533680,-0.30248716,-2.0120075,-0.79742455,-2.4355245,-0.38330665,5.285203
726,1747638533690,0.1887915,-1.8850794,-0.2222081,-2.9233623,-0.9000834,6.904559
727,1747638533700,1.0990885,-1.6036912,0.2768759,-2.19004,-1.0784508,7.6907196
728,1747638533710,1.865871,-1.2791295,0.2915109,-1.1650385,-0.89641833,7.8978734
729,1747638533720,2.00985815,-1.15331425,0.22818404,-0.78932922,-0.776997715,7.8526707
730,1747638533730,2.1538453,-1.027499,0.16485718,-0.41361994,-0.6575771,7.807468
731,1747638533740,2.2129035,-0.64680606,-0.16705243,0.42072105,-0.11514471,7.6778917
732,1747638533750,2.21278155,-0.45278558,-0.25954259,0.47054329500000003,0.13992219500000003,7.80284835
733,1747638533760,2.2126596,-0.2587651,-0.35203275,0.52036554,0.3949891,7.927805
734,1747638533770,2.2341242,0.5348788,-0.6749174,0.34279986,0.471650435,8.0285945
735,1747638533780,2.24621335,0.65031235,-0.70420265,0.039991414999999975,0.6474217175,8.146182750000001
736,1747638533790,2.2583025,0.7657459,-0.7334879,-0.26281703,0.823193,8.263771
737,1747638533800,2.6736622,1.5640242,0.022592781,-1.61676,1.2538403,8.301643
738,1747638533810,3.1549251,1.82490825,0.26614359049999997,-1.5460544,0.9194014500000001,7.9573925
739,1747638533820,3.636188,2.0857923,0.5096944,-1.4753488,0.5849626,7.613142
740,1747638533830,4.3014703,2.8506236,0.61049294,-0.65971502,0.11304491750000001,5.5264495
741,1747638533840,4.18811015,3.02401795,0.56180107,-0.23697055,0.21339566875000002,4.2555628
742,1747638533850,4.07475,3.1974123,0.5131092,0.18577392,0.31374642,2.9846761
743,1747638533860,3.1351523,3.7045453,0.12238518,0.3328354,0.5641938,-0.63352495
744,1747638533870,2.565546,3.7074723,-0.16973552,0.3328354,0.5641938,-0.63352495
745,1747638533880,2.1592114,3.4736784,-0.30517024,-0.2602973,0.6973585,-1.4801593
746,1747638533890,1.92310005,3.0984583,-0.08662090499999997,-0.7743634500000001,0.95757945,-2.2675795499999998
747,1747638533900,1.6869887,2.7232382,0.13192843,-1.2884296,1.2178004,-3.0549998
748,1747638533910,1.5957029,2.6986027,0.40231007,-1.2578872,1.2257414,-3.4202864
749,1747638533920,2.04170455,2.6828548,0.613297965,-0.98747275,1.1316709,-3.4593807
750,1747638533930,2.4877062,2.6671069,0.82428586,-0.7170583,1.0376004,-3.498475
751,1747638533940,4.014472,1.369531,0.96508676,0.73225313,0.8745042,-5.7373066
752,1747638533950,3.9895771499999997,1.0284745800000001,0.89444241,1.104220965,0.8351045500000001,-6.4006868
753,1747638533960,3.9646823,0.68741816,0.82379806,1.4761888,0.7957049,-7.064067
754,1747638533970,3.2706175,-0.19775544,0.38913855,2.224553,0.53914905,-8.382962
755,1747638533980,3.2706175,-0.19775544,0.38913855,2.224553,0.53914905,-8.382962
756,1747638533990,2.881601,-0.5728383,0.13997768,2.1709511,0.39071319,-8.508797
757,1747638534000,2.4008107,-1.2222664,-0.03305071,0.909857,0.5641938,-7.770206
758,1747638534010,2.3443135,-1.29034965,-0.008643797499999998,0.698007535,0.6762842499999999,-7.6095533500000005
759,1747638534020,2.2878163,-1.3584329,0.015763115,0.48615807,0.7883747,-7.4489007
760,1747638534030,2.0118248,-1.6383578,0.33642206,-0.1518719,1.4285426,-6.450776
761,1747638534040,2.0118248,-1.6383578,0.33642206,-0.1518719,1.4285426,-6.450776
762,1747638534050,1.5368885,-2.1518328,0.6934551,0.44378054,1.5641508,-5.7000446
763,1747638534060,1.3655675,-2.2745838000000003,0.681381225,0.75844322,1.32653125,-5.53629945
764,1747638534070,1.1942465,-2.3973348,0.66930735,1.0731059,1.0889117,-5.3725543
765,1747638534080,0.5111578649999999,-2.7769607,0.3236012,2.184619,-0.13285927,-4.070839
766,1747638534090,0.008552342500000032,-2.8347384,-0.017264714999999986,2.1731273,-0.352764285,-3.5681115500000002
767,1747638534100,-0.49405318,-2.8925161,-0.35813063,2.1616356,-0.5726693,-3.0653841
768,1747638534110,-0.9955763,-2.8376045,-0.76373357,1.6244719,-0.79990447,-1.6139348
769,1747638534120,-1.1642142,-2.7975870499999997,-0.917111435,0.884583175,-0.8777875049999999,-0.35005365
770,1747638534130,-1.3328521,-2.7575696,-1.0704893,0.14469445,-0.95567054,0.9138275
771,1747638534140,-0.53725696,-2.7250981,-0.5975349,-1.9844136,-1.4803883,4.7781234
772,1747638534150,-0.2629421725,-2.6543318,-0.46636869999999997,-2.0420241,-1.80902415,5.2411840000000005
773,1747638534160,0.011372615,-2.5835655,-0.3352025,-2.0996346,-2.13766,5.7042446
774,1747638534170,0.5931596,-2.3169339,-0.20889939,-1.69555935,-2.8249395,6.39725065
775,1747638534180,0.9140853499999999,-2.03731395,-0.20322069999999998,-1.327485675,-3.17006815,6.584017325
776,1747638534190,1.2350111,-1.757694,-0.19754201,-0.959412,-3.5151968,6.770784
777,1747638534200,1.379989,-1.3557498,-0.32273224,-0.75065494,-3.6123216,6.8642435
778,1747638534210,1.48247975,-1.0316608,-0.42523822,-0.88275062,-3.3731749,7.0603254
779,1747638534220,1.5849705,-0.7075718,-0.5277442,-1.0148463,-3.1340282,7.2564073
780,1747638534230,2.2524486,0.30571905,-0.5275003,-2.241733,-2.2433367,8.106783
781,1747638534240,2.4390143,0.576237875,-0.414871765,-2.5688418,-2.01335265,8.177946500000001
782,1747638534250,2.62558,0.8467567,-0.30224323,-2.8959506,-1.7833686,8.24911
783,1747638534260,3.358946,1.7255886,0.50530386,-3.203741,-1.2708677,7.7573786
784,1747638534270,3.358946,1.7255886,0.50530386,-3.203741,-1.2708677,7.7573786
785,1747638534280,3.8311687,2.7601,1.2415968,-1.589959,-0.7931852,5.489837
786,1747638534290,3.8311687,2.7601,1.2415968,-1.589959,-0.7931852,5.489837
787,1747638534300,3.8311687,2.7601,1.2415968,-1.589959,-0.7931852,5.489837
788,1747638534310,3.598838,3.6391451,1.1640009,0.35276428,-0.21104772,3.1098998
789,1747638534320,3.4469237,3.62451015,0.88688105,0.65963869,0.033634775000000006,2.2467344000000002
790,1747638534330,3.2950094,3.6098752,0.6097612,0.9665131,0.27831727,1.383569
791,1747638534340,3.2950094,3.6098752,0.6097612,1.0643632,0.8436564,-0.38670451000000006
792,1747638534350,3.0228898500000003,3.3831546,0.475774715,0.9824142,1.0802070499999998,-1.0534633549999999
793,1747638534360,2.7507703,3.156434,0.34178823,0.9004652,1.3167577,-1.7202222
794,1747638534370,1.8949276,2.44185,0.35227665,0.5764871,1.6734924,-3.4557157
795,1747638534380,1.86306595,2.3286115,0.382049725,0.54002715,1.717168,-3.58307735
796,1747638534390,1.8312043,2.215373,0.4118228,0.5035672,1.7608436,-3.710439
797,1747638534400,2.0364604,1.687507,0.49310803,0.5596888,2.0900903,-4.340833
798,1747638534410,2.0364604,1.687507,0.49310803,0.5596888,2.0900903,-4.340833
799,1747638534420,2.2185135,1.0625011,0.59439445,0.97277427,2.4370515,-5.4153137
800,1747638534430,2.2185135,1.0625011,0.59439445,1.154081335,2.44590875,-5.6819868499999995
801,1747638534440,2.2185135,1.0625011,0.59439445,1.3353884,2.454766,-5.94866
802,1747638534450,2.0644041,0.24897794,0.59401335,2.197752,2.1756089,-6.685952
803,1747638534460,1.97611385,0.03928583000000002,0.510982575,2.427965,2.08795225,-6.804762
804,1747638534470,1.8878236,-0.17040628,0.4279518,2.658178,2.0002956,-6.923572
805,1747638534480,1.68063155,-0.7178162699999999,-0.009375544999999999,3.0208688,1.9398218,-7.007869
806,1747638534490,1.677834175,-0.826786035,-0.10114157250000001,2.95260655,1.903171,-6.9076900000000006
807,1747638534500,1.6750368,-0.9357558,-0.1929076,2.8843443,1.8665202,-6.807511
808,1747638534510,1.8685541,-1.5839338,-0.33032414,2.0201483,2.0839818,-6.6407495
809,1747638534520,1.8468303000000001,-1.77197835,-0.34983748000000003,1.830442,2.1404852,-6.6914499
810,1747638534530,1.8251065,-1.9600229,-0.36935082,1.6407357,2.1969886,-6.7421503
811,1747638534540,1.5296929499999998,-2.35794245,-0.45305996000000004,1.2995775,2.3634444500000003,-6.856989649999999
812,1747638534550,1.2342794,-2.755862,-0.5367691,0.9584193,2.5299003,-6.971829
813,1747638534560,-0.86550784,-2.939379,-0.4723446,0.4711923,1.4884057,-5.305972
814,1747638534570,-1.16958047,-2.89166275,-0.5122402500000001,0.393920125,1.15579935,-4.3750407
815,1747638534580,-1.4736531,-2.8439465,-0.5521359,0.31664795,0.823193,-3.4441094
816,1747638534590,-1.6698841,-2.7607405,-0.60582805,-0.032603969999999996,0.11915339999999999,-0.9468514100000001
817,1747638534600,-1.354698,-2.73438225,-0.619624575,-0.38074873499999995,-0.19255049999999999,0.7254002949999998
818,1747638534610,-1.0395119,-2.708024,-0.6334211,-0.7288935,-0.5042544,2.397652
819,1747638534620,-0.40401748,-2.5005727,-0.44795296,-1.2061943,-0.8011262,4.241189
820,1747638534630,0.07517208000000003,-2.28886835,-0.314820195,-1.4728672999999999,-1.2110047,5.29280065
821,1747638534640,0.55436164,-2.077164,-0.18168743,-1.7395403,-1.6208832,6.3444123
822,1747638534650,1.4653904,-1.7708656,0.06015595,-1.825517,-2.4498029,7.3804092
823,1747638534660,1.71883505,-1.55586825,0.10933565,-1.7280105,-2.5591828,7.5713371
824,1747638534670,1.9722797,-1.3408709,0.15851535,-1.630504,-2.6685627,7.762265
825,1747638534680,2.3095555,-0.61726165,0.30276155,-1.3949461,-2.4742367,8.734734
826,1747638534690,2.48709625,-0.519527285,0.340705855,-1.3694050500000001,-2.3239682999999998,9.06001
827,1747638534700,2.664637,-0.42179292,0.37865016,-1.343864,-2.1736999,9.385286
828,1747638534710,3.3970275,0.08655993,0.5570447,-1.3971222,-1.49077275,9.8898465
829,1747638534720,3.88072945,0.17453763499999997,0.6297775999999999,-1.40599855,-1.490161925,9.77409075
830,1747638534730,4.3644314,0.26251534,0.7025105,-1.4148749,-1.4895511,9.658335
831,1747638534740,4.831532,1.3038566,0.5394827,-1.2248251,-1.7662648,7.566107
832,1747638534750,4.831532,1.3038566,0.5394827,-1.2248251,-1.7662648,7.566107
833,1747638534760,4.142102,2.354253,0.63586026,-1.3114891,-0.9709417,5.797704
834,1747638534770,3.7673694,2.60806365,0.87491388,-1.0556967849999999,-0.59404895,5.00387
835,1747638534780,3.3926368,2.8618743,1.1139675,-0.79990447,-0.2171562,4.210036
836,1747638534790,2.8583984,2.9924307,0.724463,-0.014813046,-0.09743014,1.5112361
837,1747638534800,2.7604202,3.00645585,0.645876115,-0.0216850775,-0.041843038,1.02561255
838,1747638534810,2.662442,3.020481,0.56728923,-0.028557109,0.013744064,0.539989
839,1747638534820,2.23278275,3.0162125499999997,0.28407144,-0.275263045,0.180543545,-1.10326652
840,1747638534830,2.043106975,2.8767990249999995,0.247651635,-0.4450403925,0.3067025875,-1.7810016100000001
841,1747638534840,1.8534312,2.7373855,0.21123183,-0.61481774,0.43286163,-2.4587367
842,1747638534850,1.64000425,2.480785,0.389748365,-0.56999683,0.64238226,-3.3445415
843,1747638534860,1.821752725,2.3475912,0.41665540749999996,-0.297711673,0.64757445,-3.61484145
844,1747638534870,2.0035012,2.2143974,0.44356245,-0.025426516,0.65276664,-3.8851414
845,1747638534880,2.7363791,1.4832573,0.2956575,0.6387935,0.4481328,-5.4354715
846,1747638534890,2.8133805499999998,1.3244980499999999,0.24295625,0.67460443,0.49211382,-5.69267655
847,1747638534900,2.890382,1.1657388,0.190255,0.71041536,0.53609484,-5.9498816
848,1747638534910,3.1505194,0.46069762,0.30690816,0.96216077,0.74744797,-7.0561256
849,1747638534920,3.1505194,0.46069762,0.30690816,0.96216077,0.74744797,-7.0561256
850,1747638534930,2.650734,-0.6360737,0.3530084,1.1821421,0.67658967,-7.4611173
851,1747638534940,2.51150335,-0.80800445,0.30286828,1.60584105,0.3754038075,-7.85603015
852,1747638534950,2.3722727,-0.9799352,0.25272816,2.02954,0.074217945,-8.250943
853,1747638534960,1.8922141,-1.4706956,-0.04552095,2.0388556,-0.2855711,-8.235672
854,1747638534970,1.4905138,-1.81577665,-0.25759124,1.218258585,-0.10842539000000001,-7.814798
855,1747638534980,1.0888135,-2.1608577,-0.46966153,0.39766157,0.06872032,-7.393924
856,1747638534990,0.17952266,-2.4256597,-0.08040103,-0.71201885,1.415104,-6.195442
857,1747638535000,-0.12054057000000001,-2.49581625,0.029422455,-0.635395675,1.54918495,-5.6636614000000005
858,1747638535010,-0.4206038,-2.5659728,0.13924594,-0.5587725,1.6832659,-5.1318808
859,1747638535020,-1.2115647,-2.671406,0.102384016,0.64001524,0.6326087,-2.5937338
860,1747638535030,-1.4099756,-2.668479,-0.231354957,0.9867855699999999,-0.06013027500000001,-1.2348659025
861,1747638535040,-1.6083865,-2.665552,-0.56509393,1.3335559,-0.75286925,0.124001995
862,1747638535050,-1.2803795,-2.5982003,-1.2298584,0.8668686,-1.2904148,2.9975038
863,1747638535060,-1.2803795,-2.5982003,-1.2298584,0.8668686,-1.2904148,2.9975038
864,1747638535070,-0.91505337,-2.4554176,-1.3557802,-0.9457443,-1.2733111,5.3212433
865,1747638535080,0.00085370836,-2.0207884,-1.0424389,-2.1277337,-1.1511416,6.257061
866,1747638535090,0.00085370836,-2.0207884,-1.0424389,-2.1277337,-1.1511416,6.257061
867,1747638535100,0.38596764,-1.8577608,-0.7359271,-2.795008,-0.95322716,6.6773243
868,1747638535110,0.56741117,-1.6526421500000001,-0.42403389249999995,-2.9825763,-0.845107195,6.87462785
869,1747638535120,0.7488547,-1.4475235,-0.112140685,-3.1701446,-0.73698723,7.0719314
870,1747638535130,1.0039,-0.81739527,0.77108157,-1.7681737,-1.0595145,7.536786
871,1747638535140,1.1646106,-0.6752375850000001,0.827456835,-1.7681737,-1.0595145,7.536786
872,1747638535150,1.3253212,-0.5330799,0.8838321,-1.7681737,-1.0595145,7.536786
873,1747638535160,1.914441,0.5807656,0.44648945,-0.026648212,-2.0234315,7.4085083
874,1747638535170,2.0224351499999997,1.1147296999999998,0.22220807915000002,-0.0035887274999999996,-1.5539954,7.12965665
875,1747638535180,2.1304293,1.6486938,-0.0020732917,0.019470757,-1.0845593,6.850805
876,1747638535190,2.2400088,2.0262463,0.31690875,-0.52448875,0.06261184,6.505065
877,1747638535200,2.4230378,2.243698,0.8952962,-0.62298787,0.791429,6.0261607
878,1747638535210,2.6761012,2.5389898,1.3216319,-0.29832253,0.82869065,5.5790205
879,1747638535220,4.029595,3.5664277,1.3230956,1.533532,-0.38636088,2.7934809
880,1747638535230,4.10745,3.6267055,1.1228552,1.62886235,-0.26083177,1.8741176
881,1747638535240,4.185305,3.6869833,0.9226148,1.7241927,-0.13530266,0.9547543
882,1747638535250,3.5890813,3.4519696,0.8164806,1.6045431,1.139001,-1.8197904
883,1747638535260,3.2055681,3.1162793,0.8184319250000001,1.7023932,1.24376135,-2.3683312
884,1747638535270,2.8220549,2.780589,0.82038325,1.8002433,1.3485217,-2.916872
885,1747638535280,2.875861375,2.72952655,0.7982935449999999,2.1407524,0.905352,-3.4764464000000004
886,1747638535290,2.92966785,2.6784641000000002,0.77620384,2.4812615,0.4621823,-4.0360208
887,1747638535300,3.5673728,2.4428256,0.56387436,2.4818723,-0.25258535,-4.84295
888,1747638535310,4.0028709,2.1598517,0.44063547000000003,2.38997805,-0.331384645,-5.241833
889,1747638535320,4.438369,1.8768778,0.31739658,2.2980838,-0.41018394,-5.640716
890,1747638535330,4.4564185,1.0800631,0.052350618,1.3684505,-0.42728767,-7.117821
891,1747638535340,4.09170225,0.564758602,0.060521826,0.64096963,-0.10166789500000001,-7.641012
892,1747638535350,3.726986,0.049454104,0.068693034,-0.08651124,0.22395188,-8.164203
893,1747638535360,2.7993402,-1.0892404,0.6510136,-1.1002122,1.1225082,-8.23445
894,1747638535370,2.6114329,-1.2300564999999999,0.75240668,-1.048519275,1.28193935,-8.102507000000001
895,1747638535380,2.4235256,-1.3708726,0.85379976,-0.99682635,1.4413705,-7.970564
896,1747638535390,2.0806396,-1.5588105,1.0693002,0.011987877,1.8225392,-7.2613707
897,1747638535400,1.84965055,-1.8312806,1.10261005,0.8148320885000001,1.8249826,-6.9394541
898,1747638535410,1.6186615,-2.1037507,1.1359199,1.6176763,1.827426,-6.6175375
899,1747638535420,1.2223275,-2.895687,0.31983575,3.2575722,1.6325656,-6.393967
900,1747638535430,0.9548423500000001,-3.1326521,-0.013415410000000016,3.3877971000000002,1.5265836,-6.370449499999999
901,1747638535440,0.6873572,-3.3696172,-0.34666657,3.518022,1.4206016,-6.346932
902,1747638535450,-1.4143509,-3.542646,-1.5966785,1.6220286,0.6985802,-4.56196
903,1747638535460,-1.6928122,-3.50262835,-1.601191,0.88897368,0.48050773,-3.59617235
904,1747638535470,-1.9712735,-3.4626107,-1.6057035,0.15591876,0.26243526,-2.6303847
905,1747638535480,-1.8093433,-3.5342307,-1.4093658,-0.7182800200000001,-0.19237869999999996,-0.86530335
906,1747638535490,-1.6474131,-3.6058507,-1.2130281,-1.5924788,-0.64719266,0.899778
907,1747638535500,-0.5916809,-3.2466223,-0.4642954,-1.5556753,-1.7680974,4.2589035
908,1747638535510,-0.46159708,-3.1519369,-0.44793772,-1.2503662,-2.24032055,4.7317373499999995
909,1747638535520,-0.33151326,-3.0572515,-0.43158004,-0.9450571,-2.7125437,5.2045712
910,1747638535530,0.09726177,-2.845166,-0.61585915,-0.39056048,-3.4901521,6.0915217
911,1747638535540,0.34131563499999995,-2.69495905,-0.74226895,-0.171838975,-3.8337537,6.727413650000001
912,1747638535550,0.5853695,-2.5447521,-0.86867875,0.04688253,-4.1773553,7.3633056
913,1747638535560,1.797544,-1.5653962,-1.3692262,-0.8693884000000001,-4.41253165,8.961358
914,1747638535570,2.0863718,-1.3519690999999998,-1.3396970499999998,-1.8069625,-3.823980225,9.342832000000001
915,1747638535580,2.3751996,-1.138542,-1.3101679,-2.7445366,-3.2354288,9.724306
916,1747638535590,2.9350493,-0.5262502,-0.018903542,-4.8331,-0.5311317,9.842811
917,1747638535600,3.2462108,-0.10343590000000003,0.9013940290000001,-4.34587285,-0.53296425,9.794249
918,1747638535610,3.5573723,0.3193784,1.8216916,-3.8586457,-0.5347968,9.745687
919,1747638535620,4.168444,1.1715927,2.3534606,-1.8279604,-1.4089192,9.798219
920,1747638535630,4.712424,1.46907955,2.2105712,-0.08521319999999988,-1.5152066,9.4109415
921,1747638535640,5.256404,1.7665664,2.0676818,1.657534,-1.621494,9.023664
922,1747638535650,4.494988,2.6881142,-0.06649778,4.7212386,-0.7162184,5.798315
923,1747638535660,4.0967025,2.78340935,-0.43915674,4.423412300000001,-0.42179003000000004,5.37037825
924,1747638535670,3.698417,2.8787045,-0.8118157,4.125586,-0.12736166,4.9424415
925,1747638535680,3.388978,3.243055,-0.9960642,1.7310648,0.6069531,4.016397
926,1747638535690,3.388978,3.243055,-0.9960642,1.7310648,0.6069531,4.016397
927,1747638535700,3.6825624,3.1435065,-0.32395184,-0.4425970215,0.5299863499999999,1.1092986
928,1747638535710,3.6825624,3.1435065,-0.32395184,-1.4130424,0.79875916,-1.4526712
929,1747638535720,2.6225463,2.80037675,0.3945199300000001,-1.477525,0.92550998,-1.8998113499999998
930,1747638535730,1.5625302,2.457247,1.1129917,-1.5420076,1.0522608,-2.3469515
931,1747638535740,1.3930386000000001,2.3308220000000004,1.2331816500000001,-0.88401054,1.2877424,-2.93890075
932,1747638535750,1.223547,2.204397,1.3533716,-0.22601348,1.523224,-3.53085
933,1747638535760,1.5693599,1.6906779,1.2064424,1.7771838,0.6277219,-4.0683956
934,1747638535770,1.6894278,1.6227166,1.061967485,2.04759825,0.46706907000000003,-4.29654695
935,1747638535780,1.8094957,1.5547553,0.91749257,2.3180127,0.30641624,-4.5246983
936,1747638535790,2.1394541,1.4163631,0.28151032,2.40712,0.8580113,-5.6695023
937,1747638535800,2.3316452500000002,1.3061738,0.30957599,2.3338946,0.98720555,-5.82496315
938,1747638535810,2.5238364,1.1959845,0.33764166,2.2606692,1.1163998,-5.980424
939,1747638535820,2.8564472,0.09241393,0.2505329,2.146059,1.4413705,-7.463561
940,1747638535830,2.7810464,-0.021800055,0.25846020000000003,2.15289295,1.4853515000000002,-7.6492585
941,1747638535840,2.7056456,-0.13601404,0.2663875,2.1597269,1.5293325,-7.834956
942,1747638535850,2.445234,-0.7502877,0.27663198,2.2986946,1.4535874,-7.9681206
943,1747638535860,2.39429355,-0.9110440175000001,0.26333091,2.33171855,1.2211600200000001,-7.8422861
944,1747638535870,2.3433531,-1.071800335,0.25002984,2.3647425,0.98873264,-7.7164516
945,1747638535880,2.180081425,-1.2355598675000001,0.1816340775,2.1957286750000002,0.84426727,-7.5383897
946,1747638535890,2.01680975,-1.3993194,0.113238315,2.0267148500000003,0.6998019,-7.3603278
947,1747638535900,1.7229130750000001,-1.47589405,0.096225125,1.5822853250000002,0.742866625,-6.91318755
948,1747638535910,1.4290164,-1.5524687,0.079211935,1.1378558,0.78593135,-6.4660473
949,1747638535920,1.1716690300000001,-1.78455535,0.0839683125,0.6284855100000001,0.965215025,-5.82736815
950,1747638535930,0.91432166,-2.016642,0.08872469,0.11911522,1.1444987,-5.188689
951,1747638535940,0.704690515,-2.13866135,0.12435177,-0.008933639999999993,1.2101648,-4.920527
952,1747638535950,0.49505937,-2.2606807,0.15997885,-0.1369825,1.2758309,-4.652365
953,1747638535960,-0.519695,-2.4800837,0.23757485,-0.029167956,0.38093963,-3.1215823
954,1747638535970,-0.8490282,-2.4350506,0.1017742365,0.0026342785,-0.320045735,-1.9560475
955,1747638535980,-1.1783614,-2.3900175,-0.034026377,0.034436513,-1.0210311,-0.7905127
956,1747638535990,-1.118937235,-2.3567075500000003,-0.2910230625,-0.3045455465,-1.5802619,1.1496145
957,1747638536000,-0.8566505675,-2.333710775,-0.37021978125,-0.6942851732499999,-1.7884080999999998,2.6789088999999997
958,1747638536010,-0.5943639,-2.310714,-0.4494165,-1.0840248,-1.9965543,4.2082033
959,1747638536020,0.5304578,-1.9973421,-0.09698737,-1.4865732,-2.4943948,6.2167454
960,1747638536030,0.80378165,-1.8626392,-0.08040103500000001,-1.37566625,-2.7024264000000002,6.4427587
961,1747638536040,1.0771055,-1.7279363,-0.0638147,-1.2647593,-2.910458,6.668772
962,1747638536050,1.3645918,-1.3174244,-0.23196477,-1.1600753,-2.6612325,6.961979
963,1747638536060,1.3645918,-1.3174244,-0.23196477,-1.1600753,-2.6612325,6.961979
964,1747638536070,1.3741045,-1.1114674,-0.21364051,-1.2634612,-2.3539,7.158061
965,1747638536080,1.67477755,-0.86948675,-0.0949140725,-1.26689725,-2.3966593,7.32268425
966,1747638536090,1.9754506,-0.6275061,0.023812365,-1.2703333,-2.4394186,7.4873075
967,1747638536100,2.2797673,0.27617463,-0.04183171,-1.1884033,-2.36733855,7.375217149999999
968,1747638536110,2.30636945,0.373314455,-0.010229256499999999,-1.2113101,-1.915922425,7.204027275
969,1747638536120,2.3329716,0.47045428,0.021373197,-1.2342169,-1.4645063,7.0328374
970,1747638536130,2.011337,0.91316307,0.24367274,-1.1843565,-0.62336963,6.7713947
971,1747638536140,2.2113333500000003,0.95049757,0.35813065499999996,-1.0915077,-0.696976715,6.70236885
972,1747638536150,2.4113297,0.98783207,0.47258857,-0.9986589,-0.7705838,6.633343
973,1747638536160,2.8459587,1.5662194,0.32276276,-0.098957255,-1.5769022,5.094619
974,1747638536170,2.72540285,1.8221032,0.19621572999999998,-0.045049984499999994,-1.3948697,4.595212999999999
975,1747638536180,2.604847,2.077987,0.0696687,0.008857286,-1.2128372,4.095807
976,1747638536190,2.3034575,2.649545,-0.045277033,-0.3500155,-0.70888823,3.3719532
977,1747638536200,2.4758761,2.8012153,0.09736848350000002,-0.4740175,-0.58396998,3.2510054999999998
978,1747638536210,2.6482947,2.9528856,0.240014,-0.5980195,-0.45905173,3.1300578
979,1747638536220,2.936025,2.982918,0.49896204,-0.9071082,0.28014982,1.6016415
980,1747638536230,3.0509706999999997,2.9577793000000003,0.592305895,-0.7491278,0.29664269,1.053711515
981,1747638536240,3.1659164,2.9326406,0.68564975,-0.5911474,0.31313556,0.50578153
982,1747638536250,2.938952,2.8157437,0.5218902,0.1776802,0.13171394,-1.6053829
983,1747638536260,2.938952,2.8157437,0.5218902,0.1776802,0.13171394,-1.6053829
984,1747638536270,2.3583694,2.5721927,0.27321714,0.1932568,0.5464792,-3.1435728
985,1747638536280,2.40302135,2.4892153500000003,0.30299022,0.199174385,0.61794835,-3.2984225499999997
986,1747638536290,2.4476733,2.406238,0.3327633,0.20509197,0.6894175,-3.4532723
987,1747638536300,2.5287147,1.8429734,0.50505996,0.7285117,1.1658783,-4.702455
988,1747638536310,2.4888037499999998,1.68738505,0.50030357,0.9291368499999999,1.22390885,-4.9532077
989,1747638536320,2.4488928,1.5317967,0.49554718,1.129762,1.2819394,-5.2039604
990,1747638536330,2.3595889,1.1935452,0.4179512,1.5366626,1.3387481,-5.6394944
991,1747638536340,2.2785628,0.9576777999999999,0.32483601500000003,1.8123838,1.2999593,-5.93029595
992,1747638536350,2.1975367,0.7218104,0.23172083,2.088105,1.2611705,-6.2210975
993,1747638536360,2.031338,0.048722353,-0.053570196,2.2263856,1.1597699,-6.7989593
994,1747638536370,1.962523,-0.0725652135,-0.093465818,2.1578561,1.21352445,-6.87928565
995,1747638536380,1.893708,-0.19385278,-0.13336144,2.0893266,1.267279,-6.959612
996,1747638536390,1.7433639,-0.39322415,-0.13360536,1.8955353,1.4285426,-6.995041
997,1747638536400,1.67197255,-0.528918045,-0.07869361750000001,1.7042638,1.56323445,-6.7256573
998,1747638536410,1.6005812,-0.66461194,-0.023781875,1.5129923,1.6979263,-6.4562736
999,1747638536420,1.6197439,-1.007863665,0.065415402,1.521086,1.903171,-6.3505974
