id,timestamp,acc_x,acc_y,acc_z,gyro_x,gyro_y,gyro_z
0,1747638600460,-0.10820753,1.0812826,0.2500451,1.8239136,-2.5573883,-0.07574506
1,1747638600470,-0.18655559666666666,1.1011414666666666,0.20562176666666668,2.0926609333333333,-3.0446408666666667,-0.12135498666666666
2,1747638600480,-0.2649036633333333,1.1210003333333334,0.16119843333333334,2.361408266666667,-3.5318934333333334,-0.16696491333333333
3,1747638600490,-0.34325173,1.1408592,0.1167751,2.6301556,-4.019146,-0.21257484
4,1747638600500,-0.5360374,1.1645192,-0.07796186,3.1753368,-4.769877,-0.004886778
5,1747638600510,-0.519801685,1.0976555000000001,-0.20719196,3.3388911500000003,-4.6779447,0.24036839599999998
6,1747638600520,-0.50356597,1.0307918,-0.33642206,3.5024455,-4.5860124,0.48562357
7,1747638600530,-0.44475153,0.9753923,-0.29590142,3.5579562,-4.2359967,0.59252185
8,1747638600540,-0.44475153,0.9753923,-0.29590142,3.5579562,-4.2359967,0.59252185
9,1747638600550,-0.408408,0.88752127,-0.09674345,4.0165496,-4.071068,0.5546493
10,1747638600560,-0.41694507,0.81382793,-0.058204614,4.385349,-4.349614,0.46180052
11,1747638600570,-0.41694507,0.81382793,-0.058204614,4.385349,-4.349614,0.46180052
12,1747638600580,-0.4469468,0.7344941,-0.06405862,4.815309,-4.7228417,0.3616216
13,1747638600590,-0.4615360725,0.7247984000000001,-0.22427376499999996,5.0929009999999995,-4.9671807,0.31244839
14,1747638600600,-0.47612534500000003,0.7151027,-0.38448890999999996,5.370493,-5.2115197,0.26327518
15,1747638600610,-0.4601488,0.66787434,-0.7019922,5.158605,-4.578071,0.30786702
16,1747638600620,-0.44927926,0.6593372550000001,-0.76995348,4.951757,-4.24149425,0.33596599
17,1747638600630,-0.43840972,0.65080017,-0.83791476,4.744909,-3.9049175,0.36406496
18,1747638600640,-0.3159026,0.64177525,-0.8003516,3.923701,-2.791343,0.5882459
19,1747638600650,-0.22499789999999997,0.619807475,-0.7228623000000001,3.7261682499999997,-2.5442169999999997,0.5946598000000001
20,1747638600660,-0.1340932,0.5978397,-0.645373,3.5286355,-2.297091,0.6010737
21,1747638600670,-0.054058034,0.563417,-0.6187861,3.4532723,-2.1761434,0.5082249
22,1747638600680,-0.0384321215,0.581726,-0.72700885,3.36416495,-2.05305765,0.39918867999999996
23,1747638600690,-0.022806209,0.600035,-0.8352316,3.2750576,-1.9299719,0.29015246
24,1747638600700,-0.114823766,0.6017424,-1.0875939,2.068176,-0.99537563,0.36773005
25,1747638600710,-0.118360558,0.5847902,-1.06916295,1.8481946999999999,-0.826476365,0.434312375
26,1747638600720,-0.12189735,0.567838,-1.050732,1.6282134,-0.6575771,0.5008947
27,1747638600730,0.031617697,0.53122,-0.82693845,0.92169213,0.06994201,0.8796201
28,1747638600740,0.148392796,0.502666505,-0.7452492399999999,0.864654265,0.14603067,0.9019159999999999
29,1747638600750,0.265167895,0.47411301,-0.66356003,0.8076164,0.22211933,0.9242119
30,1747638600760,0.3137378,0.47704002,-0.64927566,0.8935932,0.08826743,0.82281125
31,1747638600770,0.366088415,0.46533201,-0.71822788,0.9743014,0.0174091475,0.6642963900000001
32,1747638600780,0.41843903,0.453624,-0.7871801,1.0550096,-0.053449135,0.50578153
33,1747638600790,0.24736199,0.49338245,-0.8210845,0.99270314,0.2538834,0.47585002
34,1747638600800,0.20769504500000002,0.49362637499999995,-0.7894820499999999,0.99518472,0.31435727,0.56869881
35,1747638600810,0.1680281,0.4938703,-0.7578796,0.9976663,0.37483114,0.6615476
36,1747638600820,0.20562175,0.45972195,-0.7215055,1.1864945,0.27159795,1.2394091
37,1747638600830,0.4190336,0.396989625,-0.78753068,1.2774725,0.18084896,1.41350055
38,1747638600840,0.63244545,0.3342573,-0.85355586,1.3684505,0.09009997,1.587592
39,1747638600850,0.84209186,0.28230307,-0.9238344,1.3802857,0.11514471,1.4648117
40,1747638600860,0.8941985299999999,0.27631185999999996,-0.9788680999999999,1.3640601,0.130148645,1.323706
41,1747638600870,0.9463052,0.27032065,-1.0339018,1.3478345,0.14515258,1.1826003
42,1747638600880,0.89310088,0.31803685000000004,-1.1166352499999999,1.167138235,0.24166643999999998,0.89366955
43,1747638600890,0.83989656,0.36575305,-1.1993687,0.98644197,0.3381803,0.6047388
44,1747638600900,0.6012241,0.48143053,-1.2740377,0.5079195,0.32718506,0.5045598
45,1747638600910,0.5769391500000001,0.48984566500000004,-1.28123325,0.327223245,0.32229828000000005,0.5317425499999999
46,1747638600920,0.5526542,0.4982608,-1.2884288,0.14652699,0.3174115,0.5589253
47,1747638600930,0.6358908,0.4340802,-1.1944904,-0.71331686,0.5220453,0.70980453
48,1747638600940,0.675786385,0.4055267,-1.13543205,-0.86473063,0.5712185000000001,0.671626565
49,1747638600950,0.71568197,0.3769732,-1.0763737,-1.0161444,0.6203917,0.6334486
50,1747638600960,0.7957171,0.31742707,-0.93237144,-1.2155097,0.5690806,0.41415444
51,1747638600970,0.8228070999999999,0.294361695,-0.82742632,-1.0024003499999998,0.23643607700000002,0.07055285499999997
52,1747638600980,0.8498971,0.27129632,-0.7224812,-0.789291,-0.096208446,-0.27304873
53,1747638600990,0.8213589,0.26714975,-0.74739116,-0.61672664,-0.1847813,-0.44171894
54,1747638601000,0.79463478,0.271296325,-0.761782255,-0.521396295,-0.198830785,-0.527848395
55,1747638601010,0.76791066,0.2754429,-0.77617335,-0.42606595,-0.21288027,-0.61397785
56,1747638601020,0.6493062,0.33669648,-0.8244993,-0.19615832,-0.01007898,-0.7208761
57,1747638601030,0.65296495,0.34683426,-0.83230462,-0.17183896999999998,0.06570425999999999,-0.7016344
58,1747638601040,0.6566237,0.35697204,-0.84010994,-0.14751962,0.1414875,-0.6823927
59,1747638601050,0.6707708,0.35526463,-0.8520924,0.009468133,0.35772744,-0.6432985
60,1747638601060,0.6707708,0.35526463,-0.8520924,0.009468133,0.35772744,-0.6432985
61,1747638601070,0.72519475,0.32011014,-0.8742888,0.17088452,0.43652672,-0.6738409
62,1747638601080,0.741422825,0.282653685,-0.874654685,0.2591901275,0.3144908915,-0.7585959499999999
63,1747638601090,0.7576509,0.24519723,-0.87502057,0.347495735,0.19245506299999998,-0.843351
64,1747638601100,0.7437324,0.2344649,-0.8713618,0.3870481,0.118198946,-0.8858049
65,1747638601110,0.66979515,0.28509285,-0.9113793699999999,0.441718925,-0.183101467,-0.8882482625
66,1747638601120,0.5958579,0.3357208,-0.95139694,0.49638975,-0.48440187999999995,-0.890691625
67,1747638601130,0.6495501,0.31767097,-0.95115304,0.39140037,-0.64413846,-0.75508356
68,1747638601140,0.6688195,0.30510926,-0.954339235,0.35463500000000003,-0.598935755,-0.75722153
69,1747638601150,0.6880889,0.29254755,-0.95752543,0.31786963,-0.55373305,-0.7593595
70,1747638601160,0.68613756,0.30888996,-0.9426159,0.16714308,-0.22815146,-0.8436564
71,1747638601170,0.665160745,0.30986564,-0.9231025749999999,0.0733398485,0.01653105499999999,-0.88305605
72,1747638601180,0.64418393,0.31084132,-0.90358925,-0.020463383,0.26121357,-0.9224557
73,1747638601190,0.5863452,0.3062069,-0.72662777,-0.00045813544,0.21356747,-0.9597174
74,1747638601200,0.5863452,0.3062069,-0.72662777,-0.00045813544,0.21356747,-0.9597174
75,1747638601210,0.4323423,0.33181813,-0.66537416,0.39392012,-0.72049433,-1.0085852
76,1747638601220,0.36180465,0.390876455,-0.70796813,0.50917936,-0.974912215,-0.87755845
77,1747638601230,0.291267,0.44993478,-0.7505621,0.6244386,-1.2293301,-0.7465317
78,1747638601240,0.29471233,0.48874804,-0.819621,0.73538375,-1.33745,-0.44477317
79,1747638601250,0.35316084000000003,0.47338128,-0.841710735,0.7571833450000001,-1.28094665,-0.2962991
80,1747638601260,0.41160935,0.45801452,-0.86380047,0.77898294,-1.2244433,-0.14782503
81,1747638601270,0.39791957,0.45972195,-0.8642883,0.5484645,-0.7815791,-0.22662434
82,1747638601280,0.358145895,0.448852425,-0.84512555,0.49329735,-0.70613945,-0.24830942
83,1747638601290,0.31837222,0.4379829,-0.8259628,0.4381302,-0.6306998,-0.2699945
84,1747638601300,0.059668116,0.40676156,-0.7305609,0.28053162,-0.5903839,-0.2932067
85,1747638601310,-0.06332686700000001,0.43080258000000005,-0.6912598299999999,0.28988521,-0.8072346499999999,-0.14538165549999998
86,1747638601320,-0.18632185,0.4548436,-0.65195876,0.2992388,-1.0240854,0.002443389
87,1747638601330,-0.29210546000000004,0.4761863,-0.63964099,0.366813775,-1.5084873,0.36559208499999996
88,1747638601340,-0.305467515,0.48100365,-0.65581572,0.38689538749999997,-1.5430002,0.5141806725
89,1747638601350,-0.31882957,0.485821,-0.67199045,0.406977,-1.5775131,0.66276926
90,1747638601360,-0.3473983,0.5180485,-0.75129384,0.27052897,-0.6453601,1.0072871
91,1747638601370,-0.37131738000000003,0.527317335,-0.73688752,0.20700086,-0.48165305,1.0653176000000002
92,1747638601380,-0.39523646,0.53658617,-0.7224812,0.14347275,-0.317946,1.1233481
93,1747638601390,-0.46502713,0.536464215,-0.720163975,0.089260055,-0.387277165,1.1367867500000002
94,1747638601400,-0.5348178,0.53634226,-0.71784675,0.03504736,-0.45660833,1.1502254
95,1747638601410,-0.7149198,0.61345047,-0.71126103,-0.031000499,-0.8793146,1.3884559
96,1747638601420,-0.72260317,0.641516135,-0.725911285,-0.0447063845,-0.9226847499999999,1.47244735
97,1747638601430,-0.73028654,0.6695818,-0.74056154,-0.05841227,-0.9660549,1.5564388
98,1747638601440,-0.6949186,0.6790945,-0.8169379,-0.2578539,-0.69483876,1.7592402
99,1747638601450,-0.71035395,0.7097289075,-0.8146207125,-0.46470205,-0.23147294000000002,1.85453235
100,1747638601460,-0.7257893,0.740363315,-0.812303525,-0.6715502,0.23189288,1.9498245
101,1747638601470,-0.74983037,0.7437934,-0.762514,-0.6715502,0.23189288,1.9498245
102,1747638601480,-0.723350135,0.72828945,-0.74091215,-0.8092581,0.359559965,1.9941109000000001
103,1747638601490,-0.6968699,0.7127855,-0.7193103,-0.946966,0.48722705,2.0383973
104,1747638601500,-0.62683535,0.6493367,-0.6126577,-0.9519291,-0.22143213,1.8252116
105,1747638601510,-0.611209455,0.64970255,-0.55898078,-0.8575531999999999,-0.439199165,1.7228947
106,1747638601520,-0.59558356,0.6500684,-0.50530386,-0.7631773,-0.6569662,1.6205778
107,1747638601530,-0.5749573299999999,0.6559224,-0.48882423,-0.51238632,-0.84693975,1.4052541
108,1747638601540,-0.5543311,0.6617764,-0.4723446,-0.26159534,-1.0369133,1.1899304
109,1747638601550,-0.7149198,0.7833079,-0.6746735,0.00015271181,-0.2843494,0.8301414
110,1747638601560,-0.7387169,0.81858438,-0.69125983,-0.023212195595,-0.1023169175,0.8273926
111,1747638601570,-0.762514,0.85386086,-0.70784616,-0.046577103,0.079715565,0.8246438
112,1747638601580,-0.6597641,0.90483934,-0.74983037,-0.15874393,0.24472068,0.7611157
113,1747638601590,-0.600583815,0.93424657,-0.75812352,-0.1553270075,0.01653105099999999,0.542432375
114,1747638601600,-0.54140353,0.9636538,-0.76641667,-0.151910085,-0.21165857799999999,0.32374905
115,1747638601610,-0.5170119,1.0146629,-0.8120596,-0.14133479,-0.37903073,0.22418094
116,1747638601620,-0.501507935,1.0474849499999999,-0.853174815,-0.14629792,-0.498756765,0.050394897999999994
117,1747638601630,-0.48600397,1.080307,-0.89429003,-0.15126105,-0.6184828,-0.123391144
118,1747638601640,-0.4540509,1.1037534,-0.9972838,-0.576258,-0.13285927,-0.4826457
119,1747638601650,-0.45502657,1.09582615,-0.9803316,-0.7223650500000001,0.07669951500000002,-0.587406
120,1747638601660,-0.45600224,1.0878989,-0.9633794,-0.8684721,0.2862583,-0.6921663
121,1747638601670,-0.51774365,0.9841733,-0.8037664,-1.1008232,0.77127105,-0.89191335
122,1747638601680,-0.5090693550000001,0.9197488,-0.63110389,-0.879009235,0.58740601,-0.958495675
123,1747638601690,-0.50039506,0.8553243,-0.45844138,-0.65719527,0.40354097,-1.025078
124,1747638601700,-0.41450587,0.7935524,-0.4352388,-0.27091077,0.02535016,-1.1203703
125,1747638601710,-0.41450587,0.7935524,-0.4352388,-0.27091077,0.02535016,-1.1203703
126,1747638601720,-0.32956192,0.7435495,-0.5057917,0.07116371,-0.29778802,-1.2981268
127,1747638601730,-0.3603259,0.78550315,-0.68003964,0.35902548,-0.55006796,-1.6078264
128,1747638601740,-0.3603259,0.78550315,-0.68003964,0.35902548,-0.55006796,-1.6078264
129,1747638601750,-0.35813063,0.79135716,-0.8091326,0.102316916,-0.2275406,-1.6847931
130,1747638601760,-0.35813063,0.79135716,-0.8091326,0.102316916,-0.2275406,-1.6847931
131,1747638601770,-0.35813063,0.79135716,-0.8091326,0.102316916,-0.2275406,-1.6847931
132,1747638601780,-0.49478498,0.7435495,-0.6568371,-0.5861843,0.823193,-1.5723972
133,1747638601790,-0.50100486,0.72950905,-0.62169787,-0.59771405,0.857705885,-1.505204
134,1747638601800,-0.50722474,0.7154686,-0.58655864,-0.6092438,0.89221877,-1.4380108
135,1747638601810,-0.5101822,0.6822959,-0.54750144,-0.5451048,0.77799034,-1.3109546
136,1747638601820,-0.4647832075,0.68411765,-0.5265169949999999,-0.40957307499999995,0.606647685,-1.19672615
137,1747638601830,-0.419384215,0.6859394000000001,-0.50553255,-0.27404135,0.43530503,-1.0824977
138,1747638601840,-0.28638867,0.7086389,-0.5821681,0.15026842,0.05650337,-0.8662578
139,1747638601850,-0.23220867,0.7011994500000001,-0.62133195,0.17023549,0.0870457325,-0.8650360749999999
140,1747638601860,-0.17802867,0.69376,-0.6604958,0.19020256,0.117588095,-0.86381435
141,1747638601870,-0.11726294,0.6459218,-0.7571478,0.020081604,0.67231375,-0.98964894
142,1747638601880,-0.24977067000000003,0.64140935,-0.7195694,-0.15752223299999998,1.129838375,-0.92398287
143,1747638601890,-0.3822784,0.6368969,-0.681991,-0.33512607,1.587363,-0.8583168
144,1747638601900,-0.3822784,0.6368969,-0.681991,-0.33512607,1.587363,-0.8583168
145,1747638601910,-0.4686859,0.61296254,-0.6258597,-0.38865158,1.6105752,-0.5999284
146,1747638601920,-0.47819862,0.57686293,-0.56728923,-0.3519244,1.4688586,-0.3635305
147,1747638601930,0.017958365,0.53926927,-0.45185563,0.14652699,0.30641624,0.07330167
148,1747638601940,0.017958365,0.53926927,-0.45185563,0.14652699,0.30641624,0.07330167
149,1747638601950,0.2866326,0.50923705,-0.52676857,0.47615543,-0.23364908,-0.15882029
150,1747638601960,0.36547866,0.50923705,-0.5670453,0.6649836,-0.40957308,-0.44721654
151,1747638601970,0.33154374,0.582473,-0.8174257,0.8001335,-0.3014531,-0.78684765
152,1747638601980,0.0594242,0.7093707,-0.96411115,0.5234961,0.33879116,-0.9322293
153,1747638601990,-0.11945819,0.6857108,-0.9374937,0.2150946,0.81769544,-0.7685222
154,1747638602000,-0.30346284,0.66921586,-0.79057963,-0.1026986925,1.29873765,-0.2895797875
155,1747638602010,-0.17168686,0.6654352,-0.6409825,-0.17867282,1.2404017,0.31886226
156,1747638602020,0.033569020000000005,0.625539575,-0.6342748,-0.103920388,0.9361997500000001,0.41232189500000005
157,1747638602030,0.2388249,0.58564395,-0.6275671,-0.029167956,0.6319978,0.50578153
158,1747638602040,0.51871926,0.49045542,-0.67321,0.27488127,0.011911522,0.15698774
159,1747638602050,0.5665574,0.47728392,-0.7461716,0.48363832,-0.17745113,-0.19730367
160,1747638602060,0.40843847,0.5670758,-0.84672624,0.6910973,-0.1603474,-0.53517854
161,1747638602070,0.013080033,0.5873514,-0.8806306,0.7783721,0.40476266,-0.34887013
162,1747638602080,-0.04524654350000001,0.56953023,-0.8589068,0.781808135,0.48295113,-0.204061157
163,1747638602090,-0.10357312,0.55170906,-0.837183,0.78524417,0.5611396,-0.059252184
164,1747638602100,-0.09503604,0.5226829,-0.8215723,0.78768754,0.69980186,0.61695576
165,1747638602110,-0.09503604,0.5226829,-0.8215723,0.78768754,0.69980186,0.61695576
166,1747638602120,0.43941587,0.4294458,-0.9853319,0.525405,0.5489226,0.8020424
167,1747638602130,0.513612285,0.39235521500000003,-0.99338115,0.45187425999999997,0.46615280000000003,0.628867225
168,1747638602140,0.5878087,0.35526463,-1.0014304,0.37834352,0.383383,0.45569205
169,1747638602150,0.42453694,0.34843495,-0.9585011,0.31855685,0.25144,0.06474981
170,1747638602160,0.335705555,0.37063136500000005,-0.909077465,0.365592075,0.26029729,0.043981003000000005
171,1747638602170,0.24687417,0.39282778,-0.85965383,0.4126273,0.26915458,0.023212196
172,1747638602180,0.0345447,0.37624148,-0.8120596,0.6362738,0.2538834,0.41171107
173,1747638602190,0.011601287499999998,0.3694118,-0.829149015,0.6431458299999999,0.27281964999999997,0.52349611
174,1747638602200,-0.011342125,0.36258212,-0.84623843,0.65001786,0.2917559,0.63528115
175,1747638602210,0.20098734,0.2754429,-0.88867986,0.31229568,0.64971244,1.2583454
176,1747638602220,0.29396532,0.2483529,-0.87611818,0.23254193,0.639022585,1.2623159
177,1747638602230,0.3869433,0.2212629,-0.8635565,0.15278818,0.62833273,1.2662864
178,1747638602240,0.58390605,0.10509759,-0.82035273,0.040010497,0.48111856,0.9865183
179,1747638602250,0.5651092125,0.1276827485,-0.7678801475,0.1154119485,0.42828027999999996,0.8163973499999999
180,1747638602260,0.5463123750000001,0.15026790699999998,-0.715407565,0.1908134,0.375442,0.6462764
181,1747638602270,0.42990315,0.26519838,-0.77056324,0.70361966,0.25877017,0.3268033
182,1747638602280,0.3942684375,0.28722711749999996,-0.865683135,0.7522202149999999,0.247469495,0.31641889
183,1747638602290,0.358633725,0.30925585499999997,-0.96080303,0.80082077,0.23616882,0.30603448
184,1747638602300,0.37352788,0.33645257,-1.1095464,0.4743229,0.36444676,0.39766157
185,1747638602310,0.44307461000000004,0.31547573500000003,-1.09600905,0.259648265,0.46767995,0.393691065
186,1747638602320,0.51262134,0.2944989,-1.0824717,0.04497363,0.57091314,0.38972056
187,1747638602330,0.5560691,0.26251534,-1.0317065,-0.032909397,0.57396734,0.29809347
188,1747638602340,0.5560691,0.26251534,-1.0317065,-0.032909397,0.57396734,0.29809347
189,1747638602350,0.6148834,0.24544115,-0.9709408,0.09857547,0.28870168,0.004275931
190,1747638602360,0.6050048,0.238733445,-0.98789295,0.173976935,0.179932695,-0.1056765795
191,1747638602370,0.5951262,0.23202574,-1.0048451,0.2493784,0.07116371,-0.21562909
192,1747638602380,0.49018103,0.24227023,-1.1061316,0.29481015,-0.010689827,-0.3794125
193,1747638602390,0.434049715,0.24739249000000002,-1.1226112000000001,0.20978785,0.0280989715,-0.3794125
194,1747638602400,0.3779184,0.25251475,-1.1390908,0.12476555,0.06688777,-0.3794125
195,1747638602410,0.35840505,0.24300198,-1.1219863,0.060550235,0.12743801,-0.3287122
196,1747638602420,0.355600015,0.2470266,-1.10857085,0.047798797500000004,0.135684445,-0.30821063000000004
197,1747638602430,0.35279498,0.25105122,-1.0951554,0.03504736,0.14393088,-0.28770906
198,1747638602440,0.31446958,0.28352264,-1.0563421,0.08483142,0.09132166,-0.26449686
199,1747638602450,0.31446958,0.28352264,-1.0563421,0.08483142,0.09132166,-0.26449686
200,1747638602460,0.40011483,0.32913506,-1.0382923,0.3035911,-0.17867282,-0.211964
201,1747638602470,0.41049652999999997,0.32937898,-1.0464635,0.35593306999999996,-0.22112671,-0.220210435
202,1747638602480,0.42087823,0.3296229,-1.0546347,0.40827504,-0.2635806,-0.22845687
203,1747638602490,0.46993598,0.34892282,-1.0856426,0.5609105,-0.30572906,-0.26938364
204,1747638602500,0.48249767499999996,0.339394825,-1.0868622000000001,0.5886276850000001,-0.32344362,-0.28343312
205,1747638602510,0.49505937,0.32986683,-1.0880818,0.61634487,-0.34115818,-0.2974826
206,1747638602520,0.52582335,0.3313303,-1.1612873,0.6145123,-0.44805646,-0.34764844
207,1747638602530,0.527042955,0.333281635,-1.1793523499999998,0.580228525,-0.44561307,-0.34489961999999996
208,1747638602540,0.52826256,0.33523297,-1.1974174,0.54594475,-0.44316968,-0.3421508
209,1747638602550,0.54606843,0.36331388,-1.1564089,0.1078909,-0.2843494,-0.34764844
210,1747638602560,0.565475045,0.35160587499999996,-1.12029405,0.063375405,-0.27732464999999995,-0.36597386
211,1747638602570,0.58488166,0.33989787,-1.0841792,0.01885991,-0.2702999,-0.38429928
212,1747638602580,0.61366385,0.29669413,-0.9897224,0.084220566,-0.30939415,-0.46676368
213,1747638602590,0.627216455,0.276921645,-0.9590955800000001,0.235939758,-0.43278527499999997,-0.51990739
214,1747638602600,0.64076906,0.25714916,-0.92846876,0.38765895,-0.5561764,-0.5730511
215,1747638602610,0.62659144,0.25519782,-0.945543,0.47302485,-0.71438587,-0.6432985
216,1747638602620,0.62659144,0.25519782,-0.945543,0.47302485,-0.71438587,-0.6432985
217,1747638602630,0.5824425,0.2642227,-0.9360302,0.472414,-0.9000834,-0.77035475
218,1747638602640,0.55645015,0.252636675,-0.89125627,0.48860145,-0.9492566149999999,-0.8598438749999999
219,1747638602650,0.5304578,0.24105065,-0.84648234,0.5047889,-0.99842983,-0.949333
220,1747638602660,0.4557583,0.23202574,-0.8003516,0.7347729,-0.92207396,-0.9841513
221,1747638602670,0.38034993250000004,0.23464784249999998,-0.7712492875000001,0.833520175,-0.93398548,-0.92550996
222,1747638602680,0.304941565,0.23726994499999998,-0.742146975,0.93226745,-0.945897,-0.86686862
223,1747638602690,0.25589907,0.2695889,-0.8257189,1.175881,-1.2690352,-0.5070796
224,1747638602700,0.262240915,0.28253173,-0.8730692,1.16870355,-1.3469182000000002,-0.41484164999999995
225,1747638602710,0.26858276,0.29547456,-0.9204195,1.1615261,-1.4248012,-0.3226037
226,1747638602720,0.26955843,0.34062964,-1.0170716,0.76966757,-1.5042114,-0.12888877
227,1747638602730,0.2546795,0.31610077000000003,-0.9509244,0.437252115,-1.33989345,-0.1264453825
228,1747638602740,0.23980057,0.2915719,-0.8847772,0.10483666,-1.1755755,-0.124001995
229,1747638602750,0.12217176,0.25885656,-0.7347075,-0.004886778,-0.8915316,-0.16248538
230,1747638602760,0.12217176,0.25885656,-0.7347075,-0.004886778,-0.8915316,-0.16248538
231,1747638602770,0.02356845,0.263491,-0.6380555,0.023823043,-0.67040485,-0.15698774
232,1747638602780,-0.26879618,0.26471058,-0.5660696,0.3534515,-0.55678725,0.17775655
233,1747638602790,-0.26879618,0.26471058,-0.5660696,0.3534515,-0.55678725,0.17775655
234,1747638602800,-0.33419633,0.2754429,-0.6085111,0.47989687,-0.60321164,0.4086568
235,1747638602810,-0.38666890499999995,0.289117485,-0.6690482,0.4646257,-0.62459132,0.504559825
236,1747638602820,-0.43914148,0.30279207,-0.7295853,0.44935453,-0.645971,0.60046285
237,1747638602830,-0.6417143,0.3389222,-0.80327857,0.016340164,-0.28862533,0.9694146
238,1747638602840,-0.68258558,0.34026375,-0.786311135,-0.08025005799999999,-0.19730366500000002,1.05982
239,1747638602850,-0.72345686,0.3416053,-0.7693437,-0.17684028,-0.105982,1.1502254
240,1747638602860,-0.8171818,0.35087416,-0.6971138,-0.3425326,0.037567105,1.483748
241,1747638602870,-0.86085813,0.389428215,-0.6764876200000001,-0.30874511250000003,0.014354910000000002,1.633710975
242,1747638602880,-0.90453446,0.42798227,-0.65586144,-0.274957625,-0.008857285,1.7836739499999998
243,1747638602890,-0.9224776050000001,0.453364865,-0.6664870700000001,-0.200816035,-0.0308477875,1.9351641
244,1747638602900,-0.9384007775000001,0.4952194325,-0.701938835,-0.1595456675,0.00702474275,2.05122515
245,1747638602910,-0.95432395,0.537074,-0.7373906,-0.1182753,0.044897273,2.1672862
246,1747638602920,-0.83840257,0.5897905,-0.8457505,-0.27091077,0.28748,2.3566487
247,1747638602930,-0.806922085,0.5896685500000001,-0.85953185,-0.369982555,0.34795387499999997,2.32885515
248,1747638602940,-0.7754416,0.5895466,-0.8733132,-0.46905434,0.40842775,2.3010616
249,1747638602950,-0.75983095,0.5968641,-0.76031876,-0.6615476,0.40720606,2.0561118
250,1747638602960,-0.75983095,0.5968641,-0.76031876,-0.6615476,0.40720606,2.0561118
251,1747638602970,-0.77983207,0.7186395,-0.5704601,-0.26159534,0.11025793,1.6572286
252,1747638602980,-0.768367985,0.71815165,-0.5936474300000001,-0.09708654,0.058030489500000004,1.5683503
253,1747638602990,-0.7569039,0.7176638,-0.61683476,0.06742226,0.005803049,1.479472
254,1747638603000,-0.7781247,0.74745214,-0.76470923,0.44439137,0.029015245,1.1648858
255,1747638603010,-0.764579685,0.7448833825000001,-0.84622314,0.47226128,0.1568732075,1.0375241124999999
256,1747638603020,-0.75103467,0.742314625,-0.92773705,0.5001311900000001,0.28473117000000003,0.910162425
257,1747638603030,-0.72760344,0.7308353,-0.9655746,0.48050773,0.35955995,0.847856
258,1747638603040,-0.66256917,0.686183325,-0.9764288999999999,0.420072035,0.41820129500000003,0.7055286000000001
259,1747638603050,-0.5975349,0.64153135,-0.9872832,0.35963634,0.47684264,0.5632012
260,1747638603060,-0.4555144,0.5443915,-0.9965521,0.3172588,-0.029626092,-0.070247434
261,1747638603070,-0.450986685,0.52096028,-1.03756055,0.2346989725,-0.1449235135,-0.285914692
262,1747638603080,-0.44645897,0.49752906,-1.078569,0.152139145,-0.260220935,-0.50158195
263,1747638603090,-0.48332086,0.5143898,-1.090277,-0.18989713,-0.29962057,-0.8277744
264,1747638603100,-0.51163046,0.522195125,-1.030852815,-0.49864224,-0.22784601999999998,-0.9206232
265,1747638603110,-0.53994006,0.53000045,-0.97142863,-0.80738735,-0.15607147,-1.013472
266,1747638603120,-0.53591543,0.537927725,-0.9298103449999999,-0.8964947249999999,-0.1148392825,-1.00675265
267,1747638603130,-0.5318908,0.545855,-0.88819206,-0.9856021,-0.073607095,-1.0000333
268,1747638603140,-0.449386,0.5192681,-0.7232129,-1.0540932,0.02535016,-0.9841513
269,1747638603150,-0.41669352000000004,0.5068131175,-0.67952895,-0.99056513,0.042759307999999996,-1.0101122999999999
270,1747638603160,-0.38400104,0.494358135,-0.635845,-0.92703706,0.060168456,-1.0360733
271,1747638603170,-0.34471524,0.48801628,-0.6468365,-0.25907558,-0.29962057,-1.2480373
272,1747638603180,-0.34898377999999997,0.50534959,-0.69125982,-0.14599248850000002,-0.36314868499999997,-1.27980135
273,1747638603190,-0.35325232,0.5226829,-0.73568314,-0.032909397,-0.4266768,-1.3115654
274,1747638603200,-0.35959417,0.58296084,-0.97337997,-0.012980504,-0.37964156,-1.249259
275,1747638603210,-0.34262671,0.5807656050000001,-0.9974210349999999,-0.134462752,-0.25441788,-1.2196329499999998
276,1747638603220,-0.32565925,0.57857037,-1.0214621,-0.255945,-0.1291942,-1.1900069
277,1747638603230,-0.30663374,0.55780697,-0.9570071,-0.6578825,0.2642678,-1.14908
278,1747638603240,-0.30773136,0.53707406,-0.85537007,-0.7388579500000001,0.36627929000000004,-1.1249516000000002
279,1747638603250,-0.30882898,0.51634115,-0.75373304,-0.8198334,0.46829078,-1.1008232
280,1747638603260,-0.24440451,0.5031391,-0.681991,-0.79303247,0.5977904,-0.9804862
281,1747638603270,-0.24440451,0.5031391,-0.681991,-0.79303247,0.5977904,-0.9804862
282,1747638603280,-0.16458277,0.48850408,-0.6597641,-0.6242095,0.44568944,-1.0146936
283,1747638603290,-0.1495819,0.48008898,-0.69833345,-0.473101185,0.257815725,-1.07913805
284,1747638603300,-0.13458103,0.47167388,-0.7369028,-0.32199287,0.06994201,-1.1435825
285,1747638603310,-0.25562465,0.5265856,-0.8140109,-0.02481567,-0.18111621,-1.1081533
286,1747638603320,-0.276616735,0.5228049,-0.8293929,-0.0135913516,-0.142632835,-1.05745295
287,1747638603330,-0.29760882,0.5190242,-0.8447749,-0.0023670332,-0.10414946,-1.0067526
288,1747638603340,-0.33029366,0.54951376,-0.8894117,-0.17684028,0.47806433,-0.509523
289,1747638603350,-0.29832533,0.539757105,-0.8861188,-0.22200480499999997,0.56999685,-0.43652674999999996
290,1747638603360,-0.266357,0.53000045,-0.8828259,-0.26716933,0.66192937,-0.3635305
291,1747638603370,-0.18144351,0.5263417,-0.88892376,-0.37185326,0.8262473,-0.23945212
292,1747638603380,-0.07905948875,0.522126525,-0.9327983049999999,-0.5142379375,0.7466844324999999,-0.237008735
293,1747638603390,0.023324532499999998,0.51791135,-0.9766728499999999,-0.656622615,0.667121565,-0.23456535
294,1747638603400,0.10701844,0.41017637,-0.8335242,-0.7718819,0.29053423,-0.5418979
295,1747638603410,0.065537361,0.41444491,-0.783749985,-0.6902574,0.206504555,-0.62802735
296,1747638603420,0.024056282,0.41871345,-0.73397577,-0.6086329,0.12247488,-0.7141568
297,1747638603430,-0.18315093,0.4413977,-0.6270793,-0.08773294,0.14332004,-0.71171343
298,1747638603440,-0.2286032825,0.473007775,-0.6662431625,0.19142426500000004,0.30030778999999996,-0.45847905499999997
299,1747638603450,-0.274055635,0.50461785,-0.705407025,0.47058147,0.45729554,-0.20524468
300,1747638603460,-0.21328989,0.509252265,-0.799132,0.48737976000000005,0.48936502000000004,-0.09590302
301,1747638603470,-0.10193430425000001,0.4957072675,-0.87954825,0.45496668,0.51395161,0.02076881
302,1747638603480,0.0094212815,0.48216227,-0.9599645,0.4225536,0.5385382,0.13744064
303,1747638603490,0.10105772575000001,0.4397588825,-0.9678308250000001,0.236111558,0.43469417499999996,0.04566083675
304,1747638603500,0.19269417,0.397355495,-0.97569715,0.049669516,0.33085014999999995,-0.0461189665
305,1747638603510,0.13387977,0.34843495,-0.8916069,0.00015271181,0.3381803,-0.28221142
306,1747638603520,0.13387977,0.34843495,-0.8916069,0.00015271181,0.3381803,-0.28221142
307,1747638603530,0.04747228,0.35550857,-0.8220601,0.09483404,0.41759047,-0.40445724
308,1747638603540,-0.2031521,0.40139538,-0.7622701,0.60015744,0.51715857,-0.21074231
309,1747638603550,-0.2031521,0.40139538,-0.7622701,0.60015744,0.51715857,-0.21074231
310,1747638603560,-0.23074517,0.39822447,-0.8191332,0.72538114,0.54709005,0.05986303
311,1747638603570,-0.17229664,0.371500335,-0.8814843800000001,0.6855233199999999,0.570913105,0.27304873
312,1747638603580,-0.11384811,0.3447762,-0.94383556,0.6456655,0.59473616,0.48623443
313,1747638603590,0.30544463,0.31596357,-0.9585011,0.388957,0.4401918,0.51005745
314,1747638603600,0.35326755,0.29728870500000004,-0.9890058500000001,0.37273136,0.36689013000000004,0.354902255
315,1747638603610,0.40109047,0.27861384,-1.0195106,0.35650572,0.29358846,0.19974706
316,1747638603620,0.32300666,0.2903523,-1.0502442,0.34161633,0.33512607,-0.2987043
317,1747638603630,0.192015782,0.3099875975,-1.038475225,0.3453196,0.361697925,-0.3558567
318,1747638603640,0.061024904000000005,0.32962289499999997,-1.0267062500000002,0.34902287,0.38826978,-0.4130091
319,1747638603650,0.007469948,0.32864723,-1.0168276,0.33100286,0.35833827,-0.3586437
320,1747638603660,-0.036099666,0.296069115,-0.9641111,0.33596599,0.293893885,-0.18268151
321,1747638603670,-0.07966928,0.263491,-0.9113946,0.34092912,0.2294495,-0.00671932
322,1747638603680,0.051618867,0.30108464,-0.9377376,0.5285356,0.36078167,0.41659784
323,1747638603690,0.0951884835,0.29364517,-0.9760478,0.50265095,0.364141335,0.44561308499999996
324,1747638603700,0.1387581,0.2862057,-1.014358,0.4767663,0.367501,0.47462833
325,1747638603710,0.34081256,0.24227023,-1.096375,0.20639002,0.27892813,0.37200597
326,1747638603720,0.34081256,0.24227023,-1.096375,0.20639002,0.27892813,0.37200597
327,1747638603730,0.20732918,0.26641798,-1.0634158,-0.104531236,0.14515258,0.07941014
328,1747638603740,0.16560418,0.265442325,-1.020958975,-0.121367713,0.14454173,0.104454875
329,1747638603750,0.12387918,0.26446667,-0.97850215,-0.13820419,0.14393088,0.12949961
330,1747638603760,0.06530869,0.25397822,-0.9126143,-0.09765921,0.10659285,0.25533417
331,1747638603770,0.12473289,0.221156185,-0.9012568999999999,0.012598722000000007,0.140533045,0.396439865
332,1747638603780,0.18415709,0.18833415,-0.8898995,0.122856654,0.17447324,0.53754556
333,1747638603790,0.2634605,0.19028549,-0.93456674,0.24128467,0.1946312,0.65849334
334,1747638603800,0.309469275,0.184431485,-0.96677897,0.19375312,0.12663626849999998,0.607793035
335,1747638603810,0.35547805,0.17857748,-0.9989912,0.14622157,0.058641336999999995,0.5570927299999999
336,1747638603820,0.39791957,0.15000875,-1.0919845,-0.12820157,-0.095597595,0.29442838
337,1747638603830,0.372171105,0.15135029,-1.09027705,-0.19955617,-0.1224748725,0.26907822
338,1747638603840,0.34642264,0.15269183,-1.0885696,-0.27091077,-0.14935215,0.24372806
339,1747638603850,0.2915414,0.16488767,-1.0753981,-0.44103172,-0.14690876,0.36895174
340,1747638603860,0.2915414,0.16488767,-1.0753981,-0.44103172,-0.14690876,0.36895174
341,1747638603870,0.3910899,0.19955432,-1.1124735,-0.84915406,0.074217945,0.45935714
342,1747638603880,0.415252885,0.194675985,-1.0914814,-0.94570608,0.1493903325,0.45294325
343,1747638603890,0.43941587,0.18979765,-1.0704893,-1.0422581,0.22456272,0.44652936
344,1747638603900,0.48481485,0.19955432,-0.90602845,-1.0572239,0.40170842,0.33718768
345,1747638603910,0.485546605,0.20565223500000002,-0.88284114,-0.9279533500000001,0.313441,0.26602398
346,1747638603920,0.48627836,0.21175015,-0.85965383,-0.7986828,0.22517358,0.19486028
347,1747638603930,0.4850588,0.21272582,-0.85745853,-0.516395,-0.07910472,0.092237934
348,1747638603940,0.47518015,0.226034525,-0.9301762149999999,-0.28431122000000003,-0.38972056,-0.011911523000000007
349,1747638603950,0.4653015,0.23934323,-1.0028939,-0.05222744,-0.7003364,-0.11606098
350,1747638603960,0.44405028,0.27446723,-1.1432374,-0.10208785,-0.5323534,-0.3067217
351,1747638603970,0.43209837500000003,0.275930735,-1.13188,-0.10208785,-0.5323534,-0.3067217
352,1747638603980,0.42014647,0.27739424,-1.1205226,-0.10208785,-0.5323534,-0.3067217
353,1747638603990,0.41356072,0.2812969,-1.0063088,-0.24846213,0.13354649,-0.37696913
354,1747638604000,0.4329597125,0.2716012175,-0.99045415,-0.22448636500000002,0.13782241499999998,-0.36994437999999996
355,1747638604010,0.45235870499999997,0.261905535,-0.9745995000000001,-0.2005106,0.14209834,-0.36291963
356,1747638604020,0.520945,0.24422157,-0.97777045,0.1783674,-0.27579755,-0.31038678
357,1747638604030,0.5466782,0.23507469,-0.999250375,0.23597793,-0.45783002500000003,-0.32932304
358,1747638604040,0.5724114,0.22592781,-1.0207303,0.29358846,-0.6398625,-0.3482593
359,1747638604050,0.58805263,0.2139454,-1.1100342,0.33161372,-1.1071607,-0.593209
360,1747638604060,0.55045894,0.22701019,-1.1191811,0.271178015,-0.9251282000000001,-0.7159892999999999
361,1747638604070,0.51286525,0.24007498,-1.128328,0.21074231,-0.7430957,-0.8387696
362,1747638604080,0.43283013,0.25373432,-1.1280841,0.14904673,-0.5231907,-0.8351046
363,1747638604090,0.3635273,0.24592898000000002,-1.07000145,0.0985754765,-0.2699944995,-0.7266791850000001
364,1747638604100,0.29422447,0.23812364,-1.0119188,0.048104223,-0.016798299,-0.61825377
365,1747638604110,0.24541065,0.23300138,-0.9311519,0.14965758,-0.07605048,-0.46615282
366,1747638604120,0.24541065,0.23300138,-0.9311519,0.14965758,-0.07605048,-0.46615282
367,1747638604130,0.23025733,0.24739249,-0.94164026,0.29481015,-0.36681378,-0.3421508
368,1747638604140,0.22001283,0.26836932,-1.0856426,0.40514445,-0.9074136,-0.24189551
369,1747638604150,0.22001283,0.26836932,-1.0856426,0.40514445,-0.9074136,-0.24189551
370,1747638604160,0.22293983,0.3035238,-1.0819839,0.23502348,-1.0851701,-0.17653486
371,1747638604170,0.230394535,0.33341884,-1.0897892,0.16431791,-1.01309015,-0.14996300199999998
372,1747638604180,0.23784924,0.36331388,-1.0975945,0.09361234,-0.9410102,-0.123391144
373,1747638604190,0.21293926,0.39575478,-1.1271085,-0.28961796,-0.37536564,-0.041537613
374,1747638604200,0.18804451,0.41199049,-1.08050515,-0.44351328,-0.08364789499999997,0.0210742315
375,1747638604210,0.16314976,0.4282262,-1.0339018,-0.5974086,0.20806985,0.083686076
376,1747638604220,0.09531044,0.4045663,-0.8584342,-0.55251133,0.39987588,0.28098974
377,1747638604230,0.035276449,0.41993305000000003,-0.77923755,-0.467794465,0.22513539000000002,0.339325655
378,1747638604240,-0.024757542,0.4352998,-0.7000409,-0.3830776,0.0503949,0.39766157
379,1747638604250,0.09287128,0.36965573,-0.81327915,0.021914145,-1.1835166,0.5094466
380,1747638604260,0.08311461,0.372460765,-0.80510795,0.0449736295,-1.2635375500000001,0.45447035
381,1747638604270,0.07335794,0.3752658,-0.79693675,0.068033114,-1.3435585,0.3994941
382,1747638604280,-0.12921485,0.41603038,-0.77934426,0.04253024,-1.2091721,0.263886
383,1747638604290,-0.258673625,0.431397125,-0.7667825500000001,-0.12197856500000001,-0.8649597,0.385444625
384,1747638604300,-0.3881324,0.44676387,-0.75422084,-0.28648737,-0.5207473,0.50700325
385,1747638604310,-0.45049882500000005,0.45080373500000004,-0.7135934500000001,-0.34787751499999997,-0.354902265,0.6071821749999999
386,1747638604320,-0.5276756125,0.4686782425,-0.65971075,-0.39162944749999995,-0.2267770495,0.7598939874999999
387,1747638604330,-0.6048524,0.48655275,-0.60582805,-0.43538138,-0.098651834,0.9126058
388,1747638604340,-0.5938761,0.54292804,-0.5887539,-0.29580277,-0.83472276,1.5827053
389,1747638604350,-0.5938761,0.54292804,-0.5887539,-0.29580277,-0.83472276,1.5827053
390,1747638604360,-0.49356538,0.537074,-0.61634696,-0.23540527,-1.085781,1.6535635
391,1747638604370,-0.453425855,0.55146508,-0.630981955,-0.147557795,-1.1254861,1.6224102999999999
392,1747638604380,-0.41328633,0.56585616,-0.64561695,-0.05971032,-1.1651912,1.5912571
393,1747638604390,-0.63025016,0.6576298,-0.68003964,-0.020463383,-0.61481774,1.5698775
394,1747638604400,-0.678438965,0.6821586850000001,-0.68052752,-0.0422629915,-0.48715067,1.6511202
395,1747638604410,-0.72662777,0.70668757,-0.6810154,-0.0640626,-0.3594836,1.7323629
396,1747638604420,-0.825475,0.7425738,-0.6631789,-0.042835664,-0.044897273,2.1801138
397,1747638604430,-0.7705632499999999,0.739639195,-0.700582025,-0.016683765500000003,-0.029626092,2.33378005
398,1747638604440,-0.7156515,0.73670459,-0.73798515,0.009468133,-0.014354911,2.4874463
399,1747638604450,-0.50332206,0.6998579,-0.7659288,0.013820419,-0.49020493,2.5546396
400,1747638604460,-0.44621506,0.7125415850000001,-0.7243257750000001,0.05278102125,-0.70094725,2.45306715
401,1747638604470,-0.38910806,0.72522527,-0.68272275,0.0917416235,-0.9116895700000001,2.3514947
402,1747638604480,-0.44060495,0.75306225,-0.67979574,0.3440597,-1.1853491,1.9052325
403,1747638604490,-0.491614025,0.785152495,-0.69260137,0.39609625000000004,-1.08761355,1.8371230500000002
404,1747638604500,-0.5426231,0.81724274,-0.705407,0.4481328,-0.989878,1.7690136
405,1747638604510,-0.7010165,0.84407365,-0.70882183,0.52975726,-0.5085303,1.7170917
406,1747638604520,-0.7010165,0.84407365,-0.70882183,0.52975726,-0.5085303,1.7170917
407,1747638604530,-0.7434885,0.8433418,-0.75373304,0.51227176,-0.4407263,1.7177025
408,1747638604540,-0.70577288,0.8322436,-0.75129387,0.36337775,-0.44683477000000005,1.6621153999999998
409,1747638604550,-0.66805726,0.8211454,-0.7488547,0.21448374,-0.45294324,1.6065283
410,1747638604560,-0.5726553,0.8111449,-0.736171,0.062459134,-0.6142069,1.3401989
411,1747638604570,-0.51859731,0.8195600249999999,-0.73665885,-0.078684758,-0.66490725,1.07325865
412,1747638604580,-0.46453932,0.82797515,-0.7371467,-0.21982865,-0.7156076,0.8063184
413,1747638604590,-0.55384326,0.8743498,-0.5980227,-0.6360447,-0.13896775,-0.07452337
414,1747638604600,-0.58154306,0.880935535,-0.561785815,-0.6840344,-0.050700322500000006,-0.19123337
415,1747638604610,-0.60924286,0.88752127,-0.52554893,-0.7320241,0.037567105,-0.30794337
416,1747638604620,-0.54579407,0.83017033,-0.4337753,-0.7401178,0.22089764,-0.72026527
417,1747638604630,-0.5368910849999999,0.8063732349999999,-0.428896975,-0.69991643,0.23830679,-0.8228875849999999
418,1747638604640,-0.5279881,0.78257614,-0.42401865,-0.65971506,0.25571594,-0.9255099
419,1747638604650,-0.53042734,0.7394029,-0.4494165,-0.4753155,0.303362,-1.2407072
420,1747638604660,-0.52542702,0.7225573999999999,-0.47943347,-0.37063157,0.3070271,-1.3460782999999998
421,1747638604670,-0.5204267,0.7057119,-0.50945044,-0.26594764,0.3106922,-1.4514494
422,1747638604680,-0.48356482,0.6940039,-0.5572886,-0.19615832,0.33451524,-1.5375789
423,1747638604690,-0.470881145,0.695711325,-0.5742408,-0.17962727,0.35558946,-1.5714809
424,1747638604700,-0.45819747,0.69741875,-0.591193,-0.16309622,0.37666368,-1.6053829
425,1747638604710,-0.43757126999999996,0.693272145,-0.596315285,-0.13973131,0.405678925,-1.6683002
426,1747638604720,-0.41694507,0.68912554,-0.60143757,-0.1163664,0.43469417,-1.7312175
427,1747638604730,-0.37398523,0.66885,-0.6443974,-0.042835664,0.32168743,-1.889427
428,1747638604740,-0.381668615,0.65787375,-0.6719752,-0.06058841200000001,0.309775915,-1.9208856
429,1747638604750,-0.389352,0.6468975,-0.699553,-0.07834116,0.2978644,-1.9523442
430,1747638604760,-0.42328686,0.6312868,-0.7666606,-0.27900448,0.391324,-1.9725021
431,1747638604770,-0.44439329250000004,0.61578285,-0.80308806,-0.416712355,0.49303008,-1.9373784
432,1747638604780,-0.46549972500000003,0.6002789,-0.83951552,-0.55442023,0.59473616,-1.9022547
433,1747638604790,-0.48136955,0.5902783,-0.850629,-0.79990447,0.80181336,-1.8313965
434,1747638604800,-0.47807667499999995,0.599669115,-0.8041323499999999,-0.996482735,0.9985061799999999,-1.701286
435,1747638604810,-0.4747838,0.60905993,-0.7576357,-1.193061,1.195199,-1.5711755
436,1747638604820,-0.29321834,0.6066208,-0.54067177,-1.0647068,1.3711231,-1.3439404
437,1747638604830,-0.24294100500000002,0.61052345,-0.516752705,-0.917988925,1.2914075,-1.34974345
438,1747638604840,-0.19266367,0.6144261,-0.49283364,-0.77127105,1.2116919,-1.3555465
439,1747638604850,-0.16604628,0.6200362,-0.54384273,-0.23601611,0.7211816,-1.4795485
440,1747638604860,-0.256356425,0.618938575,-0.668560365,-0.011071604999999984,0.59320907,-1.46946945
441,1747638604870,-0.34666657,0.61784095,-0.793278,0.2138729,0.46523654,-1.4593904
442,1747638604880,-0.34666657,0.61784095,-0.793278,0.15591876,0.6637619,-1.2944617
443,1747638604890,-0.4247504,0.6071086,-0.8711179,0.15591876,0.6637619,-1.2944617
444,1747638604900,-0.46966153,0.58637565,-0.90383315,-0.19180603,1.1597699,-0.85709506
445,1747638604910,-0.3334646,0.56049,-0.91212636,-0.50578153,1.523224,-0.57244027
446,1747638604920,-0.3334646,0.56049,-0.91212636,-0.50578153,1.523224,-0.57244027
447,1747638604930,-0.20754258,0.58052164,-0.8718496,-0.78432786,1.7822232,-0.39712706
448,1747638604940,-0.03707532500000002,0.58381452,-0.7848476200000001,-0.835104555,1.6062992,-0.39865419
449,1747638604950,0.13339193,0.5871074,-0.69784564,-0.88588125,1.4303752,-0.40018132
450,1747638604960,0.07750452,0.6690939,-0.59973013,-0.27213246,0.9087117,-0.881529
451,1747638604970,-0.02256229300000001,0.7224201800000001,-0.619624565,-0.10109522500000001,0.88885915,-0.886721175
452,1747638604980,-0.122629106,0.77574646,-0.639519,0.06994201,0.8690066,-0.89191335
453,1747638604990,-0.38398582,0.87776464,-0.85379976,0.330392,1.2550621,-0.35253522
454,1747638605000,-0.34750503499999996,0.83065822,-0.91810228,0.154048037,1.63256575,0.11541194000000005
455,1747638605010,-0.31102425,0.7835518,-0.9824048,-0.022295926,2.0100694,0.5833591
456,1747638605020,-0.15848486,0.7183956,-0.9262736,-0.31076854,2.2171464,0.8985563
457,1747638605030,-0.042075625000000005,0.6874029500000001,-0.913346,-0.38865156,2.1423177,0.91352207
458,1747638605040,0.07433361,0.6564103,-0.9004184,-0.46653458,2.067489,0.92848784
459,1747638605050,0.4355132,0.5180485,-0.8247433,-0.75195295,1.2306281,0.2247918
460,1747638605060,0.451261075,0.5130329499999999,-0.767758235,-0.7176691749999999,1.105099,-0.016798300000000016
461,1747638605070,0.46700895,0.5080174,-0.71077317,-0.6833854,0.9795699,-0.2583884
462,1747638605080,0.16924767,0.46362463,-0.5592399,-0.16439427,0.6515449,-0.8540408
463,1747638605090,0.16924767,0.46362463,-0.5592399,-0.16439427,0.6515449,-0.8540408
464,1747638605100,-0.25489292,0.41237164,-0.5157923,0.9895726,0.1750841,-0.6280273
465,1747638605110,-0.29186155,0.41615232999999996,-0.56032235,1.13350345,0.141754743,-0.5055524499999999
466,1747638605120,-0.32883018,0.41993302,-0.6048524,1.2774343,0.108425386,-0.3830776
467,1747638605130,-0.24147749,0.38794947,-0.9074919,1.3945643,0.2386122,0.41293275
468,1747638605140,-0.029757830000000013,0.40052642000000005,-0.949582775,1.2459757,0.243193555,0.526244905
469,1747638605150,0.18196183,0.41310337,-0.99167365,1.0973871,0.24777491,0.63955706
470,1747638605160,0.58414996,0.2766625,-1.1422617,0.42690587,0.14026581,0.0
471,1747638605170,0.52032,0.29387386,-1.1039363,0.254341525,0.197685445,-0.17962727
472,1747638605180,0.45649004,0.31108522,-1.0656109,0.08177718,0.25510508,-0.35925454
473,1747638605190,-0.0028050416,0.37429014,-0.78251517,-0.09269607,0.38093963,-0.40567893
474,1747638605200,-0.0571069908,0.39491632,-0.763855535,-0.049707695,0.37483115499999997,-0.27827910499999997
475,1747638605210,-0.11140894,0.4155425,-0.7451959,-0.00671932,0.36872268,-0.15087928
476,1747638605220,-0.054789785,0.41578647,-0.774222,0.18768282,0.3406237,0.6016846
477,1747638605230,0.22013479249999998,0.368680055,-0.78301825,0.20012882999999998,0.32962844999999996,0.6679615
478,1747638605240,0.49505937,0.32157364,-0.7918145,0.21257484,0.3186332,0.7342384
479,1747638605250,0.63293326,0.27007675,-0.7773929,0.29358846,0.34917557,0.44164258
480,1747638605260,0.6147614800000001,0.264832525,-0.778612485,0.36150704499999997,0.372387765,0.281906015
481,1747638605270,0.5965897,0.2595883,-0.77983207,0.42942563,0.39559996,0.12216945
482,1747638605280,0.35645372,0.33084247,-0.7751977,0.7578324,0.34551048,-0.108730815
483,1747638605290,0.25175249,0.352444335,-0.80314135,0.87183177,0.302140325,-0.0314586345
484,1747638605300,0.14705126,0.3740462,-0.831085,0.98583114,0.25877017,0.045813546
485,1747638605310,0.08470006299999999,0.373070535,-0.87404488,1.01389192,0.254494235,0.251669073
486,1747638605320,0.022348866,0.37209487,-0.91700476,1.0419527,0.2502183,0.4575246
487,1747638605330,0.26272872,0.30547515,-0.93188363,0.85808766,0.42369893,1.0201149
488,1747638605340,0.438806085,0.2573930725,-0.9376842825,0.83644078,0.326574215,0.926502575
489,1747638605350,0.61488345,0.209310995,-0.943484935,0.8147939,0.2294495,0.8328902499999999
490,1747638605360,0.6758931,0.21175015,-1.0131383,0.7795938,0.15126105,0.3555131
491,1747638605370,0.579744185,0.246592125,-1.0436508,0.7233576775,0.19844900000000001,0.23105297200000002
492,1747638605380,0.48359527,0.2814341,-1.0741633,0.667121555,0.24563695000000002,0.10659284399999999
493,1747638605390,0.30276155,0.33059856,-1.072715,0.5341096,0.3650576,0.12155861
494,1747638605400,0.26339951,0.3451878275,-1.0808252500000002,0.48459278499999997,0.369333525,0.24250636999999997
495,1747638605410,0.22403747000000002,0.359777095,-1.0889355,0.43507597,0.37360945,0.36345413
496,1747638605420,0.29077914,0.34819105,-1.1156443,0.22509721,0.23739052,0.695755
497,1747638605430,0.50518189,0.300108975,-1.14358805,-0.015423894999999993,0.16771575,0.65788248
498,1747638605440,0.71958464,0.2520269,-1.1715318,-0.255945,0.09804098,0.62000996
499,1747638605450,0.76937413,0.23397705,-1.1695803,-0.43599224,0.14026581,0.3695626
500,1747638605460,0.760105315,0.24056281000000002,-1.1572626000000001,-0.49459542,0.158591225,0.26938365000000003
501,1747638605470,0.7508365,0.24714857,-1.1449449,-0.5531986,0.17691664,0.1692047
502,1747638605480,0.52801865,0.29986507,-0.9743556,-0.6310816,0.062000997,-0.19669282
503,1747638605490,0.52801865,0.29986507,-0.9743556,-0.6310816,0.062000997,-0.19669282
504,1747638605500,0.45746574,0.29084012,-0.90456504,-0.5183039,-0.0070247436,-0.19058435
505,1747638605510,0.4660333,0.29254755,-0.8410857,-0.18180342,-0.11270132,-0.17286977
506,1747638605520,0.4660333,0.29254755,-0.8410857,-0.18180342,-0.11270132,-0.17286977
507,1747638605530,0.48603445,0.27324766,-0.930908,0.21448374,-0.13652436,-0.26449686
508,1747638605540,0.479936525,0.27678445,-0.9471437,0.25995368,-0.11697725,-0.28496024
509,1747638605550,0.4738386,0.28032124,-0.9633794,0.30542362,-0.09743014,-0.30542362
510,1747638605560,0.53240913,0.2771503,-1.0094796,0.39140037,-0.24342263,-0.36230877
511,1747638605570,0.541677965,0.26617406,-1.0468294,0.37956521,-0.294733795,-0.42828028500000004
512,1747638605580,0.5509468,0.25519782,-1.0841792,0.36773005,-0.34604496,-0.4942518
513,1747638605590,0.5074991,0.25983223,-1.1129613,0.27052897,-0.3075616,-0.5797704
514,1747638605600,0.46138361,0.27618989,-1.08660305,0.21727073,-0.27946262,-0.57946498
515,1747638605610,0.41526812,0.29254755,-1.0602448,0.16401249,-0.25136364,-0.57915956
516,1747638605620,0.3620638,0.27934557,-1.00265,0.20135053,-0.17134266,-0.43133453
517,1747638605630,0.36864956,0.275686835,-0.99655207,0.224104585,-0.164623335,-0.38155048
518,1747638605640,0.37523532,0.2720281,-0.99045414,0.24685864,-0.15790401,-0.33176643
519,1747638605650,0.45209953,0.24958774,-1.0046012,0.26869643,-0.10964708,-0.15210097
520,1747638605660,0.477238215,0.25324650000000004,-1.00630865,0.244071655,-0.14385453,-0.14721419
521,1747638605670,0.5023769,0.25690526,-1.0080161,0.21944688,-0.17806198,-0.14232741
522,1747638605680,0.58512557,0.24788031,-0.9816731,0.06306998,-0.65452284,-0.47409382
523,1747638605690,0.55167851,0.258856565,-0.9700871,0.0412703685,-0.67376452,-0.53120806
524,1747638605700,0.51823145,0.26983282,-0.9585011,0.019470757,-0.6930062,-0.5883223
525,1747638605710,0.31178647,0.2695889,-0.8486776,0.00633754,-0.45783,-0.70927
526,1747638605720,0.28091578500000003,0.26032006,-0.83073445,0.041232188,-0.38269580000000003,-0.6805602
527,1747638605730,0.2500451,0.25105122,-0.8127913,0.076126836,-0.3075616,-0.6518504
528,1747638605740,0.19927993,0.229815225,-0.80705925,0.143739993,-0.1508792755,-0.54647924
529,1747638605750,0.14851476,0.20857923,-0.8013272,0.21135315,0.005803049,-0.44110808
530,1747638605760,0.1167751,0.21199408,-0.81327915,0.24250636,0.13782242,-0.30855423
531,1747638605770,0.1467921,0.239693865,-0.8492721249999999,0.14312914799999998,0.215400025,-0.10937984
532,1747638605780,0.1768091,0.26739365,-0.8852651,0.043751936,0.29297763,0.08979455
533,1747638605790,0.2004995,0.27446723,-0.8572146,-0.08582404,0.040010497,0.131943
534,1747638605800,0.1698117325,0.30369912,-0.801632115,-0.127896145,-0.35887277650000005,0.051311166000000005
535,1747638605810,0.13912396500000002,0.33293101,-0.7460496299999999,-0.16996825,-0.75775605,-0.029320668
536,1747638605820,0.06945527,0.3279155,-0.72101766,-0.0640626,-0.7669187,-0.05131117
537,1747638605830,0.007210783999999998,0.34037048000000003,-0.7468881,0.009162710000000004,-0.577556065,0.064444385
538,1747638605840,-0.055033702,0.35282546,-0.77275854,0.08238802,-0.38819343,0.18019994
539,1747638605850,-0.07869361,0.38307112,-0.8171818,0.01885991,0.14209834,0.6310052
540,1747638605860,-0.05148166,0.38197351,-0.805595775,-0.002672456,0.123429322,0.71438585
541,1747638605870,-0.02426971,0.3808759,-0.79400975,-0.024204822,0.104760304,0.7977665
542,1747638605880,0.059912033,0.46923468,-0.8701422,-0.06902574,-0.56533915,0.76172656
543,1747638605890,0.059912033,0.46923468,-0.8701422,-0.06902574,-0.56533915,0.76172656
544,1747638605900,0.0757971,0.4709421,-0.91602904,-0.23166382,-1.1041064,0.55403847
545,1747638605910,0.039666947,0.4663077,-0.9238344,-0.2746522,-1.093722,0.5283829
546,1747638605920,0.039666947,0.4663077,-0.9238344,-0.2746522,-1.093722,0.5283829
547,1747638605930,-0.045002624,0.47460085,-0.8867286,-0.44103172,-0.8322794,0.58213747
548,1747638605940,-0.1037026945,0.47082015,-0.8278608175,-0.5182848125,-0.64154234,0.69712946
549,1747638605950,-0.162402765,0.46703945,-0.768993035,-0.595537905,-0.45080528,0.81212145
550,1747638605960,-0.1782726,0.48021096,-0.6834545,-0.48776153,-0.38575006,0.9193251
551,1747638605970,-0.17376013499999998,0.47472282,-0.6733167,-0.42702039999999997,-0.43339613,0.9388722
552,1747638605980,-0.16924767,0.46923468,-0.6631789,-0.36627927,-0.4810422,0.9584193
553,1747638605990,-0.19924943,0.48167443,-0.720042,0.11667182,-0.95322716,1.0329428
554,1747638606000,-0.223778305,0.479601145,-0.80521468,0.201388695,-1.00606543,1.0757021
555,1747638606010,-0.24830718,0.47752786,-0.89038736,0.28610557,-1.0589037,1.1184614
556,1747638606020,-0.28590083,0.4809427,-0.9216392,0.23937577,-1.0155336,1.1551121
557,1747638606030,-0.314454315,0.51400865,-0.9313958250000001,0.1454580035,-0.899778025,1.1993985500000002
558,1747638606040,-0.3430078,0.5470746,-0.94115245,0.051540236999999996,-0.78402245,1.2436850000000002
559,1747638606050,-0.3459348,0.55292857,-0.93212754,-0.15691139,-0.38697174,1.335923
560,1747638606060,-0.353618185,0.55780691,-0.9210293199999999,-0.242277295,-0.2202104375,1.3655490499999998
561,1747638606070,-0.36130157,0.56268525,-0.9099311,-0.3276432,-0.053449135,1.3951751
562,1747638606080,-0.36837515,0.5778386,-0.87941104,-0.5183039,0.1390441,1.4177765
563,1747638606090,-0.38351322499999996,0.58491218,-0.8534187200000001,-0.592445475,0.059595782,1.38204195
564,1747638606100,-0.3986513,0.59198576,-0.8274264,-0.66658705,-0.019852536,1.3463074
565,1747638606110,-0.41926226,0.61553898,-0.7991168,-0.652232125,-0.17592401800000002,1.29407995
566,1747638606120,-0.43987322,0.6390922,-0.7708072,-0.6378772,-0.3319955,1.2418525
567,1747638606130,-0.4545387,0.67421615,-0.75129384,-0.35436776,-0.35337514,1.1966498
568,1747638606140,-0.468685865,0.684231995,-0.769115,-0.28988519999999995,-0.29503922,1.1923739000000002
569,1747638606150,-0.48283303,0.69424784,-0.78693616,-0.22540264,-0.2367033,1.188098
570,1747638606160,-0.49698022,0.699614,-0.80401033,-0.14751962,-0.10292777,1.1905413
571,1747638606170,-0.48222326,0.7246307,-0.7942384149999999,-0.0584122725,-0.043675582500000004,1.17832435
572,1747638606180,-0.4674663,0.7496474,-0.7844665,0.030695075,0.015576605,1.1661074
573,1747638606190,-0.35203275,0.7515987,-0.85282415,0.28801447,-0.29534465,0.9046648
574,1747638606200,-0.34177300499999996,0.74940347,-0.874166875,0.315731675,-0.370478875,0.809372625
575,1747638606210,-0.33151326,0.74720824,-0.8955096,0.34344888,-0.4456131,0.71408045
576,1747638606220,-0.33736727,0.739159,-0.9853319,0.31038678,-0.53785104,0.3323009
577,1747638606230,-0.37837574,0.72400564,-1.0436585,0.08735116,-0.36620292,0.07330167
578,1747638606240,-0.39741647,0.72510327,-1.04512195,0.011338854999999995,-0.29778803,0.0335965987
579,1747638606250,-0.4164572,0.7262009,-1.0465854,-0.06467345,-0.22937314,-0.0061084726
580,1747638606260,-0.44206846,0.71010244,-0.9982595,-0.30389652,-0.033291176,-0.09529217
581,1747638606270,-0.43572664,0.69815046,-0.9487139,-0.41736138,0.04734066,-0.1368298
582,1747638606280,-0.40474924,0.68153363,-0.9074919,-0.49959671,0.10353861,-0.18753012
583,1747638606290,-0.35959417,0.6295794,-0.80303466,-0.53945446,0.105371155,-0.35253522
584,1747638606300,-0.31980523,0.594181,-0.74104935,-0.4808895,0.028404398,-0.5107447
585,1747638606310,-0.31687826,0.5751555,-0.69272333,-0.37307495,-0.08765658,-0.69949645
586,1747638606320,-0.3456909,0.5631731,-0.6880889,-0.27717194,-0.1719535,-0.8344937
587,1747638606330,-0.40231007,0.56049,-0.7036996,-0.16683766,-0.2586938,-0.95421976
588,1747638606340,-0.45966098,0.55292857,-0.75007427,-0.10888352,-0.28862533,-1.0000333
589,1747638606350,-0.47575948,0.55244076,-0.780076,-0.12384928,-0.23120569,-0.97743195
590,1747638606360,-0.47990605,0.5512212,-0.7812956,-0.17057909,-0.12552911,-0.9169581
591,1747638606370,-0.4674663,0.5597583,-0.76885587,-0.22105035,0.010689827,-0.8436564
592,1747638606380,-0.38983983,0.5900344,-0.7425129,-0.2622062,0.15920207,-0.7795175
593,1747638606390,-0.32004914,0.6061329,-0.7369028,-0.28274593,0.23250374,-0.7789066
594,1747638606400,-0.250990255,0.59637625,-0.7471472299999999,-0.3354315,0.266405765,-0.847932335
595,1747638606410,-0.2246320075,0.591985775,-0.7409273649999999,-0.35612394999999997,0.2405974675,-0.8995489475
596,1747638606420,-0.19827376,0.5875953,-0.7347075,-0.3768164,0.21478917,-0.95116556
597,1747638606430,-0.19046843,0.58003384,-0.739098,-0.38804072,0.024128467,-1.145415
598,1747638606440,-0.24538018,0.59613234,-0.7708072,-0.4067479,-0.058946762,-1.2370421
599,1747638606450,-0.28272992,0.6149139,-0.77349025,-0.4185831,-0.044286426,-1.2113864
600,1747638606460,-0.32443967,0.6305551,-0.7659288,-0.43538138,0.0387888,-1.1142617
601,1747638606470,-0.33126932,0.6442144,-0.7571478,-0.445384,0.12377293,-1.0195805
602,1747638606480,-0.29454462000000003,0.686061365,-0.747878995,-0.429158375,0.482645715,-0.73492563
603,1747638606490,-0.2594053725,0.6804436700000001,-0.747086265,-0.42152278,0.6075639825,-0.673230055
604,1747638606500,-0.22426612499999998,0.674825975,-0.746293535,-0.413887185,0.73248225,-0.61153448
605,1747638606510,-0.12182112749999999,0.655061095,-0.74970838,-0.426065955,0.715378505,-0.6255839575
606,1747638606520,-0.01937613,0.635296215,-0.753123225,-0.438244725,0.69827476,-0.639633435
607,1747638606530,0.032235110000000004,0.6019330075,-0.7612334624999999,-0.4393327975,0.55243498,-0.8021188175
608,1747638606540,0.08384635,0.5685698,-0.7693437,-0.44042087,0.4065952,-0.9646042
609,1747638606550,-0.11409202,0.5910101,-0.78349084,-0.4285857,0.26915458,-1.233377
610,1747638606560,-0.221712635,0.619624575,-0.8131495725,-0.5089503,0.40170843999999994,-1.03118653
611,1747638606570,-0.32933325,0.6482390499999999,-0.8428083049999999,-0.5893149,0.5342623,-0.82899606
612,1747638606580,-0.3366355,0.65543455,-0.8271825,-0.5893149,0.5342623,-0.82899606
613,1747638606590,-0.30356954,0.641287375,-0.8120596250000001,-0.68930295,0.7025507,-0.601455465
614,1747638606600,-0.27050358,0.6271402,-0.79693675,-0.789291,0.8708391,-0.37391487
615,1747638606610,-0.07820578,0.59198576,-0.6807714,-0.7675296,1.2080268,-0.20890976
616,1747638606620,-0.041237161,0.59015638,-0.63707983,-0.6915173,1.17656815,-0.21746162
617,1747638606630,-0.004268542,0.588327,-0.59338826,-0.615505,1.1451095,-0.22601348
618,1747638606640,0.046496615,0.5712528,-0.5096944,0.029397024,0.51288265,-0.4594335
619,1747638606650,0.046496615,0.5712528,-0.5096944,0.029397024,0.51288265,-0.4594335
620,1747638606660,-0.098206945,0.58905876,-0.6663499,0.69919103,0.13232478,-0.47226128
621,1747638606670,-0.1301752725,0.5845463,-0.72406665,0.7512275850000001,0.16958647,-0.4065952
622,1747638606680,-0.1621436,0.58003384,-0.7817834,0.80326414,0.20684816,-0.34092912
623,1747638606690,-0.23147692,0.5643927,-0.90285754,0.58954394,0.6210026,0.056808796
624,1747638606700,-0.22658335000000002,0.5351074499999999,-0.89369542,0.39140037,0.83540995,0.265107698
625,1747638606710,-0.22168978,0.5058222,-0.8845333,0.1932568,1.0498173,0.4734066
626,1747638606720,-0.16482669,0.5143898,-0.80596167,0.06306998,1.1530505,0.63955706
627,1747638606730,-0.008399879999999998,0.510715775,-0.6930892200000001,0.140953,1.03179735,0.72660278
628,1747638606740,0.14802693,0.50704175,-0.58021677,0.21883602,0.9105442,0.8136485
629,1747638606750,0.27029014,0.49435812,-0.5631426,1.1110548,-0.23364908,0.44652936
630,1747638606760,0.23990728,0.488260195,-0.6517301,1.2518932999999999,-0.44714019000000005,0.36467582
631,1747638606770,0.20952442,0.48216227,-0.7403176,1.3927318,-0.6606313,0.28282228
632,1747638606780,0.12290351,0.471186,-0.89014345,1.3964732,-0.7601994,0.18569757
633,1747638606790,0.08530985499999999,0.4570236,-0.9667790249999999,1.2805649,-0.65513368,0.20707722
634,1747638606800,0.0477162,0.4428612,-1.0434146,1.1646566,-0.55006796,0.22845687
635,1747638606810,0.029910281,0.3635578,-1.0065527,0.4556157,0.21173494,0.4043809
636,1747638606820,0.0477314455,0.353801125,-0.96958405,0.340356455,0.38246676999999996,0.45905171999999994
637,1747638606830,0.06555261,0.34404445,-0.9326154,0.22509721,0.5531986,0.51372254
638,1747638606840,0.21171968,0.2976698,-0.7520256,0.16775393,0.75477815,0.59924114
639,1747638606850,0.21171968,0.2976698,-0.7520256,0.16775393,0.75477815,0.59924114
640,1747638606860,0.3488923,0.30986565,-0.7219933,0.3558949,0.463404,0.52288526
641,1747638606870,0.41429248,0.3103535,-0.86794704,0.5234961,0.2306712,0.36345413
642,1747638606880,0.41429248,0.3103535,-0.86794704,0.6145123,0.15920207,0.19852535
643,1747638606890,0.23245259,0.3577038,-1.0275599,0.5571691,0.39071319,-0.06352811
644,1747638606900,0.18097092999999997,0.36550913500000004,-1.0406094499999998,0.49799325,0.464014845,-0.03206947863
645,1747638606910,0.12948927,0.37331447,-1.053659,0.4388174,0.5373165,-0.00061084726
646,1747638606920,0.06945527,0.34941062,-1.0292674,0.2306712,0.7767686,0.21013145
647,1747638606930,0.052121941,0.3364678,-0.9814292,0.1456107175,0.833272,0.35215344000000004
648,1747638606940,0.034788612,0.32352498,-0.933591,0.060550235,0.8897754,0.49417543
649,1747638606950,0.42843962,0.25105122,-0.8276703,0.23563433,0.45485213,0.59924114
650,1747638606960,0.46260321000000004,0.23627902,-0.846832975,0.29858978,0.37513656500000003,0.516471345
651,1747638606970,0.4967668,0.22150682,-0.86599565,0.36154523,0.295421,0.43370155
652,1747638606980,0.3971878,0.26593015,-1.036341,0.48989952,0.18607935,0.076355904
653,1747638606990,0.309332075,0.31059739,-1.0550159,0.326650585,0.34276166500000005,0.15668232199999998
654,1747638607000,0.22147635,0.35526463,-1.0736908,0.16340165,0.49944398,0.23700874
655,1747638607010,0.22025676,0.33694038,-1.00265,0.01007898,0.6778114,0.40987852
656,1747638607020,0.24795653,0.29448364,-0.89491505,0.08704573500000001,0.78837475,0.59465981
657,1747638607030,0.2756563,0.2520269,-0.7871801,0.16401249,0.8989381,0.7794411
658,1747638607040,0.45331916,0.19272466,-0.7154076,0.6979694,0.65643173,1.0500464
659,1747638607050,0.53739418,0.173074125,-0.751659715,0.9051610999999999,0.45485213,1.0457705000000002
660,1747638607060,0.6214692,0.15342359,-0.78791183,1.1123528,0.25327253,1.0414946
661,1747638607070,0.793278,0.06143651,-1.0773494,1.5846142,-0.5121954,0.66704524
662,1747638607080,0.7578948249999999,0.117323915,-1.2658665,1.25781088,-0.568393375,0.46913070999999995
663,1747638607090,0.72251165,0.17321132,-1.4543836,0.93100756,-0.62459135,0.27121618
664,1747638607100,0.69812,0.22568391,-1.4790497,0.33100286,-0.3319955,0.22662434
665,1747638607110,0.69812,0.22568391,-1.4790497,0.33100286,-0.3319955,0.22662434
666,1747638607120,0.73568314,0.21906766,-1.2242483,-0.11766446,-0.065055236,0.19363858
667,1747638607130,0.7447081,0.17930925,-1.0612204,-0.9762103,0.44202435,-0.07146913
668,1747638607140,0.7447081,0.17930925,-1.0612204,-0.9762103,0.44202435,-0.07146913
669,1747638607150,0.73202443,0.14635001,-0.91432166,-1.0304229,0.43041825,-0.23456535
670,1747638607160,0.6175665,0.1419595,-0.73202443,-0.7425612,0.12186403,-0.49730602
671,1747638607170,0.6175665,0.1419595,-0.73202443,-0.7425612,0.12186403,-0.49730602
672,1747638607180,0.5246038,0.1844315,-0.6873572,-0.07337803,-0.5366293,-0.59076566
673,1747638607190,0.52765275,0.190041585,-0.72652105,0.08551861000000001,-0.6814001000000001,-0.6051205799999999
674,1747638607200,0.5307017,0.19565167,-0.7656849,0.24441525,-0.8261709,-0.6194755
675,1747638607210,0.52265245,0.22321424,-0.9492017,0.37834352,-0.77730316,-0.6359683
676,1747638607220,0.525701405,0.2204092,-0.9804383000000001,0.34562501,-0.6597150549999999,-0.630165265
677,1747638607230,0.52875036,0.21760416,-1.0116749,0.3129065,-0.54212695,-0.62436223
678,1747638607240,0.5162801,0.18662675,-1.0270721,0.18455222,-0.23120569,-0.6390226
679,1747638607250,0.48236045,0.19479795,-1.0376825,0.16462333499999998,-0.18417044999999999,-0.65185038
680,1747638607260,0.4484408,0.20296915,-1.0482929,0.14469445,-0.13713521,-0.66467816
681,1747638607270,0.4074628,0.2273913,-1.0434146,0.026266431,-0.14507623,-0.65001786
682,1747638607280,0.399642225,0.24519722,-1.0368287999999999,-0.0176382145,-0.253501615,-0.63535753
683,1747638607290,0.39182165,0.26300314,-1.030243,-0.06154286,-0.361927,-0.6206972
684,1747638607300,0.38011363,0.2639788,-0.96484286,-0.15561333,-0.63253236,-0.61397785
685,1747638607310,0.38011363,0.2639788,-0.96484286,-0.15561333,-0.63253236,-0.61397785
686,1747638607320,0.33178765,0.23983108,-0.88111854,0.04314109,-0.69850385,-0.56999683
687,1747638607330,0.31434761,0.240440865,-0.88111854,0.10823450000000001,-0.66735065,-0.549533465
688,1747638607340,0.29690757,0.24105065,-0.88111854,0.17332791,-0.63619745,-0.5290701
689,1747638607350,0.27248544,0.24836816,-0.93017626,0.32290915,-0.4950917,-0.39285114
690,1747638607360,0.27577830999999997,0.25410019500000003,-0.9435916799999999,0.31199025,-0.4446968,-0.37238777
691,1747638607370,0.27907118,0.25983223,-0.9570071,0.30107135,-0.3943019,-0.3519244
692,1747638607380,0.31861615,0.27080846,-0.933591,0.22509721,-0.2483094,-0.37208232
693,1747638607390,0.272851285,0.26934497,-0.904915565,0.237543225,-0.26663482,-0.44141351000000006
694,1747638607400,0.22708642,0.26788148,-0.87624013,0.24998924,-0.28496024,-0.5107447
695,1747638607410,0.1287575,0.31889054,-0.9262736,0.25495237,-0.5079195,-0.26877278
696,1747638607420,0.13119667499999998,0.32059797,-0.934810675,0.217576155,-0.5253286500000001,-0.20005246999999998
697,1747638607430,0.13363585,0.3223054,-0.94334775,0.18019994,-0.5427378,-0.13133216
698,1747638607440,0.17315035,0.3501424,-0.970209,-0.02107423,-0.3991887,-0.0061084726
699,1747638607450,0.1859102325,0.351605895,-0.967282025,-0.090519925,-0.306950755,-0.00030542380000000025
700,1747638607460,0.19867011499999998,0.35306939,-0.96435505,-0.15996562,-0.21471281,0.005497625
701,1747638607470,0.201963,0.33941004,-0.93432283,-0.41545248,0.11209047,-0.14049487
702,1747638607480,0.19537725,0.33049184,-0.912598995,-0.422324525,0.12587271,-0.16431791499999998
703,1747638607490,0.1887915,0.32157364,-0.89087516,-0.42919657,0.13965495,-0.18814096
704,1747638607500,0.05698503,0.3389222,-0.8323047,-0.23601611,-0.043064732,-0.21074231
705,1747638607510,-0.0025611270000000033,0.40237103500000004,-0.8652487,-0.14534347,-0.228151451,-0.008246444999999991
706,1747638607520,-0.062107284,0.46581987,-0.8981927,-0.05467083,-0.41323817,0.19424942
707,1747638607530,-0.024513626,0.4484713,-0.9223709,-0.12384928,-0.47004697,0.3035911
708,1747638607540,-0.024513626,0.4484713,-0.9223709,-0.12384928,-0.47004697,0.3035911
709,1747638607550,0.031617697,0.42749447,-0.945299,-0.34879377,-0.31611344,0.32802498
710,1747638607560,0.0622444885,0.43115321,-0.9300542350000001,-0.468443485,-0.11239589,0.32038939
711,1747638607570,0.09287128,0.43481195,-0.91480947,-0.5880932,0.09132166,0.3127538
712,1747638607580,0.13631892,0.43261668,-0.8989244,-0.73072606,0.4481328,0.20952061
713,1747638607590,0.14412426,0.44397405999999995,-0.939445075,-0.816091955,0.6576534,0.089489124
714,1747638607600,0.1519296,0.45533144,-0.97996575,-0.90145785,0.867174,-0.030542362
715,1747638607610,-0.029391957,0.43651935,-1.0582935,-1.5301723,1.3363048,-0.4337779
716,1747638607620,-0.0863769885,0.432616675,-1.01083645,-1.6419956,1.3048461,-0.46523654999999997
717,1747638607630,-0.14336202,0.428714,-0.9633794,-1.7538189,1.2733874,-0.4966952
718,1747638607640,-0.36666775,0.5482942,-0.7517817,-1.8149036,0.76638424,-0.37757996
719,1747638607650,-0.39448948500000003,0.5745305,-0.70857793,-1.74324355,0.5614449800000001,-0.21078048
720,1747638607660,-0.42231122,0.6007668,-0.66537416,-1.6715835,0.35650572,-0.043981
721,1747638607670,-0.39621213,0.5819852,-0.6785762,-1.4354529,0.060779300499999994,0.396745285
722,1747638607680,-0.383269295,0.595522565,-0.6509983699999999,-1.3341859,0.031153209299999998,0.5114318425
723,1747638607690,-0.37032646,0.60905993,-0.62342054,-1.2329189,0.0015271181,0.6261184
724,1747638607700,-0.37130213,0.6429949,-0.5836316,-0.79181075,-0.3014531,0.7922689
725,1747638607710,-0.37130213,0.6429949,-0.5836316,-0.79181075,-0.3014531,0.7922689
726,1747638607720,-0.38349798,0.6537272,-0.5848512,-0.5270085,-0.50975204,0.83563906
727,1747638607730,-0.39083072500000005,0.65275152,-0.63012823,-0.32978118,-0.63741912,0.8637380299999999
728,1747638607740,-0.39816347,0.65177584,-0.67540526,-0.13255386,-0.7650862,0.891837
729,1747638607750,-0.4249943,0.6466536,-0.86843485,-0.1007898,-0.6795676,0.9101624
730,1747638607760,-0.43560467999999997,0.64043373,-0.889670825,-0.19986160000000003,-0.568087965,0.90283225
731,1747638607770,-0.44621506,0.63421386,-0.9109068,-0.2989334,-0.45660833,0.8955021
732,1747638607780,-0.49380928,0.6583616,-0.8740449,-0.55755085,-0.18294875,0.91199493
733,1747638607790,-0.49637042,0.66958175,-0.7819206000000001,-0.6011500750000001,-0.1127013175,0.930320365
734,1747638607800,-0.49893156,0.6808019,-0.6897963,-0.6447493,-0.042453885,0.9486458
735,1747638607810,-0.49893156,0.6808019,-0.6897963,-0.5668663,-0.09009997,0.95231086
736,1747638607820,-0.47685708,0.67519185,-0.65502295,-0.41297094,-0.183865035,0.95231086
737,1747638607830,-0.4547826,0.6695818,-0.6202496,-0.25907558,-0.2776301,0.95231086
738,1747638607840,-0.3761805,0.66519123,-0.65293443,0.3284831,-0.5317425,0.80082077
739,1747638607850,-0.353481,0.664459495,-0.701016515,0.41415444,-0.53601845,0.746760785
740,1747638607860,-0.3307815,0.66372776,-0.7490986,0.49982578,-0.5402944,0.6927008
741,1747638607870,-0.33934906,0.6173531,-0.930908,0.46180052,-0.2855711,0.34940463
742,1747638607880,-0.33934906,0.6173531,-0.930908,0.46180052,-0.2855711,0.34940463
743,1747638607890,-0.4291409,0.6439705,-0.9377376,0.06490252,-0.006413896,0.14538164
744,1747638607900,-0.43621445,0.6312868,-0.8872164,-0.075286925,0.03634541,0.11972606
745,1747638607910,-0.43621445,0.6312868,-0.8872164,-0.075286925,0.03634541,0.11972606
746,1747638607920,-0.42548215,0.6173531,-0.8388904,-0.13133216,0.022906773,0.10262234
747,1747638607930,-0.31809783,0.59613234,-0.73568314,0.0019852535,-0.31428093,-0.08429692
748,1747638607940,-0.31809783,0.59613234,-0.73568314,0.0019852535,-0.31428093,-0.08429692
749,1747638607950,-0.2619665,0.60198635,-0.79718065,0.10728005,-0.48531815,-0.23028941
750,1747638607960,-0.2619665,0.60198635,-0.79718065,0.18333054,-0.53724015,-0.3537569
751,1747638607970,-0.2619665,0.60198635,-0.79718065,0.18333054,-0.53724015,-0.3537569
752,1747638607980,-0.2763576,0.6405556,-0.8703861,0.08483142,-0.26907822,-0.6640673
753,1747638607990,-0.28417817,0.64275088,-0.8734351,0.048715072500000005,-0.21196399999999999,-0.674451725
754,1747638608000,-0.29199874,0.64494616,-0.8764841,0.012598725,-0.15484978,-0.68483615
755,1747638608010,-0.3159026,0.6595812,-0.86648345,-0.13011047,0.003970507,-0.7056049
756,1747638608020,-0.31041447,0.66141055,-0.844149825,-0.213605655,-0.0012216945000000003,-0.7196544
757,1747638608030,-0.30492634,0.6632399,-0.8218162,-0.29710084,-0.006413896,-0.7337039
758,1747638608040,-0.2502585,0.64787316,-0.76714844,-0.39926505,-0.35459682,-0.85709506
759,1747638608050,-0.2296323,0.63750668,-0.76690452,-0.4126655,-0.42850933999999996,-0.907489955
760,1747638608060,-0.2090061,0.6271402,-0.7666606,-0.42606595,-0.50242186,-0.95788485
761,1747638608070,-0.19559069,0.62787205,-0.7700754,-0.47027603,-0.49692425,-1.1655729
762,1747638608080,-0.220363475,0.637506755,-0.76641665,-0.493030085,-0.375060215,-1.1780952999999998
763,1747638608090,-0.24513626,0.64714146,-0.7627579,-0.51578414,-0.25319618,-1.1906177
764,1747638608100,-0.34983748,0.70644367,-0.68516195,-0.5438068,-0.044286426,-1.1484692
765,1747638608110,-0.33945578,0.709126735,-0.640372755,-0.5232670349999999,0.062039176999999994,-1.0489011000000001
766,1747638608120,-0.32907408,0.7118098,-0.59558356,-0.50272727,0.16836478,-0.949333
767,1747638608130,-0.257576,0.6698257,-0.5887539,-0.22105035,0.02535016,-0.6756734
768,1747638608140,-0.22987622000000002,0.6486049,-0.6041358800000001,-0.15626236500000001,-0.05894676500000001,-0.678116815
769,1747638608150,-0.20217644,0.6273841,-0.61951786,-0.09147438,-0.14324369,-0.68056023
770,1747638608160,-0.20046902,0.6407996,-0.76885587,0.021914145,-0.40590802,-0.81005985
771,1747638608170,-0.195590685,0.6470194499999999,-0.81864536,-0.012636902500000002,-0.382390395,-0.804867625
772,1747638608180,-0.19071235,0.6532393,-0.86843485,-0.04718795,-0.35887277,-0.7996754
773,1747638608190,-0.17510168,0.65055627,-0.8244993,-0.445384,0.15920207,-0.6988856
774,1747638608200,-0.17510168,0.65055627,-0.8244993,-0.445384,0.15920207,-0.6988856
775,1747638608210,-0.18046784,0.6529954,-0.7615383,-0.5282302,0.515326,-0.64146596
776,1747638608220,-0.22512746,0.6539101,-0.675755875,-0.4587463,0.562666675,-0.6084802149999999
777,1747638608230,-0.26978708,0.6548248,-0.58997345,-0.3892624,0.61000735,-0.57549447
778,1747638608240,-0.29516965,0.6644595,-0.5775337,-0.15874393,0.49516806,-0.43805385
779,1747638608250,-0.273567775,0.6763047,-0.6019406,-0.03287122000000001,0.28377673000000003,-0.33386621
780,1747638608260,-0.2519659,0.6881499,-0.6263475,0.09300149,0.0723854,-0.22967857
781,1747638608270,-0.07820578,0.64884883,-0.8572146,0.053067356,-0.15973656,-0.13499725
782,1747638608280,-0.0627018275,0.65470284,-0.87123985,-0.036650837,-0.0720799775,-0.15301724
783,1747638608290,-0.047197875,0.66055685,-0.8852651,-0.12636903,0.015576605,-0.17103723
784,1747638608300,-0.016464375,0.64640963,-0.78105164,-0.36253786,0.43347248,-0.2211267
785,1747638608310,-0.032684834499999996,0.648360995,-0.74749787,-0.32107659499999996,0.554878365,-0.222501115
786,1747638608320,-0.048905294,0.65031236,-0.7139441,-0.27961533,0.67628425,-0.22387553
787,1747638608330,-0.1501917,0.6654352,-0.6409825,-0.10140064,0.7486697,-0.10017895
788,1747638608340,-0.0968654125,0.638467165,-0.6619746,-0.040659518,0.71171345,-0.0464243915
789,1747638608350,-0.043539125,0.61149913,-0.6829667,0.020081604,0.6747572,0.007330167
790,1747638608360,0.027715031,0.5719846,-0.725896,0.23441264,0.13598987,-0.026266431
791,1747638608370,0.043569615500000006,0.55965155,-0.73091155,0.25529597000000004,-0.002710634999999989,-0.0601684555
792,1747638608380,0.0594242,0.5473185,-0.7359271,0.2761793,-0.14141114,-0.09407048
793,1747638608390,0.034056865,0.51975596,-0.74153715,0.3378749,-0.3319955,-0.18569757
794,1747638608400,0.034056865,0.51975596,-0.74153715,0.3378749,-0.3319955,-0.18569757
795,1747638608410,-0.104304865,0.55341643,-0.7986442,0.34780115,0.092543356,-0.14599249
796,1747638608420,-0.16433886,0.5609778,-0.83937824,0.26495498,0.3626142,0.0
797,1747638608430,-0.16433886,0.5609778,-0.83937824,0.26495498,0.3626142,0.0
798,1747638608440,-0.14067894,0.5753994,-0.8594099,0.12789614,0.61672664,0.20768806
799,1747638608450,-0.06562882925,0.5496509700000001,-0.811937615,-0.016378345000000016,0.67323002,0.41079478
800,1747638608460,0.0094212815,0.52390254,-0.76446533,-0.16065283,0.7297334,0.6139015
801,1747638608470,0.123391345,0.50216347,-0.7056509,-0.14942852,0.51288265,0.6267293
802,1747638608480,0.22490642249999998,0.490333515,-0.69247942,0.0022906699999999947,0.238574043,0.463022225
803,1747638608490,0.3264215,0.47850356,-0.67930794,0.15400986,-0.035734564,0.29931515
804,1747638608500,0.20367043,0.6024742,-0.84672624,0.52479416,-0.17561859,-0.15576605
805,1747638608510,0.144977977,0.6199295,-0.8879633849999999,0.50295636,-0.09223793799999999,-0.153628085
806,1747638608520,0.086285524,0.6373848,-0.92920053,0.48111856,-0.008857286,-0.15149012
807,1747638608530,-0.05110054,0.6188166,-0.9448112,0.33344623,0.26243526,-0.043981
808,1747638608540,-0.030611541,0.5875800200000001,-0.87941105,0.1512228655,0.5299863549999999,0.28526565000000004
809,1747638608550,-0.010122542,0.55634344,-0.8140109,-0.031000499,0.79753745,0.6145123
810,1747638608560,0.07529910533333334,0.54642416,-0.7953817666666666,0.019038073999999995,0.6417714,0.6299871
811,1747638608570,0.16072075266666666,0.53650488,-0.7767526333333333,0.06907664699999999,0.48600535,0.6454619
812,1747638608580,0.2461424,0.5265856,-0.7581235,0.11911522,0.3302393,0.6609367
813,1747638608590,0.35279498,0.4806988,-0.8330364,0.35650572,-0.13408098,0.24128467
814,1747638608600,0.25882607999999996,0.51437455,-0.87209355,0.35497860999999997,-0.0586413405,0.18753011
815,1747638608610,0.16485718,0.5480503,-0.9111507,0.3534515,0.016798299,0.13377555
816,1747638608620,0.106042771,0.5343909499999999,-0.9017446650000001,0.27369774999999996,0.19001166949999998,0.23578704499999997
817,1747638608630,0.047228362,0.5207316,-0.89233863,0.193944,0.36322504,0.33779854
818,1747638608640,0.0690741515,0.51285767,-0.8790375475000001,0.1500011765,0.387811645,0.45141612999999997
819,1747638608650,0.090919941,0.50498374,-0.865736465,0.10605835300000001,0.41239824999999997,0.56503372
820,1747638608660,0.2175736705,0.47502009,-0.8382882075,0.032527614999999996,0.338943875,0.69331166
821,1747638608670,0.3442274,0.44505644,-0.81083995,-0.041003123,0.2654895,0.8215896
822,1747638608680,0.39548041,0.450925695,-0.80388835,0.0565033685,0.04096495,0.61909372
823,1747638608690,0.44673342,0.45679495,-0.79693675,0.15400986,-0.1835596,0.41659784
824,1747638608700,0.369259375,0.4842508,-0.853190025,0.213529295,-0.10384403349999999,0.35429141
825,1747638608710,0.29178533,0.51170665,-0.9094433,0.27304873,-0.024128467,0.29198498
826,1747638608720,0.264329455,0.498032075,-0.9281029,0.204175695,0.18145981649999998,0.41415444
827,1747638608730,0.23687358,0.4843575,-0.9467625,0.13530266,0.3870481,0.5363239
828,1747638608740,0.32129924,0.47704002,-0.944933175,0.05898493499999999,0.411176565,0.60779303
829,1747638608750,0.4057249,0.46972254,-0.94310385,-0.01733279,0.43530503,0.67926216
830,1747638608760,0.4602301233333333,0.4553212833333333,-0.9415590166666666,-0.03891606,0.37666369666666666,0.6126798066666667
831,1747638608770,0.5147353466666666,0.4409200266666667,-0.9400141833333333,-0.060499330000000004,0.31802236333333334,0.5460974533333334
832,1747638608780,0.56924057,0.42651877,-0.93846935,-0.0820826,0.25938103,0.4795151
833,1747638608790,0.5558251,0.44651997,-0.9828927,-0.05971032,-0.009468133,0.124001995
834,1747638608800,0.5050599499999999,0.457633405,-1.01254385,-0.09208522499999999,0.010078979499999998,0.041232191
835,1747638608810,0.4542948,0.46874684,-1.042195,-0.12446013,0.029626092,-0.041537613
836,1747638608820,0.4482781866666667,0.46882815,-1.0419511,-0.19468211000000002,0.05059851333333333,-0.04622077533333333
837,1747638608830,0.4422615733333333,0.46890946,-1.0417072,-0.26490409000000004,0.07157093466666667,-0.05090393766666667
838,1747638608840,0.43624496,0.46899077,-1.0414633,-0.33512607,0.092543356,-0.0555871
839,1747638608850,0.47492103,0.463380695,-0.9969179850000001,-0.4036555,0.09865183,-0.08429692
840,1747638608860,0.5135971,0.45777062,-0.95237267,-0.47218493,0.104760304,-0.11300674
841,1747638608870,0.60341936,0.4726495,-0.8635565,-0.31954947,0.03268033,-0.29198498
842,1747638608880,0.57779285,0.48716254999999997,-0.8440278999999999,-0.07433247500000001,-0.045508120000000006,-0.47344478999999995
843,1747638608890,0.55216634,0.5016756,-0.8244993,0.17088452,-0.12369657,-0.6549046
844,1747638608900,0.49091278,0.498260765,-0.84732075,0.321954685,-0.18081079,-0.71843272
845,1747638608910,0.42965922,0.49484593,-0.8701422,0.47302485,-0.23792501,-0.78196084
846,1747638608920,0.37999168,0.466658315,-0.917370575,0.573661925,-0.29106872500000003,-0.756916105
847,1747638608930,0.33032414,0.4384707,-0.96459895,0.674299,-0.34421244,-0.73187137
848,1747638608940,0.319347885,0.43444607,-1.001201725,0.64719265,-0.350320905,-0.689417485
849,1747638608950,0.30837163,0.43042144,-1.0378045,0.6200863,-0.35642937,-0.6469636
850,1747638608960,0.32124588,0.4378075325,-1.066053075,0.41680780075,-0.306187185,-0.57641075
851,1747638608970,0.33412013,0.445193625,-1.0943016499999998,0.2135293015,-0.255945,-0.5058579000000001
852,1747638608980,0.385914285,0.4391490975,-1.051890625,-0.09256244925000001,-0.08597674999999999,-0.49455722500000004
853,1747638608990,0.43770844,0.43310457,-1.0094796,-0.3986542,0.0839915,-0.48325655
854,1747638609000,0.43819629,0.41920129500000003,-0.9734866499999999,-0.43415970000000004,0.13473000000000002,-0.515326025
855,1747638609010,0.43868414,0.40529802,-0.9374937,-0.4696652,0.1854685,-0.5473955
856,1747638609020,0.43063489,0.39955836499999997,-0.90784259,-0.38025242875,0.1286406155,-0.583282775
857,1747638609030,0.42258564,0.39381871,-0.8781914799999999,-0.2908396575,0.071812731,-0.61917005
858,1747638609040,0.20952442,0.4484713,-0.7456837,0.38765895,-0.41323817,-0.55961245
859,1747638609050,0.20964638,0.43651938,-0.7796034000000001,0.453095975,-0.4446968,-0.51563145
860,1747638609060,0.20976834,0.42456746,-0.8135231,0.518533,-0.47615543,-0.47165045
861,1747638609070,0.22440335,0.40993246,-0.87697196,0.6817819,-0.50730866,-0.24128467
862,1747638609080,0.22440335,0.40993246,-0.87697196,0.6817819,-0.50730866,-0.24128467
863,1747638609090,0.24394716,0.41846955,-0.9350546,0.6064186,-0.41934663,-0.1692047
864,1747638609100,0.23551679,0.42737250000000004,-0.939689,0.4556157,-0.29320667499999997,-0.189668075
865,1747638609110,0.22708642,0.43627545,-0.9443234,0.3048128,-0.16706672,-0.21013145
866,1747638609120,0.1917185,0.44115376,-0.78202736,0.078646585,-0.072996244,-0.2663294
867,1747638609130,0.18011722,0.44115376,-0.74847358,0.11884797250000001,-0.118809792,-0.26602397499999997
868,1747638609140,0.16851594,0.44115376,-0.7149198,0.15904936,-0.16462334,-0.26571855
869,1747638609150,0.121440016,0.42700663,-0.68564975,0.6263475,-0.58610797,-0.22418094
870,1747638609160,0.095447643,0.41542059,-0.7228623,0.7612302,-0.710415365,-0.185392145
871,1747638609170,0.06945527,0.40383455,-0.76007485,0.8961129,-0.83472276,-0.14660335
872,1747638609180,0.0037807084,0.43432412,-0.8781915,0.9534562,-0.9202414,-0.04703524
873,1747638609190,-0.029407205800000003,0.44385211,-0.94726565,0.7932996999999999,-0.8108997250000001,0.076050485
874,1747638609200,-0.06259512,0.4533801,-1.0163398,0.6331432,-0.70155805,0.19913621
875,1747638609210,-0.012073875,0.41822565,-0.913346,0.026953636,-0.07116371,0.45813546
876,1747638609220,0.005381411500000001,0.41468882500000004,-0.8487842999999999,-0.015118469499999999,0.019241684999999994,0.47493374499999996
877,1747638609230,0.022836698,0.411152,-0.7842226,-0.057190575,0.10964708,0.49173203
878,1747638609240,0.06360127,0.41456687,-0.6810154,0.17584765,-0.096208446,0.4734066
879,1747638609250,0.062488401,0.42127457,-0.6890646,0.24189550999999998,-0.203412143,0.44805645
880,1747638609260,0.061375532,0.42798227,-0.6971138,0.30794337,-0.31061584,0.4227063
881,1747638609270,-0.12336086,0.47752786,-0.80010766,0.5104392,-0.8365553,0.27671382
882,1747638609280,-0.16740306,0.49033348,-0.819133165,0.46901614,-0.83319565,0.30603447500000003
883,1747638609290,-0.21144526,0.5031391,-0.83815867,0.42759308,-0.829836,0.33535513
884,1747638609300,-0.3178539,0.5043587,-0.87916714,0.08551861,-0.48898324,0.65177405
885,1747638609310,-0.3178539,0.5043587,-0.87916714,0.08551861,-0.48898324,0.65177405
886,1747638609320,-0.31980523,0.5077735,-0.8347438,-0.24907297,-0.09743014,0.9975136
887,1747638609330,-0.252819625,0.5064319500000001,-0.76056265,-0.34722848500000003,-0.042453885499999997,1.1117420500000001
888,1747638609340,-0.18583402,0.5050904,-0.6863815,-0.445384,0.012522369,1.2259705
889,1747638609350,-0.1047927,0.5385375,-0.5887539,-0.20303036,-0.5708368,1.0897515
890,1747638609360,-0.12895569,0.56001745,-0.6016967,-0.11361759099999999,-0.6951442,1.0485193000000002
891,1747638609370,-0.15311868,0.5814974,-0.6146395,-0.024204822,-0.8194516,1.0072871
892,1747638609380,-0.2239155,0.6188166,-0.70491916,0.13660072,-0.81578654,1.0683719
893,1747638609390,-0.2511122,0.62444195,-0.72420383,0.15374262,-0.73515469,1.0983034
894,1747638609400,-0.2783089,0.6300673,-0.7434885,0.17088452,-0.65452284,1.1282349
895,1747638609410,-0.32395184,0.62860376,-0.73836625,0.24808034,-0.19211146,1.3163759
896,1747638609420,-0.34738307999999996,0.62419803,-0.731277425,0.293283045,-0.13988402,1.37318465
897,1747638609430,-0.37081432,0.6197923,-0.7241886,0.33848575,-0.08765658,1.4299934
898,1747638609440,-0.3459348,0.60808426,-0.71735895,0.57587624,-0.16828842,1.5869812
899,1747638609450,-0.326528185,0.59527863,-0.744692825,0.73133687,-0.297177185,1.6037795
900,1747638609460,-0.30712157,0.582473,-0.7720267,0.8867975,-0.42606595,1.6205778
901,1747638609470,-0.29590142,0.5956445,-0.9099311,1.0836431,-0.8982509,1.4727527
902,1747638609480,-0.29590142,0.5956445,-0.9099311,1.0836431,-0.8982509,1.4727527
903,1747638609490,-0.36739948,0.62567675,-1.0580496,0.720418,-1.1364813,1.2510152
904,1747638609500,-0.40839274000000003,0.641531325,-1.0661141,0.39361471,-1.026834225,1.19909315
905,1747638609510,-0.449386,0.6573859,-1.0741786,0.06681142,-0.91718715,1.1471711
906,1747638609520,-0.48600397,0.67348444,-0.99289334,-0.38246673,-0.6398625,1.1569448
907,1747638609530,-0.48844313500000003,0.6965498,-0.899427505,-0.6326086799999999,-0.41537614,1.1816840499999999
908,1747638609540,-0.4908823,0.71961516,-0.80596167,-0.88275063,-0.19088978,1.2064233
909,1747638609550,-0.38398582,0.7689168,-0.5392083,-0.8347991,-0.10964708,1.0054545
910,1747638609560,-0.37740007,0.7783076,-0.5310371,-0.74225577,-0.14751961,0.89947255
911,1747638609570,-0.37081432,0.7876984,-0.5228659,-0.64971244,-0.18539214,0.7934906
912,1747638609580,-0.468442,0.81651103,-0.5904613,-0.20234315,-0.16828842,0.351848
913,1747638609590,-0.49211715,0.82090154,-0.6175512999999999,-0.13411915,-0.124918265,0.300842265
914,1747638609600,-0.5157923,0.82529205,-0.6446413,-0.06589515,-0.08154811,0.24983653
915,1747638609610,-0.5596973,0.81699884,-0.71467584,-0.012369657,0.00335966,0.20646638
916,1747638609620,-0.55201392,0.80369017,-0.74359522,-0.0173327915,0.12342933,0.160041985
917,1747638609630,-0.54433054,0.7903815,-0.7725146,-0.022295926,0.243499,0.11361759
918,1747638609640,-0.4306044,0.7745269,-0.8010833,-0.12384928,0.47684264,-0.102011494
919,1747638609650,-0.39461145,0.7705022699999999,-0.802302885,-0.13881504,0.51166092,-0.183865022
920,1747638609660,-0.3586185,0.76647764,-0.80352247,-0.1537808,0.5464792,-0.26571855
921,1747638609670,-0.32297614,0.731811,-0.7844665,-0.131943,0.49577892,-0.6512395
922,1747638609680,-0.368741005,0.718395565,-0.79326275,-0.09114986075,0.40002861,-0.8056311625
923,1747638609690,-0.41450587,0.70498013,-0.802059,-0.05035672150000001,0.3042783,-0.960022825
924,1747638609700,-0.4296287,0.69034517,-0.8003516,0.008857286,0.21540001,-1.0079744
925,1747638609710,-0.42950675,0.679109755,-0.805351875,0.022868595499999998,0.205015605,-1.0055309499999998
926,1747638609720,-0.4293848,0.66787434,-0.81035215,0.036879905,0.1946312,-1.0030875
927,1747638609730,-0.36276507,0.60784036,-0.8691666,-0.021685077,0.26121357,-1.0262997
928,1747638609740,-0.36276507,0.60784036,-0.8691666,-0.021685077,0.26121357,-1.0262997
929,1747638609750,-0.32175657,0.5968641,-0.89453393,-0.13133216,0.35955995,-1.069059
930,1747638609760,-0.2822421,0.6017424,-0.87721586,-0.37620556,0.50799584,-1.1955044
931,1747638609770,-0.2822421,0.6017424,-0.87721586,-0.37620556,0.50799584,-1.1955044
932,1747638609780,-0.28834,0.59832764,-0.8674591,-0.5070796,0.53242975,-1.2804122
933,1747638609790,-0.297120985,0.603449855,-0.83561275,-0.63761002,0.521739925,-1.319201
934,1747638609800,-0.30590197,0.60857207,-0.8037664,-0.76814044,0.5110501,-1.3579898
935,1747638609810,-0.31492692,0.624945,-0.7300731,-0.7650098,0.4530196,-1.2944617
936,1747638609820,-0.31370733500000003,0.6238321499999999,-0.715057,-0.7270227499999999,0.44232977,-1.2507861
937,1747638609830,-0.31248775,0.6227193,-0.7000409,-0.6890357,0.43163994,-1.2071105
938,1747638609840,-0.28907174,0.6276281,-0.6836984,-0.61481774,0.4010976,-1.1478584
939,1747638609850,-0.29163287000000004,0.6288477,-0.712495825,-0.576830685,0.42125555000000003,-1.1099858500000002
940,1747638609860,-0.294194,0.6300673,-0.74129325,-0.53884363,0.4414135,-1.0721133
941,1747638609870,-0.28809607,0.6034498,-0.7564161,-0.6771242,0.7242358,-0.93100756
942,1747638609880,-0.26442092,0.59503468,-0.7447081,-0.7082774000000001,0.7926506849999999,-0.8943567299999999
943,1747638609890,-0.24074577,0.58661956,-0.7330001,-0.7394306,0.86106557,-0.8577059
944,1747638609900,-0.1355567,0.55585563,-0.58851,-0.6715502,0.84029675,-0.84487814
945,1747638609910,-0.1145646175,0.606742715,-0.602184575,-0.48214937,0.52265618,-0.917568955
946,1747638609920,-0.093572535,0.6576298,-0.61585915,-0.29274854,0.20501561,-0.99025977
947,1747638609930,-0.1094576,0.6954674,-0.6876011,-0.20303036,0.09071082,-0.97865367
948,1747638609940,-0.1094576,0.6954674,-0.6876011,-0.20303036,0.09071082,-0.97865367
949,1747638609950,-0.12336086,0.7093707,-0.7571478,-0.21669807,0.13721156,-0.941392
950,1747638609960,-0.17045202,0.6898421,-0.801693115,-0.3777708525,0.4795914425,-0.8108233874999999
951,1747638609970,-0.21754318,0.6703135,-0.84623843,-0.538843635,0.821971325,-0.680254775
952,1747638609980,-0.22684251,0.59466887,-0.6934551,-0.6092438,1.0168316,-0.46920705
953,1747638609990,-0.22684251,0.59466887,-0.6934551,-0.6092438,1.0168316,-0.46920705
954,1747638610000,-0.22684251,0.59466887,-0.6934551,-0.6092438,1.0168316,-0.46920705
955,1747638610010,0.08189502,0.58564395,-0.5838755,-0.07711947,0.062000997,-0.545563
956,1747638610020,0.07457752000000001,0.588692905,-0.60730675,0.034092910000000004,-0.0946813215,-0.6045097500000001
957,1747638610030,0.06726002,0.59174186,-0.630738,0.14530529,-0.25136364,-0.6634565
958,1747638610040,-0.09210903,0.645434,-0.82962155,0.29045787,-0.31489176,-0.72026527
959,1747638610050,-0.17465958250000002,0.643109175,-0.8789841899999999,0.040926765000000004,0.13442457000000002,-0.472833955
960,1747638610060,-0.257210135,0.64078435,-0.92834683,-0.20860434,0.5837409,-0.22540264
961,1747638610070,-0.30273107,0.57296026,-0.9018819,-0.45408857,0.8317449,0.043370154
962,1747638610080,-0.24330687499999998,0.55416343,-0.8492873750000001,-0.5347967849999999,0.8845832,0.157598597
963,1747638610090,-0.18388268,0.5353666,-0.79669285,-0.615505,0.9374215,0.27182704
964,1747638610100,0.1504661,0.48313794,-0.6375677,-0.56251395,0.6069531,0.2455606
965,1747638610110,0.18255639,0.5188869700000001,-0.637079865,-0.34661763500000004,0.20680997,0.02229592999999999
966,1747638610120,0.21464668,0.554636,-0.63659203,-0.13072132,-0.19333316,-0.20096874
967,1747638610130,0.13168451,0.6144261,-0.6788201,0.03749075,-0.34360158,-0.29137415
968,1747638610140,0.13168451,0.6144261,-0.6788201,0.03749075,-0.34360158,-0.29137415
969,1747638610150,0.057960697,0.65031236,-0.7127245,0.123467505,-0.36009446,-0.26938364
970,1747638610160,-0.021708586499999995,0.64933668,-0.7687339,0.1409148275,-0.1783674,-0.11025793
971,1747638610170,-0.10137787,0.648361,-0.8247433,0.15836215,0.00335966,0.04886778
972,1747638610180,-0.12482436,0.59247357,-0.7534891,0.13408098,0.71995986,0.5748073
973,1747638610190,-0.0702784925,0.5829608150000001,-0.73335075,0.22349374,0.7288171299999999,0.7067502800000001
974,1747638610200,-0.015732625,0.57344806,-0.7132124,0.3129065,0.7376744,0.83869326
975,1747638610210,0.2576065,0.5683259,-0.7393419,0.5347204,0.20196137,0.7886038
976,1747638610220,0.300673035,0.54611422,-0.743976315,0.60324985,-0.004848605000000006,0.6963658699999999
977,1747638610230,0.34373957,0.52390254,-0.74861073,0.6717793,-0.21165858,0.60412794
978,1747638610240,0.3264215,0.5260978,-0.8935582,0.84999394,-0.6771242,0.21807247
979,1747638610250,0.2501518,0.5221951,-0.92320935,0.7995226950000001,-0.46485477099999994,0.17378604250000002
980,1747638610260,0.1738821,0.5182924,-0.9528605,0.7490514500000001,-0.252585342,0.129499615
981,1747638610270,0.06651303,0.502422575,-0.9257705,0.685523325,0.02905342900000002,0.2165453575
982,1747638610280,-0.04085604,0.48655275,-0.8986805,0.6219952,0.3106922,0.3035911
983,1747638610290,-0.1253122,0.52121943,-0.834256,0.50921756,0.61367244,0.9266553
984,1747638610300,0.160588625,0.439217685,-0.8270604500000001,0.56934783,0.21780522999999996,0.9972082
985,1747638610310,0.44648945,0.35721594,-0.8198649,0.6294781,-0.17806198,1.0677611
986,1747638610320,0.5748506,0.30084074,-0.88209414,0.7578324,-0.5598415,0.7886038
987,1747638610330,0.49457154000000003,0.32536962,-0.97825832,0.78150272,-0.5378510000000001,0.5299099899999999
988,1747638610340,0.41429248,0.3498985,-1.0744225,0.80517304,-0.5158605,0.27121618
989,1747638610350,0.30227375,0.42261612,-1.1114978,0.65750074,-0.27213246,0.2858765
990,1747638610360,0.30227375,0.42261612,-1.1114978,0.65750074,-0.27213246,0.2858765
991,1747638610370,0.18415709,0.4750887,-1.1400665,0.2673984,0.16775393,0.5363239
992,1747638610380,0.31812832,0.4428612,-1.1034486,-0.32634515,0.6185592,0.9859075
993,1747638610390,0.31812832,0.4428612,-1.1034486,-0.32634515,0.6185592,0.9859075
994,1747638610400,0.52801865,0.3842907,-0.90139407,-0.6553627,0.8079218,0.9895726
995,1747638610410,0.554498825,0.37197292,-0.846848185,-0.58744415,0.697969335,0.91810345
996,1747638610420,0.580979,0.35965514,-0.7923023,-0.5195256,0.58801687,0.8466343
997,1747638610430,0.5697284,0.35526463,-0.8344999,0.03191677,-0.15179555,0.3970507
998,1747638610440,0.523612885,0.366606755,-0.883069815,0.10262233999999999,-0.22143214,0.322527345
999,1747638610450,0.47749737,0.37794888,-0.93163973,0.17332791,-0.29106873,0.24800399
1000,1747638610460,0.42526874,0.41700605,-1.0153642,0.10544751,-0.26846737,0.2003579
