id,timestamp,acc_x,acc_y,acc_z,gyro_x,gyro_y,gyro_z
0,1747638679350,0.100432694,0.4367633,0.86550784,0.7446992,0.06810947,-0.5296809
1,1747638679360,-0.04329521,0.54878205,0.8091326,0.5727457,-0.6135961,-0.5993175
2,1747638679370,-0.034514209000000004,0.597351925,0.7835061,0.2577775625,-0.9697199999999999,-0.22574623499999996
3,1747638679380,-0.025733208,0.6459218,0.7578796,-0.057190575,-1.3258439,0.14782503
4,1747638679390,0.011845203999999998,0.6133436999999999,0.8279293999999999,-0.16531053750000002,-1.30812935,0.3295521
5,1747638679400,0.049423616,0.5807656,0.8979792,-0.2734305,-1.2904148,0.51127917
6,1747638679410,0.25833824,0.56049,1.0497868,-0.065284304,-0.54151607,0.8765658
7,1747638679420,0.30556660999999996,0.49777292500000003,1.04196625,0.08548044049999999,0.022181404999999987,0.68613418
8,1747638679430,0.35279498,0.43505585,1.0341457,0.236245185,0.58587888,0.49570256
9,1747638679440,0.36425903,0.33157423,0.99511904,0.16958646,0.8305232,-0.42033926
10,1747638679450,0.277744855,0.46659732499999995,0.9858349575,0.12942325999999998,0.74592087,-0.53242973
11,1747638679460,0.19123068,0.6016204199999999,0.976550875,0.08926006,0.66131854,-0.6445202
12,1747638679470,0.1680281,0.5324396,0.97142863,-0.13133216,-0.04795151,-0.6365792
13,1747638679480,0.21537841000000002,0.50425199,0.96911144,-0.12449831,-0.110868775,-0.67750595
14,1747638679490,0.26272872,0.47606438,0.96679425,-0.11766446,-0.17378604,-0.7184327
15,1747638679500,0.1006766,0.4989925,0.7774234,-0.09147438,-0.07849387,-0.90351945
16,1747638679510,0.0599272745,0.5141306,0.69517775,-0.46000616000000005,-0.09254335999999999,-0.79051271
17,1747638679520,0.019177949,0.5292687,0.6129321,-0.82853794,-0.10659285,-0.67750597
18,1747638679530,0.052838445,0.49191895,0.74422026,-1.1264024,-0.21532366,-0.5107447
19,1747638679540,0.1195953925,0.45080375500000003,0.86893788,-1.08310855,-0.31244837,-0.46187690000000003
20,1747638679550,0.18635234,0.40968856,0.9936555,-1.0398147,-0.40957308,-0.4130091
21,1747638679560,0.207756025,0.39381871999999996,0.967114315,-0.71408043,-0.503490865,-0.4783697575
22,1747638679570,0.22915971000000002,0.37794888,0.94057313,-0.38834616,-0.59740865,-0.543730415
23,1747638679580,0.22489117,0.36380172,0.87749016,-0.13255386,-0.6911737,-0.6225297
24,1747638679590,0.1929838175,0.3763710525,0.81500178,-0.12058506749999999,-0.609625575,-0.7498913599999999
25,1747638679600,0.161076465,0.388940385,0.7525134,-0.10861627499999998,-0.5280774500000001,-0.8772530199999999
26,1747638679610,0.18805976,0.36160645,0.7164138,-0.2192178,-0.42056835,-0.9145147
27,1747638679620,0.18011722,0.341833965,0.6992024,-0.22231022,-0.43858834,-0.88122352
28,1747638679630,0.17217468,0.32206148,0.681991,-0.22540264,-0.45660833,-0.84793234
29,1747638679640,0.014787449,0.3838029,0.69808954,-0.32512346,-0.8756496,-0.33176643
30,1747638679650,0.0023324534999999997,0.37550973,0.629152595,-0.46031157999999994,-1.25773455,0.02256315999999997
31,1747638679660,-0.010122542,0.36721656,0.56021565,-0.5954997,-1.6398195,0.37689275
32,1747638679670,-0.043051295,0.3152318,0.52530503,-0.5954997,-1.6398195,0.37689275
33,1747638679680,0.004527702499999994,0.30547513000000004,0.554712235,-0.51670042,-2.1138751,0.13713520499999998
34,1747638679690,0.0521067,0.29571846,0.58411944,-0.43790114,-2.5879307,-0.10262234
35,1747638679700,0.27419284,-0.020824386,0.5838755,-0.250371,-4.463232,-0.17653486
36,1747638679710,0.20018699,-0.00935268025,0.4840068775,-0.1648523955,-4.79478835,-0.37280771749999997
37,1747638679720,0.12618114,0.0021190255,0.384138255,-0.079333791,-5.126344700000001,-0.569080575
38,1747638679730,-0.040612124,0.056070343,0.18805976,-0.011682454,-5.3533125,-0.7056049
39,1747638679740,-0.17447665199999998,-0.0009146870000000043,0.12057106,-0.139731302,-5.0237224000000005,-0.50738498
40,1747638679750,-0.30834118,-0.057899717,0.05308236,-0.26778015,-4.6941323,-0.30916506
41,1747638679760,-0.37227783,-0.0605828,0.1387581,-0.1681357,-4.634269,0.09162709
42,1747638679770,-0.30931684,-0.13185221,0.08360244,-0.04224390324999999,-4.706654374999999,0.38651360749999997
43,1747638679780,-0.24635585,-0.20312162,0.02844678,0.0836478935,-4.77903975,0.6814001249999999
44,1747638679790,-0.20865547,-0.226186985,-0.09907590499999999,0.03159225525,-4.686191024999999,0.9729269625
45,1747638679800,-0.17095509,-0.24925235,-0.22659859,-0.020463383,-4.5933423,1.2644538
46,1747638679810,0.09750569,-0.36663726,-0.38669938,-1.168169,-3.418683,1.9180604
47,1747638679820,0.16058864,-0.391897855,-0.336178155,-1.568503,-3.2213793500000003,2.02037735
48,1747638679830,0.22367159,-0.41715845,-0.28565693,-1.968837,-3.0240757,2.1226943
49,1747638679840,0.2280621,-0.4471602,0.089700356,-3.2423773,-2.6117537,2.3988736
50,1747638679850,0.25980175,-0.467176625,0.22832124800000003,-3.3671428,-2.60793595,2.57601925
51,1747638679860,0.2915414,-0.48719305,0.36694214,-3.4919083,-2.6041182000000003,2.7531649
52,1747638679870,0.43917197,-0.5228354,0.38669938,-3.310334,-2.317249,3.0512583
53,1747638679880,0.530686435,-0.51281957,0.400358705,-3.1265072,-1.8621678,3.1205895000000003
54,1747638679890,0.6222009,-0.50280374,0.41401803,-2.9426804,-1.4070866,3.1899207
55,1747638679900,0.6983639,-0.47304586,0.35203275,-2.8835044,-0.7614211,3.4147124
56,1747638679910,0.804643,-0.44967560500000003,0.342885865,-3.0127941,-0.49066305875,3.602395275
57,1747638679920,0.9109221000000001,-0.42630535,0.33373898,-3.1420838,-0.2199050175,3.7900781500000003
58,1747638679930,1.1117645500000002,-0.4220978,0.33898319,-3.29038605,0.009353591249999987,3.860172875
59,1747638679940,1.312607,-0.41789025,0.3442274,-3.4386883,0.2386122,3.9302676
60,1747638679950,1.9488332,-0.46304533,0.4679541,-3.5913239,1.123119,3.032933
61,1747638679960,2.0470706,-0.424841865,0.55410245,-3.5146625499999997,1.1499963,2.71743035
62,1747638679970,2.145308,-0.3866384,0.6402508,-3.4380012,1.1768736,2.4019277
63,1747638679980,2.4401119,-0.18287653,0.8255055,-3.0087283,0.09009997,1.392121
64,1747638679990,2.57812295,-0.099167375,0.75167495,-3.0015508,-0.583053665,1.044854275
65,1747638680000,2.716134,-0.01545822,0.6778444,-2.9943733,-1.2562073,0.69758755
66,1747638680010,2.9450498,0.04018527,0.50652343,-3.459228,-1.6459279,0.22173755
67,1747638680020,3.1560224000000003,-0.027654053000000005,0.549239335,-4.272953,-1.28033585,-0.22085947499999997
68,1747638680030,3.366995,-0.095493376,0.59195524,-5.086678,-0.9147438,-0.6634565
69,1747638680040,3.415809,-0.025214886,1.46661,-5.697296,1.9666991,-2.0983367
70,1747638680050,3.3014730500000002,0.021647601999999995,1.7349335,-5.3421647,2.47954355,-2.4095633999999997
71,1747638680060,3.1871371,0.06851009,2.003257,-4.9870334,2.992388,-2.7207901
72,1747638680070,2.8913577,0.25812483,2.4073966,-2.8560927,2.6691735,-3.7336512
73,1747638680080,2.6779306,0.20918903500000002,2.5434563,-1.0080125,1.00732533,-4.3258676000000005
74,1747638680090,2.4645035,0.16025324,2.679516,0.8400677,-0.65452284,-4.918084
75,1747638680100,2.421574,0.016769271,2.602408,2.4775202,-2.1223888,-5.176472
76,1747638680110,2.4663481000000003,-0.0026373495000000004,2.2043665,3.109632525,-2.760304275,-5.344302425
77,1747638680120,2.5111222,-0.02204397,1.806325,3.74174485,-3.39821975,-5.51213285
78,1747638680130,2.7056456,0.05582643,1.3526399,3.7567105,-3.571395,-5.7605186
79,1747638680140,2.9221063999999997,0.048737600000000006,1.30894835,3.1812924000000002,-3.0558016500000003,-5.87444165
80,1747638680150,3.1385672,0.04164877,1.2652568,2.6058743,-2.5402083,-5.9883647
81,1747638680160,3.7506456,-0.14455111,1.8333997,1.1889378,-0.9972082,-6.811176
82,1747638680170,3.7715158,-0.47107932500000005,2.3363863,1.45282385,-0.37654918000000004,-7.7989545
83,1747638680180,3.792386,-0.79760754,2.8393729,1.7167099,0.24410984,-8.786733
84,1747638680190,3.6665706499999997,-0.881804495,2.90062655,2.21363415,0.32199286,-9.028628000000001
85,1747638680200,3.5407553,-0.96600145,2.9618802,2.7105584,0.39987588,-9.270523
86,1747638680210,3.0738988,-1.1558907,2.6148477,4.3997035,0.21356747,-9.704225
87,1747638680220,2.9177159,-1.1693061,2.40178645,4.7530024,-0.055548915000000004,-9.77874825
88,1747638680230,2.761533,-1.1827215,2.1887252,5.1063013,-0.3246653,-9.8532715
89,1747638680240,2.5252998,-1.138786,1.7069899,5.2303033,-0.76569706,-9.917411
90,1747638680250,2.2935637499999997,-1.058384975,1.3703238999999998,4.7258961500000005,-0.93765053,-9.8551045
91,1747638680260,2.0618277,-0.97798395,1.0336579,4.221489,-1.109604,-9.792798
92,1747638680270,1.7479985,-0.82763976,0.88992995,2.6713114,-0.434007,-9.11659
93,1747638680280,1.6385408,-0.741369455,0.975590425,2.3743823749999997,-0.15727409249999996,-8.969223
94,1747638680290,1.5290831,-0.65509915,1.0612509,2.07745335,0.119458815,-8.821856
95,1747638680300,1.3514203,-0.53405553,1.1842458,1.7403802,0.35406235,-8.49719
96,1747638680310,1.12835852,-0.38384860499999995,1.30150875,1.8780880999999998,0.13717339250000002,-7.9944248
97,1747638680320,0.90529674,-0.23364168,1.4187717,2.015796,-0.079715565,-7.4916596
98,1747638680330,0.89895487,-0.2177566,1.3658113,2.4095633,-0.23059484,-7.0726185
99,1747638680340,0.8949912099999999,-0.2144027475,1.24543845,2.7109974,-0.37444937749999996,-6.900206925
100,1747638680350,0.89102755,-0.21104889500000001,1.1250656,3.0124315,-0.518303915,-6.72779535
101,1747638680360,0.9199317,-0.25705767,0.76205665,3.2687964,-0.8359445,-6.5894384
102,1747638680370,0.59718422,-0.22557717500000002,0.5053191100000001,3.06164285,-0.8857285500000001,-6.3918292
103,1747638680380,0.27443674,-0.19409668,0.24858157,2.8544893,-0.9355126,-6.19422
104,1747638680390,0.155466386,-0.20043852,0.20269475,2.6912403,-0.8878665,-5.9401078
105,1747638680400,0.036496032,-0.20678036,0.15680793,2.5279913,-0.8402204,-5.6859956
106,1747638680410,-0.4352388,-0.34001982,0.11726294,2.1890476,-0.7907418,-4.3444986
107,1747638680420,-0.465743625,-0.36747569999999996,0.077611235,2.159765,-0.88297972,-3.9275953
108,1747638680430,-0.49624845,-0.39493158,0.03795953,2.1304824,-0.97521764,-3.510692
109,1747638680440,-0.30931684,-0.48158297,-0.10457927,1.7472522,-0.8677085,-1.9743347
110,1747638680450,-0.083328035,-0.62398456,-0.18902017,1.63290925,-0.6936170500000001,-1.8207065999999998
111,1747638680460,0.14266077,-0.76638615,-0.27346107,1.5185663,-0.5195256,-1.6670785
112,1747638680470,-0.023294043,-0.8881616,-0.5301834,1.8856091,2.5653293,-1.5137559
113,1747638680480,-0.1198088265,-0.9647971500000001,-0.606697,1.95600925,2.8350566500000003,-1.4584742
114,1747638680490,-0.21632361,-1.0414327,-0.6832106,2.0264094,3.104784,-1.4031925
115,1747638680500,-0.3202931,-1.3184,-0.9760631,2.217681,2.7748501,-1.3427186
116,1747638680510,-0.28564166999999996,-1.37075065,-1.0354873,2.05847895,1.96578285,-1.51009075
117,1747638680520,-0.25099024,-1.4231013,-1.0949115,1.8992769,1.1567156,-1.6774629
118,1747638680530,-0.39107464000000003,-1.5243877,-1.2914931,1.8519362,1.011334,-1.76175985
119,1747638680540,-0.53115904,-1.6256741,-1.4880747,1.8045955,0.8659524,-1.8460568
120,1747638680550,-0.9211513,-1.8301678,-1.8709629,1.5709465,2.0845926,-1.7073945
121,1747638680560,-1.0939358000000001,-1.950251,-1.8981748,1.62733535,2.5968261999999998,-1.36073865
122,1747638680570,-1.2667203,-2.0703342,-1.9253867,1.6837242,3.1090598,-1.0140828
123,1747638680580,-1.3941058,-2.043473,-1.9229476,1.5977473,3.0192652,-0.17103723
124,1747638680590,-1.024861675,-1.9729429250000001,-1.973407825,1.17465925,2.11944905,0.631921535
125,1747638680600,-0.65561755,-1.9024128500000002,-2.02386805,0.7515712,1.2196329,1.4348803
126,1747638680610,0.181474,-1.9851464,-1.8741642,-1.5594167,-0.70277977,2.2882338
127,1747638680620,0.31483543,-1.9657398000000001,-1.7156489000000001,-2.18626055,-0.997818985,2.1898874
128,1747638680630,0.44819686,-1.9463332,-1.5571336,-2.8131044,-1.2928582,2.091541
129,1747638680640,0.5170119,-1.6439679,-0.75983095,-3.9046884,-2.0802402,1.963263
130,1747638680650,0.426473075,-1.4689882,-0.25856693499999994,-3.7916052000000002,-1.9116464,2.3130112499999997
131,1747638680660,0.33593425,-1.2940085,0.24269708,-3.678522,-1.7430526,2.6627595
132,1747638680670,0.48408312,-1.4228574,0.47676563,-3.2822351,-1.2708677,3.04515
133,1747638680680,0.5956063875,-1.348737225,0.423492705,-3.1495284999999997,-0.93795595,3.28857265
134,1747638680690,0.7071296549999999,-1.27461705,0.37021978,-3.0168219,-0.6050442,3.5319953
135,1747638680700,0.8461240775,-1.220985875,0.35173546499999997,-3.25390695,-0.509141185,3.61659765
136,1747638680710,0.9851185,-1.1673547,0.33325115,-3.490992,-0.41323817,3.7012
137,1747638680720,1.0366154,-1.1622324,0.5140849,-3.8941512,-0.37658733,3.6437802
138,1747638680730,0.7760818925,-1.0924341499999999,0.755143125,-3.9972698500000003,-0.31000498,3.61476505
139,1747638680740,0.515548385,-1.0226359,0.99620135,-4.1003885,-0.24342263,3.5857499
140,1747638680750,0.17927876,-0.9450246,1.1835141,-3.4878614,-0.56411743,4.116576
141,1747638680760,0.1358311,-1.01103455,1.17069325,-3.4074967999999997,-0.729657065,4.2250015
142,1747638680770,0.09238344,-1.0770445,1.1578724,-3.3271322,-0.8951967,4.333427
143,1747638680780,0.12656227,-1.0782641,1.0231694,-3.1389914,-1.4907727,5.0249057
144,1747638680790,0.42502478500000007,-1.1813799,0.78156995,-3.4346415,-1.509709,5.58539635
145,1747638680800,0.7234873,-1.2844957,0.5399705,-3.7302916,-1.5286453,6.145887
146,1747638680810,0.7234873,-1.2844957,0.5399705,-3.7302916,-1.5286453,6.145887
147,1747638680820,0.8296444125,-1.34940805,0.56424785,-4.112223800000001,-1.01034139,6.5725637
148,1747638680830,0.935801525,-1.4143204,0.5885252,-4.494156,-0.49203748,6.9992404
149,1747638680840,1.2706535,-1.423833,0.7657154,-4.7907224,-1.3466128,8.186193
150,1747638680850,1.5258056,-1.46435365,0.697860825,-4.8552432,-1.8841584,8.3327965
151,1747638680860,1.7809577,-1.5048743,0.63000625,-4.919764,-2.421704,8.4794
152,1747638680870,2.698816,-1.5795434,0.5006695,-5.458073,-3.4070768,8.018821
153,1747638680880,2.75531315,-1.44019075,0.6899335799999999,-6.00233785,-2.9971983499999997,7.70236385
154,1747638680890,2.8118103,-1.3008381,0.87919766,-6.5466027,-2.5873199,7.3859067
155,1747638680900,2.7771437,-1.2081193,1.2613541,-6.805831,-1.8041373,7.368192
156,1747638680910,2.8394949499999997,-1.03507565,1.712478,-6.58619335,-1.52345305,7.2722891999999995
157,1747638680920,2.9018462,-0.862032,2.1636019,-6.3665557,-1.2427688,7.1763864
158,1747638680930,3.3368562500000003,-0.4389890265,2.4836663000000003,-5.9696195,-1.5988927,7.0001569
159,1747638680940,3.7718663,-0.015946053,2.8037307,-5.5726833,-1.9550166,6.8239274
160,1747638680950,3.8140943,0.31401223,2.6780527,-2.872891,-4.117492,5.0915647
161,1747638680960,3.83886705,0.483503815,2.50063385,-2.3706982,-4.134595750000001,4.83191635
162,1747638680970,3.8636398,0.6529954,2.323215,-1.8685054,-4.1516995,4.572268
163,1747638680980,3.8372664,1.6350344,2.1367712,-1.818645,-2.6771145,4.4665914
164,1747638680990,3.9281864,1.9402199000000002,2.1795938,-1.80367925,-2.36554425,4.5527207
165,1747638681000,4.0191064,2.2454054,2.2224164,-1.7887135,-2.053974,4.63885
166,1747638681010,4.9608684,2.9382505,1.8905067,-2.2691448,-1.00576,3.6431694
167,1747638681020,5.0240734,2.88577805,2.3142966,-2.8775869,-0.554343885,1.9950653150000002
168,1747638681030,5.0872784,2.8333056,2.7380865,-3.486029,-0.10292777,0.34696123
169,1747638681040,4.6872854,2.675156,3.4614518,-3.1040967,-0.08215895,-1.0220238
170,1747638681050,4.350688275,2.5735114249999995,3.734470825,-2.2780403,0.08830560750000001,-1.66845295
171,1747638681060,4.0140911500000005,2.4718668499999996,4.00748985,-1.4519839,0.258770165,-2.3148821
172,1747638681070,3.6974413,2.1028666,4.2184777,0.7347729,0.051616594,-3.3769164
173,1747638681080,3.4906152500000003,1.7368087,3.5356330500000004,2.05538655,-0.04245388300000001,-4.04823755
174,1747638681090,3.2837892,1.3707508,2.8527884,3.3760002,-0.13652436,-4.7195587
175,1747638681100,3.3075863500000002,1.2784893,2.73003745,3.4476601000000002,-0.213796545,-4.8979261
176,1747638681110,3.3313835,1.1862278,2.6072865,3.51932,-0.29106873,-5.0762935
177,1747638681120,3.5839593,1.1779346,2.3163853,3.447011,0.08521319,-5.6511006
178,1747638681130,3.73660525,1.1520641999999999,2.2435304,3.44233425,0.779479295,-5.88173355
179,1747638681140,3.8892512,1.1261938,2.1706755,3.4376575000000003,1.4737453999999999,-6.1123665
180,1747638681150,4.224088,1.0910698,1.5976541,3.3336225,1.9001168,-6.262635
181,1747638681160,4.4062785,0.82529207,1.75873065,2.7292273500000004,2.31182785,-6.60165535
182,1747638681170,4.588469,0.55951434,1.9198072,2.1248322,2.7235389,-6.9406757
183,1747638681180,4.317325,0.35819164,2.1536012,2.2912116,3.408375,-7.966899
184,1747638681190,4.149419,0.191627039,2.1866672,2.8457464,3.6536301499999997,-8.135493
185,1747638681200,3.981513,0.025062438,2.2197332,3.4002812,3.8988853,-8.304087
186,1747638681210,3.47877,-0.37956485,1.5027401,5.1573834,3.3894386,-8.685331
187,1747638681220,2.94444,-0.5447879,0.85198568,5.2888682,3.0128132,-8.8420135
188,1747638681230,2.41011,-0.71001095,0.20123126,5.420353,2.6361878,-8.998696
189,1747638681240,1.9578886,-0.71684057,-0.11336028,4.910601,2.3936813,-8.804447
190,1747638681250,1.5603349,-0.649976935,-0.27100667,4.35919685,2.3005271499999997,-8.399417
191,1747638681260,1.1627812,-0.5831133,-0.42865306,3.8077927,2.207373,-7.994387
192,1747638681270,1.0749103,-0.5579594,-0.47429594,2.7279675,1.9379892,-7.1172104
193,1747638681280,1.0789349000000001,-0.57334138,-0.45696263000000004,2.2891692,2.03954255,-6.8953202000000005
194,1747638681290,1.0829595,-0.58872336,-0.43962932,1.8503709000000002,2.1410959,-6.67343
195,1747638681300,0.9899815425,-0.622391505,-0.23420574249999998,1.598644575,2.250743025,-6.483151149999999
196,1747638681310,0.897003585,-0.65605965,-0.028782165,1.3469182499999999,2.3603901499999997,-6.2928723
197,1747638681320,0.687845,-0.7085474,0.26419225,1.7316756,1.5757569,-6.0005817
198,1747638681330,0.622079,-0.7106207,0.252103125,1.90832495,1.286520715,-5.90223535
199,1747638681340,0.556313,-0.712694,0.240014,2.0849743,0.99728453,-5.803889
200,1747638681350,0.3047129,-0.661441,0.15095393,2.2880812,0.6045097,-5.5466456
201,1747638681360,0.271403035,-0.60884647,-0.026586915000000017,2.0752962999999998,0.52080454,-4.992760025
202,1747638681370,0.23809317,-0.55625194,-0.20412776,1.8625113999999998,0.43709938,-4.43887445
203,1747638681380,0.7044618,-0.5572277,-0.37227783,0.9422319,1.2984322,-3.9816551
204,1747638681390,0.7646178,-0.53818692,-0.12567806799999998,0.55373304,1.54460365,-4.0787799499999995
205,1747638681400,0.8247738,-0.51914614,0.120921694,0.16523418,1.7907751,-4.1759048
206,1747638681410,0.6947051,-0.54551965,0.5026208,0.1440836,1.6062993,-4.28097
207,1747638681420,0.40904060425,-0.503665075,0.9818103249999999,0.505132515,1.26208682,-4.162160350000001
208,1747638681430,0.1233761085,-0.4618105,1.4609998499999999,0.86618143,0.91787434,-4.0433507
209,1747638681440,-0.03744121,-0.43984273,1.3963314,3.390355,-1.4492351,-3.0232358
210,1747638681450,0.48969319499999997,-0.49292508999999995,0.60415107,4.09191315,-1.5439164,-2.6606598000000004
211,1747638681460,1.0168276,-0.54600745,-0.18802926,4.7934713,-1.6385977,-2.2980838
212,1747638681470,1.0599094,-0.546373325,-0.44293745000000007,4.493469,-1.44129405,-2.5204321
213,1747638681480,1.1029912,-0.5467392,-0.69784564,4.1934667,-1.2439904,-2.7427804
214,1747638681490,0.33910516,-0.55259323,-0.64342165,2.8880858,-0.4755446,-2.9003792
215,1747638681500,-0.15349982,-0.496949745,-0.522499975,2.7435441,-0.17622944000000001,-1.834756115
216,1747638681510,-0.6461048,-0.44130626,-0.4015783,2.5990024,0.12308572,-0.76913303
217,1747638681520,-0.6402508,-0.56527686,-0.5135971,2.4681284,-0.13469182,0.19058435
218,1747638681530,-0.43403449,-0.5949279949999999,-0.72213058,2.14289035,-0.286792795,0.716829275
219,1747638681540,-0.22781818,-0.62457913,-0.93066406,1.8176523,-0.43889377,1.2430742
220,1747638681550,0.15753968,-0.68071043,-1.1493354,0.9814788,0.2679329,1.3652437
221,1747638681560,0.089700356,-0.6772955949999999,-1.026584275,0.4827029425,0.8938986,1.0346225875
222,1747638681570,0.021861032,-0.67388076,-0.90383315,-0.016072914999999993,1.5198643,0.7040014750000001
223,1747638681580,-0.33736727,-0.6926929,-0.63293326,-0.5126536,2.0882578,-0.03603999
224,1747638681590,-0.718334585,-0.76833755,-0.49370258,-0.07994466,1.53727353,-0.392812945
225,1747638681600,-1.0993019,-0.8439822,-0.3544719,0.35276428,0.98628926,-0.7495859
226,1747638681610,-1.3469993,-0.8988939,-0.47453988,1.012632,0.02351762,-0.6988856
227,1747638681620,-2.00994965,-0.8266641,-0.257576002,1.27369285,-0.445307665,-0.60603683
228,1747638681630,-2.6729,-0.7544343,-0.040612124,1.5347537,-0.91413295,-0.51318806
229,1747638681640,-2.0551047,-1.03324625,-0.544574462,1.9874297,-1.4205253249999998,-0.160080165
230,1747638681650,-1.4373094,-1.3120582,-1.0485368,2.4401057,-1.9269177,0.19302773
231,1747638681660,-1.4709699,-1.1532075,-1.5078318,2.2818198,-1.493827,0.23028941
232,1747638681670,-1.41605825,-1.0585069,-1.9386954,1.7537806,-0.8270872,0.03481829
233,1747638681680,-1.3611466,-0.9638063,-2.369559,1.2257414,-0.1603474,-0.16065283
234,1747638681690,-1.7706827,-0.9208769,-1.9261185,-1.0485194,1.3424132,-0.09407048
235,1747638681700,-1.7729999,-0.95662593,-1.6492578500000001,-1.57533695,1.4007491,0.23425990999999996
236,1747638681710,-1.7753171,-0.99237496,-1.3723972,-2.1021545,1.459085,0.5625903
237,1747638681720,-1.607167,-0.91596806,-0.8237676,-2.5146291,0.52754295,1.5631582
238,1747638681730,-1.46391165,-0.96783083,-0.48380872500000005,-2.19278895,0.15824761499999995,1.5567443
239,1747638681740,-1.3206563,-1.0196936,-0.14384985,-1.8709488,-0.21104772,1.5503304
240,1747638681750,-1.3557802,-1.0953687,-0.08088887,-1.3793695,-0.449889,1.4312152
241,1747638681760,-1.2959901500000002,-1.11780905,-0.218899965,-1.22860475,-0.5888567499999999,1.6822734000000001
242,1747638681770,-1.2362001,-1.1402494,-0.35691106,-1.07784,-0.7278245,1.9333316
243,1747638681780,-1.1637264,-1.15904625,-0.414018065,-1.1566393,-0.63131065,2.1144478
244,1747638681790,-1.0912527,-1.1778431,-0.47112507,-1.2354386,-0.5347968,2.295564
245,1747638681800,-0.251722,-1.0802155,-0.7090658,-2.5887706,1.1011286,3.485571
246,1747638681810,-0.084059782,-1.0918168000000001,-0.6795366,-2.9566916,1.47832675,3.6245387
247,1747638681820,0.083602436,-1.1034181,-0.6500074,-3.3246126,1.8555249,3.7635064
248,1747638681830,0.39743173,-1.0939053,-0.40011483,-4.1670475,2.8775487,3.913164
249,1747638681840,0.5111578649999999,-1.0569214,-0.131044245,-4.2218709,2.76816895,4.00051515
250,1747638681850,0.624884,-1.0199375,0.13802634,-4.2766943,2.6587892,4.0878663
251,1747638681860,0.77474034,-0.95844,0.21171968,-4.142766,1.7266362,4.164833
252,1747638681870,0.768398495,-0.9012111,0.27797354,-4.0013168,0.98873268,4.1477293500000005
253,1747638681880,0.76205665,-0.8439822,0.3442274,-3.8598676,0.25082916,4.1306257
254,1747638681890,0.7642519,-0.8505679,0.40011483,-3.5962868,-0.13530266,4.276618
255,1747638681900,0.75681245,-0.8741211,0.41403331499999996,-3.5187092,-0.24983652,4.40000915
256,1747638681910,0.749373,-0.8976743,0.4279518,-3.4411316,-0.36437038,4.5234003
257,1747638681920,0.87968546,-1.0262794,0.29248658,-3.3003314,-0.71438587,5.0799584
258,1747638681930,1.01194933,-1.10608595,0.242712335,-3.5420742,-1.013090185,5.2827597
259,1747638681940,1.1442132,-1.1858925,0.19293809,-3.783817,-1.3117945,5.485561
260,1747638681950,1.2684581,-1.2464142,0.23830658,-4.0960364,-1.633711,5.550922
261,1747638681960,1.3182323999999999,-1.25569825,0.46246604,-4.2533677,-2.0078549,5.631248299999999
262,1747638681970,1.3680067,-1.2649823,0.6866255,-4.410699,-2.3819988,5.7115746
263,1747638681980,1.5527735,-1.3891969,1.0917406,-3.9377506,-2.974597,5.7592206
264,1747638681990,1.5598470500000001,-1.382352,1.1624002,-3.5984630500000003,-3.0521747,5.730510799999999
265,1747638682000,1.5669206,-1.3755071,1.2330598,-3.2591755,-3.1297524,5.701801
266,1747638682010,1.5250585,-1.2875294,1.2109701,-2.63332435,-3.2537544,5.7751027
267,1747638682020,1.4831964,-1.1995517,1.1888804,-2.0074732,-3.3777564,5.8484044
268,1747638682030,1.6159784,-1.1031741,0.74763507,-1.0211076,-4.1639166,6.614407
269,1747638682040,1.75874585,-1.05387245,0.699812135,-0.9522727499999999,-4.2237798,6.7286353000000005
270,1747638682050,1.9015133,-1.0045708,0.6519892,-0.8834379,-4.283643,6.8428636
271,1747638682060,2.3456552,-0.60726106,0.7203164,-0.5593834,-4.641599,6.6956496
272,1747638682070,2.469519,-0.26998527250000004,0.49774244999999995,-0.8463288999999999,-4.2396616,6.6892357
273,1747638682080,2.5933828,0.067290515,0.2751685,-1.1332744,-3.8377242,6.6828218
274,1747638682090,2.6843944,0.18906592,0.3781623,-1.746336,-2.950774,6.665718
275,1747638682100,2.704898675,0.423103935,0.6424688924999999,-1.91241,-2.5399411,6.57073135
276,1747638682110,2.7254029500000003,0.65714195,0.906775485,-2.078484,-2.1291082,6.4757447
277,1747638682120,3.2772036,1.0932649,1.4160888,-1.3644037,-2.2842634,6.2271295
278,1747638682130,3.5937310499999997,1.1670802500000002,1.39546255,-0.9643751,-2.55063095,5.91162705
279,1747638682140,3.9102585,1.2408956,1.3748363,-0.5643465,-2.8169985,5.5961246
280,1747638682150,4.22788375,1.5027553,0.84782386,-0.06402441999999997,-3.2742176,4.6443863
281,1747638682160,4.545509,1.764615,0.32081142,0.43629766,-3.7314367,3.692648
282,1747638682170,4.4903536,2.4438012,-0.2648935,-2.13766,-2.0735211,2.5949554
283,1747638682180,4.399205,2.53482785,0.13227905,-2.7700778,-1.5005463199999998,2.4073871000000002
284,1747638682190,4.3080564,2.6258545,0.5294516,-3.4024956,-0.92757154,2.2198188
285,1747638682200,4.2794876,2.8850465,2.1963172,-3.3963108,0.16042376,1.5069602
286,1747638682210,4.3523423,3.039034,2.3157754,-2.21928445,0.52082363,0.47703355000000003
287,1747638682220,4.425197,3.1930215,2.4352336,-1.0422581,0.8812235,-0.5528931
288,1747638682230,4.3175693,3.1586294,2.120398,-0.2415901,1.0577583,-1.7642032
289,1747638682240,4.1718746499999995,3.1122547000000003,2.0188829999999998,0.156224185,1.18985405,-2.567181
290,1747638682250,4.02618,3.06588,1.917368,0.55403847,1.3219498,-3.3701588
291,1747638682260,3.4248338,2.8164752,1.5366446,1.5484978,1.4254885,-4.85028
292,1747638682270,3.4470456,2.6594235,1.10919585,1.6058029,1.5323867500000001,-5.336857999999999
293,1747638682280,3.4692574,2.5023718,0.6817471,1.663108,1.639285,-5.823436
294,1747638682290,3.4972011,2.4701594,0.53836983,1.4394234,1.7336609,-5.959655
295,1747638682300,3.5251448,2.437947,0.39499256,1.2157388,1.8280368,-6.095874
296,1747638682310,3.404345,2.2307703,0.56924057,-0.8684721,2.8598342,-6.4361157
297,1747638682320,3.46181785,2.1422896500000004,0.737024755,-1.0098832500000001,2.9884174999999997,-6.43397785
298,1747638682330,3.5192907,2.053809,0.90480894,-1.1512944,3.1170008,-6.43184
299,1747638682340,3.7260103,1.3160828,1.563018,-0.42415705,3.6856997,-7.133703
300,1747638682350,3.5593236499999996,1.0108973374999999,1.6372068,0.5286692125000001,3.960428275,-7.5602465
301,1747638682360,3.3926369999999997,0.705711875,1.7113956,1.481495475,4.23515685,-7.98679
302,1747638682370,2.8532763,0.15269183,1.6457363,4.149867,4.007005,-8.671282
303,1747638682380,2.5847087,-0.06181763500000001,1.4286505,4.819661,3.649965,-8.7061005
304,1747638682390,2.3161411,-0.2763271,1.2115647,5.489455,3.292925,-8.740919
305,1747638682400,1.3648357,-0.5608864,0.5235976,6.499491,2.1676679,-8.353031
306,1747638682410,0.7159868775,-0.465652175,0.17785335000000002,6.146535999999999,2.31060615,-6.8750097
307,1747638682420,0.067138055,-0.37041795,-0.1678909,5.793581,2.4535444,-5.3969884
308,1747638682430,-0.34398347,-0.31099376,-0.21684194,5.793581,2.4535444,-5.3969884
309,1747638682440,-0.319088735,-0.369686215,-0.15875927,4.909417599999999,2.3350400000000002,-3.038774315
310,1747638682450,-0.294194,-0.42837867,-0.1006766,4.0252542,2.2165356,-0.68056023
311,1747638682460,-0.185346185,-0.472786735,-0.070644362,3.79626295,1.76206525,-0.22635709999999998
312,1747638682470,-0.07649837,-0.5171948,-0.040612124,3.5672717,1.3075949,0.22784603
313,1747638682480,0.070187025,-0.587016,-0.030611541,3.1759477,0.3302393,0.839915
314,1747638682490,0.25065487,-0.5475395750000001,-0.012188210750000001,2.95974585,-0.3414254,1.01522815
315,1747638682500,0.431122715,-0.50806315,0.0062351195,2.743544,-1.0130901,1.1905413
316,1747638682510,0.7537635,-0.33123884,-0.14775252,2.1547637,-0.749815,0.2247918
317,1747638682520,0.790366235,-0.31770146,-0.16374431,2.01892655,-0.23300005000000001,-0.07333985000000001
318,1747638682530,0.82696897,-0.30416408,-0.1797361,1.8830894,0.2838149,-0.3714715
319,1747638682540,0.8850516,-0.14674637,-0.19461502,1.5752987,2.0522177,-1.4722183
320,1747638682550,0.87547026,-0.07603340107499999,-0.2754581475,1.3212244375000002,2.61438805,-1.9106538999999998
321,1747638682560,0.86588892,-0.005320432149999999,-0.356301275,1.067150175,3.1765584000000002,-2.3490895
322,1747638682570,0.86331254,0.0060369377,-0.3632529,0.93161845,3.3204129,-2.4825597
323,1747638682580,0.9361673699999999,-0.02519964215,-0.1726472675,0.7490514500000001,2.91355045,-2.81550955
324,1747638682590,1.0090222,-0.056436222,0.017958365,0.56648445,2.506688,-3.1484594
325,1747638682600,0.9099311,-0.07988271,0.624884,1.3372973,-0.733933,-3.8265
326,1747638682610,0.85721465,-0.0895174175,0.6429491,1.67437045,-1.50482225,-3.95080735
327,1747638682620,0.8044982,-0.099152125,0.6610142,2.0114436,-2.2757115,-4.0751147
328,1747638682630,0.62659144,-0.27437577,0.56753314,3.0812664,-3.9562287,-4.4202433
329,1747638682640,0.46248126,-0.39151676,0.34727637499999997,3.4336107,-3.88750835,-4.44253915
330,1747638682650,0.29837108,-0.50865775,0.12701961,3.785955,-3.818788,-4.464835
331,1747638682660,0.0623512,-0.49694976,-0.0521067,3.8009207,-3.4687724,-4.1203175
332,1747638682670,0.020321307875,-0.47229892,-0.161861575,3.73798435,-3.220310325,-3.7732034999999997
333,1747638682680,-0.021708584250000003,-0.44764808,-0.27161645,3.6750480000000003,-2.97184825,-3.4260895
334,1747638682690,-0.060399864,-0.37444258,-0.6085111,3.1429617,-2.1266646,-2.448963
335,1747638682700,0.006722955000000003,-0.47278674,-0.7631238149999999,2.5429189,-1.64378995,-1.95356585
336,1747638682710,0.073845774,-0.5711309,-0.91773653,1.9428761,-1.1609153,-1.4581687
337,1747638682720,0.080309567,-0.6078708500000001,-0.935542435,1.6497457500000001,-0.8561025,-1.2617813
338,1747638682730,0.08677336,-0.6446108,-0.95334834,1.3566154,-0.5512897,-1.0653939
339,1747638682740,0.13168451,-0.804925,-0.9899663,0.39269844,0.6515449,-0.86076015
340,1747638682750,0.05163411,-0.7888265,-0.978258325,0.236932385,0.8708391,-1.080665125
341,1747638682760,-0.02841629,-0.772728,-0.96655035,0.08116633,1.0901333,-1.3005701
342,1747638682770,-0.8862408,-0.73537827,-0.9477383,-0.45660833,2.0265622,-2.5198214
343,1747638682780,-1.05951305,-0.7890704,-0.94688455,-0.505819695,2.1163567,-2.64748845
344,1747638682790,-1.2327853,-0.84276253,-0.9460308,-0.55503106,2.2061512,-2.7751555
345,1747638682800,-1.8917261,-1.3572134,-0.554575,0.043751936,0.7254575,-2.5479202
346,1747638682810,-1.93491465,-1.367092,-0.539818065,0.381474118,0.10174426999999997,-2.4724806
347,1747638682820,-1.9781032,-1.3769706,-0.52506113,0.7191963,-0.52196896,-2.397041
348,1747638682830,-2.175066,-1.4113933,-1.0387801,2.0245006,-1.8163543,-1.9419597
349,1747638682840,-2.2729223000000003,-1.4074906,-1.23145905,2.1055141500000003,-1.93210985,-1.8396428
350,1747638682850,-2.3707786,-1.4035879,-1.424138,2.1865277,-2.0478654,-1.7373259
351,1747638682860,-2.4056892,-1.2852274,-1.5515234,1.709227,-2.2201242,-0.8949676
352,1747638682870,-2.05865675,-1.2131043,-1.5883701000000001,0.794559578,-2.0496979,0.15664414999999998
353,1747638682880,-1.7116243,-1.1409812,-1.6252168,-0.120107844,-1.8792716,1.2082559
354,1747638682890,-1.1761662,-1.1151261,-1.5273452,-0.9781192,-1.0955546,1.8972915
355,1747638682900,-0.8873993275,-1.062775475,-1.421736925,-1.327982,-0.5347967960000001,2.08268375
356,1747638682910,-0.598632455,-1.01042485,-1.31612865,-1.6778448,0.025961008,2.268076
357,1747638682920,-0.29882842,-0.9347802,-1.1493354,-2.5831966,1.8652985,2.3903217
358,1747638682930,-0.24086772,-0.8997628799999999,-1.0187637299999999,-3.01934155,2.27792585,2.34355365
359,1747638682940,-0.18290702,-0.86474556,-0.88819206,-3.4554865,2.6905532,2.2967856
360,1747638682950,-0.20877742999999999,-0.84424133,-0.8236456299999999,-3.54990065,2.55005825,2.32519005
361,1747638682960,-0.23464784,-0.8237371,-0.7590992,-3.6443148,2.4095633,2.3535945
362,1747638682970,-0.22684251,-0.7734598,-0.48868704,-3.9302676,1.1664892,2.6187785
363,1747638682980,-0.14057223,-0.77882595,-0.39509927,-3.9576794,0.5607959635,2.74827815
364,1747638682990,-0.05430195,-0.7841921,-0.3015115,-3.9850912,-0.044897273,2.8777778
365,1747638683000,0.2500451,-0.93038964,-0.24659975,-4.031821,-0.4694361,3.076914
366,1747638683010,0.27798880000000004,-0.91439787,-0.220973255,-4.216106,-0.06671596950000003,3.271927025
367,1747638683020,0.3059325,-0.8984061,-0.19534676,-4.400391,0.33600416099999997,3.46694005
368,1747638683030,0.20757309,-0.8984061,0.13802634,-4.737197,1.3442458,3.8300886
369,1747638683040,0.22697970499999998,-0.90133307,0.21428079,-4.772702499999999,1.3818129,3.93820855
370,1747638683050,0.24638632,-0.90426004,0.29053524,-4.808208,1.41938,4.0463285
371,1747638683060,0.54899544,-1.0885086,0.4030418,-4.9147243,1.0852466,4.0591564
372,1747638683070,0.43941587000000004,-1.1012075000000001,0.5500778,-4.855854,0.576067185,3.9971554
373,1747638683080,0.3298363,-1.1139064,0.6971138,-4.7969837,0.06688777,3.9351544
374,1747638683090,0.20391434,-1.1029302,0.84648234,-4.5353117,-0.49936762,4.212479
375,1747638683100,0.28798937,-1.1320935,0.82085582,-4.11378895,-0.75775601,4.730821000000001
376,1747638683110,0.3720644,-1.1612568,0.7952293,-3.6922662,-1.0161444,5.249163
377,1747638683120,0.82696897,-1.2857152,0.45697787,-3.5944543,-0.8945858,5.817862
378,1747638683130,0.984737285,-1.3141468,0.403529635,-3.82901965,-0.87198445,5.80503415
379,1747638683140,1.1425056,-1.3425784,0.3500814,-4.063585,-0.8493831,5.7922063
380,1747638683150,1.4348704,-1.4350837,0.6141517,-5.383931,-1.1358705,5.285814
381,1747638683160,1.3584939500000002,-1.4605730000000001,1.15105805,-5.663699299999999,-1.59217335,5.40676175
382,1747638683170,1.2821175,-1.4860623,1.6879644,-5.9434676,-2.0484762,5.5277095
383,1747638683180,1.2779709000000001,-1.4853306,1.7433638999999999,-5.9026553,-2.11964,5.5976515
384,1747638683190,1.2738243,-1.4845989,1.7987634,-5.861843,-2.1908038,5.6675935
385,1747638683200,1.6752806,-1.4550849,2.0264597,-3.9937956,-2.4907298,7.07804
386,1747638683210,1.9573931249999998,-1.435983175,1.8172402,-3.7888181999999997,-2.29342605,7.23716565
387,1747638683220,2.23950565,-1.41688145,1.6080207,-3.5838408,-2.0961223,7.3962913
388,1747638683230,2.4025183,-1.400661,1.492953,-4.03373,-1.9898349,7.1287403
389,1747638683240,2.27879155,-1.3087806,1.6266954999999998,-4.4265811500000005,-1.6227157,6.84713965
390,1747638683250,2.1550648,-1.2169002,1.760438,-4.8194323,-1.2555965,6.565539
391,1747638683260,1.6999164,-0.9755142,2.346387,-3.9614208,-1.6477605,6.7958283
392,1747638683270,2.0736729,-0.7894363,2.196302,-3.45174515,-2.70395355,7.16478015
393,1747638683280,2.4474294,-0.6033584,2.046217,-2.9420695,-3.7601466,7.533732
394,1747638683290,2.930415,-0.36932033,1.7919338,-2.7782097,-3.3539333,7.689498
395,1747638683300,3.142241275,-0.27420045,1.7101074,-3.1772838500000002,-2.0692833,7.20692875
396,1747638683310,3.35406755,-0.17908057,1.628281,-3.576358,-0.7846333,6.7243595
397,1747638683320,3.4097111,0.013598354,1.9952079,-3.8330665,-0.114533864,6.069531
398,1747638683330,3.3804259,0.31462202699999997,2.2597508,-3.6699894250000002,-0.192569602,5.555483949999999
399,1747638683340,3.3511407,0.6156457,2.5242937,-3.5069123500000003,-0.27060533999999997,5.0414369
400,1747638683350,3.3999543,0.8616661,2.6092377,-2.586251,-1.0399674,4.1697197
401,1747638683360,3.61543965,1.40223115,2.13882915,-2.14140145,-1.32859275,3.70822465
402,1747638683370,3.830925,1.9427962,1.6684206,-1.6965519,-1.6172181,3.2467296
403,1747638683380,4.2497296,2.035759,1.3489811,-2.403073,-1.1120474,2.6627595
404,1747638683390,4.3538058,2.0535802,1.7924064,-3.1778947,-0.11693905000000004,1.9119901000000001
405,1747638683400,4.457882,2.0714014,2.2358317,-3.9527164,0.8781693,1.1612207
406,1747638683410,4.6096895,1.9291217,3.02264585,-4.0904243000000005,1.2248251,0.894891275
407,1747638683420,4.761497,1.786842,3.80946,-4.2281322,1.5714809,0.62856185
408,1747638683430,4.8918095,1.590855,4.0356927,-2.625574,2.6325226,-0.965215
409,1747638683440,4.602494,1.2173423749999999,4.17394785,-1.41911259,2.740356225,-1.996344225
410,1747638683450,4.3131785,0.84382975,4.312203,-0.21265118000000005,2.84818985,-3.02747345
411,1747638683460,4.1201186,0.31571963,4.3907743,2.6550477,1.623403,-4.896704
412,1747638683470,4.1084106,-0.003491060000000046,4.26948665,3.6710011,1.1805387,-5.389390499999999
413,1747638683480,4.0967026,-0.32270175,4.148199,4.6869545,0.7376744,-5.882077
414,1747638683490,3.8646157,-0.93014574,3.208358,7.112629,-0.8322794,-7.327953
415,1747638683500,3.8149482,-0.83483529,2.26609265,6.601388,-0.19696007000000004,-7.3762098
416,1747638683510,3.7652807,-0.73952484,1.3238273,6.090147,0.43835926,-7.4244666
417,1747638683520,3.8760798,-0.5760092,1.05247,4.6813807,1.7889426,-7.222276
418,1747638683530,3.8727869999999998,-0.46205438,1.32615975,3.95141825,2.6261469,-7.1563045
419,1747638683540,3.8694942,-0.34809956,1.5998495,3.2214558,3.4633512,-7.090333
420,1747638683550,3.9251375,-0.4759729,2.186042,3.590331,3.8231404,-7.335283
421,1747638683560,3.838989175,-0.6338708424999999,2.1711022,4.7732367,3.3900496,-7.845073
422,1747638683570,3.75284085,-0.7917687849999999,2.1561624000000004,5.9561424,2.9569588,-8.354863
423,1747638683580,3.5772513750000003,-0.9582037925,1.937796,6.390455,2.60537805,-8.5872905
424,1747638683590,3.4016619,-1.1246388,1.7194296,6.8247676,2.2537973,-8.819718
425,1747638683600,2.1472595,-1.4558166,0.20001167,7.8154855,0.13476817,-9.948564
426,1747638683610,1.91785585,-1.42201895,0.020748159999999988,7.507962,-0.10075161499999999,-9.901834000000001
427,1747638683620,1.6884522,-1.3882213,-0.15851535,7.2004385,-0.3362714,-9.855104
428,1747638683630,0.74592763,-0.9696602,-0.7134563,5.2340446,-0.39246938,-8.876527
429,1747638683640,0.593769365,-0.85459252,-0.7344483500000001,4.152195925,0.021112407499999986,-8.0313817
430,1747638683650,0.4416111,-0.73952484,-0.7554404,3.07034725,0.434694195,-7.1862364
431,1747638683660,0.6129321,-0.447892,-0.411335,1.6780738,0.98873264,-5.814884
432,1747638683670,1.04538105,-0.508291865,-0.10968629000000002,1.285375385,0.9563577325,-5.593566425000001
433,1747638683680,1.47783,-0.56869173,0.19196242,0.8926769699999999,0.923982825,-5.37224885
434,1747638683690,1.6613469,-0.6648559,0.44380638,0.8668686,0.58679515,-5.777622
435,1747638683700,1.62230505,-0.716962575,0.50786499,1.0469158,0.463709425,-6.0164635
436,1747638683710,1.5832632,-0.76906925,0.5719236,1.226963,0.3406237,-6.255305
437,1747638683720,1.0634462,-0.90230876,0.859166,2.020759,-0.22509721,-6.7616973
438,1747638683730,0.8322132,-0.86448643,0.763017075,2.5332599499999997,-0.516776785,-6.4394753
439,1747638683740,0.6009802,-0.8266641,0.66686815,3.0457609,-0.80845636,-6.1172533
440,1747638683750,0.6427052,-0.79091505,0.49237628499999997,3.0659951,-0.65452283,-5.861270149999999
441,1747638683760,0.6844302,-0.755166,0.31788442,3.0862293,-0.5005893,-5.605287
442,1747638683770,0.8996867,-0.5699113,-0.08747462,2.2164593,0.83663166,-4.6829076
443,1747638683780,0.8966377,-0.54869055,0.054926980000000014,1.7407238,1.22910098,-4.3047933
444,1747638683790,0.8935887,-0.5274698,0.19732858,1.2649883,1.6215703,-3.926679
445,1747638683800,0.7671789,-0.5040233,0.5787533,1.2387983,1.5580423,-3.3799706
446,1747638683810,0.54094619,-0.44911155999999997,0.98301465,1.91267735,1.01163942,-2.7999330000000002
447,1747638683820,0.31471348,-0.39419982,1.387276,2.5865564,0.46523654,-2.2198954
448,1747638683830,0.6068342,-1.0177423,0.74080545,5.3604903,-0.87320614,-1.1435825
449,1747638683840,0.6018872749999999,-1.1228704,0.17224329375000003,5.47326795,-0.94803492,-1.16923805
450,1747638683850,0.5969403499999999,-1.2279985,-0.3963188625,5.5860456,-1.0228637,-1.1948936
451,1747638683860,0.40060264,-1.3079116,-1.1747028,4.2240086,-0.088878274,-1.485046
452,1747638683870,-0.16337843000000007,-1.3907671,-1.3235834,2.3204941000000003,1.512228763,-1.58064365
453,1747638683880,-0.7273595,-1.4736226,-1.472464,0.4169796,3.1133358,-1.6762413
454,1747638683890,-1.1939721,-1.5490233,-1.0817399,-0.5195256,3.7376218,-1.421518
455,1747638683900,-1.46109135,-1.61199955,-0.6899182800000001,-0.730764215,3.7535038,-0.930091335
456,1747638683910,-1.7282106,-1.6749758,-0.29809666,-0.94200283,3.7693858,-0.43866467
457,1747638683920,-1.8043432,-1.5580788,0.076528855,0.35841462,2.6563456,1.0781454
458,1747638683930,-1.3842119149999998,-1.65191045,-0.5866805724999999,1.43759081,1.5354409,1.16396945
459,1747638683940,-0.96408063,-1.7457421,-1.24989,2.516767,0.4145362,1.2497935
460,1747638683950,-0.96310496,-1.7035141,-1.4082528,2.5653293,0.25571594,1.0964708
461,1747638683960,-1.30208818,-1.6770339,-1.9408907,1.92420695,-0.26293158000000005,0.33470611000000006
462,1747638683970,-1.6410714,-1.6505537,-2.4735286,1.2830846,-0.7815791,-0.42705858
463,1747638683980,-1.9651756,-1.7491571,-2.3629732,0.7347729,-1.1230427,-0.69277716
464,1747638683990,-2.30550035,-1.74366895,-2.2785324,0.5095229649999999,-1.2354386000000002,-0.63596836
465,1747638684000,-2.6458251,-1.7381808,-2.1940916,0.28427303,-1.3478345,-0.57915956
466,1747638684010,-3.3272064,-1.3328216,-1.715283,-0.07963921,-2.3001454,1.3261493
467,1747638684020,-2.9512546,-1.3375780499999999,-1.678665,-0.270910755,-2.10253625,2.66180505
468,1747638684030,-2.5753028,-1.3423345,-1.642047,-0.4621823,-1.9049271,3.9974608
469,1747638684040,-2.3978686,-1.26362555,-1.64791625,-0.66280745,-1.53902965,4.3734374
470,1747638684050,-2.2204344,-1.1849166,-1.6537855,-0.8634326,-1.1731322,4.749414
471,1747638684060,-1.43889495,-1.06911725,-1.63460765,-1.9825047,-0.03939965,5.601622
472,1747638684070,-0.8924148749999999,-0.894808295,-1.545715225,-2.37722665,0.286220125,5.61719865
473,1747638684080,-0.3459348,-0.72049934,-1.4568228,-2.7719486,0.6118399,5.6327753
474,1747638684090,0.015275282,-0.5496662,-1.2452556,-3.1451762,0.95513606,5.5002213
475,1747638684100,0.221369631,-0.45278555,-0.965208775,-3.64958325,1.18237128,4.878951649999999
476,1747638684110,0.42746398,-0.3559049,-0.68516195,-4.1539903,1.4096065,4.257682
477,1747638684120,0.40352964,-0.6097002,0.15875927,-4.6742034,0.9001598,3.2992623
478,1747638684130,0.432936845,-0.68755537,0.328738705,-4.7602182,0.843351,3.3554603
479,1747638684140,0.46234405,-0.76541054,0.49871814,-4.846233,0.7865422,3.4116583
480,1747638684150,0.60366327,-0.78492385,0.9331337,-4.8511963,1.2947671,4.0054016
481,1747638684160,0.6602824350000001,-0.770654725,1.00621725,-4.6907344,1.74618325,4.2995248
482,1747638684170,0.7169016,-0.7563856,1.0793008,-4.5302725,2.1975994,4.593648
483,1747638684180,1.3875505,-0.77126455,1.0688124,-4.033043,2.1811066,5.068963
484,1747638684190,1.5438553,-0.7883386750000001,1.07051975,-3.96294815,1.83506155,4.985238750000001
485,1747638684200,1.7001601,-0.8054128,1.0722271,-3.8928533,1.4890165,4.9015145
486,1747638684210,1.9032208,-0.8725509,1.2908984,-3.1128013,-1.1951227,3.3255289
487,1747638684220,1.6843132,-0.7675448,1.32170815,-2.74812545,-1.6163018500000002,3.053091025
488,1747638684230,1.4654056,-0.6625387,1.3525179,-2.3834495999999996,-2.037481,2.78065315
489,1747638684240,1.24575105,-0.63929035,1.3350016,-2.0490107999999996,-1.92691765,2.879304975
490,1747638684250,1.0260965,-0.616042,1.3174853,-1.714572,-1.8163543,2.9779568
491,1747638684260,0.749373,-0.53673863,1.0693002,-1.205507,-1.0692881,4.1031375
492,1747638684270,0.8541809499999999,-0.579927115,0.9977869,-1.28965125,-0.950172885,4.45376375
493,1747638684280,0.9589889,-0.6231156,0.9262736,-1.3737955,-0.83105767,4.80439
494,1747638684290,1.2672386,-0.7622396,0.8459944,-1.9420362,-0.42545512,4.929003
495,1747638684300,1.15314655,-0.753809225,0.99339635,-2.09344995,-0.16920469,4.7176498
496,1747638684310,1.0390545,-0.74537885,1.1407983,-2.2448637,0.08704574,4.5062966
497,1747638684320,0.946793,-0.7160936,1.2773458999999998,-2.0837908499999998,0.06444438899999999,4.4983556
498,1747638684330,0.8545315,-0.68680835,1.4138935,-1.922718,0.041843038,4.4904146
499,1747638684340,0.71202326,-0.52039623,1.5054232,-1.2366602,-0.1291942,4.6712255
500,1747638684350,0.9541181550000001,-0.5275917800000001,1.328545535,-0.16153090000000003,-0.44378054999999994,4.94461775
501,1747638684360,1.19621305,-0.53478733,1.15166787,0.9135984,-0.7583669,5.21801
502,1747638684370,1.4434378,-0.53527516,0.95801324,0.9135984,-0.7583669,5.21801
503,1747638684380,1.592425225,-0.44559003249999996,0.6802226250000001,0.981517,-0.9013051,4.965081
504,1747638684390,1.74141265,-0.355904905,0.40243201000000006,1.0494356,-1.0442433,4.712152
505,1747638684400,1.5944833,-0.04643564,0.099457026,0.11911522,-0.4266768,4.316934
506,1747638684410,1.5562950500000001,0.10194191999999999,0.150100223,-0.16592137999999998,-0.2189887375,4.4134478
507,1747638684420,1.5181068,0.25031948,0.20074342,-0.45095798,-0.011300675,4.5099616
508,1747638684430,1.8007147,0.65470284,0.5277442,-1.2559783,0.060779303,5.3487315
509,1747638684440,2.304296,0.78257617,0.53885765,-1.5388769500000001,0.0934978115,5.31757825
510,1747638684450,2.8078773,0.9104495,0.5499711,-1.8217756,0.12621632,5.286425
511,1747638684460,3.0126455,0.9143826,0.5397266,-2.2890737,0.2813715,4.565549
512,1747638684470,2.8346166750000004,1.05805715,0.6510669524999999,-2.50309935,0.436221285,4.129709399999999
513,1747638684480,2.65658785,1.2017317,0.762407305,-2.717125,0.59107107,3.6938698
514,1747638684490,2.1489668,1.7700119,1.2250104,-2.6623015,0.77066016,2.888773
515,1747638684500,2.5233332,2.2471128499999997,1.28358095,-1.9940345499999999,0.08372426,3.0014744
516,1747638684510,2.8976996,2.7242138,1.3421515,-1.3257676,-0.60321164,3.1141758
517,1747638684520,3.2342435,2.897608,1.25844235,-1.2239088,-0.72171602,2.92328595
518,1747638684530,3.5707874,3.0710022,1.1747332,-1.12205,-0.8402204,2.7323961
519,1747638684540,4.35001,4.4806275,1.4678296,-1.2746855,0.019852536,1.0115631
520,1747638684550,4.4194498499999995,4.743097049999999,1.68576915,-1.134801475,0.27797368799999994,0.3356224
521,1747638684560,4.4888897,5.0055666,1.9037087,-0.99491745,0.53609484,-0.3403183
522,1747638684570,4.03862,5.3145175,2.1638458,0.29671904,1.3234769,-2.3744397
523,1747638684580,4.109874,5.02251875,1.90418125,1.3241641199999998,0.856789615,-3.42788385
524,1747638684590,4.181128,4.73052,1.6445167,2.3516092,0.39010233,-4.481328
525,1747638684600,4.4088244,4.2670784,1.4256015,2.4101741,0.1958529,-5.433639
526,1747638684610,4.3702702,4.0543982,1.3986334999999999,2.3282442999999997,0.214483745,-5.8939506999999995
527,1747638684620,4.331716,3.841718,1.3716655,2.2463145,0.23311459,-6.3542624
528,1747638684630,4.0093193,3.0048707,1.1159188,1.5989691,0.20929155,-7.5576315
529,1747638684640,3.77723255,2.49712755,1.06478775,0.8113960714999999,0.772187275,-7.882907250000001
530,1747638684650,3.5451458,1.9893844,1.0136567,0.023823043,1.335083,-8.208183
531,1747638684660,3.5222175,1.7016541,1.2001005,-0.46157146,1.7052565,-8.246667
532,1747638684670,3.32941675,1.21868388,1.4513498999999999,-0.398654195,1.97128045,-8.303819
533,1747638684680,3.136616,0.73571366,1.7025993,-0.33573693,2.2373044,-8.360971
534,1747638684690,2.893553,0.3740462,1.8221796,0.30855423,2.2892265,-8.339516
535,1747638684700,2.708504075,0.13908585425,1.735299475,0.7481351650000001,2.2153140000000002,-8.300422000000001
536,1747638684710,2.52345515,-0.0958744915,1.64841935,1.1877161,2.1414015,-8.261328
537,1747638684720,2.2046103,-0.42179292,1.3033382,2.6619196,1.8940083,-8.026152
538,1747638684730,2.1894723000000003,-0.655465095,0.99937232,3.2884198,1.5000118,-7.893292349999999
539,1747638684740,2.1743343,-0.88913727,0.69540644,3.91492,1.1060153,-7.7604327
540,1747638684750,2.1138122,-1.0094491,0.32739717,3.9386668,0.5617504,-8.004771
541,1747638684760,1.8661149,-0.9705291500000001,0.21354905500000002,3.6311432999999997,0.131064915,-8.128772999999999
542,1747638684770,1.6184176,-0.9316092,0.09970094,3.3236198,-0.29962057,-8.252775
543,1747638684780,1.4384223,-0.85155883,0.08236761249999999,3.0039941,-0.454164935,-8.1244973
544,1747638684790,1.258427,-0.77150846,0.065034285,2.6843684,-0.6087093,-7.9962196
545,1747638684800,1.072959,-0.6150664,-0.0594242,2.0257986,-0.23548162,-7.572292
546,1747638684810,1.1082201999999999,-0.49841325000000003,-0.0269680375,1.3145433,0.7880311899999999,-6.84049685
547,1747638684820,1.1434814,-0.3817601,0.005488125,0.603288,1.811544,-6.1087017
548,1747638684830,1.4524628,-0.0459478,0.55411774,-0.26464957,2.2000427,-4.897315
549,1747638684840,1.52200955,-0.026556425999999998,0.659306795,-0.29706265,2.13437665,-4.726888649999999
550,1747638684850,1.5915563,-0.007165052,0.76449585,-0.32947573,2.0687106,-4.5564623
551,1747638684860,1.4746592,-0.120891206,1.1713183,0.2562504,1.8475839,-3.9107969
552,1747638684870,1.34849335,-0.21764990299999998,1.3749735,1.086945375,1.8675891500000001,-3.4850172749999997
553,1747638684880,1.2223275,-0.3144086,1.5786287,1.91764035,1.8875944,-3.05923765
554,1747638684890,1.2157416,-0.6140907,1.6430532,4.0501466,1.9184421,-2.329237
555,1747638684900,1.08785305,-0.6845064000000001,1.5977761,4.8202723,1.5559043,-2.20828925
556,1747638684910,0.9599645,-0.7549221,1.552499,5.590398,1.1933665,-2.0873415
557,1747638684920,0.3857237,-1.1346394,0.83038384,8.2977495,-2.173089,-1.3469945
558,1747638684930,0.23746811,-1.17455025,0.46711568,8.45133925,-2.5643749,-1.15213425
559,1747638684940,0.08921252,-1.2144611,0.10384752,8.604929,-2.9556608,-0.957274
560,1747638684950,-0.11604336,-1.2002834,-0.5353056,8.417933,-3.1621273,-0.15210097
561,1747638684960,-0.118360565,-1.21261645,-1.1924019000000001,6.5244212,-1.674981415,0.674375415
562,1747638684970,-0.12067777,-1.2249495,-1.8494982,4.6309094,-0.18783553,1.5008518
563,1747638684980,-0.39987087,-1.1319562,-1.9910613,2.8825119,1.3369156,1.207645
564,1747638684990,-0.75940406,-1.0356244000000001,-1.6485413375,1.9830774999999998,2.077606,1.05951455
565,1747638685000,-1.11893725,-0.9392925999999999,-1.306021375,1.0836431,2.8182964,0.9113841
566,1747638685010,-1.5266135,-1.3064482,-1.0968628,-0.6765133,3.0742416,1.0726478
567,1747638685020,-1.6037369,-1.36745785,-0.273201915,0.5197928500000001,1.3763152600000002,0.8408312499999999
568,1747638685030,-1.6808603,-1.4284675,0.55045897,1.716099,-0.32161108,0.6090147
569,1747638685040,-2.0035012,-1.5973493,0.06991262,3.1049366,-1.69785,0.2895416
570,1747638685050,-2.322284975,-1.4550162750000002,-0.5074991,3.75575615,-2.5133692,0.1508792725
571,1747638685060,-2.64106875,-1.31268325,-1.08491082,4.4065757,-3.3288884,0.012216945
572,1747638685070,-3.0316708,-1.2725438,-2.9067245,2.256928,-1.5665178,-0.102011494
573,1747638685080,-3.0342319,-1.2742512499999998,-2.94149785,0.9839604499999999,-0.45351589999999997,-0.293244867
574,1747638685090,-3.036793,-1.2759587,-2.9762712,-0.2890071,0.659486,-0.48447824
575,1747638685100,-3.1593003,-1.7079045,-2.090366,-4.085423,3.5152733,-1.0660049
576,1747638685110,-3.27766085,-1.8987541000000001,-1.325290825,-4.6549235,3.9285115,-0.692777185
577,1747638685120,-3.3960214,-2.0896037,-0.56021565,-5.224424,4.3417497,-0.31954947
578,1747638685130,-3.3075558000000003,-2.01613905,-0.32335729799999996,-5.0094438,4.0195277,0.08273161500000004
579,1747638685140,-3.2190902,-1.9426744,-0.086498946,-4.7944636,3.6973057,0.4850127
580,1747638685150,-1.6650057,-1.7799209,0.029910281,-3.3271322,1.8207066,2.3456535
581,1747638685160,-1.21497945,-1.7512455,-0.06661973950000001,-3.1676248,1.6405067,2.49473845
582,1747638685170,-0.7649532,-1.7225701,-0.16314976,-3.0081174,1.4603068,2.6438234
583,1747638685180,0.24858157,-1.5165824,-0.45502654,-3.836808,2.1890476,2.3444319
584,1747638685190,0.1498029425,-1.4414179750000002,-0.311222427075,-4.20100655,2.3845187,2.3878211
585,1747638685200,0.051024315,-1.3662535500000001,-0.16741831415,-4.5652051,2.5799898,2.4312103
586,1747638685210,-0.09235295,-1.2356819,0.51262134,-4.960843,2.299,3.5539856
587,1747638685220,0.05931747999999999,-1.2997405,0.6284208,-4.8508905,2.05496655,3.8691828
588,1747638685230,0.21098791,-1.3637991,0.74422026,-4.740938,1.8109331,4.18438
589,1747638685240,0.86578226,-1.3679457,0.78400916,-4.1982007,1.0058364,4.6113625
590,1747638685250,1.0263556299999999,-1.30559445,0.7653343100000001,-4.164565850000001,1.0220238,4.48369525
591,1747638685260,1.186929,-1.2432432,0.74665946,-4.130931,1.0382112,4.356028
592,1747638685270,1.17973345,-1.22494945,0.856604905,-4.16208415,1.0183586999999998,4.322126
593,1747638685280,1.1725379,-1.2066557,0.96655035,-4.1932373,0.9985062,4.288224
594,1747638685290,1.1149431,-1.2064118,1.35825,-3.6885247,0.5367057,4.2821155
595,1747638685300,1.07773055,-1.1885907,1.4082834,-3.4308617,0.24498794299999999,4.2900565
596,1747638685310,1.040518,-1.1707696,1.4583168,-3.1731987,-0.046729814,4.2979975
597,1747638685320,0.8991988,-1.144152,1.2518413,-1.7644323,-1.1932901,4.6816096
598,1747638685330,0.86674265,-1.1185408,1.17301045,-1.63855955,-1.2204728,4.7720151
599,1747638685340,0.8342865,-1.0929296,1.0941796,-1.5126868,-1.2476555,4.8624206
600,1747638685350,1.0004852,-1.1109794,0.7447081,-1.6709727,-1.0729532,5.401264
601,1747638685360,1.03208765,-1.09559745,0.7490986,-1.8080697,-1.0350807,5.44463435
602,1747638685370,1.0636901,-1.0802155,0.7534891,-1.9451667,-0.9972082,5.4880047
603,1747638685380,1.3723972,-1.1031741,0.83721346,-2.4355245,-0.821895,5.418368
604,1747638685390,1.3382336000000001,-1.0375147999999998,1.00158283,-2.64924455,-0.606265915,5.42050585
605,1747638685400,1.30407,-0.9718555,1.1659522,-2.8629646,-0.39063683,5.4226437
606,1747638685410,1.3001673,-0.9269748,1.3470298,-2.716514,-0.2959555,5.761053
607,1747638685420,1.42389405,-0.9115928,1.3642259,-2.5003122500000003,-0.38177953,6.141611
608,1747638685430,1.5476208,-0.8962108,1.381422,-2.2841105,-0.46760356,6.522169
609,1747638685440,1.7648286,-0.8830393,1.2657446,-2.1065068,-0.5012002,6.73902
610,1747638685450,2.00107715,-0.89986955,1.0990733000000001,-2.15636715,-0.492648335,6.64892
611,1747638685460,2.2373257,-0.9166998,0.932402,-2.2062275,-0.48409647,6.55882
612,1747638685470,2.2978475,-0.5936017,0.8252616,-3.2168744,-0.2287623,6.2668347
613,1747638685480,2.4620796499999997,-0.53344576,1.0087784,-3.62652385,0.02386121500000002,6.3654866000000005
614,1747638685490,2.6263118,-0.47328982,1.1922952,-4.0361733,0.27648473,6.4641385
615,1747638685500,2.7373548999999997,-0.40885009000000005,1.29041065,-4.04117465,0.369638935,6.39175295
616,1747638685510,2.848398,-0.34441036,1.3885261,-4.046176,0.46279314,6.3193674
617,1747638685520,3.1803076,0.07314452,1.7389734,-3.539631,-0.23181653,5.837409
618,1747638685530,3.421487775,0.33183337499999993,1.573445475,-3.5963252,-0.9403993650000001,5.2320212999999995
619,1747638685540,3.66266795,0.5905222299999999,1.40791755,-3.6530194,-1.6489822,4.6266336
620,1747638685550,3.8912027,1.093021,1.2201321,-4.4194036,-1.1603044,3.976692
621,1747638685560,3.7827283,1.219194575,1.65958615,-4.9267503999999995,-0.5928081925,3.735254675
622,1747638685570,3.6742539,1.34536815,2.0990402,-5.4340972,-0.02531198500000001,3.49381735
623,1747638685580,3.4995334,1.7546146,3.5409994,-5.3845425,0.03451287,3.6101837
624,1747638685590,3.5887307,1.9465617,4.0603285,-4.443990250000001,-0.192111465,3.7460972
625,1747638685600,3.677928,2.1385088,4.5796576,-3.503438,-0.4187358,3.8820107
626,1747638685610,3.8494928,2.8240368,5.0543494,-0.6242095,-0.48653984,4.0622106
627,1747638685620,4.5369719,2.9491050000000003,4.838239400000001,0.3275668500000001,-0.305729055,3.8346699500000003
628,1747638685630,5.224451,3.0741732,4.6221294,1.2793432,-0.12491827,3.6071293
629,1747638685640,6.1510906,3.1073763,4.5059643,1.8868308,0.2978644,2.6792524
630,1747638685650,6.5852471999999995,2.8254391749999996,4.42170615,2.509455975,0.9676584500000001,1.2152997
631,1747638685660,7.0194038,2.54350205,4.337448,3.13208115,1.6374525,-0.248653
632,1747638685670,6.910556,1.730223,4.089873,4.6632843,1.8439188,-3.14174
633,1747638685680,6.08409,0.892902756,2.9052610999999997,5.370798150000001,1.110902085,-5.310286100000001
634,1747638685690,5.257624,0.055582512,1.7206492,6.078312,0.37788537,-7.4788322
635,1747638685700,4.92463175,-0.15906416399999998,1.4173083499999999,5.76177865,0.469817885,-7.7818121
636,1747638685710,4.5916395,-0.37371084,1.1139675,5.4452453,0.5617504,-8.084792
637,1747638685720,3.6891482,-0.7649227,0.95581794,4.2395854,1.3601278,-8.206962
638,1747638685730,3.3947103,-0.9667485,1.01194922,4.29192735,1.29385085,-8.07471365
639,1747638685740,3.1002724,-1.1685743,1.0680805,4.3442693,1.2275739,-7.9424653
640,1747638685750,2.9042852,-1.3596525,0.9938995,4.6015887,1.1451095,-8.079295
641,1747638685760,2.6504137500000002,-1.4075440000000001,0.9779076875000001,4.77388585,0.9667421,-8.161453999999999
642,1747638685770,2.3965423,-1.4554355,0.9619158750000001,4.946183,0.7883747,-8.243613
643,1747638685780,1.7140634,-1.4594754,0.8125474,5.7443314,-0.41323817,-8.122665
644,1747638685790,1.5705642,-1.4429958,0.725667335,5.86428645,-0.613290635,-7.96934225
645,1747638685800,1.427065,-1.4265162,0.63878727,5.9842415,-0.8133431,-7.8160195
646,1747638685810,1.14153,-1.3140095,0.2705341,5.9256763,-1.2384928,-7.071397
647,1747638685820,1.3633722499999998,-1.19662465,0.03856933000000001,5.28917365,-1.2372711,-6.759865
648,1747638685830,1.5852145,-1.0792398,-0.19339544,4.652671,-1.2360494,-6.448333
649,1747638685840,1.857334,-1.1314684,-0.23050125,3.4825165,-0.9342909,-6.6615186
650,1747638685850,1.90296165,-1.1171993,-0.08529460849999998,2.8718984,-0.730573335,-6.9244883
651,1747638685860,1.9485893,-1.1029302,0.059912033,2.2612803,-0.52685577,-7.187458
652,1747638685870,1.7231189,-1.1846727,0.48896143,1.6214176,-0.29900974,-7.642539
653,1747638685880,1.5373306000000002,-1.1334274,0.6677828575,1.7022594500000001,-0.31260109,-7.649105625000001
654,1747638685890,1.3515423000000002,-1.0821820999999998,0.846604285,1.7831013,-0.32619244000000003,-7.65567225
655,1747638685900,1.1190897,-1.0443598,0.9360608,2.269374,-0.29290125,-7.280307
656,1747638685910,1.0691782,-0.95882125,0.87174297,2.7295328999999997,-0.442253395,-6.6722085
657,1747638685920,1.0192667,-0.8732827,0.80742514,3.1896918,-0.59160554,-6.06411
658,1747638685930,1.2042471,-0.83056676,0.62049353,3.4644966,-0.7266028,-5.484339
659,1747638685940,1.30028925,-0.81603848,0.5431261949999999,3.5451666,-0.82158955,-5.26260175
660,1747638685950,1.3963314,-0.8015102,0.46575886,3.6258366,-0.9165763,-5.0408645
661,1747638685960,1.4019415,-0.84843366,0.51585326,3.9132403499999997,-1.6059365250000002,-5.045140425
662,1747638685970,1.4075516000000001,-0.8953571200000001,0.56594766,4.2006441,-2.2952967500000003,-5.0494163499999996
663,1747638685980,1.0644218,-1.0548481,0.7369028,4.9330497,-3.4968715,-5.2192316
664,1747638685990,0.76216335,-1.0830358,0.6965193000000001,5.3900781,-3.9153017500000002,-5.11447145
665,1747638686000,0.4599049,-1.1112235,0.6561358,5.8471065,-4.333732,-5.0097113
666,1747638686010,-0.4730764,-1.3950509,-0.097231284,6.452761,-5.1565433,-4.166131
667,1747638686020,-0.8288898,-1.22458365,-0.6369426420000001,5.7337175,-4.87799695,-3.25715205
668,1747638686030,-1.1847032,-1.0541164,-1.176654,5.014674,-4.5994506,-2.3481731
669,1747638686040,-1.2794039,-0.9516104,-1.2322975,3.6127799,-3.4046335,-1.6469206
670,1747638686050,-1.30990875,-0.9847983499999999,-1.04219495,2.1394926,-2.08791407,-1.153356
671,1747638686060,-1.3404136,-1.0179863,-0.8520924,0.6662053,-0.77119464,-0.6597914
672,1747638686070,-1.4670672,-1.1287854,-0.30248716,0.054365408,-0.01007898,-0.53151345
673,1747638686080,-1.55541085,-1.2554543,0.32227492,0.421026474,-0.459662565,-0.710797125
674,1747638686090,-1.6437545,-1.3821232,0.947037,0.78768754,-0.90924615,-0.8900808
675,1747638686100,-1.9628508500000001,-1.4763208250000002,0.767232275,1.47931932,-1.803564775,-1.211081
676,1747638686110,-2.2819472000000003,-1.57051845,0.58742755,2.1709511,-2.6978834,-1.5320812
677,1747638686120,-2.997004,-1.6871717,-0.36008197,3.025221,-5.303223,-2.1789684
678,1747638686130,-2.9779633,-1.7695393,-0.42889696499999996,2.50928415,-5.13703435,-2.08398175
679,1747638686140,-2.9589226,-1.8519069,-0.49771196,1.9933473,-4.9708457,-1.9889951
680,1747638686150,-3.0189567,-1.9453574,0.17754084,-0.03229855,-2.5328782,-1.2242143
681,1747638686160,-2.80883765,-1.8575016500000001,0.419765355,-0.524526875,-0.3460068500000002,-0.01683649999999992
682,1747638686170,-2.5987186,-1.7696459,0.66198987,-1.0167552,1.8408645,1.1905413
683,1747638686180,-2.2416859,-1.7337902,0.46966153,-1.0167552,1.8408645,1.1905413
684,1747638686190,-1.78129305,-1.6441051,0.32774777499999996,-1.4675604999999998,3.3099902500000002,2.06470195
685,1747638686200,-1.3209002,-1.55442,0.18583402,-1.9183658,4.779116,2.9388626
686,1747638686210,-0.5570142,-1.421394,0.34203213,-2.0367174,4.5463834,3.0005581
687,1747638686220,-0.3384801125,-1.35501815,0.40694446500000003,-1.9008802500000002,4.0201385,2.9083201499999998
688,1747638686230,-0.119946025,-1.2886423,0.4718568,-1.7650431,3.4938936,2.8160822
689,1747638686240,0.17952266,-1.1819898,0.46575886,-1.2884296,2.1346822,2.49722
690,1747638686250,0.25333795000000003,-0.9296427,0.31018577,-0.94383537,1.0677992354499999,2.3056812
691,1747638686260,0.32715324,-0.6772956,0.15461268,-0.59924114,0.0009162709,2.1141424
692,1747638686270,0.50213295,-0.65266,-0.013781292,-0.5220453,0.31374642,2.8576198
693,1747638686280,0.592671775,-0.6247163,-0.110174116,-0.96910915,1.1994749100000002,3.2729959500000003
694,1747638686290,0.6832106,-0.5967726,-0.20656694,-1.416173,2.0852034,3.6883721
695,1747638686300,0.706276,-0.649001265,-0.160451435,-1.84326985,2.4865682,3.92232655
696,1747638686310,0.7293414,-0.70122993,-0.11433593,-2.2703667,2.887933,4.156281
697,1747638686320,0.77449644,-0.8373964,0.14192902,-3.4249442,3.764499,4.704211
698,1747638686330,0.8070745500000001,-0.880531575,0.21922773499999998,-3.6177811,3.85337725,4.8117202500000005
699,1747638686340,0.83965266,-0.92366675,0.29652645,-3.810618,3.9422555,4.9192295
700,1747638686350,0.92630404,-0.90182096,0.55436164,-4.205683,3.2232883,5.293144
701,1747638686360,0.93447524,-0.92305693,0.66589252,-4.1162705,2.99632035,5.28795185
702,1747638686370,0.94264644,-0.9442929,0.7774234,-4.026858,2.7693524,5.2827597
703,1747638686380,0.847458,-0.8981622,1.007071,-3.1078382,2.0632129,5.3206325
704,1747638686390,0.839774605,-0.9178127174999999,0.912256,-2.6615379,1.5476578375,5.4192842500000005
705,1747638686400,0.83209121,-0.937463235,0.817441,-2.2152376,1.032102775,5.517936000000001
706,1747638686410,0.884076,-0.919139,0.62366444,-1.8149036,0.14393088,5.766551
707,1747638686420,0.97991995,-0.943972775,0.5430118525000001,-1.8167743,-0.009124535000000017,5.901395425
708,1747638686430,1.0757639,-0.96880655,0.462359265,-1.818645,-0.16217995000000002,6.036239849999999
709,1747638686440,1.1264071,-0.9838379,0.3957243,-2.1283445,0.28014982,6.2924905
710,1747638686450,1.105659,-1.0017657500000001,0.48589724999999995,-2.1616739000000003,0.574272785,6.464749250000001
711,1747638686460,1.0849109,-1.0196936,0.5760702,-2.1950033,0.86839575,6.637008
712,1747638686470,1.0646658,-0.9948142,0.84257966,-1.7974944,0.6350521,7.3248224
713,1747638686480,1.40779555,-1.05521405,0.8839387599999999,-1.34264227,-0.07753940000000004,7.59118985
714,1747638686490,1.7509253,-1.1156139,0.92529786,-0.88779014,-0.7901309,7.8575573
715,1747638686500,2.1814382,-1.1080525,0.7676667,-0.48959407,-1.0955546,7.9803376
716,1747638686510,2.3838662250000002,-1.030502225,0.6015823325,-0.41514706749999997,-0.8313631375,8.03302305
717,1747638686520,2.58629425,-0.95295195,0.435497965,-0.340700065,-0.567171675,8.085708499999999
718,1747638686530,2.71436575,-0.6818156925000001,0.32867009,-0.5291846325,-0.018287237500000053,8.177183249999999
719,1747638686540,2.84243725,-0.41067943500000004,0.221842215,-0.7176692,0.5305972,8.268658
720,1747638686550,3.155672,0.004573438,0.52091455,-1.5233004,1.0418763,8.459853
721,1747638686560,3.4297275000000003,0.102551719,0.7103006249999999,-1.37810965,0.60176088,8.247278000000001
722,1747638686570,3.703783,0.20053,0.8996867,-1.2329189,0.16164546,8.034703
723,1747638686580,4.229454,0.81968194,0.52530503,-0.18371232,-1.4193037,6.35724
724,1747638686590,4.1025563499999995,1.25517992,0.14374313499999997,-0.62172796,-0.85304824,5.970879200000001
725,1747638686600,3.9756587,1.6906779,-0.23781876,-1.0597436,-0.28679278,5.5845184
726,1747638686610,3.9895618,1.927399,-0.31931743,-2.079095,0.7926507,5.6040654
727,1747638686620,4.1386714,2.25565,0.05712221500000003,-2.6476411,1.2581163,5.3267407
728,1747638686630,4.287781,2.583901,0.43356186,-3.2161872,1.7235819,5.049416
729,1747638686640,4.701463,2.9380069,0.85526335,-3.056069,0.95086014,4.549667
730,1747638686650,4.973079800000001,3.20913545,0.883085075,-2.84234875,0.39647806499999994,3.8404732500000005
731,1747638686660,5.2446966,3.480264,0.9109068,-2.6286285,-0.15790401,3.1312795
732,1747638686670,5.0565453,4.3886094,1.1940026,-2.0329762,0.64116055,0.8136485
733,1747638686680,5.0587404,4.4509606999999995,1.4159668,-0.9528836249999999,0.38277216000000003,-0.2242191
734,1747638686690,5.0609355,4.513312,1.637931,0.12720895,0.12438377,-1.2620867
735,1747638686700,5.17478375,4.3439577499999995,1.4352514,0.689570175,-0.197570915,-1.8506380500000001
736,1747638686710,5.288632,4.1746035,1.2325718,1.2519314,-0.5195256,-2.4391894
737,1747638686720,5.2381105,3.2696726,0.32617757,1.8300984,-1.4272447,-4.836841
738,1747638686730,4.91999745,2.96729205,0.08774901999999998,1.0894269964999999,-1.0463814,-5.720317175
739,1747638686740,4.6018844,2.6649115,-0.15067953,0.348755593,-0.6655181,-6.60379335
740,1747638686750,3.944895,2.276139,-0.09698737,-0.042835664,-0.3851392,-6.7849097
741,1747638686760,3.6214155999999997,1.7072643,0.4921323649999999,-0.886186632,0.40655705,-6.847826850000001
742,1747638686770,3.2979362,1.1383896,1.0812521,-1.7295376,1.1982533,-6.910744
743,1747638686780,3.101248,0.74452513,1.7284545,-1.1550359,1.4981793,-7.1538615
744,1747638686790,3.0521903,0.6427509149999999,1.87892065,-0.6407024649999999,1.3735664500000002,-7.2338824
745,1747638686800,3.0031326,0.5409767,2.0293868,-0.12636903,1.2489536,-7.3139033
746,1747638686810,2.8876991,0.0875356,1.7597064,1.9298192,0.5177694,-7.7176733
747,1747638686820,2.6048472,-0.11465606999999998,1.2581832,2.6690971,0.37452572,-7.9482681500000005
748,1747638686830,2.3219953,-0.31684774,0.75666,3.408375,0.23128204,-8.178863
749,1747638686840,2.040607,-0.41667065,0.43307403,3.4251733,0.13598987,-8.18375
750,1747638686850,1.879903975,-0.45210715749999997,0.2785909425,3.252284475,0.15231094750000002,-8.096551425
751,1747638686860,1.7192009499999998,-0.487543665,0.124107855,3.0793956500000004,0.168632025,-8.009352849999999
752,1747638686870,1.4549019,-0.5809181,-0.052838445,2.3248847,0.43958095,-7.6785793
753,1747638686880,1.42610455,-0.5822596,-0.02001641,2.11799835,0.495168045,-7.59336615
754,1747638686890,1.3973072,-0.5836011,0.012805625,1.911112,0.55075514,-7.508153
755,1747638686900,1.4656343,-0.66363627,0.19001108,1.487413,0.37483114,-7.343224
756,1747638686910,1.4854068,-0.696702215,0.241736665,1.4089192000000001,0.244682502,-7.3081002
757,1747638686920,1.5051793,-0.72976816,0.29346225,1.3304254,0.114533864,-7.2729764
758,1747638686930,1.3941362,-0.71879196,0.3556915,1.326073,0.06994201,-7.2613707
759,1747638686940,1.3400782,-0.712816,0.39889522499999996,1.3406951999999999,0.033291175,-7.23602035
760,1747638686950,1.2860202,-0.70684004,0.44209895,1.3553174,-0.00335966,-7.21067
761,1747638686960,1.1434814,-0.71952367,0.5789972,1.7852775,-0.35704023,-6.95839
762,1747638686970,1.0930363600000002,-0.66790481,0.537516135,1.85145895,-0.34451786,-6.81774245
763,1747638686980,1.04259132,-0.61628595,0.49603507,1.9176404,-0.33199549,-6.6770949
764,1747638686990,0.98097193,-0.5306407,0.46356362,1.9753274,-0.39124766,-6.037843
765,1747638687000,0.967907115,-0.40970377999999996,0.40950559,1.95788005,-0.27060533,-5.5408808
766,1747638687010,0.9548423,-0.28876686,0.35544756,1.9404327,-0.149963,-5.0439186
767,1747638687020,0.922630025,-0.23984632,0.351666855,1.91115015,-0.004237750000000012,-4.72811055
768,1747638687030,0.89041775,-0.19092578,0.34788615,1.8818676,0.1414875,-4.4123025
769,1747638687040,0.6566237,-0.15503953,0.5377753,2.0830655,0.021685077,-3.6450784
770,1747638687050,0.56059674,-0.329653365,0.6508916499999999,2.7444986,-0.4633276415,-3.17499325
771,1747638687060,0.46456978,-0.5042672,0.764008,3.4059317,-0.94834036,-2.7049081
772,1747638687070,0.37108874,-0.6365615,0.5407023,4.113751,-1.4718364,-2.4911115
773,1747638687080,0.31715266,-0.77504518,0.182434435,4.294409,-1.56712865,-2.38543485
774,1747638687090,0.26321658,-0.91352886,-0.17583343,4.475067,-1.6624209,-2.2797582
775,1747638687100,0.08067544,-0.9989607,-0.5482332,3.9018633,-1.2702569,-1.8460568
776,1747638687110,-0.11724769,-0.98321287,-0.7418878,2.9245457999999998,-0.5656064,-1.56384535
777,1747638687120,-0.31517082,-0.96746504,-0.9355424,1.9472283,0.1390441,-1.2816339
778,1747638687130,-0.34933440000000004,-1.03300237,-0.9368839250000001,1.5765204,0.4466057,-1.2181058
779,1747638687140,-0.38349798,-1.0985397,-0.93822545,1.2058125,0.7541673,-1.1545777
780,1747638687150,-1.0158215,-1.3967583,-0.53457385,-0.2933594,2.415061,-1.2382637
781,1747638687160,-1.1943532499999998,-1.51450905,-0.43805909,-0.013896779999999997,2.28342345,-1.33050165
782,1747638687170,-1.372885,-1.6322598,-0.34154433,0.26556584,2.1517859,-1.4227396
783,1747638687180,-2.138448,-1.7462299,-0.041099958,1.1871053,1.107237,-1.4221288
784,1747638687190,-2.2293526,-1.75586465,-0.124687154,1.5279199,0.591949165,-1.4077738499999999
785,1747638687200,-2.3202572,-1.7654994,-0.20827435,1.8687345,0.07666133,-1.3934189
786,1747638687210,-2.5381968,-1.7293997,-0.9992351,2.4806507,-2.1767542,-1.2639194
787,1747638687220,-2.5174486500000004,-1.74391275,-1.20753995,2.05195045,-2.2317304499999997,-1.2242142999999999
788,1747638687230,-2.4967005,-1.7584258,-1.4158448,1.6232502,-2.2867067,-1.1845092
789,1747638687240,-2.4134946,-1.8028492,-1.3804464,-0.12140589,-1.1786298,-0.97071266
790,1747638687250,-2.3992101,-1.78514995,-1.08613045,-1.202452795,-0.052189250000000076,-0.39067500499999996
791,1747638687260,-2.3849256,-1.7674507,-0.7918145,-2.2834997,1.0742513,0.18936265
792,1747638687270,-2.255833,-1.7052215,-0.62683535,-2.6342788,1.2294065,1.0085088
793,1747638687280,-2.01179425,-1.6227319,-0.5976720449999999,-2.8183729,1.2376529,1.52742355
794,1747638687290,-1.7677555,-1.5402423,-0.56850874,-3.002467,1.2458993,2.0463383
795,1747638687300,-1.52687265,-1.47069555,-0.5417846399999999,-3.1330356000000004,1.5479633000000002,2.3172871500000003
796,1747638687310,-1.2859898,-1.4011488,-0.51506054,-3.2636042,1.8500273,2.588236
797,1747638687320,-0.89526564,-1.2195834,-0.35691106,-3.5414634,2.4205587,3.2736068
798,1747638687330,-0.77605137,-1.1768675000000002,-0.29846253,-3.5461211500000003,2.23119605,3.462664
799,1747638687340,-0.6568371,-1.1341516,-0.240014,-3.5507789,2.0418334,3.6517212
800,1747638687350,0.11140894,-1.0577751,-0.36496034,-3.7664077,0.70346695,4.77568
801,1747638687360,0.3386249375,-0.9900577749999999,-0.39326991,-3.8851031000000003,0.6897228950000001,4.960805000000001
802,1747638687370,0.565840935,-0.92234045,-0.42157948,-4.0037985,0.67597884,5.14593
803,1747638687380,0.9277676,-0.80910206,-0.4176768,-4.7116175,0.80547845,5.698136
804,1747638687390,1.20194515,-0.7314908499999999,-0.14935322,-5.16055205,0.71965441,5.86245375
805,1747638687400,1.4761227,-0.65387964,0.11897036,-5.6094866,0.63383037,6.0267715
806,1747638687410,1.5076032,-0.61006607,0.29689233000000004,-5.6288048,0.6151995349999999,5.909183499999999
807,1747638687420,1.5390837,-0.5662525,0.4748143,-5.648123,0.5965687,5.7915955
808,1747638687430,1.4824646,-0.51914614,1.0095102,-4.960843,0.5458684,5.2522173
809,1747638687440,1.4170644000000001,-0.52379577,1.0851700499999999,-4.5159555000000005,0.45943350000000005,5.0799202999999995
810,1747638687450,1.3516642,-0.5284454,1.1608299,-4.071068,0.3729986,4.9076233
811,1747638687460,1.2333037,-0.4984132,0.9709408,-3.3776035,0.17019732,4.7475815
812,1747638687470,1.22683985,-0.50036455,0.90566258,-2.89438525,-0.25682309000000003,4.744832499999999
813,1747638687480,1.220376,-0.5023159,0.84038436,-2.411167,-0.6838435,4.7420835
814,1747638687490,1.318949,-0.45959997,0.45209953,-1.9663173,-1.1187668,4.7506356
815,1747638687500,1.3426241,-0.46937188500000004,0.394260795,-1.9850245,-1.0604309,4.7100141
816,1747638687510,1.3662992,-0.4791438,0.33642206,-2.0037317,-1.002095,4.6693926
817,1747638687520,1.3584939,-0.5008524,0.300048,-2.1756852,-0.63253236,4.5264544
818,1747638687530,1.3153054000000002,-0.42153375,0.46880784999999997,-2.1058959,-0.8127322800000001,4.4415467
819,1747638687540,1.2721169,-0.3422151,0.6375677,-2.0361066,-0.9929322,4.356639
820,1747638687550,1.2020519,-0.26291168,0.76498365,-1.6921233,-1.3869287,4.3230424
821,1747638687560,1.1024881500000001,-0.217024855,0.78413111,-1.29774502,-1.59797645,4.4177237
822,1747638687570,1.0029244,-0.17113803,0.80327857,-0.90336674,-1.8090242,4.512405
823,1747638687580,0.9365486,-0.15211253,0.73202443,-0.30389652,-1.8640004,4.8654747
824,1747638687590,1.10433275,-0.11697329000000001,0.445757725,-0.19768544999999998,-1.7155645499999999,5.30074165
825,1747638687600,1.2721169,-0.08183405,0.15949102,-0.09147438,-1.5671287,5.7360086
826,1747638687610,1.4502676,0.031892106,0.08848077,-0.43729028,-1.470004,5.961411
827,1747638687620,1.6916231000000002,0.157829338,0.250639635,-1.10616804,-1.21528067,6.2445388
828,1747638687630,1.9329786,0.28376657,0.4127985,-1.7750458,-0.96055734,6.5276666
829,1747638687640,2.0669651,0.279482785,0.62988435,-1.88938875,-0.84785602,6.49559715
830,1747638687650,2.2009516,0.275199,0.8469702,-2.0037317,-0.7351547,6.4635277
831,1747638687660,2.5413983,0.221019,1.384593,-1.1924502,-0.23853585,5.61445
832,1747638687670,2.4198668000000003,0.518399135,1.29332245,-0.5475673025,-0.47997322000000003,5.29541575
833,1747638687680,2.2983353,0.81577927,1.2020519,0.09731559499999998,-0.7214105900000001,4.9763815000000005
834,1747638687690,2.2736692,1.0600618,0.64317775,0.83197397,-1.7638215,4.7995033
835,1747638687700,2.29039275,1.1388926499999998,0.44502596,0.785549585,-1.8304038,4.76804465
836,1747638687710,2.3071163,1.2177235,0.24687417,0.7391252,-1.8969861,4.736586
837,1747638687720,2.5089269,1.5625607,-0.22976951,-0.83166856,-0.9318475,4.556997
838,1747638687730,2.55725295,1.63773275,-0.17949218,-1.21955653,-0.6013791350000001,4.471173
839,1747638687740,2.605579,1.7129048,-0.12921485,-1.6074445,-0.27091077,4.385349
840,1747638687750,2.6751256,1.9049586,0.15290527,-2.1108592,0.14087665,4.2277503
841,1747638687760,2.9794574000000003,2.51055805,0.348755115,-2.0554247,-0.585764325,3.73876705
842,1747638687770,3.2837892,3.1161575,0.54460496,-1.9999902,-1.3124053,3.2497838
843,1747638687780,3.5119731,3.2574766,0.50847477,-2.1046743,-1.2763654,2.580295
844,1747638687790,3.62082105,3.3646018499999997,0.550093055,-2.174769,-1.0002624,2.1462499
845,1747638687800,3.729669,3.4717271,0.59171134,-2.2448637,-0.7241594,1.7122048
846,1747638687810,3.7379622,3.5073693,0.9597206,-2.1756852,0.030236939,0.10323319
847,1747638687820,3.7012221,3.26563265,0.99961625,-2.06073135,0.1667994695,-0.777646755
848,1747638687830,3.664482,3.023896,1.0395119,-1.9457775,0.303362,-1.6585267
849,1747638687840,3.6048139,2.8780795,1.10163445,-1.9987303499999998,0.37819080000000005,-1.97555635
850,1747638687850,3.5451458,2.732263,1.163757,-2.0516832,0.4530196,-2.292586
851,1747638687860,3.3120832,2.13485,1.6996723,-1.833,0.647269,-3.1979382
852,1747638687870,3.1986011000000003,1.9194716,1.7896013499999999,-0.979073665,0.62924903,-3.7202126
853,1747638687880,3.085119,1.7040932,1.8795304,-0.12514733,0.61122906,-4.242487
854,1747638687890,2.9845948,1.5093564,1.8656272,-0.12514733,0.61122906,-4.242487
855,1747638687900,2.8657388,1.291782725,1.597600875,0.46851987000000006,0.664372755,-4.62441925
856,1747638687910,2.7468828,1.0742090499999999,1.32957455,1.06218707,0.71751645,-5.0063515
857,1747638687920,2.4549906,0.9599951,1.0910088,1.1877161,0.93436724,-5.43425
858,1747638687930,2.3416304500000003,0.94316483,1.08930135,1.1556466,1.0272160700000001,-5.487698999999999
859,1747638687940,2.2282703,0.92633456,1.0875939,1.1235771,1.1200649,-5.541148
860,1747638687950,2.1238434,0.7415982,1.3238273,1.3179793,1.3491325,-5.5466456
861,1747638687960,2.1560557,0.58942465,1.3052896,1.7625234,1.3112599500000002,-5.7827763
862,1747638687970,2.188268,0.4372511,1.2867519,2.2070675,1.2733874,-6.018907
863,1747638687980,2.1538453,0.29205972,1.0336579,2.680016,1.3546301,-6.4080167
864,1747638687990,2.12443805,0.247392485,0.92921585,2.78126395,1.53452465,-6.64746885
865,1747638688000,2.0950308,0.20272525,0.8247738,2.8825119,1.7144192,-6.886921
866,1747638688010,1.8787986,-0.08012662,0.5170119,2.9036624,1.7571785,-7.1966205
867,1747638688020,1.82596015,-0.13942886499999999,0.486994885,2.9301579,1.665246,-7.29527225
868,1747638688030,1.7731217,-0.19873111,0.45697787,2.9566534,1.5733135,-7.393924
869,1747638688040,1.6049716,-0.3863945,0.23635526,2.999031,1.1628242,-7.6339874
870,1747638688050,1.50760315,-0.38846779,0.07444032,2.8229924,0.8848886499999999,-7.50906895
871,1747638688060,1.4102347,-0.39054108,-0.08747462,2.6469538,0.6069531,-7.3841505
872,1747638688070,1.43805645,-0.36357304,-0.18754143,2.4887062,0.5550311,-7.3016862499999995
873,1747638688080,1.4658782,-0.336605,-0.28760824,2.3304586,0.5031091,-7.219222
874,1747638688090,1.7770244,-0.349807,-0.43475097,0.89489126,0.7877639,-6.9761047
875,1747638688100,1.7555597,-0.41057274,-0.19424913600000002,0.5235342967,0.8189171,-7.0732294
876,1747638688110,1.734095,-0.47133848,0.046252698,0.1521773334,0.8500703000000001,-7.1703541
877,1747638688120,1.5424986,-0.50036454,0.29199874,0.07177455,0.97773737,-7.273587
878,1747638688130,1.44415445,-0.49512033,0.40206613999999996,0.23067120000000002,0.939559435,-7.230217
879,1747638688140,1.3458103,-0.48987612,0.51213354,0.38956785,0.9013815,-7.186847
880,1747638688150,1.0783252,-0.57677144,0.57972896,1.403956,0.45851722,-6.911966
881,1747638688160,0.984127575,-0.484753895,0.44892864,1.79802885,0.2782791,-6.593409149999999
882,1747638688170,0.88992995,-0.39273635,0.31812832,2.1921017,0.09804098,-6.2748523
883,1747638688180,0.96630645,-0.33806852,-0.0028050416,2.183397,-0.024739314,-6.067164
884,1747638688190,0.942387345,-0.332458425,-0.1483775608,1.8030301,0.07120188300000001,-5.84386115
885,1747638688200,0.91846824,-0.32684833,-0.29395008,1.4226632,0.16714308,-5.6205583
886,1747638688210,0.825368285,-0.31221333,-0.228062085,1.33882445,0.1206805125,-5.49869415
887,1747638688220,0.73226833,-0.29757833,-0.16217409,1.2549857,0.074217945,-5.37683
888,1747638688230,0.50847477,-0.30660325,-0.022318374,1.3540957,-0.25014195,-5.070185
889,1747638688240,0.21623211999999997,-0.4355742,-0.327625817,1.62607545,-0.6603258750000001,-4.678632
890,1747638688250,-0.07601053,-0.56454515,-0.63293326,1.8980552,-1.0705098,-4.287079
891,1747638688260,-0.18046784,-0.8230053,-0.9753313,1.3403516,-0.5244124,-3.1899972
892,1747638688270,-0.26356720499999997,-0.889868965,-1.00644595,1.0450069499999999,-0.15114653499999997,-3.04824245
893,1747638688280,-0.34666657,-0.95673263,-1.0375606,0.7496623,0.22211933,-2.9064877
894,1747638688290,-0.8259628,-1.2317792,-0.8896556,-0.6360447,1.7119758,-1.9951035
895,1747638688300,-0.9839903000000001,-1.4033441,-0.736277735,-0.8189171000000001,2.0424442,-1.82131745
896,1747638688310,-1.1420178,-1.574909,-0.58289987,-1.0017895,2.3729126,-1.6475314
897,1747638688320,-1.7897081,-1.7530596,-0.06722953,-0.16065283,2.0632129,-1.7306067
898,1747638688330,-2.0192337,-1.78124725,-0.11201873000000001,0.8088762850000001,1.3011809749999999,-1.5589586
899,1747638688340,-2.2487593,-1.8094349,-0.15680793,1.7784054,0.53914905,-1.3873105
900,1747638688350,-2.3334974749999997,-1.875696325,-0.397668025,2.22577465,0.060817465000000015,-1.073640435
901,1747638688360,-2.4182356499999997,-1.94195775,-0.6385281199999999,2.6731439,-0.41751412,-0.75997037
902,1747638688370,-2.5006032,-1.9126726,-0.9370059,2.7753081,-0.837777,-0.31771693
903,1747638688380,-2.4349591,-1.89350985,-1.1222454,2.4008587500000003,-0.7641699200000001,0.2617098849999999
904,1747638688390,-2.369315,-1.8743471,-1.3074849,2.0264094,-0.69056284,0.8411367
905,1747638688400,-2.3170865,-1.7715973,-1.267452,1.4002147,-0.19577655,1.4544274
906,1747638688410,-2.25510125,-1.73609225,-1.2285321,1.0967763000000001,0.04340833499999999,1.7644324
907,1747638688420,-2.193116,-1.7005872,-1.1896122,0.7933379,0.28259322,2.0744374
908,1747638688430,-1.7352841,-1.5185337,-1.1022289,-0.2267007,0.9404757,3.0860767
909,1747638688440,-1.2243702,-1.41712535,-1.0912527,-1.16908535,1.2584217,3.38783525
910,1747638688450,-0.7134563,-1.315717,-1.0802765,-2.11147,1.5763677,3.6895938
911,1747638688460,-0.66695965,-1.2483655,-0.98289275,-2.3971555,1.7037293500000001,3.77816665
912,1747638688470,-0.620463,-1.181014,-0.885509,-2.682841,1.831091,3.8667395
913,1747638688480,-0.22611076,-0.92355996,-0.368863,-3.002467,1.2917129,4.5673814
914,1747638688490,-0.054911744999999984,-0.87877073,-0.36752145,-2.9809728,1.1182322500000001,4.74208355
915,1747638688500,0.11628727,-0.8339815,-0.3661799,-2.9594786,0.9447516,4.9167857
916,1747638688510,0.76230055,-0.72976816,-0.47405204,-3.0081174,0.56602633,5.141043
917,1747638688520,0.87114076,-0.74527213,-0.483564795,-3.2087425,0.37605284,5.1364619000000005
918,1747638688530,0.97998097,-0.7607761,-0.49307755,-3.4093676,0.18607935,5.1318808
919,1747638688540,1.0124371,-0.7053765,-0.27590024,-4.137116,0.67720056,4.5771546
920,1747638688550,0.9757124,-0.7418572999999999,-0.14569447400000002,-4.17605735,0.57152398,4.50599095
921,1747638688560,0.9389877,-0.7783381,-0.015488708,-4.2149987,0.4658474,4.4348273
922,1747638688570,0.7998637,-0.80370545,0.29346225,-3.8661287,-0.5360185,4.623579
923,1747638688580,0.8586781349999999,-0.793338975,0.332763325,-3.5539476,-0.90527565,4.947061
924,1747638688590,0.91749257,-0.7829725,0.3720644,-3.2417665,-1.2745328,5.270543
925,1747638688600,1.0458841,-0.7666301,0.36303946,-3.1059291,-1.2427688,5.5790205
926,1747638688610,1.1570491500000002,-0.78407015,0.341559555,-3.1342954499999998,-1.099830525,5.73723005
927,1747638688620,1.2682142,-0.8015102,0.32007965,-3.1626618,-0.95689225,5.8954396
928,1747638688630,1.3516642,-0.83203024,0.39499256,-3.3364477,-0.6398625,5.9052134
929,1747638688640,1.3694854,-0.85570544,0.44807493,-3.36385955,-0.6279509750000001,5.8954397
930,1747638688650,1.3873066,-0.87938064,0.5011573,-3.3912714,-0.61603945,5.885666
931,1747638688660,1.4427062,-0.92000797,0.6811373000000001,-3.2190124,-0.903443075,5.8166402
932,1747638688670,1.4981058,-0.9606353,0.8611173,-3.0467534,-1.1908467,5.7476144
933,1747638688680,1.5532614,-0.82081,1.2303767,-1.4797012,-2.5353215,5.2766514
934,1747638688690,1.54409925,-0.7712644500000001,1.1616684,-1.057567525,-2.67768705,5.21312335
935,1747638688700,1.5349371,-0.7217189,1.0929601,-0.63543385,-2.8200526,5.1495953
936,1747638688710,1.4160888,-0.54234874,0.64735484,0.048104223,-2.4424727,5.230838
937,1747638688720,1.393945725,-0.555405905,0.5871302875,0.037185327000000004,-2.20668565,5.342012
938,1747638688730,1.37180265,-0.56846307,0.526905735,0.026266431,-1.9708986,5.453186
939,1747638688740,1.4644147,-0.57015526,0.49774244,-0.40735877,-1.377766,6.246066
940,1747638688750,1.5364692500000001,-0.5067064125,0.477177215,-0.5785487199999999,-1.3634111,6.3596836
941,1747638688760,1.6085238,-0.443257565,0.45661198999999997,-0.7497386699999999,-1.3490562000000001,6.4733012
942,1747638688770,1.6491511,-0.10183521,0.41499373,-1.2155097,-1.1169342,6.7219157
943,1747638688780,1.69235485,-0.02521488649999999,0.45331914500000003,-1.3494761,-1.04088373,6.815375550000001
944,1747638688790,1.7355586,0.051405437,0.49164456,-1.4834425,-0.96483326,6.9088354
945,1747638688800,2.3502896,0.16882083,0.5921992,-2.0167885,-0.8640435,6.921663
946,1747638688810,2.5870259,0.320247355,0.8197735,-2.2417331000000003,-0.58946763,6.2903525
947,1747638688820,2.8237622,0.47167388,1.0473478,-2.4666777,-0.31489176,5.659042
948,1747638688830,2.728086,0.69693094,1.2637932,-2.451101,-0.10292777,5.1276045
949,1747638688840,2.6066765,0.824682295,1.3739826000000002,-2.3601229,-0.083991503,4.83069475
950,1747638688850,2.485267,0.95243365,1.484172,-2.2691448,-0.065055236,4.533785
951,1747638688860,2.371175,1.1355998250000001,1.5976542500000002,-2.0928008499999997,-0.38330664300000006,4.42016725
952,1747638688870,2.257083,1.318766,1.7111365,-1.9164569,-0.70155805,4.3065495
953,1747638688880,2.847666,1.6499133,1.5644815,-1.2535349,-1.0027058,4.0176187
954,1747638688890,2.974579,1.7651029,1.51005755,-1.20772135,-1.0558494999999999,3.86887745
955,1747638688900,3.101492,1.8802925,1.4556336,-1.1619078,-1.1089932,3.7201362
956,1747638688910,3.7062225,2.4113603,1.1317734,-1.7812306,-0.7748597,2.988341
957,1747638688920,3.85508775,3.06540765,1.6208415999999999,-2.1058577,0.18268154999999997,2.3716526
958,1747638688930,4.003953,3.719455,2.1099098,-2.4304848,1.1402228,1.7549642
959,1747638688940,4.245339,3.8717196,2.6382637,-1.9295901,1.6771575,0.863738
960,1747638688950,4.2920645,3.9467698,2.75822495,-1.06863909,1.5079528,-0.1080054250000001
961,1747638688960,4.33879,4.02182,2.8781862,-0.20768808,1.3387481,-1.07974885
962,1747638688970,4.0991416,3.8795252,2.2038786,1.5048985,0.6558209,-3.241919
963,1747638688980,4.04837645,3.7315136,1.9741091499999999,1.702087675,0.5979431150000001,-3.9485166
964,1747638688990,3.9976113,3.583502,1.7443397,1.8992768500000001,0.54006533,-4.6551142
965,1747638689000,3.6330168,2.9084623,1.024877,1.606452,0.5977904,-5.577799
966,1747638689010,3.3849384000000002,2.44050825,1.0764958,0.789252869,0.8448781000000001,-5.834393
967,1747638689020,3.13686,1.9725542,1.1281146,-0.027946262,1.0919658,-6.090987
968,1747638689030,3.1024525,1.8333235,1.2799070000000001,-0.164088846,1.1866471,-6.0977065
969,1747638689040,3.068045,1.6940928,1.4316994,-0.30023143,1.2813284,-6.104426
970,1747638689050,2.890626,1.0756725,2.091128,0.27556846,1.2770525,-6.227817
971,1747638689060,2.8292505,0.88532605,2.14616175,0.8350663800000001,1.17015425,-6.3270795
972,1747638689070,2.767875,0.6949796,2.2011955,1.3945643,1.063256,-6.426342
973,1747638689080,2.6036277,0.36428955,1.6132649,2.9822326,1.1835929,-6.8069
974,1747638689090,2.4240135,0.274970305,1.2928346,3.2493638000000002,1.10387735,-6.8924186249999995
975,1747638689100,2.2443993,0.18565106,0.9724043,3.516495,1.0241618000000001,-6.97793725
976,1747638689110,2.0415826,0.14220342,0.6749174,3.6463764,0.5226562,-7.013366
977,1747638689120,1.9979062,0.126714715,0.54324815,3.4857999250000002,0.4145362275,-6.989390500000001
978,1747638689130,1.9542298,0.11122601,0.4115789,3.32522345,0.306416255,-6.965415
979,1747638689140,1.9190754,0.020184105,0.14583169,2.7934046,0.10353861,-7.047574
980,1747638689150,1.86251725,-0.015755492500000003,0.017950750000000015,2.23199775,0.205282855,-7.2567892
981,1747638689160,1.8059591,-0.05169509,-0.10993019,1.6705909,0.3070271,-7.4660044
982,1747638689170,1.6120757,-0.05350922,-0.1372641,1.2207782,0.70407784,-7.579011
983,1747638689180,1.52422,-0.0426549275,-0.0672295292,0.9749504,0.71751647,-7.5151775
984,1747638689190,1.4363643,-0.031800635,0.0028050416,0.7291226,0.7309551,-7.451344
985,1747638689200,1.475147,-0.065491624,-0.0032928751,0.5976377,0.4658474,-7.349943
986,1747638689210,1.499919825,-0.1064238895,0.0034224556150000006,0.5185329700000001,0.38002336000000003,-7.310238
987,1747638689220,1.52469265,-0.147356155,0.01013778633,0.43942824,0.29419932,-7.270533
988,1747638689230,1.5625302,-0.25974077,0.013293459,0.330392,0.06810947,-7.1703544
989,1747638689240,1.4697809,-0.31977476,-0.0126836655,0.2278842,0.19703642500000002,-7.0891117
990,1747638689250,1.3770316,-0.37980875,-0.03866079,0.1253764,0.32596338,-7.007869
991,1747638689260,1.240987,-0.326360505,0.02051949,0.115411955,0.48050774,-6.74276125
992,1747638689270,1.1049424,-0.27291226,0.07969977,0.10544751,0.6350521,-6.4776535
993,1747638689280,1.03428285,-0.298416805,0.187922545,0.166799485,0.48050774,-6.01153875
994,1747638689290,0.9636233,-0.32392135,0.29614532,0.22815146,0.32596338,-5.545424
995,1747638689300,0.92630404,-0.34001982,0.36255166,0.4892123,0.1427092,-5.141043
996,1747638689310,0.9364265700000001,-0.37785740999999995,0.38487003,0.6795676,0.10999069,-4.9626757
997,1747638689320,0.9465491,-0.415695,0.4071884,0.8699229,0.07727218,-4.7843084
998,1747638689330,0.9345972,-0.5321042,0.39962697,1.6182871,-0.088878274,-4.46789
999,1747638689340,0.85796165,-0.618984285,0.23147691750000002,2.16877495,-0.295039237,-4.3551885
1000,1747638689350,0.7813261,-0.70586437,0.063326865,2.7192628,-0.5012002,-4.242487
