id,timestamp,acc_x,acc_y,acc_z,gyro_x,gyro_y,gyro_z
0,1747638563280,0.14485602,0.98978335,0.24220926,0.17019732,0.053449135,-0.26877278
1,1747638563290,0.12281204966666667,0.9875068,0.24229056333333335,0.13198118783333335,0.0496822435,-0.20992782999999998
2,1747638563300,0.10076807933333334,0.98523025,0.24237186666666669,0.09376505566666668,0.045915352,-0.15108287999999997
3,1747638563310,0.078724109,0.9829536999999999,0.24245317,0.055548923500000014,0.0421484605,-0.09223793
4,1747638563320,0.05668013866666667,0.98067715,0.24253447333333333,0.017332791333333347,0.038381569,-0.03339297999999999
5,1747638563330,0.03463616833333334,0.9784006000000001,0.24261577666666667,-0.02088334083333332,0.034614677499999996,0.02545196999999999
6,1747638563340,0.012592198,0.97612405,0.24269708,-0.05909947299999999,0.030847786,0.08429692
7,1747638563350,0.023324531500000002,0.972465275,0.25515207,-0.0188980875,0.069331163,0.11697725
8,1747638563360,0.034056865,0.9688065,0.26760706,0.021303298,0.10781454,0.14965758
9,1747638563370,0.045155072500000004,0.9695382699999999,0.28358361,0.062115534,0.10292776000000001,0.157904015
10,1747638563380,0.05625328,0.97027004,0.29956016,0.10292777,0.09804098,0.16615045
11,1747638563390,0.064820856,0.9690504,0.27224147,0.35276428,-0.14629792,0.13744064
12,1747638563400,0.064820856,0.9690504,0.27224147,0.35276428,-0.14629792,0.13744064
13,1747638563410,0.05844853,0.9749045,0.25419167,0.4637094,-0.27213246,0.14110571
14,1747638563420,0.048325989,0.970742625,0.21501255,0.535064,-0.33627142,0.15271180499999998
15,1747638563430,0.038203448,0.96658075,0.17583343,0.6064186,-0.40041038,0.1643179
16,1747638563440,-0.013293459,0.9805145,0.12799528,0.64001524,-0.3943019,0.31947312
17,1747638563450,-0.012927584,0.9867343749999999,0.12311694499999999,0.64158052,-0.415070715,0.34940463499999996
18,1747638563460,-0.012561709,0.99295425,0.11823861,0.6431458,-0.43583953,0.37933615
19,1747638563470,0.021129282,0.9841733,0.09921311,0.60702944,-0.53724015,0.4538595
20,1747638563480,0.0643177785,0.97488922,0.033325118,0.52292342,-0.46393849,0.43919917500000005
21,1747638563490,0.107506275,0.96560514,-0.032562874,0.4388174,-0.39063683,0.42453885
22,1747638563500,0.14485602,0.9729531,-0.021098793,0.30977592,-0.30817243,0.3671192
23,1747638563510,0.142660765,0.97429465,0.0291785285,0.257777545,-0.39155308499999997,0.28679279
24,1747638563520,0.14046551,0.9756362,0.07945585,0.20577917,-0.47493374,0.20646638
25,1747638563530,0.113116354,0.99149084,0.09896919,0.31229568,-0.8951967,0.016492875
26,1747638563540,0.09433477200000001,0.99905222,0.088114898,0.408236865,-1.0705098499999999,-0.0235176175
27,1747638563550,0.07555319,1.0066136,0.077260606,0.50417805,-1.245823,-0.06352811
28,1747638563560,0.059912033,0.9912469,0.025031948,0.62382776,-1.3899829,-0.10628742
29,1747638563570,0.059912033,0.9912469,0.025031948,0.62382776,-1.3899829,-0.10628742
30,1747638563580,-0.011829958,0.9621903,0.0030489585,0.7154549,-1.5127633,-0.010384403
31,1747638563590,-0.0364807865,0.95097013,0.01672353725,0.7332076249999999,-1.539335125,0.01786728275
32,1747638563600,-0.061131615,0.93974996,0.030398116,0.7509603499999999,-1.56590695,0.0461189685
33,1747638563610,-0.12823918,0.92023665,0.100432694,1.0818105,-2.0277076,0.38055784
34,1747638563620,-0.13250772500000002,0.918285325,0.0898223145,1.22230535,-2.1853061,0.48318017
35,1747638563630,-0.13677627,0.916334,0.079211935,1.3628002,-2.3429046,0.5858025
36,1747638563640,-0.056009363,0.92926157,0.054058034,1.6618863,-2.619084,0.75561804
37,1747638563650,0.019772493499999995,0.9258467349999999,-0.004634415499999996,1.7995942,-2.6584836999999997,0.7195780700000001
38,1747638563660,0.09555435,0.9224319,-0.063326865,1.9373021,-2.6978834,0.6835381
39,1747638563670,0.09921311,0.88922876,-0.13970327,2.106736,-2.521272,0.49967307
40,1747638563680,0.07529403,0.89703405,-0.151304555,2.1478918,-2.5399411,0.48501272500000003
41,1747638563690,0.05137495,0.90483934,-0.16290584,2.1890476,-2.5586102,0.47035238
42,1747638563700,-0.006692464,0.935847275,-0.264664825,2.1304824,-2.5598319,0.5748073
43,1747638563710,-0.023652293999999997,0.9241392875,-0.3563088925,1.97689255,-2.4556442499999998,0.6743754
44,1747638563720,-0.040612124,0.9124313,-0.44795296,1.8233027,-2.3514566,0.7739435
45,1747638563730,0.008933448,0.87800854,-0.43450707,1.299883,-2.2482233,1.0152282
46,1747638563740,0.049560819000000006,0.87056912,-0.399611725,1.23414055,-2.2931206499999996,1.0384403500000001
47,1747638563750,0.09018819,0.8631297,-0.36471638,1.1683981,-2.338018,1.0616525
48,1747638563760,0.31007907,0.83065826,-0.231233,1.1391538,-2.405822,0.88511765
49,1747638563770,0.324836035,0.81895023,-0.238062665,1.16778725,-2.31327865,0.830141425
50,1747638563780,0.339593,0.8072422,-0.24489233,1.1964207,-2.2207353,0.7751652
51,1747638563790,0.30520073,0.83260953,-0.34495914,1.1547304,-1.6312675,0.7018635
52,1747638563800,0.30520073,0.83260953,-0.34495914,1.1547304,-1.6312675,0.7018635
53,1747638563810,0.2871204,0.85873914,-0.35471582,0.8387696,-1.2574291,0.93765056
54,1747638563820,0.30945402499999997,0.868495795,-0.33933383,0.778333925,-1.2131427000000001,1.03019393
55,1747638563830,0.33178765,0.87825245,-0.32395184,0.71789825,-1.1688563,1.1227373
56,1747638563840,0.40843847,0.87971604,-0.32761055,0.6263475,-1.1151017,1.2442958
57,1747638563850,0.536433735,0.86018744,-0.31480494000000003,0.5503351999999999,-1.0851701500000002,1.2714785
58,1747638563860,0.664429,0.84065884,-0.30199933,0.4743229,-1.0552386,1.2986612
59,1747638563870,0.8801733,0.81431586,-0.26538134,0.49547347,-1.0802834,0.96880376
60,1747638563880,0.889808,0.8161452149999999,-0.27612892,0.493908185,-1.06684475,0.88389598
61,1747638563890,0.8994427,0.81797457,-0.2868765,0.4923429,-1.0534061,0.7989882
62,1747638563900,0.8735875,0.83870745,-0.40084654,0.18890451,-0.6575771,0.5595361
63,1747638563910,0.902628875,0.8351706750000001,-0.40584685,0.087656579,-0.55526017,0.55128965
64,1747638563920,0.93167025,0.8316339,-0.41084716,-0.013591352,-0.45294324,0.5430432
65,1747638563930,0.963638575,0.8132029350000001,-0.39156249499999995,-0.47836976,-0.07177455499999999,0.46729813
66,1747638563940,1.0241527875,0.7839863175,-0.2923569975,-0.66093673,0.09288696250000003,0.36498122499999996
67,1747638563950,1.084667,0.7547697,-0.1931515,-0.8435037,0.25754848,0.26266432
68,1747638563960,1.1129917,0.7689168,-0.091865115,-0.9444462,0.41759047,-0.06291727
69,1747638563970,1.1129917,0.7689168,-0.091865115,-0.9444462,0.41759047,-0.06291727
70,1747638563980,1.1825385,0.76330674,-0.027196707,-0.83663166,0.17264071,-0.18019994
71,1747638563990,1.24110895,0.72828947,-0.0459935385,-0.73103145,-0.006375715000000004,-0.34761027
72,1747638564000,1.2996794,0.6932722,-0.06479037,-0.62543124,-0.18539214,-0.5150206
73,1747638564010,1.2218397,0.59954715,-0.12482436,-0.52135813,0.088878274,-1.0562313
74,1747638564020,1.15765905,0.606010945,-0.11275048,-0.48646348500000003,0.244987937,-1.11395635
75,1747638564030,1.0934784,0.61247474,-0.1006766,-0.45156884,0.4010976,-1.1716814
76,1747638564040,0.9802401,0.6271402,-0.024757542,-0.30458373,0.57152396,-1.0641723
77,1747638564050,0.92862123,0.58893675,-0.03292875,-0.1369443275,0.32928485,-0.8506811700000001
78,1747638564060,0.87700236,0.5507333,-0.041099958,0.030695075,0.08704574,-0.63719004
79,1747638564070,0.86979158,0.53731792,-0.065262954,0.10728005,-0.13041589,-0.51624227
80,1747638564080,0.85423429,0.53109803,-0.10126352699999999,0.114152085,-0.16767757500000002,-0.486005335
81,1747638564090,0.838677,0.52487814,-0.1372641,0.12102412,-0.20493926,-0.4557684
82,1747638564100,0.80279076,0.57735074,-0.09576778,0.08551861,0.0070247436,-0.27060533
83,1747638564110,0.7946195300000001,0.586009805,-0.0685558275,0.1160228,0.054976256800000005,-0.24342262999999997
84,1747638564120,0.7864483,0.59466887,-0.041343875,0.14652699,0.10292777,-0.21623993
85,1747638564130,0.7370247,0.6061329550000001,-0.0375631675,0.250600085,0.132592035,-0.207993495
86,1747638564140,0.6876011,0.61759704,-0.03378246,0.35467318,0.1622563,-0.19974706
87,1747638564150,0.33642206,0.7518426,-0.15604569,0.5334987,0.34917557,-0.028709821
88,1747638564160,0.2518592,0.79442135,-0.174110765,0.543768585,0.30061320999999996,0.0623064245
89,1747638564170,0.16729634,0.8370001,-0.19217584,0.55403847,0.25205085,0.15332267
90,1747638564180,0.00060979166,0.91706574,-0.1314101,0.63253236,-0.42545512,0.56808794
91,1747638564190,-0.10590556917,0.94586317,-0.21792430000000002,0.7440883300000001,-0.7586723099999999,0.68078927
92,1747638564200,-0.21242093,0.9746606,-0.3044385,0.8556443,-1.0918895,0.7934906
93,1747638564210,-0.21242093,0.9746606,-0.3044385,0.8553006999999999,-1.2751436,1.0537115
94,1747638564220,-0.286739285,1.0456708,-0.41096911999999997,0.6900474299999999,-1.14839285,1.27056225
95,1747638564230,-0.36105764,1.116681,-0.51749974,0.52479416,-1.0216421,1.487413
96,1747638564240,-0.57436275,1.1654949,-0.6834545,0.2138729,-0.7705838,1.7415255
97,1747638564250,-0.57436275,1.1654949,-0.6834545,0.2138729,-0.7705838,1.7415255
98,1747638564260,-0.6731795,1.225041,-0.68247885,0.08483142,-0.7241594,1.9143953
99,1747638564270,-0.81059605,1.3431576,-0.6451291,0.08483142,-1.017977,2.3102243
100,1747638564280,-0.81059605,1.3431576,-0.6451291,0.08483142,-1.017977,2.3102243
101,1747638564290,-0.8501106,1.4500542,-0.79376584,0.16401249,-1.3124053,2.6267195
102,1747638564300,-0.8248652000000001,1.468851,-0.820002135,0.0555871,-1.3808202,2.710711
103,1747638564310,-0.7996198,1.4876478,-0.84623843,-0.05283829,-1.4492351,2.7947025
104,1747638564320,-0.5616486,1.5493892,-0.91237026,-0.684034395,-1.22658135,2.52344825
105,1747638564330,-0.517240535,1.5640242,-0.8225632,-1.1055380975,-0.853200935,2.131876075
106,1747638564340,-0.47283247,1.5786592,-0.73275614,-1.5270418,-0.47982052,1.7403039
107,1747638564350,-0.50332206,1.6282048,-0.4952728,-1.71522095,0.230938439,0.96605495
108,1747638564360,-0.5157770500000001,1.62271665,-0.290032165,-1.564131675,0.3981769695,0.683690805
109,1747638564370,-0.52823204,1.6172285,-0.08479153,-1.4130424,0.5654155,0.40132666
110,1747638564380,-0.5104261,1.4952092,0.083602436,-0.1880646,0.53242975,-0.3421508
111,1747638564390,-0.511889635,1.45127365,0.0432037388,0.23097663,0.441413505,-0.50341448
112,1747638564400,-0.51335317,1.4073381,0.0028050416,0.65001786,0.35039726,-0.66467816
113,1747638564410,-0.36276507,1.2113817,-0.20803043,1.3628002,0.09193251,-1.0342407
114,1747638564420,-0.306511785,1.1454784500000001,-0.371789965,1.3394352999999999,0.14114389,-1.2819393
115,1747638564430,-0.2502585,1.0795752,-0.5355495,1.3160704,0.19035527,-1.5296379
116,1747638564440,-0.23367217,1.0481099,-0.6072915,1.0537878,0.367501,-1.6872364
117,1747638564450,-0.21682667500000002,1.02211755,-0.6154779699999999,0.8917606,0.48142399999999996,-1.76756285
118,1747638564460,-0.19998118,0.9961252,-0.62366444,0.7297334,0.595347,-1.8478893
119,1747638564470,-0.21889997,0.990759035,-0.56081015,0.421331895,0.789291,-1.926994
120,1747638564480,-0.23781876,0.98539287,-0.49795586,0.11293039,0.983235,-2.0060987
121,1747638564490,-0.16482669,0.94438434,-0.3766683,-0.03229855,0.98995435,-1.9987686
122,1747638564500,-0.1447035625,0.964034885,-0.33896793000000003,0.009468132499999997,0.880307255,-2.0204537
123,1747638564510,-0.124580435,0.98368543,-0.30126756,0.051234815,0.77066016,-2.0421388
124,1747638564520,-0.044270877,0.91779745,-0.28785217,0.4169796,0.41148198,-2.1954615
125,1747638564530,-0.053067122,0.9309689400000001,-0.32311337,0.46309858,0.404151815,-2.22386585
126,1747638564540,-0.061863367,0.94414043,-0.35837457,0.50921756,0.39682165,-2.2522702
127,1747638564550,-0.22611076,1.0044184,-0.5833877,0.36803547999999997,0.57152398,-2.12368675
128,1747638564560,-0.26015238,1.0063697,-0.60742875,0.005573979999999978,0.80364594,-1.689832525
129,1747638564570,-0.294194,1.008321,-0.6314698,-0.35688752,1.0357679,-1.2559783
130,1747638564580,-0.24562408,0.94218916,-0.55286765,-0.66658705,1.0259943,-0.7593595
131,1747638564590,-0.1387276035,0.94389653,-0.527256375,-0.7435156249999999,0.96704755,-0.6521558000000001
132,1747638564600,-0.031831127,0.9456039,-0.5016451,-0.8204442,0.9081008,-0.5449521
133,1747638564610,0.31105474,0.9319446,-0.4247504,-1.1208284,0.60634226,-0.4325562
134,1747638564620,0.34119369499999996,0.9452380499999999,-0.35154491,-1.1597699000000001,0.52509958,-0.48844873499999997
135,1747638564630,0.37133265,0.9585315,-0.27833942,-1.1987114,0.4438569,-0.54434127
136,1747638564640,0.21391493,0.97978276,-0.13384928,-1.0466105,0.20196137,-0.5137989
137,1747638564650,0.21391493,0.97978276,-0.13384928,-1.0466105,0.20196137,-0.5137989
138,1747638564660,0.25797237500000003,0.96598623,-0.138727615,-0.8942804150000001,0.1283161,-0.398921435
139,1747638564670,0.30202982,0.9521897,-0.14360595,-0.74195033,0.05467083,-0.28404397
140,1747638564680,0.34716963,0.9152211,-0.25769796,-0.7001837,0.29847524,-0.28465483
141,1747638564690,0.280054445,0.9069813,-0.28923942999999996,-0.7307260499999999,0.36475217,-0.240062975
142,1747638564700,0.21293926,0.8987415,-0.3207809,-0.7612684,0.4310291,-0.19547112
143,1747638564710,-0.049637042,0.8731302,-0.089182034,-0.65849334,0.28809083,0.5082249
144,1747638564720,-0.049637042,0.8731302,-0.089182034,-0.65849334,0.28809083,0.5082249
145,1747638564730,0.14363644,0.88093555,0.113116354,-0.23105298,-0.32527617,1.0995251
146,1747638564740,0.41904882,0.8498209400000001,0.126181147,0.29141233,-0.906802735,1.09311115
147,1747638564750,0.6944612,0.81870633,0.13924594,0.81387764,-1.4883293,1.0866972
148,1747638564760,0.8952962,0.8011443,-0.24977067,1.4101409,-1.189625,0.21257484
149,1747638564770,0.82024605,0.8156573149999999,-0.311268165,1.3842944,-1.00484373,0.09987352399999999
150,1747638564780,0.7451959,0.83017033,-0.37276566,1.3584479,-0.82006246,-0.012827792
151,1747638564790,0.29690757,0.86678845,-0.51871926,1.040692875,-0.185697575,-0.049173204
152,1747638564800,0.15022218075000002,0.857016475,-0.4877266,0.7718246375,0.05547256249999999,0.27778279800000005
153,1747638564810,0.0035367915,0.8472445,-0.45673394,0.5029564,0.2966427,0.6047388
154,1747638564820,0.2326965,0.73010355,-0.26343,0.2493784,-0.00030542363,1.5497195
155,1747638564830,0.2326965,0.73010355,-0.26343,0.2493784,-0.00030542363,1.5497195
156,1747638564840,0.2326965,0.73010355,-0.26343,0.2493784,-0.00030542363,1.5497195
157,1747638564850,0.9372803,0.6071086,-0.14702077,1.0244672,-0.83533365,1.1642749
158,1747638564860,0.9435001999999999,0.62724698,-0.19681026000000001,1.10578625,-0.8496885750000001,1.0573766
159,1747638564870,0.9497201,0.64738536,-0.24659975,1.1871053,-0.8640435,0.9504783
160,1747638564880,0.7112915,0.76379454,-0.50554776,1.215128,-0.4407263,0.70919365
161,1747638564890,0.7112915,0.76379454,-0.50554776,1.215128,-0.4407263,0.70919365
162,1747638564900,0.6053707,0.7745269,-0.4816135,0.73034424,-0.11331217,1.087919
163,1747638564910,0.673088075,0.74243662,-0.46147511,0.6353575,-0.21104773500000001,1.165802
164,1747638564920,0.74080545,0.71034634,-0.44133672,0.54037076,-0.3087833,1.243685
165,1747638564930,0.9216696,0.6398239,-0.38154665,0.45065257,-0.63253236,1.2766708
166,1747638564940,1.0222090499999998,0.64348268,-0.36825319,0.47306302,-0.75592348,1.1065498200000001
167,1747638564950,1.1227485,0.64714146,-0.35495973,0.49547347,-0.8793146,0.93642884
168,1747638564960,1.1420178,0.7394029,-0.4257261,0.5191438,-0.35215345,0.4263714
169,1747638564970,1.1371395,0.74208597,-0.429628735,0.5020019,-0.27793550499999997,0.38544463
170,1747638564980,1.1322612,0.74476904,-0.43353137,0.48486,-0.20371756,0.34451786
171,1747638564990,1.0522261,0.7494035,-0.5592399,-0.02481567,0.38643724,-0.02260135
172,1747638565000,1.0688124,0.72097195,-0.554834175,-0.21856878500000002,0.422171805,-0.127361655
173,1747638565010,1.0853987,0.6925404,-0.55042845,-0.4123219,0.45790637,-0.23212196
174,1747638565020,1.1176262,0.64104354,-0.5040843,-0.6734591,0.38765895,-0.5028036
175,1747638565030,1.1176262,0.64104354,-0.5040843,-0.6734591,0.38765895,-0.5028036
176,1747638565040,0.95435447,0.6068647,-0.27931508,-0.8497649,0.61672664,-1.2394855
177,1747638565050,0.913117285,0.6135724,-0.24257513,-0.7756233,0.677811385,-1.26788985
178,1747638565060,0.8718801,0.6202801,-0.20583518,-0.7014817,0.73889613,-1.2962942
179,1747638565070,0.8069678,0.6251889,-0.15851535,-0.41361994,0.7957049,-1.249259
180,1747638565080,0.78060955,0.6200514,-0.142889435,-0.16000380000000003,0.77188185,-1.14174985
181,1747638565090,0.7542513,0.6149139,-0.12726352,0.09361234,0.7480588,-1.0342407
182,1747638565100,0.8594099,0.57003325,-0.22464725,0.5640411,0.5782433,-0.8137249
183,1747638565110,0.874669925,0.556724545,-0.23879441499999998,0.6241713499999999,0.53792738,-0.834799125
184,1747638565120,0.88992995,0.54341584,-0.25294158,0.6843016,0.49761146,-0.85587335
185,1747638565130,0.8857834,0.5309761,-0.31809783,0.8026533,0.38643724,-1.0647831
186,1747638565140,0.862474125,0.5393912,-0.339211865,0.7932996999999999,0.41453622,-1.07944345
187,1747638565150,0.83916485,0.5478063,-0.3603259,0.7839461,0.4426352,-1.0941038
188,1747638565160,0.75742227,0.5939371,-0.393773,0.6263475,0.66925955,-0.8650361
189,1747638565170,0.7503334349999999,0.58942465,-0.395602365,0.5235342749999999,0.6506286750000001,-0.780128315
190,1747638565180,0.7432446,0.5849122,-0.39743173,0.42072105,0.6319978,-0.69522053
191,1747638565190,0.65003794,0.56244135,-0.30687764,0.32351997,0.5305972,-0.7282063
192,1747638565200,0.60439502,0.5705058599999999,-0.25879557,0.35249703499999996,0.48417279999999996,-0.71568392
193,1747638565210,0.5587521,0.57857037,-0.2107135,0.3814741,0.4377484,-0.70316154
194,1747638565220,0.49688873,0.6091971350000001,-0.182525885,0.52257983,0.31527353,-0.590765655
195,1747638565230,0.43502536,0.6398239,-0.15433827,0.66368556,0.19279866,-0.47836977
196,1747638565240,0.5853695,0.61467,-0.24074577,1.0755494,-0.07482879,-0.092237934
197,1747638565250,0.61282538,0.612840635,-0.282958585,1.14224625,-0.148435885,-0.087962005
198,1747638565260,0.64028126,0.61101127,-0.3251714,1.2089431,-0.22204298,-0.083686076
199,1747638565270,0.5746067,0.6320186,-0.47966215,1.2058125,-0.36437038,-0.24617144
200,1747638565280,0.46565216,0.6741094750000001,-0.546037975,1.06527945,-0.31611343999999997,-0.35280247
201,1747638565290,0.35669762,0.71620035,-0.6124138,0.9247464,-0.2678565,-0.4594335
202,1747638565300,0.06872352,0.8513911,-0.6624472,0.62573665,-0.16279079,-0.41911757
203,1747638565310,0.0488290675,0.85102525,-0.641470365,0.35715475,-0.024739309999999987,-0.241628267
204,1747638565320,0.028934615,0.8506594,-0.62049353,0.08857285,0.11331217,-0.064138964
205,1747638565330,-0.0974752,0.9407256,-0.4981998,-0.17118995,-0.09804098,0.57358557
206,1747638565340,-0.070994995,0.9569613,-0.45988964,-0.15530792,-0.24220093,0.694227905
207,1747638565350,-0.04451479,0.973197,-0.42157948,-0.13942589,-0.38636088,0.81487024
208,1747638565360,0.010153031,0.93316424,-0.48746744,-0.016721943,-0.74553907,0.7482879
209,1747638565370,-0.17081789449999998,0.93499357,-0.60877027,-0.2226538215,-0.618482845,0.6630747
210,1747638565380,-0.35178882,0.9368229,-0.7300731,-0.4285857,-0.49142662,0.5778615
211,1747638565390,-0.54408664,0.9358473,-0.7300731,-0.7456918,-0.48653984,0.71041536
212,1747638565400,-0.54408664,0.9358473,-0.7300731,-0.7456918,-0.48653984,0.71041536
213,1747638565410,-0.6602519,0.97051394,-0.6543979,-1.0354625,-0.7663079,0.99079424
214,1747638565420,-0.5890333383333333,0.943337565,-0.664484875,-1.2276630333333334,-1.10329195,1.27544907
215,1747638565430,-0.5178147766666666,0.91616119,-0.67457185,-1.4198635666666668,-1.4402760000000001,1.5601038999999999
216,1747638565440,-0.46966153,0.90361977,-0.69930905,-1.4622157,-1.429688,1.5991981
217,1747638565450,-0.5089321,0.92999333,-0.71784675,-1.480312,-1.2030637,1.5698775
218,1747638565460,-0.68599275,1.02461769,-0.6650159149999999,-1.33122705,-1.0337062774999999,1.66119915
219,1747638565470,-0.8630534,1.11924205,-0.6121850799999999,-1.1821421,-0.864348855,1.7525208
220,1747638565480,-0.9235905,1.1862278,-0.579485,-0.64971244,-1.1370921,2.1330786
221,1747638565490,-0.9235905,1.1862278,-0.579485,-0.64971244,-1.1370921,2.1330786
222,1747638565500,-0.62659144,1.2355294,-0.6868694,-0.10140064,-1.5042114,2.335269
223,1747638565510,-0.34373957,1.2643421,-0.8332803,0.09544489,-1.40953,2.0084658
224,1747638565520,-0.27245492,1.2850751,-0.89063126,0.05993939,-1.2061179,1.6993771
225,1747638565530,-0.25830775,1.3370597,-0.907248,-0.09208523,-0.86160004,1.2394091
226,1747638565540,-0.3076094,1.3485239,-0.84379923,-0.09208523,-0.86160004,1.2394091
227,1747638565550,-0.38057098,1.3502312,-0.76348966,-0.36253786,-0.26663482,0.4611897
228,1747638565560,-0.548721,1.3158389,-0.58631474,-0.3787253,0.042453885,0.02443389
229,1747638565570,-0.60119367,1.2650738,-0.4674663,-0.24662958,0.10781454,-0.14599249
230,1747638565580,-0.60119367,1.2650738,-0.4674663,-0.24662958,0.10781454,-0.14599249
231,1747638565590,-0.56850874,1.150128,-0.34471524,-0.03603999,0.09009997,-0.23823044
232,1747638565600,-0.45941702,1.0842401,-0.29346225,0.39140037,-0.08826743,-0.3690281
233,1747638565610,-0.294194,1.0354263,-0.28468126,0.6593333,-0.3087833,-0.56083417
234,1747638565620,-0.14311811,0.99197865,-0.32004914,0.82754534,-0.45660833,-0.8784747
235,1747638565630,-0.14311811,0.99197865,-0.32004914,0.82754534,-0.45660833,-0.8784747
236,1747638565640,-0.066009946,0.9082542,-0.43328747,0.82693446,-0.32222193,-1.4257939
237,1747638565650,-0.123604774,0.8989854,-0.47088113,0.71041536,-0.14751962,-1.6792954
238,1747638565660,-0.29224268,0.9565802,-0.5004256,0.4755446,-0.0045813546,-1.7861937
239,1747638565670,-0.37130213,0.98344153,-0.4867357,0.26304612,0.0723854,-1.6909015
240,1747638565680,-0.37569264,0.9805145,-0.4808817,0.07116371,0.16592139,-1.5143667
241,1747638565690,-0.3617894,0.9939299,-0.44011712,-0.033520244,0.25938103,-1.3640983
242,1747638565700,-0.2871204,0.95560455,-0.33690992,-0.067193195,0.35467318,-1.0867736
243,1747638565710,-0.21315269,0.91462654,-0.27980292,-0.0029778804,0.3070271,-0.9865947
244,1747638565720,0.00060979166,0.840171,-0.21854934,-0.0029778804,0.3070271,-0.9865947
245,1747638565730,0.00060979166,0.840171,-0.21854934,0.39269844,-0.110868774,-1.1496909
246,1747638565740,0.14583169,0.7467204,-0.33471465,0.52784836,-0.16767757,-1.357379
247,1747638565750,-0.0059759584,0.8355366,-0.5804607,0.4512634,-0.013744064,-1.6762413
248,1747638565760,-0.16754027,0.9385304,-0.7034557,0.08483142,0.2398339,-1.6426446
249,1747638565770,-0.29053524,0.97685575,-0.7439763,-0.45347774,0.6045097,-1.4062468
250,1747638565780,-0.37593657,0.98929554,-0.71101713,-0.8734352,0.9380323,-1.1307546
251,1747638565790,-0.43914148,1.0122236,-0.6068037,-1.3263785,1.3925027,-0.6426877
252,1747638565800,-0.3778879,1.0019792,-0.1943711,-1.4840534,1.5904171,0.048256934
253,1747638565810,-0.1516552,0.9712457,0.0491797,-1.0747094,1.1084588,0.5784724
254,1747638565820,-0.1516552,0.9712457,0.0491797,-1.0747094,1.1084588,0.5784724
255,1747638565830,0.1516958333333333,0.94041055,0.051131034,-0.5176676,0.58290106,0.4115074666666667
256,1747638565840,0.4550468666666666,0.9095754,0.053082368,0.039374199999999915,0.057343319999999975,0.24454253333333337
257,1747638565850,0.7583979,0.87874025,0.055033702,0.596416,-0.46821442,0.0775776
258,1747638565860,0.28468126,0.936579,-0.47868645,1.4388508,-0.49203748,-0.6481853
259,1747638565870,0.180117225,0.9318226350000001,-0.5470288249999999,1.3989547500000001,-0.377503605,-0.5773269999999999
260,1747638565880,0.07555319,0.92706627,-0.6153712,1.3590587,-0.26296973,-0.5064687
261,1747638565890,-0.1797361,0.8684958,-0.70882183,0.8170082,0.26304612,0.4031592
262,1747638565900,-0.043920249999999994,0.8291947,-0.646592615,0.58645155,0.33420981,0.8286142999999999
263,1747638565910,0.0918956,0.7898936,-0.5843634,0.3558949,0.4053735,1.2540694
264,1747638565920,0.778643,0.6588494,-0.3940169,0.3558949,-0.27946264,1.2168077
265,1747638565930,0.778643,0.6588494,-0.3940169,0.3558949,-0.27946264,1.2168077
266,1747638565940,0.8706606,0.62592065,-0.47844255,0.7029325,-0.594049,0.38727716
267,1747638565950,0.7864636,0.631164875,-0.4980931,0.76493348,-0.5552602,0.24678229000000002
268,1747638565960,0.7022666,0.6364091,-0.51774365,0.82693446,-0.5164714,0.10628742
269,1747638565970,0.29286770500000003,0.7092486849999999,-0.6058433,0.8899281,-0.47065783,0.054365408
270,1747638565980,0.16468186850000002,0.7238227225,-0.6368283299999999,0.8036077500000001,-0.523190665,0.464549339
271,1747638565990,0.036496032,0.73839676,-0.66781336,0.7172874,-0.5757235,0.87473327
272,1747638566000,0.613176,0.6988823,-0.6270793,0.41636875,-0.64780354,1.8343743
273,1747638566010,0.7926682,0.64799515,-0.6467146,0.379603385,-0.61451235,1.7671811
274,1747638566020,0.9721604,0.597108,-0.6663499,0.34283802,-0.58122116,1.6999879
275,1747638566030,1.1017716,0.6320186,-0.714188,0.03749075,0.07482879,0.707972
276,1747638566040,1.016964825,0.637018875,-0.68697605,-0.03382566999999999,0.189095395,0.56686627
277,1747638566050,0.93215805,0.64201915,-0.6597641,-0.10514209,0.303362,0.42576054
278,1747638566060,0.7437324,0.6461657,-0.5575325,-0.05841227,0.19218782,0.45569205
279,1747638566070,0.64514435,0.6302958999999999,-0.44208369999999997,0.03378748999999999,0.03546732,0.5341859250000001
280,1747638566080,0.5465563,0.6144261,-0.3266349,0.12598725,-0.12125318,0.6126798
281,1747638566090,0.6712587,0.57247245,-0.43182397,0.9110787,-1.0601255,1.0097306
282,1747638566100,0.6712587,0.57247245,-0.43182397,0.9110787,-1.0601255,1.0097306
283,1747638566110,0.8220906,0.53756183,-0.6151273,1.0631033,-1.0760075,0.9846858
284,1747638566120,0.9638672,0.47923526,-0.90334535,0.72599196,-0.59771407,0.68720317
285,1747638566130,0.9638672,0.47923526,-0.90334535,0.72599196,-0.59771407,0.68720317
286,1747638566140,0.94215864,0.5126824,-0.876728,-0.23166382,0.054059982,0.16309622
287,1747638566150,0.9126294850000001,0.5198779,-0.8103521499999999,-0.3167243,0.11548831099999998,0.11361759199999999
288,1747638566160,0.88310033,0.5270734,-0.7439763,-0.40178478,0.17691664,0.064138964
289,1747638566170,0.8455066,0.5582948,-0.6409825,-0.16996825,0.018019995,-0.047646087
290,1747638566180,0.85454678,0.57367678,-0.58289985,0.035658210000000023,-0.12613995249999999,-0.1023169135
291,1747638566190,0.86358696,0.58905876,-0.5248172,0.24128467,-0.2702999,-0.15698774
292,1747638566200,0.9256789999999999,0.525594715,-0.6535442499999999,0.54533386,-0.43645036,-0.29137415
293,1747638566210,0.928796575,0.49960995750000003,-0.710346345,0.668076005,-0.45263781999999997,-0.461533275
294,1747638566220,0.93191415,0.4736252,-0.76714844,0.79081815,-0.46882528,-0.6316924
295,1747638566230,0.84209186,0.43139714,-0.8494093,0.5883223,-0.17684028,-0.99697906
296,1747638566240,0.7913266999999999,0.44433996,-0.8043762000000001,0.5403325999999999,-0.049173205,-1.01622078
297,1747638566250,0.74056154,0.45728278,-0.7593431,0.4923429,0.07849387,-1.0354625
298,1747638566260,0.7659593,0.42773837,-0.64220214,0.5054761,0.04367558,-0.96216077
299,1747638566270,0.8209930000000001,0.39955074999999995,-0.667096855,0.627263775,-0.15607148,-1.014082835
300,1747638566280,0.8760267,0.37136313,-0.69199157,0.74905145,-0.35581854,-1.0660049
301,1747638566290,0.8469702,0.37477797,-0.730317,0.785855,-0.4187358,-1.2046671
302,1747638566300,0.8469702,0.37477797,-0.730317,0.785855,-0.4187358,-1.2046671
303,1747638566310,0.7142185,0.39063254,-0.7422689,0.75405276,-0.39979954,-1.2871315
304,1747638566320,0.66784385,0.39759942,-0.7455617999999999,0.6967285599999999,-0.35490226,-1.22849015
305,1747638566330,0.6214692,0.4045663,-0.7488547,0.63940436,-0.31000498,-1.1698488
306,1747638566340,0.5653379,0.41359124,-0.7620262,0.5334987,-0.2562504,-1.0379058
307,1747638566350,0.5342232499999999,0.42859209,-0.7761886,0.379603385,-0.160652818,-0.8577058850000001
308,1747638566360,0.5031086,0.44359294,-0.790351,0.22570807,-0.065055236,-0.67750597
309,1747638566370,0.5870769,0.46557596,-0.714188,-0.23540527,0.09193251,-0.2015796
310,1747638566380,0.6273384,0.47021037,-0.6712434,-0.2933594,0.06322269,-0.19424943
311,1747638566390,0.6675999,0.47484478,-0.6282988,-0.35131353,0.03451287,-0.18691926
312,1747638566400,0.62073743,0.49069935,-0.5318908,-0.29648998,-0.064444385,-0.37513658
313,1747638566410,0.5730364649999999,0.50132495,-0.51871928,-0.22918224999999998,-0.041843037,-0.39682165999999996
314,1747638566420,0.5253355,0.51195055,-0.50554776,-0.16187452,-0.019241689,-0.41850674
315,1747638566430,0.30276155,0.53292745,-0.5335982,0.22005773,0.020463383,-0.10262234
316,1747638566440,0.270061485,0.5336591749999999,-0.55239505,0.24624780000000002,-0.009773556999999999,-0.035123718
317,1747638566450,0.23736142,0.5343909,-0.5711919,0.27243787,-0.040010497,0.032374904
318,1747638566460,0.23858099,0.5817413,-0.63829947,0.072996244,-0.32222193,0.45202696
319,1747638566470,0.25541123,0.6017424499999999,-0.619624585,-0.055968877999999986,-0.30389651500000003,0.46729814999999997
320,1747638566480,0.27224147,0.6217436,-0.6009497,-0.184934,-0.2855711,0.48256934
321,1747638566490,0.22879384,0.63567734,-0.5702162,-0.2192178,-0.14629792,0.48806697
322,1747638566500,0.22879384,0.63567734,-0.5702162,-0.2192178,-0.14629792,0.48806697
323,1747638566510,0.073845774,0.6695818,-0.5665574,-0.112624966,0.06261184,0.63894624
324,1747638566520,0.070674859,0.6828904499999999,-0.5786313000000001,-0.107012803,0.06902574,0.67926217
325,1747638566530,0.067503944,0.6961991,-0.5907052,-0.10140064,0.07543964,0.7195781
326,1747638566540,0.1078873925,0.774648845,-0.7447081,-0.31702973,0.13167576,0.820978705
327,1747638566550,0.11563936875,0.8039950725,-0.80949845,-0.578090585,0.28226869499999996,0.8017370025
328,1747638566560,0.123391345,0.8333413,-0.8742888,-0.83915144,0.43286163,0.7824953
329,1747638566570,-0.1589727,0.9234075,-0.8325486,-1.9320335,1.0962417,0.7281299
330,1747638566580,-0.253429425,0.9603761500000001,-0.7431074,-2.0716121,1.0971579999999999,0.80692922
331,1747638566590,-0.34788615,0.9973448,-0.6536662,-2.2111907,1.0980743,0.88572854
332,1747638566600,-0.4308483,1.1125344,-0.14872819,-1.9083632,0.12377293,1.5790402
333,1747638566610,-0.387415885,1.11851035,-0.10993019500000001,-1.66723125,-0.213452935,1.6749432
334,1747638566620,-0.34398347,1.1244863,-0.0711322,-1.4260993,-0.5506788,1.7708462
335,1747638566630,-0.23489174,1.1420788,-0.19363934,-0.6017609,-1.3392826,1.683495
336,1747638566640,-0.36800926999999994,1.2219920499999999,-0.37386325,-0.47340661500000003,-1.40036735,1.6001143999999998
337,1747638566650,-0.5011268,1.3019053,-0.55408716,-0.34505233,-1.4614521,1.5167338
338,1747638566660,-0.6873572,1.3616953,-0.62976235,-0.3911713,-0.9434536,1.3707412
339,1747638566670,-0.7253014799999999,1.3717111499999999,-0.638909225,-0.46813805,-0.879314625,1.40678125
340,1747638566680,-0.76324576,1.381727,-0.6480561,-0.5451048,-0.81517565,1.4428213
341,1747638566690,-0.76934368,1.3847759499999999,-0.65915433,-0.70739928,-0.8194516000000001,1.44892975
342,1747638566700,-0.7754416,1.3878249,-0.67025256,-0.86969376,-0.82372755,1.4550382
343,1747638566710,-0.54335487,1.327547,-0.59899837,-1.1750411,-0.79685026,0.9150492
344,1747638566720,-0.533964085,1.321571,-0.560566235,-1.16381675,-0.6740699800000001,0.72018892
345,1747638566730,-0.5245733,1.315595,-0.5221341,-1.1525924,-0.5512897,0.52532864
346,1747638566740,-0.5755824,1.3009295,-0.37764397,-1.0540932,-0.36803547,0.22662434
347,1747638566750,-0.5994862000000001,1.27995275,-0.358008685,-0.7406904350000001,-0.15240639,-0.14939033
348,1747638566760,-0.62339,1.258976,-0.3383734,-0.42728767,0.06322269,-0.525405
349,1747638566770,-0.6580567,1.1337552,-0.36837515,0.1091889498,0.27556846,-0.8305232300000001
350,1747638566780,-0.63608895,1.1092415500000001,-0.3780251,0.2618243999,0.32611607,-0.905199315
351,1747638566790,-0.6141212,1.0847279,-0.38767505,0.41445985,0.37666368,-0.9798754
352,1747638566800,-0.4484103,0.91535825,-0.44502598,0.9004652,0.42675316,-1.3311125
353,1747638566810,-0.42132031999999997,0.90412289,-0.47431119,0.9518909,0.380939615,-1.41021725
354,1747638566820,-0.39423034,0.89288753,-0.5035964,1.0033166,0.33512607,-1.489322
355,1747638566830,-0.3076094,0.8614222,-0.63854337,0.9497148,0.243499,-1.7580948
356,1747638566840,-0.28771495,0.855431,-0.6566084350000001,0.73630003,0.3907132,-1.8912594
357,1747638566850,-0.2678205,0.8494398,-0.6746735,0.52288526,0.5379274,-2.024424
358,1747638566860,-0.31395125,0.8484642,-0.64342165,0.33535513,0.66559446,-2.0867305
359,1747638566870,-0.31395125,0.8484642,-0.64342165,0.33535513,0.66559446,-2.0867305
360,1747638566880,-0.42718956,0.8997171,-0.5377448,0.19455485,0.76149744,-2.0506907
361,1747638566890,-0.40375832,0.89996103,-0.46990547000000005,0.1842468,0.75722152,-1.8417808500000001
362,1747638566900,-0.38032708,0.90020496,-0.40206614,0.17393875,0.7529456,-1.632871
363,1747638566910,-0.26318607,0.87752074,-0.32419574,0.34719032,0.5525877,-1.5033715
364,1747638566920,-0.16618347,0.8713008449999999,-0.344090205,0.560910495,0.293550285,-1.5329975500000002
365,1747638566930,-0.06918087,0.86508095,-0.36398467,0.77463067,0.03451287,-1.5626236
366,1747638566940,-0.027440626,0.83065826,-0.651227,0.78829837,0.054059982,-1.8784317
367,1747638566950,-0.08259628299999999,0.836024405,-0.7032117250000001,0.651239515,0.15580423100000002,-1.91263915
368,1747638566960,-0.13775194,0.84139055,-0.75519645,0.51418066,0.25754848,-1.9468466
369,1747638566970,-0.37081432,0.81846243,-0.79132664,-0.2839676,0.55930704,-1.7086161
370,1747638566980,-0.425482135,0.8246822949999999,-0.71554479,-0.6064186,0.6127561699999999,-1.45603075
371,1747638566990,-0.48014995,0.83090216,-0.63976294,-0.9288696,0.6662053,-1.2034454
372,1747638567000,-0.41450587,0.9014246,-0.25855166,-1.1370158,0.5226562,-0.3250471
373,1747638567010,-0.34299256,0.91741637,-0.22426613,-0.98247145,0.43835927500000005,-0.06417714000000002
374,1747638567020,-0.27147925,0.93340814,-0.1899806,-0.8279271,0.35406235,0.19669282
375,1747638567030,0.11921428,0.8553243,-0.26440567,-0.59679776,0.44446772,0.22295925
376,1747638567040,0.11921428,0.8553243,-0.26440567,-0.59679776,0.44446772,0.22295925
377,1747638567050,0.12070826,0.79675376,-0.37837574,-0.54006535,0.58679515,0.12583454
378,1747638567060,0.042837866,0.8267556,-0.42133558,-0.7388198,0.77554697,0.12216945
379,1747638567070,0.042837866,0.8267556,-0.42133558,-0.7388198,0.77554697,0.12216945
380,1747638567080,0.10994543,0.8445615,-0.28931567,-0.87717664,0.71873814,0.44286427
381,1747638567090,0.10714039,0.83882945,-0.274665415,-0.810517935,0.67781137,0.51250087
382,1747638567100,0.10433535,0.8330974,-0.26001516,-0.74385923,0.6368846,0.58213747
383,1747638567110,0.15241744,0.848952,-0.22854991,-0.3381803,0.55197686,0.868014
384,1747638567120,0.202694755,0.829194725,-0.22011954,-0.1381660065,0.506468745,0.92085225
385,1747638567130,0.25297207,0.80943745,-0.21168917,0.061848287,0.46096063,0.9736905
386,1747638567140,0.44722122,0.7681851,-0.36203334,0.674299,0.25082916,0.9034431
387,1747638567150,0.46406673,0.7680631499999999,-0.41865249,0.73847615,0.20318307,0.8377770200000001
388,1747638567160,0.48091224,0.7679412,-0.47527164,0.8026533,0.15553698,0.77211094
389,1747638567170,0.42965922,0.7130294,-0.6048524,0.67804044,-0.006413896,0.5778615
390,1747638567180,0.417448135,0.71120005,-0.5999740499999999,0.64345122,-0.0103844035,0.5922164000000001
391,1747638567190,0.40523705,0.7093707,-0.5950957,0.608862,-0.014354911,0.6065713
392,1747638567200,0.3971878,0.7122977,-0.5819242,0.601417305,0.074217942,0.652690325
393,1747638567210,0.37999168,0.71034635,-0.59351025,0.6126225325,0.172602531,0.7032379125
394,1747638567220,0.36279556,0.708395,-0.6050963,0.62382776,0.27098712,0.7537855
395,1747638567230,0.5040843,0.73693323,-0.625128,0.53533125,0.28198236,0.9785773
396,1747638567240,0.5655818,0.71741989,-0.62988435,0.50887394,0.22089763499999998,0.94436985
397,1747638567250,0.6270793,0.69790655,-0.6346407,0.48241663,0.15981291,0.9101624
398,1747638567260,0.72763395,0.623451,-0.62317663,0.5047889,-0.049784053,0.57663983
399,1747638567270,0.6954216950000001,0.6243199500000001,-0.62634754,0.530979,-0.08979454650000002,0.47920969
400,1747638567280,0.66320944,0.6251889,-0.62951845,0.5571691,-0.12980504,0.38177955
401,1747638567290,0.5470441,0.61101127,-0.6285428,0.6717793,-0.09987353,0.40804598
402,1747638567300,0.42746398,0.61101127,-0.6214692,0.6717793,-0.09987353,0.40804598
403,1747638567310,0.38865072,0.6251889,-0.6182983,0.6599441,-0.15851486,0.80326414
404,1747638567320,0.56094736,0.61369437,-0.7034557,0.5796177,-0.080326416,0.9229902
405,1747638567330,0.56094736,0.61369437,-0.7034557,0.5796177,-0.080326416,0.9229902
406,1747638567340,0.68857676,0.5956445,-0.7051631,0.48050773,0.0387888,0.94803494
407,1747638567350,0.80071748,0.5727010800000001,-0.6927233500000001,0.448743665,0.009468131999999997,0.844801755
408,1747638567360,0.9128582,0.54975766,-0.6802836,0.4169796,-0.019852536,0.74156857
409,1747638567370,0.82648116,0.591254,-0.69784564,0.56961507,-0.2055501,0.30664533
410,1747638567380,0.79353718,0.6058889999999999,-0.70967557,0.584580835,-0.23303823,0.281600595
411,1747638567390,0.7605932,0.620524,-0.7215055,0.5995466,-0.26052636,0.25655586
412,1747638567400,0.6561358,0.605889,-0.81059605,0.4923429,-0.2159345,0.29137415
413,1747638567410,0.6577212800000001,0.59296142,-0.82547501,0.39888326,-0.13927317,0.330162945
414,1747638567420,0.65930676,0.58003384,-0.84035397,0.30542362,-0.06261184,0.36895174
415,1747638567430,0.7042026699999999,0.530854175,-0.8132791500000001,-0.0640626,0.23250374,0.43614495
416,1747638567440,0.818424285,0.49955660749999997,-0.754220825,-0.111403265,0.24197186999999998,0.42698223999999996
417,1747638567450,0.9326459,0.46825904,-0.6951625,-0.15874393,0.25144,0.41781953
418,1747638567460,0.9592328,0.4533801,-0.65537363,-0.07902836,-0.0015271181,-0.099568106
419,1747638567470,0.9422806,0.45740473000000004,-0.653178365,-0.01515664500000001,-0.036650834050000004,-0.209864218
420,1747638567480,0.9253284,0.46142936,-0.6509831,0.04871507,-0.07177455,-0.32016033
421,1747638567490,0.749373,0.53341526,-0.6841862,0.211964,-0.18294875,-0.5034145
422,1747638567500,0.6993396,0.53402503,-0.7121299,0.18237609,-0.21196399500000002,-0.48600535
423,1747638567510,0.6493062,0.5346348,-0.7400736,0.15278818,-0.24097924,-0.4685962
424,1747638567520,0.640875825,0.52634165,-0.7447080500000001,0.104493065,-0.19577654500000002,-0.44843825000000004
425,1747638567530,0.63244545,0.5180485,-0.7493425,0.05619795,-0.15057385,-0.4282803
426,1747638567540,0.63759816,0.5075296,-0.72540814,-0.038483378,-0.013133216,-0.37880164
427,1747638567550,0.65381863,0.49752902,-0.67721939,-0.048447824,0.029015247000000004,-0.352840645
428,1747638567560,0.6700391,0.48752844,-0.62903064,-0.05841227,0.07116371,-0.32687965
429,1747638567570,0.6976322,0.49045542,-0.6111942,0.015729317,-0.044286426,-0.33848575
430,1747638567580,0.6933484000000001,0.49228481,-0.624990735,0.0459280765,-0.10811996300000001,-0.360170825
431,1747638567590,0.6890646,0.4941142,-0.63878727,0.076126836,-0.1719535,-0.3818559
432,1747638567600,0.625128,0.52146333,-0.5199389,0.20203774,-0.2935121,-0.39773792
433,1747638567610,0.61171253,0.517194815,-0.5116457,0.26587128,-0.33688226,-0.39071317
434,1747638567620,0.59829706,0.5129263,-0.5033525,0.32970482,-0.38025242,-0.38368842
435,1747638567630,0.5775642,0.47582048,-0.57655805,0.44904909,-0.36467581,-0.33573693
436,1747638567640,0.62319185,0.47021037499999996,-0.61438036,0.43427423,-0.27289600999999997,-0.27934809
437,1747638567650,0.6688195,0.46460027,-0.65220267,0.41949937,-0.18111621,-0.22295925
438,1747638567660,0.66028243,0.45042264,-0.66537416,0.22196662,-0.23059484,-0.19180603
439,1747638567670,0.64869639,0.45324291,-0.656959055,0.17271706250000002,-0.26602397,-0.183559595
440,1747638567680,0.63711035,0.45606318,-0.64854395,0.123467505,-0.3014531,-0.17531316
441,1747638567690,0.6077031500000001,0.477649805,-0.5930224049999999,0.07830298452500001,-0.396897995,-0.0900999675
442,1747638567700,0.57829595,0.49923643,-0.53750086,0.033138464050000004,-0.49234289,-0.0048867749999999995
443,1747638567710,0.57878375,0.53634226,-0.5201828,0.068033114,-0.55373305,0.05619795
444,1747638567720,0.661867875,0.536830095,-0.5685087799999999,0.114762932,-0.62611845,0.15301724
445,1747638567730,0.744952,0.53731793,-0.61683476,0.16149275,-0.69850385,0.24983653
446,1747638567740,0.91480947,0.53024435,-0.8469702,-0.2247918,-0.56106323,-0.14782503
447,1747638567750,0.8512387,0.547928305,-0.82610005,-0.4397718500000001,-0.42728766500000004,-0.299658765
448,1747638567760,0.78766793,0.56561226,-0.8052299,-0.6547519,-0.2935121,-0.4514925
449,1747638567770,0.4796926,0.6251889,-0.5494528,-0.9444462,0.015576605,-0.50463617
450,1747638567780,0.40756950000000003,0.61858792,-0.46623147499999995,-0.911116865,0.0042759307,-0.437442985
451,1747638567790,0.3354464,0.61198694,-0.38301015,-0.87778753,-0.0070247436,-0.3702498
452,1747638567800,0.37401572,0.5841804,-0.4206038,-0.2989334,-0.66246384,0.255945
453,1747638567810,0.37401572,0.5841804,-0.4206038,-0.2989334,-0.66246384,0.255945
454,1747638567820,0.3793819,0.5470746,-0.49405318,-0.13881505,-0.9397885,0.36223242
455,1747638567830,0.2866326,0.6266524,-0.50457215,-0.10957073,-1.0955546,0.38239038
456,1747638567840,0.2866326,0.6266524,-0.50457215,-0.10957073,-1.0955546,0.38239038
457,1747638567850,0.2461424,0.6537272,-0.47527164,-0.10827268,-1.0790616,0.38177955
458,1747638567860,0.1706044625,0.68545158,-0.48906817,-0.08147175499999999,-0.9599464499999999,0.381168695
459,1747638567870,0.095066525,0.71717596,-0.5028647,-0.05467083,-0.8408313,0.38055784
460,1747638567880,-0.22757424,0.7820883,-0.54725754,0.19760908,-0.7186618,0.73851436
461,1747638567890,-0.274421505,0.81064185,-0.56983507,0.24746949,-0.82311667,0.85426988
462,1747638567900,-0.32126877,0.8391954,-0.5924126,0.2973299,-0.92757154,0.9700254
463,1747638567910,-0.37471699,0.917416335,-0.634274825,0.26926912,-1.333785,1.367687
464,1747638567920,-0.36874103,0.9654298675,-0.6348236425,0.14093392249999998,-1.50909815,1.5808727
465,1747638567930,-0.36276507,1.0134434,-0.63537246,0.012598725,-1.6844113,1.7940584
466,1747638567940,-0.1724186,1.1010703,-0.48112562,-0.23975755,-1.5775131,2.0976496
467,1747638567950,-0.13372732,1.10497295,-0.447815745,-0.240673825,-1.475807,2.0551957
468,1747638567960,-0.09503604,1.1088756,-0.41450587,-0.2415901,-1.3741009,2.0127418
469,1747638567970,-0.23806266,1.1281451,-0.4118228,-0.12140589,-0.77730316,1.57171
470,1747638567980,-0.38424500000000006,1.2023415,-0.44684009999999996,-0.11327398999999999,-0.73729265,1.54697065
471,1747638567990,-0.53042734,1.2765379,-0.4818574,-0.10514209,-0.69728214,1.5222313
472,1747638568000,-0.62217045,1.3653541,-0.633665,-0.3736858,-1.2171131,1.711594
473,1747638568010,-0.6171701549999999,1.3646223,-0.6651455,-0.479629615,-1.2491826,1.7567967
474,1747638568020,-0.61216986,1.3638905,-0.696626,-0.58557343,-1.2812521,1.8019994
475,1747638568030,-0.49478498,1.2889777,-0.53725696,-1.3276765,-0.50608695,1.8252116
476,1747638568040,-0.49478498,1.2889777,-0.53725696,-1.3276765,-0.50608695,1.8252116
477,1747638568050,-0.49722412,1.2692204,-0.40694448,-1.3931135,-0.19760908,1.6932687
478,1747638568060,-0.51736249,1.2636102500000002,-0.35605736,-1.2903003,-0.119115212,1.5646852999999998
479,1747638568070,-0.53750086,1.2580001,-0.30517024,-1.1874871,-0.040621344,1.4361019
480,1747638568080,-0.5104261,1.2135769,-0.34471524,-0.445384,-0.37597647,0.79959905
481,1747638568090,-0.5359153999999999,1.2194308999999999,-0.372171105,-0.31454816,-0.4330907,0.65116316
482,1747638568100,-0.5614047,1.2252849,-0.39962697,-0.18371232,-0.49020493,0.50272727
483,1747638568110,-0.68516195,1.2391881,-0.55359936,0.09422319,-0.24097924,0.123391144
484,1747638568120,-0.695162525,1.2252849000000001,-0.570079,0.08021188,-0.1243074153,0.094070477
485,1747638568130,-0.7051631,1.2113817,-0.58655864,0.06620057,-0.0076355906,0.06474981
486,1747638568140,-0.66246247,1.14279535,-0.566176325,-0.06345176,0.44202435,0.05314371
487,1747638568150,-0.546411485,1.098623575,-0.5090159775,-0.12201674,0.5925982,0.003359658500000001
488,1747638568160,-0.4303605,1.0544518,-0.45185563,-0.18058172,0.74317205,-0.046424393
489,1747638568170,-0.104304865,0.8723985,-0.4127985,0.053067356,0.6289436,-0.87358797
490,1747638568180,-0.1218821125,0.856894525,-0.41096911,0.132210253,0.6417714000000001,-1.069975335
491,1747638568190,-0.13945936,0.84139055,-0.40913972,0.21135315,0.6545992,-1.2663627
492,1747638568200,-0.20925001,0.867748795,-0.39034291,0.380519675,0.57885415,-1.4312915
493,1747638568210,-0.274299535,0.8754397975,-0.40864427000000003,0.6105990875,0.373609465,-1.52811075
494,1747638568220,-0.33934906,0.8831308,-0.42694563,0.8406785,0.16836478,-1.62493
495,1747638568230,-0.348252035,0.869471475,-0.537378885,0.91669085,0.022906771684999997,-1.5296379500000001
496,1747638568240,-0.3269550525,0.8604312875,-0.5808875175,0.8733779749999999,0.0427593058425,-1.464888125
497,1747638568250,-0.30565807,0.8513911,-0.62439615,0.8300651,0.06261184,-1.4001383
498,1747638568260,-0.24733151,0.80870575,-0.67564917,0.39269844,0.6002338,-1.2034454
499,1747638568270,-0.24416059,0.815657375,-0.669170135,0.29423749499999996,0.73523105,-1.1536613500000001
500,1747638568280,-0.24098967,0.822609,-0.6626911,0.19577655,0.8702283,-1.1038773
501,1747638568290,-0.09942654,0.83504874,-0.56802094,-0.025426516,0.959412,-0.965215
502,1747638568300,-0.04329521275,0.79137242,-0.55154132,-0.004237752500000001,0.81403033,-1.0965472
503,1747638568310,0.0128361145,0.7476961,-0.5350617,0.016951011,0.66864866,-1.2278794
504,1747638568320,-0.01583933775,0.76147738,-0.52689048,0.0490586705,0.6197809000000001,-1.259338
505,1747638568330,-0.04451479,0.77525866,-0.51871926,0.08116633,0.57091314,-1.2907966
506,1747638568340,-0.18827318,0.8731302,-0.56045955,0.20387027,0.5684697,-1.0886061
507,1747638568350,-0.1643541,0.9223022750000001,-0.561923035,0.20482472000000002,0.6329141,-0.88427772
508,1747638568360,-0.14043502,0.97147435,-0.56338652,0.20577917,0.6973585,-0.67994934
509,1747638568370,-0.10089003,0.9817341,-0.5585082,0.19264595,0.8317449,-0.35681117
510,1747638568380,-0.012424505000000002,1.00002785,-0.51323115,0.204481115,0.9490276,-0.09624663500000002
511,1747638568390,0.07604102,1.0183216,-0.4679541,0.21631628,1.0663103,0.1643179
512,1747638568400,0.5363118,0.8269995,-0.3634968,0.5035672,0.7450046,-0.0452027
513,1747638568410,0.56876795,0.7877136499999999,-0.37081432000000003,0.615123175,0.6307761700000001,-0.269421815
514,1747638568420,0.6012241,0.7484278,-0.37813184,0.72667915,0.51654774,-0.49364093
515,1747638568430,0.30788383,0.696687,-0.55384326,1.0412655,0.28076068,-1.1961153
516,1747638568440,0.07311403,0.75537945,-0.64060138,0.995184725,0.37574743,-1.0568421
517,1747638568450,-0.16165577,0.8140719,-0.7273595,0.94910395,0.47073418,-0.9175689
518,1747638568460,-0.18289176499999998,0.8373812,-0.7365216,0.819795225,0.54617381,-0.624667665
519,1747638568470,-0.20412776,0.8606905,-0.7456837,0.6904865,0.62161344,-0.33176643
520,1747638568480,-0.12140953,0.85508037,-0.7451959,0.51227176,0.7523348,0.015271181
521,1747638568490,0.07529402,0.816023205,-0.659657375,0.345625005,0.97193435,0.2559449905
522,1747638568500,0.27199757,0.77696604,-0.57411885,0.17897825,1.1915339,0.4966188
523,1747638568510,0.5255641950000001,0.7233958650000001,-0.51445075,0.31851866,0.7544727499999999,0.1985253613
524,1747638568520,0.5603451975,0.6659839675000001,-0.542333475,0.42570328,0.543577725,-0.07669951935
525,1747638568530,0.5951262,0.60857207,-0.5702162,0.5328879,0.3326827,-0.3519244
526,1747638568540,0.20098734,0.65153193,-0.6871133,0.6873559,0.24777491,-0.9029086
527,1747638568550,0.130937519,0.655068715,-0.6734387,0.6892266,0.25052372,-0.8344936999999999
528,1747638568560,0.060887698,0.6586055,-0.6597641,0.6910973,0.25327253,-0.7660788
529,1747638568570,-0.07625445,0.70790714,-0.6641546,0.66368556,0.33451524,-0.12949961
530,1747638568580,-0.008293167000000004,0.729143145,-0.66598398,0.63348678,0.41697961,0.099568095
531,1747638568590,0.059668116,0.75037915,-0.66781336,0.603288,0.49944398,0.3286358
532,1747638568600,0.6363786,0.6793384,-0.6822349,0.4244625,0.58557343,0.5674771
533,1747638568610,0.675908335,0.6603129249999999,-0.6799177000000001,0.40044856,0.49486262999999997,0.37689275499999997
534,1747638568620,0.71543807,0.64128745,-0.6776005,0.37643462,0.40415183,0.18630841
535,1747638568630,0.50457215,0.5719846,-0.6082672,0.48180577,0.10720369,-0.4362213
536,1747638568640,0.3352025,0.5924735699999999,-0.599120325,0.6169939200000001,0.024128464000000002,-0.39407285000000003
537,1747638568650,0.16583285,0.61296254,-0.58997345,0.75218207,-0.058946762,-0.3519244
538,1747638568660,0.17632127,0.620524,-0.6478122,0.8101362,-0.055892523,-0.076966755
539,1747638568670,0.17632127,0.620524,-0.6478122,0.8101362,-0.055892523,-0.076966755
540,1747638568680,0.3120304,0.56195354,-0.74812293,0.6693359,0.22883865,0.37078428
541,1747638568690,0.33924235,0.55000162,-0.7356679150000001,0.62943992,0.28106609,0.40804596000000004
542,1747638568700,0.3664543,0.5380497,-0.7232129,0.58954394,0.33329353,0.44530764
543,1747638568710,0.42722008,0.5180485,-0.6776005,0.590842,0.32168743,0.4654656
544,1747638568720,0.479448725,0.48508926,-0.65429125,0.71075895,0.1716862535,0.44011544999999996
545,1747638568730,0.53167737,0.45213002,-0.630982,0.8306759,0.021685077,0.4147653
546,1747638568740,0.6390617,0.38331506,-0.8193771,1.1926793,-0.40163207,0.19302773
547,1747638568750,0.6035413199999999,0.38014413,-0.87953305,1.16557295,-0.381779535,0.162485365
548,1747638568760,0.56802094,0.3769732,-0.939689,1.1384666,-0.361927,0.131943
549,1747638568770,0.44624552,0.4150547,-0.996796,0.7496623,-0.005803049,0.27976805
550,1747638568780,0.52983271,0.39845312499999996,-0.95958345,0.411672875,0.1643560955,0.48776152500000003
551,1747638568790,0.6134199,0.38185155,-0.9223709,0.07368345,0.33451524,0.695755
552,1747638568800,0.75864184,0.36282605,-0.8979487,-0.05841227,0.3326827,0.69392246
553,1747638568810,0.75864184,0.36282605,-0.8979487,-0.05841227,0.3326827,0.69392246
554,1747638568820,0.90090626,0.31157306,-0.8742888,-0.15439165,0.37116608,0.5570927
555,1747638568830,0.97999614,0.26739365,-0.7586113,-0.07650862,0.27526304,0.021379653
556,1747638568840,0.97999614,0.26739365,-0.7586113,-0.07650862,0.27526304,0.021379653
557,1747638568850,0.9204195,0.2930354,-0.66439855,0.09918632,0.037567105,-0.15087928
558,1747638568860,0.86405953,0.3239061,-0.6983334400000001,0.28049342,-0.16340163749999997,-0.24071199000000001
559,1747638568870,0.80769956,0.3547768,-0.73226833,0.46180052,-0.36437038,-0.3305447
560,1747638568880,0.7769356,0.3386783,-0.95801324,0.45065257,-0.14018944,-0.32321456
561,1747638568890,0.775350135,0.32988205,-0.969111445,0.36123980499999997,-0.043370152499999995,-0.31771693
562,1747638568900,0.77376467,0.3210858,-0.98020965,0.27182704,0.053449135,-0.3122193
563,1747638568910,0.7464155,0.26641798,-0.91578513,0.08674031,0.0827698,-0.30794337
564,1747638568920,0.73604905,0.2689791,-0.914687515,0.05932854,-0.028404399999999996,-0.284082155
565,1747638568930,0.7256826,0.27154022,-0.9135899,0.03191677,-0.1395786,-0.26022094
566,1747638568940,0.7866922,0.2549539,-0.94139636,-0.007941014,-0.18783553,-0.24678229
567,1747638568950,0.81256265,0.25422215000000004,-0.93054208,-0.041308544,-0.1139230135,-0.30454553
568,1747638568960,0.8384331,0.2534904,-0.9196878,-0.074676074,-0.040010497,-0.36230877
569,1747638568970,0.7954732,0.31279266,-0.87697196,-0.044133715,-0.04367558,-0.4673745
570,1747638568980,0.7999857,0.321817565,-0.87367903,-0.040697699,-0.070247435,-0.477453485
571,1747638568990,0.8044982,0.33084247,-0.8703861,-0.037261683,-0.09681929,-0.48753247
572,1747638569000,0.8257494,0.31450003,-0.83986604,0.01137703,-0.14690876,-0.5370111
573,1747638569010,0.8339206299999999,0.31425612999999997,-0.83084112,0.072729005,-0.154849775,-0.5422032999999999
574,1747638569020,0.84209186,0.31401223,-0.8218162,0.13408098,-0.16279079,-0.5473955
575,1747638569030,0.8381892,0.31132913,-0.8733132,0.263389695,-0.2791572,-0.5654155000000001
576,1747638569040,0.83831115,0.30571905,-0.89808595,0.24703044749999997,-0.33398075,-0.59366718
577,1747638569050,0.8384331,0.30010897,-0.9228587,0.2306712,-0.3888043,-0.62191886
578,1747638569060,0.8213589,0.29815763,-0.88819206,0.018172706,-0.3991887,-0.75508356
579,1747638569070,0.81672447,0.292059715,-0.86049228,0.015385715500000001,-0.44622393,-0.7957049
580,1747638569080,0.81209004,0.2859618,-0.8327925,0.012598725,-0.49325916,-0.83632624
581,1747638569090,0.72275555,0.29084012,-0.80352247,0.091703445,-0.6215371,-0.881529
582,1747638569100,0.682616025,0.28521481,-0.81510851,0.0811281505,-0.64138965,-0.790512725
583,1747638569110,0.6424765,0.2795895,-0.82669455,0.070552856,-0.6612422,-0.69949645
584,1747638569120,0.66491685,0.26775952999999997,-0.8214503550000001,0.0013744049999999952,-0.6743754,-0.666816125
585,1747638569130,0.6873572,0.25592956,-0.81620616,-0.067804046,-0.6875086,-0.6341358
586,1747638569140,0.72251165,0.25471,-0.8037664,-0.26778015,-0.7907418,-0.73431474
587,1747638569150,0.717267455,0.23542533,-0.76117245,-0.481194925,-0.9080245,-0.94139197
588,1747638569160,0.71202326,0.21614066,-0.7185785,-0.6946097,-1.0253072,-1.1484692
589,1747638569170,0.36255166,0.28254697,-0.3810588,-0.91894335,-0.8829797,-1.4508386
590,1747638569180,0.294697085,0.311710255,-0.33604093999999995,-0.869693775,-0.827698025,-1.4019708
591,1747638569190,0.22684251,0.34087354,-0.29102308,-0.8204442,-0.77241635,-1.353103
592,1747638569200,0.027958948,0.5048465,-0.21537842,-0.3381803,-0.5891622,-0.5070796
593,1747638569210,0.12276630399999999,0.5624413500000001,-0.30372198499999997,-0.22792237999999998,-0.583053725,-0.2743086065
594,1747638569220,0.21757366,0.6200362,-0.39206555,-0.11766446,-0.57694525,-0.041537613
595,1747638569230,0.4133168,0.62787205,-0.50213295,0.12659809,-0.8023479,0.47890425
596,1747638569240,0.46883834999999996,0.622490625,-0.5476386550000001,0.146870585,-0.884812265,0.437061205
597,1747638569250,0.5243599,0.6171092,-0.59314436,0.16714308,-0.96727663,0.39521816
598,1747638569260,0.31837222,0.7008336,-0.8481897,0.01137703,-1.0295831,-0.020768806
599,1747638569270,0.31837222,0.7008336,-0.8481897,0.01137703,-1.0295831,-0.020768806
600,1747638569280,0.08994427,0.8069983,-0.8964852,-0.20425205,-0.7235486,0.10017895
601,1747638569290,-0.1004022,0.8731302,-0.8457505,-0.57809055,-0.23487078,0.54976255
602,1747638569300,-0.1004022,0.8731302,-0.8457505,-0.57809055,-0.23487078,0.54976255
603,1747638569310,-0.11726294,0.9275541,-0.5318908,-0.7780667,-0.22692975,0.9914051
604,1747638569320,-0.124214565,0.94805835,-0.5048007999999999,-0.6407024299999999,-0.48959407499999996,1.09311115
605,1747638569330,-0.13116619,0.9685626,-0.4777108,-0.50333816,-0.7522584,1.1948172
606,1747638569340,-0.29395008,0.9592633,-0.65610534,-0.14881766,-0.7650862,1.2216945
607,1747638569350,-0.392904015,0.960117,-0.708334,-0.124498305,-0.6032116700000001,1.2742274
608,1747638569360,-0.49185795,0.9609707,-0.76056266,-0.10017895,-0.44133714,1.3267603
609,1747638569370,-0.67757004,0.9724653,-0.7854422,-0.12446013,-0.33566058,1.4623684
610,1747638569380,-0.8039951000000001,0.98405135,-0.7775149,-0.14221287500000002,-0.47707169,1.7097615
611,1747638569390,-0.93042016,0.9956374,-0.7695876,-0.15996562,-0.6184828,1.9571546
612,1747638569400,-0.9196878,0.9329202,-0.7986442,-0.12820157,-1.0833377,2.4098687
613,1747638569410,-0.92932255,0.9347496,-0.8353689,-0.134462755,-1.07722915,2.4410219
614,1747638569420,-0.9389573,0.936579,-0.8720936,-0.14072394,-1.0711206,2.4721751
615,1747638569430,-1.1029607,0.9646295,-0.9211513,-0.44042087,-0.7907418,2.6444342
616,1747638569440,-1.0735535,0.8994732000000001,-0.859165975,-0.631081585,-0.7907418,2.7320907
617,1747638569450,-1.0441463,0.8343169,-0.79718065,-0.8217423,-0.7907418,2.8197472
618,1747638569460,-1.0441463,0.8343169,-0.79718065,-1.2796487,-0.83472276,2.8875513
619,1747638569470,-0.9517781,0.8340730000000001,-0.732618955,-1.66440615,-0.86495973,2.6435178500000003
620,1747638569480,-0.8594099,0.8338291,-0.66805726,-2.0491636,-0.8951967,2.3994844
621,1747638569490,-0.87063007,0.8964242,-0.652080715,-2.3367199000000003,-0.8411367,2.2195517000000002
622,1747638569500,-0.88185024,0.9590193,-0.63610417,-2.6242762,-0.7870767,2.039619
623,1747638569510,-0.84084177,1.0219804,-0.47673512,-2.9470327,-0.7534801,1.7775655
624,1747638569520,-0.779832085,1.0588422999999998,-0.28858390700000003,-2.92679835,-0.6682669,1.45503815
625,1747638569530,-0.7188224,1.0957042,-0.100432694,-2.906564,-0.5830537,1.1325108
626,1747638569540,-0.82986546,1.2765379,0.15436877,-1.6024051,-0.18172707,0.12705623
627,1747638569550,-0.81498656,1.2751964,0.139596565,-1.36470915,-0.126139963,0.05100574649999999
628,1747638569560,-0.80010766,1.2738549,0.12482436,-1.1270132,-0.070552856,-0.025044737
629,1747638569570,-0.6221857,1.2576190999999999,-0.15386569,-0.5954997,0.09315421,-0.23639789
630,1747638569580,-0.50076855,1.2007027,-0.313105145,-0.393958295,0.420911955,-0.599890195
631,1747638569590,-0.3793514,1.1437863,-0.4723446,-0.19241689,0.7486697,-0.9633825
632,1747638569600,-0.254649,1.0434755,-0.53140295,-0.24724042,1.1548831,-1.500928
633,1747638569610,-0.2106068,1.0265081,-0.471368975,-0.19024074,1.117316,-1.6417283
634,1747638569620,-0.1665646,1.0095407,-0.411335,-0.13324106,1.0797489,-1.7825286
635,1747638569630,-0.19924943,0.9231636,-0.3884068,0.5577799,0.5452575,-2.2522702
636,1747638569640,-0.253795305,0.9087572749999999,-0.44587964999999996,0.7222887,0.456073815,-2.27426075
637,1747638569650,-0.30834118,0.89435095,-0.5033525,0.8867975,0.36689013,-2.2962513
638,1747638569660,-0.411335,0.8221212,-0.6958943,0.9584193,0.38093963,-2.084898
639,1747638569670,-0.411335,0.8221212,-0.6958943,0.9584193,0.38093963,-2.084898
640,1747638569680,-0.46478322,0.81943804,-0.7610505,0.7933379,0.51654774,-1.8497219
641,1747638569690,-0.4610025,0.81541342,-0.7520256,0.46993244500000003,0.6845307350000001,-1.4648881
642,1747638569700,-0.45722178,0.8113888,-0.7430007,0.14652699,0.85251373,-1.0800543
643,1747638569710,-0.1516552,0.7640385,-0.58972955,-0.23227467,0.96674216,-0.7776849
644,1747638569720,-0.026099086999999993,0.751339585,-0.50833759,-0.20142687999999997,0.84243473,-0.89741095
645,1747638569730,0.099457026,0.73864067,-0.42694563,-0.17057909,0.7181273,-1.017137
646,1747638569740,0.14351447,0.70863893,-0.31212185000000003,0.020081604,0.48844874,-1.2999593
647,1747638569750,0.034971555,0.70315079,-0.33927283500000005,0.322565552,0.40720606000000004,-1.6096589
648,1747638569760,-0.07357136,0.69766265,-0.36642382,0.6250495,0.32596338,-1.9193585
649,1747638569770,-0.6792774,0.8758133,-0.5565264,0.78211355,0.7957049,-1.4031925
650,1747638569780,-0.730774335,0.8817892350000001,-0.5788600349999999,0.73912519,0.89832725,-1.1035719
651,1747638569790,-0.78227127,0.88776517,-0.60119367,0.69613683,1.0009496,-0.8039513
652,1747638569800,-0.61875564,1.0075892,-0.59948623,0.53785104,0.8971056,0.28221142
653,1747638569810,-0.10736908,0.9894174499999999,-0.551053515,0.58427542,0.45603567899999997,0.5396835600000001
654,1747638569820,0.40401748,0.9712457,-0.5026208,0.6306998,0.014965758,0.7971557
655,1747638569830,0.869197,0.84407365,-0.6497635,0.791429,-0.2935121,0.049478628
656,1747638569840,0.792195585,0.7774539,-0.7539769000000001,0.8088763000000001,-0.25441788,-0.28591468600000003
657,1747638569850,0.71519417,0.71083415,-0.8581903,0.8263236,-0.21532366,-0.621308
658,1747638569860,0.55484945,0.70863891,-0.8711179,0.70732295,0.095330355,-1.2507861
659,1747638569870,0.39450473,0.70644367,-0.8840455,0.5883223,0.40598437,-1.8802642
660,1747638569880,-0.31175599,0.7518426,-0.84648234,0.1795891,0.92764795,-1.9657829
661,1747638569890,-0.60631587,0.771234,-0.741537185,0.005421270000000006,1.055620425,-1.32194985
662,1747638569900,-0.90087575,0.7906254,-0.63659203,-0.16874656,1.1835929,-0.6781168
663,1747638569910,-0.28882784,0.8296825,-0.3413004,0.08177718,0.41575792,1.1569448
664,1747638569920,-0.009634705000000021,0.80991005,-0.35813065,0.22692975,0.13625711499999998,1.2439905
665,1747638569930,0.26955843,0.7901376,-0.3749609,0.37208232,-0.14324369,1.3310362
666,1747638569940,0.8508729,0.67324054,-0.7227251,0.65246123,-0.42973104,0.41048935
667,1747638569950,0.84099422,0.65945922,-0.79545802,0.605120565,-0.29900973,0.117588095
668,1747638569960,0.83111554,0.6456779,-0.86819094,0.5577799,-0.16828842,-0.17531316
669,1747638569970,0.049423616,0.70498013,-0.8344999,-0.3226037,0.6949151,-1.1997803
670,1747638569980,0.025382578899999998,0.6992481150000001,-0.81998685,-0.398310585,0.7251520499999999,-1.18939595
671,1747638569990,0.0013415418,0.6935161,-0.8054738,-0.47401747,0.755389,-1.1790116
672,1747638570000,-0.5292077,0.6722648,-0.45039213,-0.6503996,0.6588751,-0.39957047
673,1747638570010,-0.509801085,0.69801327,-0.418667715,-0.53792736,0.566026325,-0.023250375000000045
674,1747638570020,-0.49039447,0.72376174,-0.3869433,-0.42545512,0.47317755,0.35306972
675,1747638570030,0.2634605,0.7806248,-0.38203448,0.078646585,-0.12736166,1.0524899
676,1747638570040,0.2634605,0.7806248,-0.38203448,0.078646585,-0.12736166,1.0524899
677,1747638570050,0.6986078,0.7691607,-0.64342165,0.33718768,-0.34726667,0.83563906
678,1747638570060,0.639915375,0.7651361000000001,-0.705528945,0.35215344,-0.05554892499999997,0.31428091999999996
679,1747638570070,0.58122295,0.7611115,-0.76763624,0.3671192,0.23616882,-0.20707722
680,1747638570080,0.3383734,0.783064,-0.75739175,0.19760908,0.5024982,-0.5101338
681,1747638570090,0.163881512,0.7715999,-0.7115049250000001,0.0910925935,0.529070075,-0.525099575
682,1747638570100,-0.010610376,0.7601358,-0.6656181,-0.015423893,0.55564195,-0.54006535
683,1747638570110,-0.22635466,0.6754358,-0.60119367,0.0038941512,0.42125553,0.029320668
684,1747638570120,-0.14630426000000002,0.6729966000000001,-0.614258435,0.0415757906,0.317106075,0.206160954
685,1747638570130,-0.06625386,0.6705574,-0.6273232,0.07925743,0.21295662,0.38300124
686,1747638570140,0.17757133,0.6664108,-0.7695876,0.09300149,0.095597595,0.53021544
687,1747638570150,0.24736198999999998,0.6994767749999999,-0.82230408,-0.13629530499999998,0.21505641749999999,0.445307655
688,1747638570160,0.31715265,0.73254275,-0.87502056,-0.3655921,0.33451524,0.36039987
689,1747638570170,0.32325056,0.72424954,-0.78986317,-0.3655921,0.33451524,0.36039987
690,1747638570180,0.26309461,0.722664085,-0.663560065,-0.47092505,0.45699012,0.261137195
691,1747638570190,0.20293866,0.72107863,-0.53725696,-0.576258,0.579465,0.16187452
692,1747638570200,0.049423616,0.69156474,-0.4555144,0.13843326,0.52326703,0.16981554
693,1747638570210,0.049423616,0.69156474,-0.4555144,0.13843326,0.52326703,0.16981554
694,1747638570220,-0.019635292,0.68839383,-0.47575948,0.4556157,0.3791071,0.38055784
695,1747638570230,-0.0030337135,0.722191515,-0.560688215,0.7422175499999999,0.05806868500000001,0.6346702900000001
696,1747638570240,0.013567865,0.7559892,-0.64561695,1.0288194,-0.26296973,0.88878274
697,1747638570250,0.35913682,0.6442144,-0.9589889,0.89733464,-0.5360185,1.0427163
698,1747638570260,0.40488642500000005,0.626759115,-0.99168895,0.776463245,-0.42850937499999997,0.96422242
699,1747638570270,0.45063603,0.60930383,-1.024389,0.65559185,-0.32100025,0.88572854
700,1747638570280,0.42526874,0.57588726,-0.996796,0.13033953,0.20257223,0.46607646
701,1747638570290,0.35753612,0.5694082300000001,-0.91015985,-0.022295924999999994,0.35925454,0.38025242000000004
702,1747638570300,0.2898035,0.5629292,-0.8235237,-0.17493138,0.51593685,0.29442838
703,1747638570310,0.3413004,0.5326835,-0.73373187,-0.3736858,0.6319978,0.29503924
704,1747638570320,0.35753610999999996,0.519740675,-0.714813085,-0.3413109,0.57305105,0.27610296
705,1747638570330,0.37377182,0.50679785,-0.6958943,-0.308936,0.5141043,0.25716668
706,1747638570340,0.34178823,0.5014317,-0.6739418,0.087962,0.104760304,0.18753012
707,1747638570350,0.34178823,0.5014317,-0.6739418,0.087962,0.104760304,0.18753012
708,1747638570360,0.29029134,0.51414585,-0.71101713,0.22631891,-0.048562355,0.2547233
709,1747638570370,0.28321773,0.50948095,-0.8227919,0.22570807,-0.12125318,0.5192202
710,1747638570380,0.28321773,0.50948095,-0.8227919,0.22570807,-0.12125318,0.5192202
711,1747638570390,0.47139946,0.46850294,-0.8713618,-0.131943,0.11331217,0.8912262
712,1747638570400,0.55669408,0.46899079,-0.850369725,-0.2216612,0.16466152,0.89611295
713,1747638570410,0.6419887,0.46947864,-0.82937765,-0.3113794,0.21601087,0.9009997
714,1747638570420,0.7371467,0.45557535,-0.7871801,-0.35940725,0.1946312,0.82342213
715,1747638570430,0.801952285,0.48252815000000004,-0.76728563,-0.272170625,0.04737883500000001,0.631616085
716,1747638570440,0.86675787,0.50948095,-0.74739116,-0.184934,-0.09987353,0.43981004
717,1747638570450,0.8400185,0.5841804500000001,-0.8537846,-0.1163664,-0.19699824,0.29809347
718,1747638570460,0.83300593,0.58503415,-0.90063945,-0.187415575,-0.15057385,0.24953110500000003
719,1747638570470,0.82599336,0.58588785,-0.9474943,-0.25846475,-0.10414946,0.20096874
720,1747638570480,0.83062774,0.5841804,-0.936762,-0.8609892,0.26915458,0.067193195
721,1747638570490,0.84575057,0.5580661,-0.865385875,-0.98247145,0.34123455,0.017714569
722,1747638570500,0.8608734,0.5319518,-0.79400975,-1.1039537,0.41331452,-0.031764057
723,1747638570510,0.88310033,0.5182924,-0.69101596,-0.9917869,0.3870481,-0.28831992
724,1747638570520,0.884197915,0.52170725,-0.591315,-0.89397495,0.3546732,-0.33722587000000004
725,1747638570530,0.8852955,0.5251221,-0.49161404,-0.796163,0.3222983,-0.38613182
726,1747638570540,0.8733436,0.53341526,-0.44502598,0.25999185,-0.096208446,-0.7349256
727,1747638570550,0.8733436,0.53341526,-0.44502598,0.25999185,-0.096208446,-0.7349256
728,1747638570560,0.86700183,0.5275613,-0.5423792,0.62382776,-0.2275406,-0.7874585
729,1747638570570,0.878953715,0.50120304,-0.65647122,0.714805815,-0.25747212,-0.809449
730,1747638570580,0.8909056,0.47484478,-0.77056324,0.80578387,-0.28740364,-0.8314395
731,1747638570590,0.9021258,0.41968912,-0.8964852,0.26365694,0.035123717,-0.877253
732,1747638570600,0.877231075,0.42310394500000004,-0.87611818,0.09139801750000001,0.1756567735,-0.89710555
733,1747638570610,0.85233635,0.42651877,-0.85575116,-0.080860905,0.31618983,-0.9169581
734,1747638570620,0.7269021,0.44481254,-0.5855829,-0.53197163,0.68086565,-0.84548897
735,1747638570630,0.7342196249999999,0.459462795,-0.5162801100000001,-0.4774535,0.57488364,-0.826552685
736,1747638570640,0.74153715,0.47411305,-0.44697732,-0.42293537,0.46890163,-0.8076164
737,1747638570650,0.790351,0.49216285,-0.3734974,-0.15439165,0.086434886,-0.8118924
738,1747638570660,0.7542361,0.457633405,-0.43316551999999997,0.14125842499999997,-0.147214197,-0.8522083
739,1747638570670,0.7181212,0.42310396,-0.49283364,0.4369085,-0.38086328,-0.8925242
740,1747638570680,0.6285428,0.45801452,-0.56460613,0.8419002,-0.37903073,-0.94750047
741,1747638570690,0.5632646,0.47801569,-0.5932815650000001,0.816359175,-0.337493115,-0.942002835
742,1747638570700,0.4979864,0.49801686,-0.621957,0.79081815,-0.2959555,-0.9365052
743,1747638570710,0.30690816,0.56488055,-0.63293326,0.4923429,-0.003970507,-0.6860578
744,1747638570720,0.26370442,0.5949127750000001,-0.6176732300000001,0.2571285225,0.2040611615,-0.363492283
745,1747638570730,0.22050068,0.624945,-0.6024132,0.021914145,0.41209283,-0.040926766
746,1747638570740,0.305688575,0.64604375,-0.497849175,-0.018554486,0.14393088,0.13805148
747,1747638570750,0.3752353275,0.657934725,-0.5240168625,-0.019165333,0.004924950000000011,0.17561859000000002
748,1747638570760,0.44478208,0.6698257,-0.55018455,-0.01977618,-0.13408098,0.2131857
749,1747638570770,0.4794487,0.66104466,-0.6414703,-0.26464957,-0.4987568,0.10017895
750,1747638570780,0.44784623,0.66275208,-0.61889278,-0.33539332499999996,-0.37964158000000003,0.010384405
751,1747638570790,0.41624376,0.6644595,-0.59631526,-0.40613708,-0.26052636,-0.07941014
752,1747638570800,0.13509935,0.76623374,-0.44502598,-0.4278985,0.16592139,-0.2223484
753,1747638570810,0.13509935,0.76623374,-0.44502598,-0.4278985,0.16592139,-0.2223484
754,1747638570820,-0.09406037,0.8533425,-0.30980465,0.023823043,0.021685077,0.3671192
755,1747638570830,-0.0680679985,0.8319998,-0.327869725,0.1568350315,-0.1976090915,0.45660833
756,1747638570840,-0.042075627,0.8106571,-0.3459348,0.28984702,-0.41690326,0.54609746
757,1747638570850,-0.022562291,0.79306453,-0.43767798,0.4556157,-0.7510367,0.6022954
758,1747638570860,-0.109381383,0.84254915,-0.6164460275000001,0.43255621,-0.79440685,0.66735062
759,1747638570870,-0.196200475,0.8920337700000001,-0.7952140750000001,0.40949672,-0.837777,0.73240584
760,1747638570880,-0.30029191,0.92790472,-0.81766965,0.25999185,-0.56533915,0.7983774
761,1747638570890,-0.37410719000000003,0.9346810249999999,-0.782042575,0.10731822000000002,-0.35734565,0.9440644499999999
762,1747638570900,-0.44792247,0.94145733,-0.7464155,-0.04535541,-0.14935215,1.0897515
763,1747638570910,-0.70882183,0.9138948,-0.68467414,0.07925743,-0.5085303,1.3389772
764,1747638570920,-0.8058244649999999,0.93389595,-0.7060168200000001,0.17054091500000002,-0.5906893,1.4086138
765,1747638570930,-0.9028271,0.9538971,-0.7273595,0.2618244,-0.6728483,1.4782504
766,1747638570940,-1.1979053,1.0227121,-0.91554123,0.40758783,-0.7559235,2.0805457
767,1747638570950,-1.1060097,1.0224682,-0.9664283650000001,0.337836715,-0.7898255249999999,2.36248995
768,1747638570960,-1.0141141,1.0222243,-1.0173155,0.2680856,-0.82372755,2.6444342
769,1747638570970,-0.8213284,1.0705503,-1.0563421,0.070552856,-0.97643936,2.9749024
770,1747638570980,-0.7000408499999999,1.0808100500000002,-1.06660185,-0.20142687200000003,-1.12640238,2.9981146
771,1747638570990,-0.5787533,1.0910698,-1.0768616,-0.4734066,-1.2763654,3.0213268
772,1747638571000,-0.31882957,1.0978994,-0.94359165,-1.017977,-1.2262759,1.9400508
773,1747638571010,-0.31882957,1.0978994,-0.94359165,-1.017977,-1.2262759,1.9400508
774,1747638571020,-0.40865192,1.1349747,-0.92773706,-1.2429215,-1.0466868,1.4104463
775,1747638571030,-0.551419395,1.1081286499999998,-0.845735315,-1.3765825,-0.891837015,1.0634850500000002
776,1747638571040,-0.69418687,1.0812826,-0.76373357,-1.5102435,-0.73698723,0.7165238
777,1747638571050,-0.9131021,1.1210716,-0.522378,-1.5014626,-1.1120474,0.5595361
778,1747638571060,-0.85928795,1.10985145,-0.48370199,-1.45847425,-1.1975660000000001,0.5320479499999999
779,1747638571070,-0.8054738,1.0986313,-0.44502598,-1.4154859,-1.2830846,0.5045598
780,1747638571080,-0.5609169,1.0822582,-0.31858566,-1.1974133,-1.1590827,0.0030542363
781,1747638571090,-0.5284607100000001,1.0559152,-0.27954374,-1.06814275,-1.0170607,-0.22116488185
782,1747638571100,-0.49600452,1.0295722,-0.24050182,-0.9388722,-0.8750387,-0.445384
783,1747638571110,-0.60558414,1.0329871,-0.18046784,-0.40796962,-0.36620292,-1.0287431
784,1747638571120,-0.63206432,1.01577573,-0.19792313,-0.312333845,-0.241590085,-1.0895224
785,1747638571130,-0.6585445,0.99856436,-0.21537842,-0.21669807,-0.11697725,-1.1503017
786,1747638571140,-0.5648195,0.94267696,-0.28736433,0.0013744063,0.23372543,-1.205278
787,1747638571150,-0.52394823,0.90973298,-0.26588442,0.08269344815000002,0.264573215,-1.2242142500000002
788,1747638571160,-0.48307696,0.876789,-0.24440451,0.16401249,0.295421,-1.2431505
789,1747638571170,-0.31029248,0.83065826,-0.27638808,0.7054522,-0.033902023,-1.4245721
790,1747638571180,-0.31029248,0.83065826,-0.27638808,0.7054522,-0.033902023,-1.4245721
791,1747638571190,-0.26269826,0.7364454,-0.53725696,0.9590302,0.05467083,-1.7232765
792,1747638571200,-0.287714955,0.73473798,-0.57349381,0.905771965,0.168632025,-1.7547351
793,1747638571210,-0.31273165,0.73303056,-0.60973066,0.85251373,0.28259322,-1.7861937
794,1747638571220,-0.43889758,0.7467204,-0.68467414,0.6506287,0.5055525,-1.7580948
795,1747638571230,-0.44891338999999997,0.76330672,-0.69077202,0.38582640999999995,0.65765345,-1.63226025
796,1747638571240,-0.4589292,0.77989304,-0.6968699,0.12102412,0.8097544,-1.5064257
797,1747638571250,-0.25099024,0.72937185,-0.5467697,-0.43354884,0.8977164,-1.304846
798,1747638571260,-0.22731509,0.72290805,-0.49821505,-0.43446511,0.8241092999999999,-1.35676805
799,1747638571270,-0.20363994,0.71644425,-0.4496604,-0.43538138,0.7505022,-1.4086901
800,1747638571280,-0.29224268,0.81553537,-0.37715617,-0.098957255,0.5342623,-1.5381898
801,1747638571290,-0.32043027999999996,0.825901835,-0.39607495000000004,0.03222219750000002,0.6222243000000001,-1.4178529
802,1747638571300,-0.34861788,0.8362683,-0.41499373,0.16340165,0.7101863,-1.297516
803,1747638571310,-0.42743346,0.8357805,-0.52652466,0.18768282,0.9117659,-1.1032665
804,1747638571320,-0.42743346,0.8357805,-0.52652466,0.18768282,0.9117659,-1.1032665
805,1747638571330,-0.35959417,0.8958144,-0.50798696,0.16775393,1.0718079,-0.89680016
806,1747638571340,-0.264542885,0.89313135,-0.479921295,0.214178315,0.9749886000000001,-0.6622348
807,1747638571350,-0.1694916,0.8904483,-0.45185563,0.2606027,0.8781693,-0.42766944
808,1747638571360,-0.041099958,0.876789,-0.46673456,0.42759308,0.6087856,-0.43499961
809,1747638571370,0.0012348275000000006,0.8765450850000001,-0.52798813,0.558123515,0.478064315,-0.5156314550000001
810,1747638571380,0.043569613,0.87630117,-0.5892417,0.68865395,0.34734303,-0.5962633
811,1747638571390,-0.031831127,0.8272434,-0.83937824,0.518533,0.64238226,-0.7960103
812,1747638571400,-0.0745470335,0.8188282499999999,-0.8545163200000001,0.39857786,0.7373689999999999,-0.78715303
813,1747638571410,-0.11726294,0.8104131,-0.8696544,0.27862272,0.83235574,-0.77829576
814,1747638571420,-0.22976951,0.83041435,-0.7930341,-0.11575556,0.9636879,-0.5644992
815,1747638571430,-0.22011955,0.84433284,-0.73176528,-0.184934005,0.93558893,-0.42610413
816,1747638571440,-0.21046959,0.85825133,-0.67049646,-0.25411245,0.90748996,-0.28770906
817,1747638571450,-0.055277612,0.89288753,-0.56826484,-0.07650862,0.43163994,-0.08124269
818,1747638571460,0.11482377399999999,0.887277415,-0.57485059,0.005115845000000008,0.3470376,-0.150573855
819,1747638571470,0.28492516,0.8816673,-0.58143634,0.08674031,0.26243526,-0.21990502
820,1747638571480,0.2663875,0.8291947,-0.7342197,0.16279079,0.5525877,-0.7495859
821,1747638571490,0.2663875,0.8291947,-0.7342197,0.16279079,0.5525877,-0.7495859
822,1747638571500,0.0918956,0.79428416,-0.7586113,0.11293039,0.7572215,-0.869312
823,1747638571510,-0.24220926,0.75794053,-0.6815032,0.061161082,0.6185592,-0.78318256
824,1747638571520,-0.24220926,0.75794053,-0.6815032,0.061161082,0.6185592,-0.78318256
825,1747638571530,-0.25416118,0.7364454,-0.6443974,-0.007941014,0.35406235,-0.05131117
826,1747638571540,-0.18789968975,0.728213215,-0.64683655,-0.0051540235,0.31344100500000005,-0.022143212500000002
827,1747638571550,-0.12163819949999999,0.71998103,-0.6492757,-0.002367033,0.27281966,0.007024744999999999
828,1747638571560,0.24394716,0.63470167,-0.75373304,-0.14194563,0.24838577,-0.44049722
829,1747638571570,0.180727007,0.646531635,-0.74519592,-0.184323165,0.298169815,-0.5202128100000001
830,1747638571580,0.117506854,0.6583616,-0.7366588,-0.2267007,0.34795386,-0.5999284
831,1747638571590,-0.058936365,0.6861986,-0.6893085,-0.30023143,0.40598437,-0.6561263
832,1747638571600,-0.1771749725,0.6727679,-0.63561635,-0.283089535,0.38582640999999995,-0.5214344900000001
833,1747638571610,-0.29541358,0.6593372,-0.5819242,-0.26594764,0.36566845,-0.38674268
834,1747638571620,-0.18193135,0.63592124,-0.4921019,0.03749075,0.12865971,0.16126367
835,1747638571630,-0.083328034,0.6333601200000001,-0.52272868,0.11942064000000001,0.06478799045,0.17989451
836,1747638571640,0.015275282,0.630799,-0.55335546,0.20135053,0.0009162709,0.19852535
837,1747638571650,0.13851418,0.6320186,-0.7315366,0.211964,-0.03268033,-0.017103724
838,1747638571660,0.094090855,0.6460438,-0.7390980300000001,0.113197633,0.010078980000000001,-0.077577602
839,1747638571670,0.04966753,0.660069,-0.74665946,0.014431266,0.05283829,-0.13805148
840,1747638571680,-0.15189911,0.6564103,-0.6817471,-0.190508,0.21478917,0.076966755
841,1747638571690,-0.17033006,0.65323935,-0.66685293,-0.2060846,0.23464171,0.1600419825
842,1747638571700,-0.18876101,0.6500684,-0.65195876,-0.2216612,0.25449425,0.24311721
843,1747638571710,0.0831146,0.61125517,-0.6448852,-0.24976017,0.2306712,0.6187883
844,1747638571720,0.15217351499999998,0.601498515,-0.6542760000000001,-0.261595335,0.20012882999999998,0.5867188
845,1747638571730,0.22123243,0.59174186,-0.6636668,-0.2734305,0.16958646,0.5546493
846,1747638571740,0.231233,0.61125517,-0.63732374,-0.27839363,0.10109522,0.2779355
847,1747638571750,0.231233,0.61125517,-0.63732374,-0.27839363,0.10109522,0.2779355
848,1747638571760,0.0594242,0.64250696,-0.5663135,-0.031611346,-0.12858334,0.29809347
849,1747638571770,0.035520367,0.6564103,-0.59314436,0.06306998,-0.1951657,0.41904122
850,1747638571780,0.035520367,0.6564103,-0.59314436,0.06306998,-0.1951657,0.41904122
851,1747638571790,0.05430195,0.6439705,-0.62049353,0.109188944,-0.17684028,0.56503373
852,1747638571800,0.105189065,0.6439705,-0.6289086349999999,0.118847967,-0.1127013175,0.6545228350000001
853,1747638571810,0.15607618,0.6439705,-0.63732374,0.12850699,-0.048562355,0.74401194
854,1747638571820,0.36694214,0.6534832,-0.68003964,0.09361234,0.022906773,0.7708892
855,1747638571830,0.35009664500000004,0.6567761000000001,-0.68101532,0.0587176915,0.0782266315,0.64597095
856,1747638571840,0.33325115,0.660069,-0.681991,0.023823043,0.13354649,0.5210527
857,1747638571850,0.0787241,0.6866864,-0.58094853,0.12789614,0.19157697,0.49295375
858,1747638571860,0.039423029168,0.69058907,-0.550443715,0.22040131999999998,0.13167576,0.551289675
859,1747638571870,0.000121958336,0.69449174,-0.5199389,0.3129065,0.07177455,0.6096256
860,1747638571880,0.048204035,0.62567675,-0.54018396,0.6278746500000001,-0.0531437125,0.87839835
861,1747638571890,0.12240044249999998,0.616026775,-0.54983388,0.7566870750000001,-0.08628217625000001,0.970025425
862,1747638571900,0.19659685,0.6063768,-0.5594838,0.8854995,-0.11942064,1.0616525
863,1747638571910,0.54606843,0.55268466,-0.60582805,1.4749671,-0.5995466,0.78799295
864,1747638571920,0.547897815,0.56709103,-0.639519025,1.5883555999999999,-0.7586723,0.64322215
865,1747638571930,0.5497272,0.5814974,-0.67321,1.7017441,-0.917798,0.49845135
866,1747638571940,0.36328337,0.62787205,-0.91676074,1.826357,-1.2140589,0.19608197
867,1747638571950,0.240029235,0.646653625,-1.06123562,1.3737191499999999,-0.86190547,0.42912018500000004
868,1747638571960,0.1167751,0.6654352,-1.2057105,0.9210813,-0.50975204,0.6621584
869,1747638571970,0.118116645,0.6650693000000001,-1.2026615999999999,0.9210813,-0.50975204,0.6621584
870,1747638571980,0.11945819,0.6647034,-1.1996127,0.9210813,-0.50975204,0.6621584
871,1747638571990,0.34203213,0.6149139,-1.0131383,0.10109522,-0.22021043,1.2216945
872,1747638572000,0.535808715,0.6079013124999999,-0.8723984250000001,-0.09987354,-0.090710815,1.38265275
873,1747638572010,0.7295853000000001,0.6008887249999999,-0.73165855,-0.3008423,0.0387888,1.543611
874,1747638572020,0.8508729,0.6024742,-0.6771127,-0.104531236,-0.073607095,1.3792931
875,1747638572030,0.95325685,0.5918638,-0.75751373,0.08643488200000002,-0.23792501249999998,1.01034135
876,1747638572040,1.0556408,0.5812534,-0.83791476,0.277401,-0.40224293,0.6413896
877,1747638572050,0.7393419,0.6276281,-1.1398226,-0.41545248,-0.28801447,-0.167983
878,1747638572060,0.670648865,0.62346625,-1.10687865,-0.64787987,-0.19883077500000002,-0.21074231
879,1747638572070,0.60195583,0.6193044,-1.0739347,-0.88030726,-0.10964708,-0.25350162
880,1747638572080,0.46700895,0.5705211,-0.825475,-1.3058387,0.15553698,-0.22173755
881,1747638572090,0.45333436,0.5634322700000001,-0.744936775,-1.2768616499999998,0.17936002499999998,-0.192111465
882,1747638572100,0.43965977,0.55634344,-0.66439855,-1.2478846,0.20318307,-0.16248538
883,1747638572110,0.5338726,0.49679726,-0.5070113,-0.7456918,0.22211933,-0.16492876
884,1747638572120,0.5726706,0.48655278,-0.5012640100000001,-0.3597126845,0.217232555,-0.34119638
885,1747638572130,0.6114686,0.4763083,-0.49551672,0.026266431,0.21234578,-0.517464
886,1747638572140,0.5849884000000001,0.48691868000000005,-0.56885943,0.1493521505,0.23800136,-0.58679515
887,1747638572150,0.5585082,0.49752906,-0.64220214,0.27243787,0.26365694,-0.6561263
888,1747638572160,0.49774244,0.53585446,-0.6973577,0.44996536,0.25938103,-0.6988856
889,1747638572170,0.49505937,0.534390955,-0.762026125,0.51135553,0.19554748500000002,-0.65795885
890,1747638572180,0.4923763,0.53292745,-0.82669455,0.5727457,0.13171394,-0.6170321
891,1747638572190,0.47530213,0.5043587,-0.9313958,0.388957,0.2410556,-0.5681643
892,1747638572200,0.44467532499999995,0.5046026,-0.94322575,0.27709559,0.39804333000000003,-0.531513475
893,1747638572210,0.41404852,0.5048465,-0.9550557,0.16523418,0.55503106,-0.49486265
894,1747638572220,0.38352847,0.5217073,-0.85599506,-0.10582929,0.93558896,-0.26510772
895,1747638572230,0.465164335,0.51132557,-0.78765268,-0.14755779,0.87725303,-0.171648085
896,1747638572240,0.5468002,0.50094384,-0.7193103,-0.18928629,0.8189171,-0.07818845
897,1747638572250,0.69616866,0.45188612,-0.69857734,-0.24097924,0.22822781,-0.038483378
898,1747638572260,0.70031523,0.44054399499999997,-0.6863815200000001,-0.28274592,0.122207631,-0.043064732499999994
899,1747638572270,0.7044618,0.42920187,-0.6741857,-0.3245126,0.016187452,-0.047646087
900,1747638572280,0.5670453,0.39209604,-0.5665574,-0.71392775,-0.35093176,-0.14293826
901,1747638572290,0.482604385,0.395891995,-0.52554893,-0.772798155,-0.27488127,-0.16645588
902,1747638572300,0.39816347,0.39968795,-0.48454046,-0.83166856,-0.19883078,-0.1899735
903,1747638572310,0.13168451,0.45850238,-0.28346166,-0.57809055,0.33573693,0.12644538
904,1747638572320,0.13168451,0.45850238,-0.28346166,-0.57809055,0.33573693,0.12644538
905,1747638572330,0.32739717,0.45411184,-0.25123417,0.4524851,0.85190284,0.85518616
906,1747638572340,0.460529935,0.43848595,-0.30236519500000003,0.57242115,0.7963157425,0.88359056
907,1747638572350,0.5936627,0.42286006,-0.35349622,0.6923572,0.740728645,0.91199496
908,1747638572360,0.8496532,0.35843554,-0.730317,1.3858597499999998,-0.015538419999999997,0.65818791
909,1747638572370,0.7902290000000001,0.40284361999999996,-0.901516,1.3874250249999998,-0.33472521000000005,0.319931246
910,1747638572380,0.7308048,0.4472517,-1.072715,1.3889903,-0.653912,-0.018325418
911,1747638572390,0.36999109500000005,0.712785475,-1.36457655,0.49455723,-0.37078429,-0.1041494615
912,1747638572400,0.32562875750000003,0.7413389875,-1.323331825,-0.022143199999999974,-0.145228937,0.024281174249999996
913,1747638572410,0.28126642,0.7698925,-1.2820871,-0.53884363,0.080326416,0.15271181
914,1747638572420,0.30227375,0.6781188,-0.9741117,-1.3943353,0.6484907,0.49356458
915,1747638572430,0.311664535,0.694598425,-0.8990616,-1.45477095,0.63108157,0.5732801399999999
916,1747638572440,0.32105532,0.71107805,-0.8240115,-1.5152066,0.61367244,0.6529957
917,1747638572450,0.4870101,0.7601358,-0.6480561,-1.4354147,0.16164546,0.77272177
918,1747638572460,0.44784624,0.788201465,-0.58875385,-1.13262535,-0.08792383000000001,0.527772025
919,1747638572470,0.40868238,0.81626713,-0.5294516,-0.829836,-0.33749312,0.28282228
920,1747638572480,0.26321658,0.870691,-0.48917487,-0.4497363,-0.3826958,0.15332267
921,1747638572490,0.26321658,0.870691,-0.48917487,-0.4497363,-0.3826958,0.15332267
922,1747638572500,0.11701902,0.9038637,-0.4896627,-0.053449135,-0.434007,0.13438639
923,1747638572510,-0.001097625,0.8889848,-0.63829947,0.6200863,-0.62398046,0.39766157
924,1747638572520,-0.001097625,0.8889848,-0.63829947,0.6200863,-0.62398046,0.39766157
925,1747638572530,-0.014269125,0.9385304,-0.7451959,0.7340857,-0.813954,0.6529957
926,1747638572540,0.006600994499999999,0.9364570999999999,-0.7575137000000001,0.72133425,-0.9153545999999999,0.662158425
927,1747638572550,0.027471114,0.9343838,-0.7698315,0.7085828,-1.0167552,0.67132115
928,1747638572560,-0.15092343,1.0590862,-0.9001745,0.29297763,-1.2690352,0.7262974
929,1747638572570,-0.19498088,1.0666476,-0.8771091,0.15339902449999998,-1.2045908,0.77883027
930,1747638572580,-0.23903833,1.074209,-0.8540437,0.013820419,-1.1401464,0.83136314
931,1747638572590,-0.2839495,1.0400606,-0.80669343,-0.35688752,-0.9813261,0.95292175
932,1747638572600,-0.46173425,1.0576226499999999,-0.719813345,-0.43977186,-0.9297095200000001,0.984685775
933,1747638572610,-0.639519,1.0751847,-0.63293326,-0.5226562,-0.87809294,1.0164498
934,1747638572620,-0.6976017,1.0651841,-0.5477454,-0.76936215,-0.97888273,1.3646327
935,1747638572630,-0.7465374499999999,1.0753219,-0.5328664750000001,-0.73759809,-1.126096915,1.4354909999999999
936,1747638572640,-0.7954732,1.0854597,-0.51798755,-0.70583403,-1.2733111,1.5063493
937,1747638572650,-0.87989885,1.0495734,-0.5860708,-0.6323033,-1.5762913,1.7580184
938,1747638572660,-0.897963945,1.0396948,-0.58472925,-0.7104917500000001,-1.5304777999999999,1.92936105
939,1747638572670,-0.91602904,1.0298162,-0.5833877,-0.7886802,-1.4846643,2.1007037
940,1747638572680,-0.9331032,0.9912469,-0.5702162,-0.92016506,-1.385707,2.1526258
941,1747638572690,-0.9331032,0.9912469,-0.5702162,-0.92016506,-1.385707,2.1526258
942,1747638572700,-0.8955096,1.0671355,-0.37886357,-1.0341644,-1.0033166,2.2668543
943,1747638572710,-0.86659023,1.0728675,-0.353862105,-0.9852584500000001,-0.9630007,2.25280475
944,1747638572720,-0.83767086,1.0785995,-0.32886064,-0.9363525,-0.9226848,2.2387552
945,1747638572730,-0.7349209,1.1147296,-0.27736375,-0.63665557,-0.75409096,2.0860434
946,1747638572740,-0.6641545799999999,1.12998965,-0.2772418,-0.330086595,-0.72079978,1.8618624499999998
947,1747638572750,-0.59338826,1.1452497,-0.27711985,-0.02351762,-0.6875086,1.6376815
948,1747638572760,-0.43597054,1.0798191,-0.5450623,0.282975,-0.4407263,0.71408045
949,1747638572770,-0.413027135,1.0593301,-0.5644689,0.21879785,-0.307867025,0.496007975
950,1747638572780,-0.39008373,1.0388411,-0.5838755,0.1546207,-0.17500775,0.2779355
951,1747638572790,-0.30541417,0.9317007,-0.5633865,-0.22914408,0.303362,-0.4582118
952,1747638572800,-0.3123658,0.89570775,-0.507986935,-0.35593306,0.46065517500000003,-0.74256115
953,1747638572810,-0.31931743,0.8597148,-0.45258737,-0.48272204,0.61794835,-1.0269105
954,1747638572820,-0.41401805,0.816251905,-0.37522005999999997,-0.5207473,0.6820873,-1.4221288
955,1747638572830,-0.42792130500000003,0.7881938525000001,-0.32397469999999995,-0.428242115,0.599622935,-1.595304
956,1747638572840,-0.44182456,0.7601358,-0.27272934,-0.33573693,0.51715857,-1.7684792
957,1747638572850,-0.44426373,0.77257556,-0.35666716,0.0007635591,0.35406235,-1.9798323
958,1747638572860,-0.43865365,0.7620871300000001,-0.38387910999999997,0.025693764549999998,0.380939625,-2.0079313
959,1747638572870,-0.43304357,0.7515987,-0.41109106,0.05062397,0.4078169,-2.0360303
960,1747638572880,-0.417189,0.8272434,-0.46161228,0.015729317,0.6368846,-2.02137
961,1747638572890,-0.31736609,0.8544553500000001,-0.45892921,-0.0372616815,0.68147645,-1.99357645
962,1747638572900,-0.21754318,0.8816673,-0.45624614,-0.09025268,0.7260683,-1.9657829
963,1747638572910,-0.034758125,0.83212173,-0.34691048,0.04497363,0.37238777,-2.2186737
964,1747638572920,-0.0144977968,0.808202615,-0.32335729,0.129423265,0.27495763,-2.3194635000000003
965,1747638572930,0.0057625314,0.7842835,-0.2998041,0.2138729,0.17752749,-2.4202533
966,1747638572940,-0.30395067,0.6466536,-0.40035874,0.7945596,-0.08093726,-2.9150395
967,1747638572950,-0.30395067,0.6466536,-0.40035874,0.7945596,-0.08093726,-2.9150395
968,1747638572960,-0.7698315,0.81553537,-0.58680254,0.9590302,0.04123219,-2.552807
969,1747638572970,-0.84683295,0.889350655,-0.64805612,0.87431332,0.170769985,-2.1551455
970,1747638572980,-0.9238344,0.96316594,-0.7093097,0.78959644,0.30030778,-1.757484
971,1747638572990,-0.3588624,0.9912469,-0.7849543,0.09796463,0.55197686,-0.46065518
972,1747638573000,-0.184736388,0.9631812,-0.754937315,-0.016989185000000004,0.4478274,-0.41026028999999997
973,1747638573010,-0.010610376,0.9351155,-0.72492033,-0.131943,0.34367794,-0.3598654
974,1747638573020,0.31495738,0.8433418,-0.7010165,-0.30614902,0.14912309,-0.6625402
975,1747638573030,0.132904085,0.842122275,-0.6788048200000001,-0.38168409999999997,0.23845950500000002,-0.9586484000000001
976,1747638573040,-0.04914921,0.84090275,-0.65659314,-0.45721918,0.32779592,-1.2547566
977,1747638573050,-0.27684543,0.8977658,-0.6148834,-0.5438068,0.40842775,-1.1912285
978,1747638573060,-0.3461635,0.8975219,-0.58168025,-0.5413252150000001,0.374525725,-1.02629975
979,1747638573070,-0.41548157,0.897278,-0.5484771,-0.53884363,0.3406237,-0.861371
980,1747638573080,-0.4867357,0.8950827,-0.37130213,-0.19241689,0.26365694,0.004886778
981,1747638573090,-0.4867357,0.8950827,-0.37130213,-0.19241689,0.26365694,0.004886778
982,1747638573100,0.10457927,0.81431586,-0.48112562,0.42629504,0.33695862,0.74523365
983,1747638573110,0.339593,0.77159995,-0.6102185,0.5490753,0.3082488,0.6181774
984,1747638573120,0.339593,0.77159995,-0.6102185,0.5490753,0.3082488,0.6181774
985,1747638573130,0.46408197,0.69839436,-1.0197546,0.05619795,0.4206447,-0.31954947
986,1747638573140,0.36401516,0.70437035,-1.0304869,-0.185239425,0.50646875,-0.479286035
987,1747638573150,0.26394835,0.71034634,-1.0412192,-0.4266768,0.5922928,-0.6390226
988,1747638573160,-0.15336262,0.7657459,-0.7166272,-1.0142355,0.9056574,-0.5950416
989,1747638573170,-0.24499906,0.80734895,-0.61303882,-0.97498858,0.8848886,-0.39159128
990,1747638573180,-0.3366355,0.848952,-0.50945044,-0.93574166,0.8641198,-0.18814096
991,1747638573190,0.05747287,0.86215395,-0.46990547,-0.28648737,0.367501,0.635892
992,1747638573200,0.18597122500000002,0.861910025,-0.485409435,-0.12636902900000002,0.31924406000000005,0.649636075
993,1747638573210,0.31446958,0.8616661,-0.5009134,0.033749312,0.27098712,0.66338015
994,1747638573220,0.5453367,0.8604465,-0.5526237,0.47615543,0.2813715,0.38849884
995,1747638573230,0.5407022699999999,0.85886105,-0.5362813,0.702016215,0.26121355,0.19394399637
996,1747638573240,0.53606784,0.8572756,-0.5199389,0.927877,0.2410556,-0.00061084726
997,1747638573250,0.34582809,0.84884525,-0.531890815,1.2353622499999999,0.187911885,-0.05375455863
998,1747638573260,0.15558834,0.8404149,-0.54384273,1.5428475,0.13476817,-0.10689827
999,1747638573270,0.0045124586,0.79184496,-0.7158954,1.6993008,0.21417832,0.46180052
1000,1747638573280,0.11140893930000001,0.7785515300000001,-0.7492052849999999,1.63603985,0.23006035,0.61603946
1001,1747638573290,0.21830542,0.7652581,-0.78251517,1.5727789,0.24594238,0.7702784
