id,timestamp,acc_x,acc_y,acc_z,gyro_x,gyro_y,gyro_z
0,1747638706740,0.23492225,-0.080614455,0.9414269,-0.15561333,-0.1408003,0.0659715
1,1747638706750,0.25736257,-0.05668014,0.8974914,-0.11140327,-0.30572906,0.06536066
2,1747638706760,0.27554962,-0.052045722,0.87113315,-0.12636903,-0.31702973,0.06047388
3,1747638706770,0.29373667,-0.047411304,0.8447749,-0.14133479,-0.3283304,0.0555871
4,1747638706780,0.34227607,-0.040093806,0.8013272,-0.32077116,-0.17439689,-0.025655584
5,1747638706790,0.319713775,-0.062793298,0.853433925,-0.408313215,-0.057419639999999994,-0.05741964200000001
6,1747638706800,0.29715148,-0.08549279,0.90554065,-0.49585527,0.05955761,-0.0891837
7,1747638706810,0.26589966,-0.09476163,0.9348411,-0.49768782,0.11331217,-0.06963659
8,1747638706820,0.26858273,-0.10085954750000001,0.96327265,-0.4852418,0.10201149500000001,-0.048867782
9,1747638706830,0.2712658,-0.106957465,0.9917042,-0.47279578,0.09071082,-0.028098974
10,1747638706840,0.271631685,-0.1029328375,0.99267985,-0.450996175,0.028404398499999997,-0.040621342
11,1747638706850,0.27199757,-0.09890821,0.9936555,-0.42919657,-0.033902023,-0.05314371
12,1747638706860,0.26858276,-0.100859545,0.97850215,-0.44164258,-0.17622943,-0.076355904
13,1747638706870,0.2705341,-0.10671354450000001,0.999250375,-0.44068813,-0.21043688,-0.083380652
14,1747638706880,0.27248544,-0.112567544,1.0199986,-0.43973368,-0.24464433,-0.0904054
15,1747638706890,0.29520014,-0.14991727,1.0856426,-0.34879377,-0.2055501,-0.061084725
16,1747638706900,0.286525845,-0.155893235,1.09809765,-0.327910435,-0.11270131800000001,-0.056808793999999996
17,1747638706910,0.27785155,-0.1618692,1.1105527,-0.3070271,-0.019852536,-0.052532863
18,1747638706920,0.29568797,-0.16089354,1.2172052,-0.22540264,0.20929155,-0.047646087
19,1747638706930,0.27164693500000003,-0.14796596,1.24403605,-0.11293038772,0.223951875,-0.051311171
20,1747638706940,0.2476059,-0.13503838,1.2708669,-0.00045813544,0.2386122,-0.054976255
21,1747638706950,0.22952558,-0.12869653,1.2725742,0.08551861,0.18485765,-0.03787253
22,1747638706960,0.225744875,-0.12613541,1.26159795,0.12850698500000002,0.1686702,-0.028709821
23,1747638706970,0.22196417,-0.12357429,1.2506217,0.17149536,0.15248275,-0.019547112
24,1747638706980,0.24175191,-0.13894103,1.2230592,0.29794076,0.23433629,0.023823043
25,1747638706990,0.25089878,-0.14601461500000001,1.2070674000000001,0.35715475500000005,0.298169825,0.0219905015
26,1747638707000,0.26004565,-0.1530882,1.1910756,0.41636875,0.36200336,0.02015796
27,1747638707010,0.2432154,-0.12991612,1.0844231,0.5173113,0.51227176,-0.009773556
28,1747638707020,0.23539482,-0.13345290999999998,1.06612935,0.5110501000000001,0.533956855,-0.009162709
29,1747638707030,0.22757424,-0.1369897,1.0478356,0.5047889,0.55564195,-0.008551862
30,1747638707040,0.24028842,-0.13381879,1.0978384,0.52288526,0.48356196,-0.05375456
31,1747638707050,0.22234529,-0.13564816,1.0955212,0.546250165,0.51074468,-0.051005747000000004
32,1747638707060,0.20440216,-0.13747753,1.093204,0.56961507,0.5379274,-0.048256934
33,1747638707070,0.19830425,-0.12015945,1.1000338,0.6132143,0.69980186,-0.011606098
34,1747638707080,0.17145817,-0.104899415,1.084667,0.62504945,0.73248218,0.0174091475
35,1747638707090,0.14461209,-0.08963938,1.0693002,0.6368846,0.7651625,0.046424393
36,1747638707100,0.15729576,-0.08037054,1.1017411,0.6406261,0.5812975,0.048256934
37,1747638707110,0.15839339000000002,-0.075980042,1.1416520000000001,0.65215583,0.5217399,0.038788801
38,1747638707120,0.15949102,-0.071589544,1.1815629,0.66368556,0.4621823,0.029320668
39,1747638707130,0.18415709,-0.08037054,1.270379,0.7191963,0.4322508,0.058641337
40,1747638707140,0.213686245,-0.08049249750000001,1.32809575,0.7437829,0.48447825,0.0497840515
41,1747638707150,0.2432154,-0.080614455,1.3858125,0.7683695,0.5367057,0.040926766
42,1747638707160,0.29934675,-0.074272625,1.2328159,1.0792907,0.9728506,-0.039094225
43,1747638707170,0.29934675,-0.074272625,1.2328159,1.0792907,0.9728506,-0.039094225
44,1747638707180,0.17363818,0.027501604,0.9980461,0.8799255,1.2495644,-0.12949961
45,1747638707190,0.12631835,0.010427438,1.1908317,0.80082077,1.1897014,-0.06658235
46,1747638707200,0.12631835,0.010427438,1.1908317,0.80082077,1.1897014,-0.06658235
47,1747638707210,0.121440016,-0.010823802,1.3572743,1.065623,0.8641198,0.076355904
48,1747638707220,0.162921088,-0.0113116355,1.3497129,1.2061179,0.74286662,0.097124714
49,1747638707230,0.20440216,-0.011799469,1.3421515,1.3466128,0.62161344,0.117893524
50,1747638707240,0.30983517,-0.006921136,1.2364745,1.539106,0.69674766,0.092848785
51,1747638707250,0.28140361999999997,0.0346971445,1.064543775,1.57060285,0.79662118,0.0015271174999999942
52,1747638707260,0.25297207,0.076315425,0.89261305,1.6020997,0.8964947,-0.08979455
53,1747638707270,0.16168626,0.07168101,0.9655746,1.1609153,1.4407597,-0.13133216
54,1747638707280,0.105554938,0.06802226,0.9924206499999999,1.1708797,1.53360845,-0.13499724000000002
55,1747638707290,0.049423616,0.06436351,1.0192667,1.1808441,1.6264572,-0.13866232
56,1747638707300,-0.094304286,0.115128666,0.9043211,1.2892694,1.4144932,0.009162709
57,1747638707310,-0.059530914000000004,0.11951916800000001,0.91663885,1.28461175,1.03393535,0.05925218449999999
58,1747638707320,-0.024757542,0.12390967,0.9289566,1.2799541,0.6533775,0.10934166
59,1747638707330,-0.022806209,0.115128666,0.9504518,1.306755,0.36872268,0.10934166
60,1747638707340,0.005381412499999998,0.10907648550000001,0.9848059075,1.32154895,0.33986014750000004,0.1430909725
61,1747638707350,0.033569034,0.10302430500000001,1.019160015,1.3363429,0.310997615,0.17684028499999999
62,1747638707360,0.08835881699999999,0.1241993225,0.9818789274999999,1.35674905,0.4922665425,0.14156385249999998
63,1747638707370,0.1431486,0.14537434,0.94459784,1.3771552,0.67353547,0.10628742
64,1747638707380,0.16095452,0.19906649,0.8318473,1.26621,0.88000184,0.032374904
65,1747638707390,0.105554942,0.231034815,0.82416395,1.08956062,1.0165261700000001,-0.06474980799999999
66,1747638707400,0.050155364,0.26300314,0.8164806,0.91291124,1.1530505,-0.16187452
67,1747638707410,-0.021830542,0.20809141,1.0104858,0.7547018,0.82197136,-0.28282228
68,1747638707420,-0.083449991,0.18039162,1.14739925,0.788031135,0.734009355,-0.30637808
69,1747638707430,-0.14506944,0.15269183,1.2843127,0.82136047,0.64604735,-0.32993388
70,1747638707440,-0.1299466,0.13634941,1.2723303,1.1609153,0.3613925,-0.24128467
71,1747638707450,-0.0864989475,0.16770795,1.2107109,1.17339945,0.477758915,-0.3091269
72,1747638707460,-0.043051295,0.19906649,1.1490915,1.1858836,0.59412533,-0.37696913
73,1747638707470,-0.028660208,0.3418492,0.8508729,1.0219475,0.7602758,-0.46615282
74,1747638707480,-0.091743154,0.358435535,0.83965267,0.901076075,0.90229775,-0.47928603000000003
75,1747638707490,-0.1548261,0.37502187,0.82843244,0.78020465,1.0443197,-0.49241924
76,1747638707500,-0.43840972,0.33620864,1.0095102,0.71171343,1.1597699,-0.18019994
77,1747638707510,-0.38520540999999997,0.29777652,1.06795865,1.004557415,0.6403779187499999,0.07177455250000003
78,1747638707520,-0.3320011,0.2593444,1.1264071,1.2974014,0.1209859375,0.323749045
79,1747638707530,-0.237559605,0.281190185,1.0340389700000001,1.50549035,-0.08198715124999997,0.4404208725
80,1747638707540,-0.14311811,0.30303597,0.94167084,1.7135793,-0.28496024,0.5570927
81,1747638707550,0.08750511,0.34526405,0.7315366,1.5902644,-0.0070247436,0.42209545
82,1747638707560,0.09335911,0.37150032499999996,0.7059101,1.4497314000000001,0.1887899782,0.299009725
83,1747638707570,0.09921311,0.3977366,0.6802836,1.3091984,0.3846047,0.175924
84,1747638707580,-0.07625445,0.3545329,0.86599565,0.98300597,0.81036525,0.0073301675
85,1747638707590,-0.12005273500000001,0.34965455,0.9143216750000001,0.957006765,0.841518455,-0.01252236825
86,1747638707600,-0.16385102,0.3447762,0.9626477,0.93100756,0.87267166,-0.032374904
87,1747638707610,-0.20632301,0.32986683,1.030243,1.1609153,0.3858264,0.17286977
88,1747638707620,-0.15653352,0.345126855,1.0058361,1.2250923500000002,0.2455987775,0.18447587
89,1747638707630,-0.10674403,0.36038688,0.9814292,1.2892694,0.105371155,0.19608197
90,1747638707640,0.0330812,0.4533801,0.8355061,1.3335559,0.021685077,0.067804046
91,1747638707650,0.0286906995,0.47033232,0.80183033,1.2089430499999998,0.29019061349999997,-0.070858282
92,1747638707660,0.024300199,0.48728454,0.76815456,1.0843302,0.55869615,-0.20952061
93,1747638707670,-0.19705418,0.46557596,0.7888875,1.0593618,0.659486,-0.19852535
94,1747638707680,-0.23280320999999998,0.46813707000000004,0.7853507,1.0649739999999999,0.6454365,-0.17256434999999998
95,1747638707690,-0.26855224,0.47069818,0.7818139,1.0705862,0.631387,-0.14660335
96,1747638707700,-0.25294158,0.50338304,0.76498365,1.0718079,0.21845426,-0.0684149
97,1747638707710,-0.22231479999999998,0.52705817,0.742893975,1.0640196,0.150306605,-0.071774555
98,1747638707720,-0.19168802,0.5507333,0.7208043,1.0562313,0.08215895,-0.07513421
99,1747638707730,-0.1692324375,0.5641030125,0.6929215475,0.9948793250000001,0.16527236,-0.12675080500000002
100,1747638707740,-0.14677685499999998,0.577472725,0.6650387950000001,0.93352735,0.24838577,-0.1783674
101,1747638707750,-0.122629106,0.597108,0.62049353,0.7472189,0.82502556,-0.3067217
102,1747638707760,-0.154231563,0.5924735999999999,0.632323515,0.66746515,0.9975899300000001,-0.34612133
103,1747638707770,-0.18583402,0.5878392,0.6441535,0.5877114,1.1701543,-0.38552096
104,1747638707780,-0.261006095,0.577228815,0.7741153000000001,0.45935714,1.319201,-0.4930301
105,1747638707790,-0.3420245225,0.5720303575000001,0.794916825,0.52914642,1.084330235,-0.515936865
106,1747638707800,-0.42304295,0.5668319,0.81571835,0.5989357,0.84945947,-0.53884363
107,1747638707810,-0.39791957,0.5629292,0.83013994,0.6662053,0.68514156,-0.33909658
108,1747638707820,-0.361667435,0.5735548,0.8452627699999999,0.707628375,0.729733405,-0.293550285
109,1747638707830,-0.3254153,0.5841804,0.8603856,0.74905145,0.77432525,-0.24800399
110,1747638707840,-0.300048,0.6063768,0.7701059,0.93849045,0.83541,-0.16309622
111,1747638707850,-0.30443849,0.6234662,0.71958465,0.932267455,0.87480965,-0.15210096499999998
112,1747638707860,-0.30882898,0.6405556,0.6690634,0.92604446,0.9142093,-0.14110571
113,1747638707870,-0.3515449,0.6590933,0.6287867,0.8419002,0.77799034,-0.1368298
114,1747638707880,-0.33226025000000003,0.629198275,0.6435588999999999,0.86839573,0.51746398,-0.06902574725
115,1747638707890,-0.3129756,0.59930325,0.6583311,0.89489126,0.25693762,-0.0012216945
116,1747638707900,-0.2502585,0.6222314,0.5792411,0.9515473,0.30580541,0.0018325418
117,1747638707910,-0.235730215,0.62346625,0.5211584499999999,0.86961742,0.535483955,0.0079410144
118,1747638707920,-0.22120193,0.6247011,0.4630758,0.78768754,0.7651625,0.014049487
119,1747638707930,-0.24830718,0.62592065,0.53289694,0.674299,0.9209286,0.012216945
120,1747638707940,-0.24830718,0.62592065,0.53289694,0.674299,0.9209286,0.012216945
121,1747638707950,-0.3366355,0.62884766,0.6880889,0.72667915,0.5690806,-0.07330167
122,1747638707960,-0.362627865,0.6334820800000001,0.66185263,0.7665369550000001,0.45943350000000005,-0.087045735
123,1747638707970,-0.38862023,0.6381165,0.63561636,0.80639476,0.3497864,-0.1007898
124,1747638707980,-0.3249275,0.6644595,0.45697787,0.8805363,-0.074217945,-0.06352811
125,1747638707990,-0.29686184,0.664703415,0.39657801000000004,0.8338065,-0.040010497,-0.076355905
126,1747638708000,-0.26879618,0.66494733,0.33617815,0.7870767,-0.005803049,-0.0891837
127,1747638708010,-0.228306,0.68153363,0.31129867,0.48955590000000004,0.608174825,-0.14385453199999998
128,1747638708020,-0.26015237,0.675923565,0.358999625,0.383173035,0.8030350925,-0.17271706599999997
129,1747638708030,-0.29199874,0.6703135,0.40670058,0.27679017,0.99789536,-0.2015796
130,1747638708040,-0.44133672,0.6656791,0.5016451,0.1932568,0.6362738,-0.23945212
131,1747638708050,-0.45245017,0.6638497,0.48835164999999997,0.22005772,0.51807484,-0.20952061
132,1747638708060,-0.46356362,0.6620203,0.4750582,0.24685864,0.39987588,-0.1795891
133,1747638708070,-0.33273283,0.7008336,0.3459348,0.18577392,0.4127037,0.007330167
134,1747638708080,-0.302715825,0.7058338749999999,0.3444713,0.13221025250000001,0.50891212,0.0158820285
135,1747638708090,-0.27269882,0.71083415,0.3430078,0.078646585,0.60512054,0.02443389
136,1747638708100,-0.22733033,0.74086636,0.35520366,-0.12759072,0.9245937,-0.17225893
137,1747638708110,-0.265274615,0.73231405,0.374854195,-0.193027735,1.019275,-0.262397075
138,1747638708120,-0.3032189,0.72376174,0.39450473,-0.25846475,1.1139563,-0.35253522
139,1747638708130,-0.38910806,0.71132195,0.4045053,-0.31389913,1.0889117,-0.43683216
140,1747638708140,-0.38910806,0.71132195,0.4045053,-0.31389913,1.0889117,-0.43683216
141,1747638708150,-0.49624845,0.7283961,0.40035874,-0.35879642,1.0620344,-0.4209501
142,1747638708160,-0.508703455,0.7137611500000001,0.46283188499999994,-0.38773531,1.0785272,-0.34516687
143,1747638708170,-0.52115846,0.6991262,0.52530503,-0.4166742,1.09502,-0.26938364
144,1747638708180,-0.5279881,0.6156457,0.86648345,0.06864396,1.0492065,-0.042759307
145,1747638708190,-0.5641030199999999,0.621758875,0.806815355,0.29671906000000003,0.74072865,-0.0650552335
146,1747638708200,-0.60021794,0.62787205,0.74714726,0.52479416,0.4322508,-0.08735116
147,1747638708210,-0.6866255,0.6949796,0.26150915,0.9901834,-0.78768754,0.09712471
148,1747638708220,-0.5170119,0.70729738,0.005015525000000021,0.770545625,-0.751036705,0.23487077
149,1747638708230,-0.3473983,0.71961516,-0.2514781,0.55090785,-0.71438587,0.37261683
150,1747638708240,-0.31004858,0.72937185,-0.24489233,0.2618244,-0.3051182,0.40682426
151,1747638708250,-0.322976155,0.696793705,-0.07381527999999998,0.08208259500000001,-0.08242619500000001,0.40804596
152,1747638708260,-0.33590373,0.66421556,0.09726177,-0.09765921,0.14026581,0.40926766
153,1747638708270,-0.3761805,0.66933787,0.18168743,-0.2223484,-0.33932567,0.2003579
154,1747638708280,-0.39814824,0.6793536849999999,0.13642564000000001,-0.26938365,-0.480431385,0.174396895
155,1747638708290,-0.42011598,0.6893695,0.09116385,-0.3164189,-0.6215371,0.14843589
156,1747638708300,-0.36666775,0.6920526,0.25272816,-0.6622348,-0.76569706,0.13499725
157,1747638708310,-0.36666775,0.6920526,0.25272816,-0.6622348,-0.76569706,0.13499725
158,1747638708320,-0.33590373,0.68522286,0.47286296,-0.5924455,-0.8646543,0.13499725
159,1747638708330,-0.30661848,0.694857595,0.44894387999999996,-0.5600324,-0.8115106,0.12247488000000001
160,1747638708340,-0.27733323,0.70449233,0.4250248,-0.5276193,-0.7583669,0.10995251
161,1747638708350,-0.291267,0.73254275,0.38474804,-0.5619031,-0.65574455,0.06291727
162,1747638708360,-0.30102366,0.74146095,0.36387791999999997,-0.6497505800000001,-0.700336395,0.014965759999999995
163,1747638708370,-0.31078032,0.75037915,0.3430078,-0.73759806,-0.74492824,-0.03298575
164,1747638708380,-0.3456909,0.7022971,0.34447134,-0.73759806,-0.74492824,-0.03298575
165,1747638708390,-0.35605736,0.6705726750000001,0.36692691,-0.83823513,-0.76081027,0.0009162725000000024
166,1747638708400,-0.36642382,0.63884825,0.38938248,-0.9388722,-0.7766923,0.034818295
167,1747638708410,-0.31443906,0.6236949,0.45063603,-1.0117922,-0.633754,0.1007898
168,1747638708420,-0.27295799,0.6216216000000001,0.48455569,-1.0454268999999998,-0.542737775,0.09743014
169,1747638708430,-0.23147692,0.6195483,0.51847535,-1.0790616,-0.45172155,0.09407048
170,1747638708440,-0.31517082,0.58296084,0.77522814,-0.984304,-0.46699274,-0.029931515
171,1747638708450,-0.35532561,0.581253435,0.74277197,-0.77310355,-1.00362207,-0.06810946749999999
172,1747638708460,-0.3954804,0.57954603,0.7103158,-0.5619031,-1.5402514,-0.10628742
173,1747638708470,-0.3969439,0.600279,0.5570447,-0.5064687,-1.8169652,-0.058641337
174,1747638708480,-0.3969439,0.600279,0.5570447,-0.5064687,-1.8169652,-0.058641337
175,1747638708490,-0.25440508,0.60759646,0.40767625,-0.6622348,-1.6636425,0.004886778
176,1747638708500,-0.1782726,0.5812534,0.54119015,-1.3182847,-0.36498123,-0.073912516
177,1747638708510,-0.1782726,0.5812534,0.54119015,-1.3182847,-0.36498123,-0.073912516
178,1747638708520,-0.36422858,0.5024074,0.98780155,-1.3961678,0.4481328,-0.03115321
179,1747638708530,-0.4120667,0.45091048,1.2445239,-1.0435562,-0.072996244,-0.00671932
180,1747638708540,-0.4120667,0.45091048,1.2445239,-1.0435562,-0.072996244,-0.00671932
181,1747638708550,-0.42157948,0.5814974,0.8052299,0.01137703,-2.6062562,-0.061695572
182,1747638708560,-0.308829,0.621027125,0.64160755,-0.057190580000000005,-2.6572619499999997,-0.0247393135
183,1747638708570,-0.19607852,0.66055685,0.4779852,-0.12575819,-2.7082677,0.012216945
184,1747638708580,0.10262794,0.63299423,0.4367328,-0.9613209,-1.1071607,-0.05619795
185,1747638708590,-0.02646496000000001,0.559895465,0.76899305,-1.1236154,-0.3344007200000001,-0.198258125
186,1747638708600,-0.15555786,0.4867967,1.1012533,-1.2859099,0.43835926,-0.3403183
187,1747638708610,-0.36081374,0.41773778,1.2774831,-0.98804545,0.21723256,-0.32016033
188,1747638708620,-0.396074935,0.41981107,1.3176226,-0.698961985,-0.19512752000000003,-0.293244865
189,1747638708630,-0.43133613,0.42188436,1.3577621,-0.40987852,-0.6074876,-0.2663294
190,1747638708640,-0.4120667,0.6261646,0.59000397,0.4462239,-2.8609796,-0.060473878
191,1747638708650,-0.27844611,0.63823848,0.42575656000000006,0.2219284334,-2.71834675,0.017103720999999995
192,1747638708660,-0.14482552,0.65031236,0.26150915,-0.0023670332,-2.5757139,0.09468132
193,1747638708670,0.1665646,0.56488055,0.6439096,-1.2291774,-0.54151607,-0.114839286
194,1747638708680,0.1665646,0.56488055,0.6439096,-1.2291774,-0.54151607,-0.114839286
195,1747638708690,-0.18924884,0.42139652,1.2508656,-1.1968025,0.3717769,-0.36230877
196,1747638708700,-0.256844255,0.40735608,1.318583,-1.01641165,0.25021830500000003,-0.354673185
197,1747638708710,-0.32443967,0.39331564,1.3863004,-0.8360208,0.12865971,-0.3470376
198,1747638708720,-0.52579284,0.44969085,1.1056743,0.10040802,-1.0668447,-0.042759307
199,1747638708730,-0.363618765,0.506919825,0.82513963,0.0910926,-1.4266337500000001,0.0946813265
200,1747638708740,-0.20144469,0.5641488,0.54460496,0.08177718,-1.7864228,0.23212196
201,1747638708750,-0.061131615,0.58296084,0.45722178,-0.29710084,-1.3117945,0.24678229
202,1747638708760,-0.0017074140000000043,0.5529438550000001,0.5991355650000001,-0.6422677050000001,-0.70797198,0.168899265
203,1747638708770,0.057716787,0.52292687,0.74104935,-0.98743457,-0.10414946,0.09101624
204,1747638708780,-0.1081008165,0.472649545,0.8893049749999999,-0.994306585,0.25659402,0.0662769265
205,1747638708790,-0.27391842,0.42237222,1.0375606,-1.0011786,0.6173375,0.041537613
206,1747638708800,-0.32322007,0.37258273,1.1647326,-0.6603259,0.018630842,0.12033691
207,1747638708810,-0.338602065,0.385769455,1.15508265,-0.5042544250000001,-0.372311379,0.120642333
208,1747638708820,-0.35398406,0.39895618,1.1454327,-0.34818295,-0.7632536,0.120947756
209,1747638708830,-0.25660032,0.45606318,0.6893085,0.3129065,-2.445527,0.42759308
210,1747638708840,-0.002789779999999964,0.48729979,0.5081089,0.2113531475,-2.33099315,0.463633075
211,1747638708850,0.25102076,0.5185364,0.3269093,0.109799795,-2.2164593,0.49967307
212,1747638708860,0.27248544,0.47679612,0.4870101,-0.81487024,-0.55800897,0.2583884
213,1747638708870,0.27248544,0.47679612,0.4870101,-0.81487024,-0.55800897,0.2583884
214,1747638708880,0.045033116,0.33401337,1.099058,-1.4448065,0.8189171,-0.05803049
215,1747638708890,-0.16238752,0.33230597,1.2911423,-1.2005439,0.52021277,-0.15087928
216,1747638708900,-0.234754545,0.319500345,1.31250035,-0.76283368,-0.260793615,-0.011300674999999982
217,1747638708910,-0.30712157,0.30669472,1.3338584,-0.32512346,-1.0418,0.12827793
218,1747638708920,-0.31980523,0.31303656,1.1049424,0.0025961008,-1.6587558,0.28893074
219,1747638708930,0.011601284999999961,0.390038,0.673087995,-0.2251353896,-1.4898565000000001,0.33688226
220,1747638708940,0.3430078,0.46703944,0.24123359,-0.45286688,-1.3209572,0.38483378
221,1747638708950,0.397553665,0.44946219,0.325674475,-0.81765724,-0.7131641775,0.266940255
222,1747638708960,0.45209953,0.43188494,0.41011536,-1.1824476,-0.105371155,0.14904673
223,1747638708970,0.10970152,0.33181813,1.0741786,-1.7912332,1.2764417,-0.349481
224,1747638708980,0.018674869999999996,0.305825765,1.1809531,-1.72270375,1.2022238,-0.37910708
225,1747638708990,-0.07235178,0.2798334,1.2877276,-1.6541743,1.1280059,-0.40873316
226,1747638709000,-0.26416174,0.2403189,1.3823978,-0.81609195,-0.3594836,-0.30733252
227,1747638709010,-0.21707057999999999,0.24300198,1.1645954,-0.312944695,-1.17832435,-0.03668901000000002
228,1747638709020,-0.16997942,0.24568506,0.946793,0.19020256,-1.9971651,0.2339545
229,1747638709030,0.09921311,0.25471,0.5538738,0.1253764,-1.9110357,0.34451786
230,1747638709040,0.09921311,0.25471,0.5538738,0.1253764,-1.9110357,0.34451786
231,1747638709050,0.400983765,0.243489805,0.52115847,-0.3456632,-1.2042854,0.2675511
232,1747638709060,0.3759137025,0.2344648875,0.62976236,-0.7503495499999999,-0.55861983,0.042759309999999995
233,1747638709070,0.35084364,0.22543997,0.73836625,-1.1550359,0.08704574,-0.18203248
234,1747638709080,-0.07601053,0.20589617,1.2159551,-1.1494619,0.39376742,-0.29626092
235,1747638709090,-0.15179238500000003,0.207969455,1.2154673,-1.01862602,0.142671017,-0.240979245
236,1747638709100,-0.22757424,0.21004274,1.2149795,-0.88779014,-0.108425386,-0.18569757
237,1747638709110,-0.23928225,0.1844315,1.072471,-0.15935478,-1.5689611,0.29809347
238,1747638709120,-0.058921116999999995,0.2249369,0.7496016,-0.047531555,-1.8618624000000001,0.39827241
239,1747638709130,0.121440016,0.2654423,0.4267322,0.06429167,-2.1547637,0.49845135
240,1747638709140,0.3857237,0.30254814,0.29809666,-1.3089694,-0.7785248,0.211964
241,1747638709150,0.34973075,0.28704418,0.43232703,-1.56815945,-0.46546560000000003,0.1090362363
242,1747638709160,0.3137378,0.27154022,0.5665574,-1.8273495,-0.1524064,0.0061084726
243,1747638709170,-0.031343292,0.19150507,1.2752879,-1.765654,-0.011911522,-0.092848785
244,1747638709180,-0.11604336,0.16171674,1.4277967,-1.765654,-0.011911522,-0.092848785
245,1747638709190,-0.07893753,0.1729674,1.4470966,-1.0510391,-1.0454651,0.08124269
246,1747638709200,-0.08796245,0.18650477999999998,1.34678585,-0.8559878999999999,-1.38204195,0.12033691
247,1747638709210,-0.09698737,0.20004216,1.2464751,-0.6609367,-1.7186188,0.15943113
248,1747638709220,0.19245026,0.2078475,0.91163856,-0.6216898,-1.7430526,0.43675578
249,1747638709230,0.23051651,0.20052999999999999,0.8413600649999999,-0.7609629499999999,-1.3997565,0.42759307
250,1747638709240,0.26858276,0.1932125,0.77108157,-0.9002361,-1.0564604,0.41843036
251,1747638709250,0.3679178,0.15098442,1.0685683,-1.3363811,-0.18661384,0.16004199
252,1747638709260,0.220881787,0.12633359,1.1357979,-1.32019365,-0.1065928475,0.16951012
253,1747638709270,0.073845774,0.10168276,1.2030275,-1.3040062,-0.026571855,0.17897825
254,1747638709280,0.062107284,0.08460859,1.2301328,-0.9836932,-0.4847073,0.26816195
255,1747638709290,0.142157692,0.0699735925,1.13091965,-0.78180815,-1.0662339,0.25777755
256,1747638709300,0.2222081,0.055338595,1.0317065,-0.5799231,-1.6477605,0.24739315
257,1747638709310,0.25272816,0.057533845,0.8743193,-0.6360447,-1.6605883,0.26571855
258,1747638709320,0.30873753,0.044591017499999996,0.87113317,-0.72297592,-1.4687822499999998,0.293817525
259,1747638709330,0.3647469,0.03164819,0.86794704,-0.80990714,-1.2769762,0.3219165
260,1747638709340,0.393773,0.018964522,0.91676074,-1.1407572,-0.38025242,0.20096874
261,1747638709350,0.348023375,-0.013857515499999997,1.0276818699999999,-1.1538141,-0.2458660225,0.132859275
262,1747638709360,0.30227375,-0.046679553,1.138603,-1.166871,-0.111479625,0.06474981
263,1747638709370,0.21415883,-0.06915038,1.1337247,-1.0603545,-0.46088424,0.056808796
264,1747638709380,0.21415883,-0.06915038,1.1337247,-1.0603545,-0.46088424,0.056808796
265,1747638709390,0.25589907,-0.1074453,1.2164735,-0.83357745,-0.99171054,0.102011494
266,1747638709400,0.265533785,-0.11392433499999999,1.1442283500000001,-0.7245412250000001,-1.05859827,0.154544357
267,1747638709410,0.2751685,-0.12040337,1.0719832,-0.615505,-1.125486,0.20707722
268,1747638709420,0.288843075,-0.11465608,0.96447695,-0.48776153,-0.9397885,0.3268033
269,1747638709430,0.35120189749999997,-0.120090845,0.8608123750000001,-0.577785165,-0.6954496,0.36345412
270,1747638709440,0.41356072,-0.12552561,0.7571478,-0.6678088,-0.4511107,0.40010494
271,1747638709450,0.33861732,-0.12942828,0.76473975,-1.0528716,-0.28129515,0.18936265
272,1747638709460,0.33861732,-0.12942828,0.76473975,-1.0528716,-0.28129515,0.18936265
273,1747638709470,0.31544524,-0.1545517,0.9001745,-1.1961917,-0.38208497,0.1887518
274,1747638709480,0.35485302,-0.178348825,1.0293893,-1.1092604499999998,-0.603517085,0.190584345
275,1747638709490,0.3942608,-0.20214595,1.1586041,-1.0223292,-0.8249492,0.19241689
276,1747638709500,0.39035815,-0.17751035,1.1432374,-0.7301152,-0.9190197,0.38422292
277,1747638709510,0.398422645,-0.1737144,1.06026002,-0.6836907999999999,-0.7959339999999999,0.40865682000000003
278,1747638709520,0.40648714,-0.16991845,0.97728264,-0.6372664,-0.6728483,0.43309072
279,1747638709530,0.50530386,-0.11918378,0.8757828,-0.7911999,-0.37658733,0.36895174
280,1747638709540,0.47662841,-0.11197299499999999,0.86076665,-0.855071625,-0.454775765,0.27854635
281,1747638709550,0.44795296,-0.10476221,0.8457505,-0.91894335,-0.5329642,0.18814096
282,1747638709560,0.49066886,-0.1691867,1.0229255,-1.003622,-0.67162657,0.10689827
283,1747638709570,0.45699312999999997,-0.18090994,1.0308528,-0.9422700500000001,-0.7088882350000001,0.10201149000000001
284,1747638709580,0.4233174,-0.19263318,1.0387801,-0.8809181,-0.7461499,0.09712471
285,1747638709590,0.41721946,-0.20238985,0.90383315,-0.6833854,-0.86954105,0.19974706
286,1747638709600,0.452968495,-0.19373081,0.894930225,-0.6914791,-0.8802308750000001,0.19760909
287,1747638709610,0.48871753,-0.18507177,0.8860273,-0.6995728,-0.8909207,0.19547112
288,1747638709620,0.5348483,-0.19360885,0.8623369,-0.8977164,-0.63925165,0.0787993
289,1747638709630,0.5348483,-0.19360885,0.8623369,-0.8977164,-0.63925165,0.0787993
290,1747638709640,0.50505996,-0.19677977,0.97752655,-0.946966,-0.28984702,-0.0684149
291,1747638709650,0.466871755,-0.20775601999999999,0.957403425,-0.931389365,-0.26022093,-0.0629172715
292,1747638709660,0.42868355,-0.21873227,0.9372803,-0.91581273,-0.23059484,-0.057419643
293,1747638709670,0.41112155,-0.2321477,0.85575116,-0.84132755,-0.319473115,0.0192416883
294,1747638709680,0.43234230500000004,-0.23399232,0.8606294999999999,-0.83619261,-0.45706645749999997,0.003817795150000001
295,1747638709690,0.45356306,-0.23583694,0.86550784,-0.83105767,-0.5946598,-0.011606098
296,1747638709700,0.4320984,-0.2790102,0.8735875,-0.8042568,-0.9544488,-0.030542362
297,1747638709710,0.442464835,-0.2969533,0.8821245799999999,-0.7846333,-0.9700254500000001,-0.025350161
298,1747638709720,0.45283127,-0.3148964,0.89066166,-0.7650098,-0.9856021,-0.02015796
299,1747638709730,0.5060356,-0.32660443,0.8123035,-0.76814044,-0.8561024,-0.018325418
300,1747638709740,0.54899542,-0.33783983,0.7728957,-0.86782307,-0.6102363900000001,-0.079410144
301,1747638709750,0.59195524,-0.34907523,0.7334879,-0.9675057,-0.36437038,-0.14049487
302,1747638709760,0.5856134,-0.33294627,0.7586113,-0.9862129,-0.40041038,-0.19852535
303,1747638709770,0.5856134,-0.33294627,0.7586113,-0.9862129,-0.40041038,-0.19852535
304,1747638709780,0.5939066,-0.3322145,0.69882125,-0.98247147,-1.1590827,-0.39590538
305,1747638709790,0.5016451,-0.3688325,0.58854043,-1.0279796,-1.2922474,-0.3897969
306,1747638709800,0.49310803,-0.41520718,0.6778444,-1.0279796,-1.2922474,-0.3897969
307,1747638709810,0.49310803,-0.41520718,0.6778444,-1.1538141,-1.2806413,-0.30733252
308,1747638709820,0.5580204,-0.4598439,0.8469702,-1.1787062,-0.8909207,-0.1887518
309,1747638709830,0.55192244,-0.44911155,0.9836245,-1.1108258,-0.65085775,-0.12949961
310,1747638709840,0.5755824,-0.45325816,1.0685683,-0.97995174,-0.68262184,-0.13377555
311,1747638709850,0.5710699,-0.430208045,1.0634461499999999,-0.895234855,-0.74462282,-0.154544355
312,1747638709860,0.5665574,-0.40715793,1.058324,-0.81051797,-0.8066238,-0.17531316
313,1747638709870,0.5246038,-0.36639333,0.92505395,-0.6559736,-0.8029587,-0.16859384
314,1747638709880,0.51727105,-0.37932090500000004,0.998274675,-0.602715365,-0.607793,-0.104760303
315,1747638709890,0.5099383,-0.39224848,1.0714954,-0.54945713,-0.4126273,-0.040926766
316,1747638709900,0.5099383,-0.39224848,1.0714954,-0.54945713,-0.4126273,-0.040926766
317,1747638709910,0.52312505,-0.38773604,1.0921216,-0.43480873,-0.30572904,-0.013133216000000003
318,1747638709920,0.5363118,-0.3832236,1.1127478,-0.32016033,-0.19883078,0.014660334
319,1747638709930,0.54192185,-0.38444316,1.1432374,-0.06154286,-0.26174805,-0.038483378
320,1747638709940,0.561938275,-0.38054050500000003,1.1717909,-0.025426516499999996,-0.25258534,-0.03695626
321,1747638709950,0.5819547,-0.37663785,1.2003444,0.010689827,-0.24342263,-0.035429142
322,1747638709960,0.62659144,-0.42252466,1.2608663,0.1596602,0.2850366,-0.046424393
323,1747638709970,0.57289927,-0.425451665,1.30236255,0.41759044999999995,0.6658999,-0.0067193215
324,1747638709980,0.5192071,-0.42837867,1.3438588,0.6755207,1.0467632,0.03298575
325,1747638709990,0.45185563,-0.424476,1.2367185,0.9247464,0.9923977,0.0659715
326,1747638710000,0.429171385,-0.40165455,1.1045614000000001,1.0827267999999999,0.6536829,0.109952505
327,1747638710010,0.40648714,-0.3788331,0.9724043,1.2407072,0.3149681,0.15393351
328,1747638710020,0.51823145,-0.379077,0.78937536,1.1771027,0.08460235,0.20707722
329,1747638710030,0.51823145,-0.379077,0.78937536,1.1771027,0.08460235,0.20707722
330,1747638710040,0.7830335,-0.40176123,0.90456504,0.89863265,0.5580853,0.11300674
331,1747638710050,0.7673008800000001,-0.417387155,0.94275322,0.9126439749999999,0.7410340799999999,0.06658235
332,1747638710060,0.75156826,-0.43301308,0.9809414,0.9266553,0.92398286,0.02015796
333,1747638710070,0.47139946,-0.38468707,0.7569039,1.241318,1.2410126,0.05803049
334,1747638710080,0.43319600999999996,-0.35271876,0.6800396799999999,1.29770685,1.076083825,0.08857285499999999
335,1747638710090,0.39499256,-0.32075045,0.60317546,1.3540957,0.91115505,0.11911522
336,1747638710100,0.3942608,-0.24608143,0.2807786,1.2126845,-0.44866732,0.057419643
337,1747638710110,0.579500275,-0.28768448,0.39438278,0.7752797,-0.328024985,0.0552816765
338,1747638710120,0.76473975,-0.32928753,0.50798696,0.3378749,-0.20738265,0.05314371
339,1747638710130,0.77034986,-0.34026375,0.7078767,0.1982963,0.20806985,-0.029931515
340,1747638710140,0.7593583450000001,-0.34808432499999997,0.8468481999999999,0.185812105,0.43225079,-0.0586413375
341,1747638710150,0.74836683,-0.3559049,0.9858197,0.17332791,0.65643173,-0.08735116
342,1747638710160,0.59195524,-0.35029483,1.2037593,0.50921756,1.1200649,-0.13011047
343,1747638710170,0.54497082,-0.32625380000000004,1.1829044,0.68460706,0.9490276200000001,-0.15149012
344,1747638710180,0.4979864,-0.30221277,1.1620495,0.85999656,0.77799034,-0.17286977
345,1747638710190,0.4311227,-0.28266895,1.0734469,0.9565868,0.6326087,-0.14293826
346,1747638710200,0.46113970000000004,-0.294270235,1.02182795,1.000186,0.6210026,-0.09193251300000001
347,1747638710210,0.4911567,-0.30587152,0.970209,1.0437852,0.6093965,-0.040926766
348,1747638710220,0.48920536,-0.2939196,0.95289093,1.0263761,0.81280863,-0.023212196
349,1747638710230,0.49615697999999997,-0.28744055,0.961184115,1.00610362,0.851902865,-0.0137440635
350,1747638710240,0.5031086,-0.2809615,0.9694773,0.98583114,0.8909971,-0.004275931
351,1747638710250,0.56924057,-0.26974136,1.0500307,0.83197397,1.0595909,-0.05070032
352,1747638710260,0.531906055,-0.25181348,1.0954145,0.879009215,1.04187635,-0.11575556000000001
353,1747638710270,0.49457154,-0.2338856,1.1407983,0.92604446,1.0241618,-0.1808108
354,1747638710280,0.458822505,-0.22947984999999999,1.1286024499999998,0.9509746299999999,1.0583692,-0.16401249499999998
355,1747638710290,0.42307347,-0.2250741,1.1164066,0.9759048,1.0925766,-0.14721419
356,1747638710300,0.3430078,-0.21824445,1.1681474,1.111742,1.023551,-0.012216945
357,1747638710310,0.34532502,-0.21446374,1.1787578,1.2061179,0.94780592,0.031764057500000005
358,1747638710320,0.34764224,-0.21068303,1.1893682,1.3004938,0.87206084,0.07574506
359,1747638710330,0.39060205,-0.16991845,1.090521,1.4456464,0.7517239,0.1111742
360,1747638710340,0.379137975,-0.15442973999999998,1.04940575,1.514214,0.6643727500000001,0.10964708249999999
361,1747638710350,0.3676739,-0.13894103,1.0082905,1.5827816,0.5770216,0.108119965
362,1747638710360,0.44575772,-0.10598179,0.96752596,1.4712256,0.61122906,0.086129464
363,1747638710370,0.42965922,-0.09342008,0.97081883,1.45939045,0.619780895,0.047340663000000005
364,1747638710380,0.41356072,-0.08085837,0.9741117,1.4475553,0.62833273,0.008551862
365,1747638710390,0.3954804,-0.08963938,1.0109736,1.3840271,0.827469,0.02260135
366,1747638710400,0.38194302,-0.0868343375,1.06173875,1.412966,0.89802185,0.0262664325
367,1747638710410,0.36840564,-0.084029295,1.1125039,1.4419049,0.9685747,0.029931515
368,1747638710420,0.36840564,-0.084029295,1.1125039,1.4419049,0.9685747,0.029931515
369,1747638710430,0.3986513,-0.063540295,1.1115283,1.5946168,0.92398286,0.021379653
370,1747638710440,0.35034056,-0.037913799,1.044893275,1.59709835,0.92489913,-0.014354910999999998
371,1747638710450,0.30202982,-0.012287303,0.97825825,1.5995799,0.9258154,-0.050089475
372,1747638710460,0.28809607,-0.019604802,0.96679425,1.5565915,0.94352996,-0.028098974
373,1747638710470,0.28809607,-0.019604802,0.96679425,1.5565915,0.94352996,-0.028098974
374,1747638710480,0.285413,-0.023263551,0.9824048,1.539106,0.9215394,-0.04459185
375,1747638710490,0.2745587,-0.024727052,0.98228285,1.53692985,0.95696855,-0.043370155
376,1747638710500,0.2637044,-0.026190553,0.9821609,1.5347537,0.9923977,-0.04214846
377,1747638710510,0.25102076,-0.019360885,1.0971067,1.6244719,0.92642623,0.06658235
378,1747638710520,0.258948045,-0.015580177,1.1006587,1.6587557,0.859538465,0.0638335375
379,1747638710530,0.26687533,-0.011799469,1.1042107,1.6930395,0.7926507,0.061084725
380,1747638710540,0.27614418,0.048722353,1.0085344,1.7572548,0.71507305,0.05803049
381,1747638710550,0.26943645000000005,0.062274976499999996,0.97705395,1.74354895,0.77035475,0.06230642
382,1747638710560,0.26272872,0.0758276,0.9455735,1.7298431,0.82563645,0.06658235
383,1747638710570,0.28029075,0.09314568,0.86843485,1.5908754,1.0168316,0.076966755
384,1747638710580,0.240517085,0.108649635,0.882109425,1.50550945,1.1264786999999998,0.054365406
385,1747638710590,0.20074342,0.12415359,0.895784,1.4201435,1.2361258,0.031764057
386,1747638710600,0.18220575,0.134642,0.98877716,1.3914337,1.2330716,0.07452337
387,1747638710610,0.17218992,0.142569295,1.01048578,1.4163639,1.1429716,0.076966755
388,1747638710620,0.16217409,0.15049659,1.0321944,1.4412941,1.0528716,0.07941014
389,1747638710630,0.16339368,0.19443208,0.95581794,1.6400485,0.66925955,0.09529217
390,1747638710640,0.15827142500000002,0.209936025,0.893588695,1.62073045,0.728817125,0.10017894799999999
391,1747638710650,0.15314917,0.22543997,0.83135945,1.6014124,0.7883747,0.105065726
392,1747638710660,0.12509876,0.21882375,0.81721234,1.4656516,0.9563577,0.15332267
393,1747638710670,0.11886363999999999,0.216506545,0.8602788450000001,1.4185782,1.1084587,0.18508671999999998
394,1747638710680,0.11262852,0.21418934,0.90334535,1.3715048,1.2605597,0.21685077
395,1747638710690,0.0784649425,0.24554787,0.8616203250000001,1.3892957,1.22360345,0.22509721
396,1747638710700,0.044301365,0.2769064,0.8198953,1.4070866,1.1866472,0.23334365
397,1747638710710,0.009665198,0.3281594,0.7229995,1.3640219,1.030881,0.28526568
398,1747638710720,0.057488114,0.373192525,0.63270458,1.16152605,0.85098655,0.29290126000000005
399,1747638710730,0.10531103,0.41822565,0.54240966,0.9590302,0.6710921,0.30053684
400,1747638710740,0.3720644,0.33011073,0.76498365,0.18707198,0.9068791,0.026266431
401,1747638710750,0.32837283,0.31791489,0.821236905,0.173976935,1.15152345,-0.0427593095
402,1747638710760,0.28468126,0.30571905,0.87749016,0.16088189,1.3961678,-0.11178505
403,1747638710770,-0.10698795,0.30986565,1.0429267,0.29297763,2.1328495,-0.083686076
404,1747638710780,-0.14604509999999998,0.316329435,1.102732,0.62508765,1.38211825,0.06474981200000002
405,1747638710790,-0.18510225,0.32279322,1.1625373,0.95719767,0.631387,0.2131857
406,1747638710800,-0.004024625,0.37282664,1.0036561,1.169009,0.23128204,0.24189551
407,1747638710810,0.05210669750000001,0.40138012,0.88101175,1.169658,0.21967594499999998,0.207688065
408,1747638710820,0.10823802,0.4299336,0.7583674,1.170307,0.20806985,0.17348062
409,1747638710830,0.14217293,0.42042089,0.7598614,1.012632,0.45729554,0.09407048
410,1747638710840,0.11093635,0.42554311499999997,0.7548458849999999,0.980867975,0.63047072,0.0723854
411,1747638710850,0.07969977,0.43066534,0.74983037,0.94910395,0.8036459,0.05070032
412,1747638710860,-0.063326865,0.4379829,0.8330669,0.82388026,1.1762627,0.10445488
413,1747638710870,-0.063326865,0.4379829,0.8330669,0.82388026,1.1762627,0.10445488
414,1747638710880,-0.0682052,0.4472517,0.8577025,1.0188932,0.9044357,0.2339545
415,1747638710890,-0.06905891,0.45324291,0.82573417,1.0519170999999998,0.83876962,0.26113721
416,1747638710900,-0.06991262,0.45923412,0.79376584,1.084941,0.77310354,0.28831992
417,1747638710910,-0.05965287,0.47142993499999997,0.73556122,1.0238564,0.5745782,0.34696123
418,1747638710920,-0.014017586499999998,0.4573894825,0.73976876,1.002056775,0.55564195,0.331690065
419,1747638710930,0.031617697,0.44334903,0.7439763,0.98025715,0.5367057,0.3164189
420,1747638710940,0.025275866,0.5268295,0.66198987,0.9048175,0.86778486,0.19791451
421,1747638710950,0.008674287,0.5414645149999999,0.64587611,0.86870115,0.94658418,0.20066331999999998
422,1747638710960,-0.007927292,0.55609953,0.62976235,0.8325848,1.0253835,0.20341213
423,1747638710970,-0.05454587,0.6056451,0.5528981,0.56648445,0.9881218,0.18814096
424,1747638710980,-0.10236878500000002,0.6057670500000001,0.530564485,0.50356719,0.9682692500000001,0.19302773499999998
425,1747638710990,-0.1501917,0.605889,0.50823087,0.44064993,0.9484167,0.19791451
426,1747638711000,-0.040124293,0.4987486,0.62049353,0.123467505,1.1463312,0.39643988
427,1747638711010,-0.0601407045,0.52193595,0.683942345,0.23811589249999998,1.3231715,0.35429141
428,1747638711020,-0.080157116,0.5451233,0.74739116,0.35276428,1.5000118,0.31214294
429,1747638711030,-0.0930847,0.59198576,0.6976017,0.3870481,1.2355149,0.26694027
430,1747638711040,-0.09235295,0.61163628,0.6873572,0.388307975,1.03851668,0.227540615
431,1747638711050,-0.0916212,0.6312868,0.6771127,0.38956785,0.84151846,0.18814096
432,1747638711060,-0.11653119,0.6722648,0.50871867,0.32787228,0.29053423,0.07818845
433,1747638711070,-0.11653119,0.6722648,0.50871867,0.32787228,0.29053423,0.07818845
434,1747638711080,-0.0140252095,0.6105234,0.5953701,0.1577513,0.62955445,0.10140064
435,1747638711090,-0.07210787,0.60759646,0.60195583,0.20387027,1.0223292,0.12522368
436,1747638711100,-0.07210787,0.60759646,0.60195583,0.20387027,1.0223292,0.12522368
437,1747638711110,-0.2031521,0.62787205,0.7034862,0.26434416,0.94108653,0.18325418
438,1747638711120,-0.18485835,0.63457975,0.7017635499999999,0.302025795,0.7715764350000001,0.175313165
439,1747638711130,-0.1665646,0.64128745,0.7000409,0.33970743,0.60206634,0.16737215
440,1747638711140,-0.13604453,0.6466536,0.6680878,0.35650572,0.019852536,0.056808796
441,1747638711150,-0.12982465199999998,0.67447535,0.61439563,0.26212982500000004,0.070552858,0.056503373
442,1747638711160,-0.123604774,0.7022971,0.56070346,0.16775393,0.12125318,0.05619795
443,1747638711170,-0.045978293,0.6439705,0.63610417,0.1776802,0.47623178,0.0061084726
444,1747638711180,-0.0941823215,0.63395468,0.66770661,0.256517665,0.558085305,-0.0082464387
445,1747638711190,-0.14238635,0.62393886,0.69930905,0.33535513,0.63993883,-0.02260135
446,1747638711200,-0.29931623,0.66055685,0.516524,0.5621322,0.4029301,0.0555871
447,1747638711210,-0.263567205,0.6899640549999999,0.45649003,0.55060245,0.236436055,0.07177454999999999
448,1747638711220,-0.22781818,0.71937126,0.39645606,0.5390727,0.06994201,0.087962
449,1747638711230,-0.21168917,0.742086,0.29395008,0.52227443,-0.46088424,0.025655584
450,1747638711240,-0.18961472000000001,0.74342752,0.24173667,0.481767605,-0.49509169,0.021379653999999998
451,1747638711250,-0.16754027,0.74476904,0.18952326,0.44126078,-0.52929914,0.017103724
452,1747638711260,-0.1387276,0.7286401,0.13558719,0.09605573,-0.096208446,-0.061695572
453,1747638711270,-0.18376072,0.7175418849999999,0.180727015,0.055243498,-0.042148462,-0.058641336
454,1747638711280,-0.22879384,0.70644367,0.22586684,0.014431266,0.011911522,-0.0555871
455,1747638711290,-0.2697718,0.7001018,0.24419107,-0.028557109,-0.28740364,-0.01099525
456,1747638711300,-0.2697718,0.7001018,0.24419107,-0.028557109,-0.28740364,-0.01099525
457,1747638711310,-0.16141187,0.7008336,0.17339426,-0.3830776,-0.741874,-0.12216945
458,1747638711320,-0.164719985,0.6930282299999999,0.186093175,-0.5195256,-0.728129935,-0.14049487
459,1747638711330,-0.1680281,0.68522286,0.19879209,-0.6559736,-0.71438587,-0.15882029
460,1747638711340,-0.16433886,0.6102795,0.42770788,-0.991176,-0.57694525,-0.13866232
461,1747638711350,-0.14567923500000002,0.5938151199999999,0.47382338999999996,-1.0117539,-0.48806697499999996,-0.143854525
462,1747638711360,-0.12701961,0.57735074,0.5199389,-1.0323318,-0.3991887,-0.14904673
463,1747638711370,-0.28199816,0.5636609,0.7012604,-0.75874865,-0.20982604,-0.032374904
464,1747638711380,-0.265274625,0.5764818,0.680405535,-0.680865625,-0.27579754,0.0
465,1747638711390,-0.24855109,0.5893027,0.65955067,-0.6029826,-0.34176904,0.032374904
466,1747638711400,-0.1004022,0.63616514,0.44307464,-0.65223217,-0.9422319,-0.11972606
467,1747638711410,-0.087230698,0.6347016400000001,0.43551322000000003,-0.748173355,-0.9926268,-0.15637689500000002
468,1747638711420,-0.074059196,0.63323814,0.4279518,-0.84411454,-1.0430217,-0.19302773
469,1747638711430,-0.03719729,0.57710683,0.56045955,-1.1482401,-0.9929322,-0.3189386
470,1747638711440,-0.0785716575,0.5542854150000001,0.66113615,-1.1024266,-0.77394345,-0.290190615
471,1747638711450,-0.119946025,0.531464,0.76181275,-1.0566131,-0.5549547,-0.26144263
472,1747638711460,-0.1494751825,0.53182985,0.732527495,-1.02859045,-0.46302220000000005,-0.22448637500000002
473,1747638711470,-0.17900434,0.5321957,0.70324224,-1.0005678,-0.3710897,-0.18753012
474,1747638711480,-0.21120135,0.5234147,0.7078767,-1.06967,-0.14935215,0.03970507
475,1747638711490,-0.1094423625,0.493763565,0.82587135,-1.0662721,-0.6633801250000001,-0.145114405
476,1747638711500,-0.007683375,0.46411243,0.943866,-1.0628742,-1.1774081,-0.32993388
477,1747638711510,-0.06844912,0.46923468,0.9375242,-0.9020687,-1.5695721,-0.46920705
478,1747638711520,-0.062839035,0.469722525,0.9038332,-0.862516325,-1.61691275,-0.477453485
479,1747638711530,-0.05722895,0.47021037,0.8701422,-0.82296395,-1.6642534,-0.48569992
480,1747638711540,-0.09113336,0.48947978,0.6146395,-0.9444462,-0.72965705,-0.32199287
481,1747638711550,-0.14653294,0.46531677,0.6677219,-1.1684363,-0.08395332500000008,-0.10235509999999998
482,1747638711560,-0.20193252,0.44115376,0.7208043,-1.3924264,0.5617504,0.11728267
483,1747638711570,-0.15189911,0.43359238,0.7988881,-1.408003,0.64238226,0.19669282
484,1747638711580,-0.15189911,0.43359238,0.7988881,-1.408003,0.64238226,0.19669282
485,1747638711590,-0.0012043374999999995,0.40090754,0.8985890350000001,-1.44450105,-0.182299735,-0.04367557999999999
486,1747638711600,0.051618867,0.39944404,0.88358814,-1.3282874,-1.1395355,-0.3922403
487,1747638711610,0.03502491075,0.3844889,0.8589906775,-1.3837218,-0.8725953,-0.379717925
488,1747638711620,0.0184309545,0.36953376,0.834393215,-1.4391562,-0.6056551,-0.36719555
489,1747638711630,-0.030619162749999998,0.34811483,0.9148780775,-1.4235796,-0.409573105,-0.31034858499999995
490,1747638711640,-0.07966928,0.3266959,0.99536294,-1.408003,-0.21349111,-0.25350162
491,1747638711650,-0.08601111,0.30864605,0.9858197,-1.0335536,-0.19455485,-0.05131117
492,1747638711660,-0.060750493,0.309133885,0.93519175,-0.998658925,-0.273659565,-0.050089475
493,1747638711670,-0.035489876,0.30962172,0.8845638,-0.96376425,-0.35276428,-0.04886778
494,1747638711680,0.08213894,0.29523066,0.867703,-1.0859337,-1.1395355,-0.33848575
495,1747638711690,0.057244195,0.28106823000000003,0.9039551800000001,-1.09337845,-1.25101515,-0.39468369
496,1747638711700,0.03234945,0.2669058,0.94020736,-1.1008232,-1.3624948,-0.45088163
497,1747638711710,0.03234945,0.2669058,0.94020736,-1.1282349,-1.0546278,-0.35681117
498,1747638711720,0.012454995850000001,0.24849010000000002,0.9321428300000001,-1.1372830500000002,-0.740346875,-0.218721505
499,1747638711730,-0.0074394583,0.2300744,0.9240783,-1.1463312,-0.42606595,-0.08063184
500,1747638711740,-0.00060979166,0.2344649,0.9353289,-1.2647593,-0.20066333,-0.03115321
501,1747638711750,0.012454995670000002,0.208594485,0.9757124,-1.2843827499999998,-0.13194301,-0.014354910500000002
502,1747638711760,0.025519783,0.18272407,1.0160959,-1.3040062,-0.06322269,0.002443389
503,1747638711770,0.076528855,0.17369916,1.1700988,-0.98995435,-0.7113316,-0.2443389
504,1747638711780,0.0833585225,0.20639923500000001,1.0240384,-0.832623005,-1.2229161999999998,-0.33936383
505,1747638711790,0.09018819,0.23909931,0.877978,-0.67529166,-1.7345008,-0.43438876
506,1747638711800,0.11642448,0.23983105999999998,0.7791308,-0.78184633,-1.67463775,-0.44752197
507,1747638711810,0.14266077,0.24056281,0.6802836,-0.888401,-1.6147747,-0.46065518
508,1747638711820,0.09653002,0.17833358,0.83355474,-1.4609939,-0.44378054,-0.26510772
509,1747638711830,0.031739655000000006,0.11915329649999999,1.08125212,-1.3675343,-0.17500774000000002,-0.14263283999999998
510,1747638711840,-0.03305071,0.059973013,1.3289495,-1.2740747,0.09376506,-0.02015796
511,1747638711850,0.036008198,0.033599522,1.4087713,-0.89275324,-0.15423894,0.050089475
512,1747638711860,0.08250481900000001,0.063738476,1.2884593500000001,-0.420148365,-1.13617587,-0.2171943825
513,1747638711870,0.12900144,0.09387743,1.1681474,0.05245651,-2.1181128,-0.48447824
514,1747638711880,0.11799469,0.20174958,0.7047058,0.20577917,-2.5775464,-0.5730511
515,1747638711890,0.14179181,0.22542474,0.464676525,-0.009200884999999992,-2.2580351,-0.518685685
516,1747638711900,0.16558893,0.2490999,0.22464725,-0.22418094,-1.9385238,-0.46432027
517,1747638711910,0.20537783,0.15196009,0.41328633,-1.8049009,-0.018630842,-0.1551552
518,1747638711920,0.13349864,0.037258274999999993,0.9123702650000001,-1.88935055,0.560185079,-0.03787252999999999
519,1747638711930,0.06161945,-0.07744354,1.4114542,-1.9738002,1.139001,0.07941014
520,1747638711940,0.074074445,-0.0892735,1.5282293500000002,-1.74045655,0.989648875,0.056808795
521,1747638711950,0.08652944,-0.10110346,1.6450045,-1.5071129,0.84029675,0.03420745
522,1747638711960,0.056741115,-0.03789855,1.4090152,-0.3132883,-0.8487723,-0.25044736
523,1747638711970,0.0562532805,0.04800585,1.03538055,-0.145992501,-1.4336585,-0.34608315
524,1747638711980,0.055765446,0.13391025,0.6617459,0.021303298,-2.0185447,-0.44171894
525,1747638711990,0.139733763,0.18809024,0.17497972,-0.75160933,-1.20397995,-0.295993685
526,1747638712000,0.1563200965,0.0973075055,0.30573431,-1.226867615,-0.542279655,-0.2237419025
527,1747638712010,0.17290643,0.006524771,0.4364889,-1.7021259,0.11942064,-0.15149012
528,1747638712020,0.11604336,-0.10817704,0.8703861,-2.5520434,1.9660883,-0.026266431
529,1747638712030,0.11604336,-0.12563233499999998,1.03975575,-2.4105941,1.7428236,-0.1075091155
530,1747638712040,0.11604336,-0.14308763,1.2091254,-2.2691448,1.5195589,-0.1887518
531,1747638712050,0.060887698,-0.111591876,1.3289495,-1.4130424,-0.8487723,-0.6231406
532,1747638712060,0.112384604,-0.082550548,0.9783802500000001,-1.14698025,-1.5313941500000001,-0.61672668
533,1747638712070,0.16388151,-0.05350922,0.627811,-0.8809181,-2.214016,-0.61031276
534,1747638712080,0.209646375,-0.06681792,0.54824845,-1.0223674,-1.88751805,-0.5229616
535,1747638712090,0.25400872750000003,-0.086521815,0.50505235,-1.2354577,-1.4124316,-0.41881215000000005
536,1747638712100,0.29837108,-0.10622571,0.46185625,-1.448548,-0.93734515,-0.3146627
537,1747638712110,0.31812832,-0.24974017,0.6124443,-2.2435656,0.29297763,-0.15271181
538,1747638712120,0.3522919,-0.332229735,1.06100705,-2.1513659,0.084335105,-0.27950080499999996
539,1747638712130,0.38645548,-0.4147193,1.5095698,-2.0591662,-0.12430742,-0.4062898
540,1747638712140,0.30983517,-0.39859033,1.5220095,-1.4852751,-1.1089932,-0.66956496
541,1747638712150,0.30983517,-0.39859033,1.5220095,-1.4852751,-1.1089932,-0.66956496
542,1747638712160,0.25102076,-0.3422151,0.86819094,-0.96628404,-1.4516785,-0.55167145
543,1747638712170,0.29983458,-0.34966980000000003,0.818782535,-1.06379052,-1.18473825,-0.50127654
544,1747638712180,0.3486484,-0.3571245,0.76937413,-1.161297,-0.917798,-0.45088163
545,1747638712190,0.20391434,-0.3544414,0.7603492,-1.3257676,-0.4303419,-0.40690064
546,1747638712200,0.19964579500000001,-0.37090578500000004,0.7794966999999999,-1.41518035,-0.2709107625,-0.31981672
547,1747638712210,0.19537725,-0.38737017,0.7986442,-1.5045931,-0.111479625,-0.2327328
548,1747638712220,0.46359414,-0.5098773,0.75007427,-1.5962203,-1.0069817,-0.53884363
549,1747638712230,0.40612127,-0.51781985,0.744586135,-1.71987865,-1.15297415,-0.6057313950000001
550,1747638712240,0.3486484,-0.5257624,0.739098,-1.843537,-1.2989666,-0.67261916
551,1747638712250,0.32105532,-0.6155542,1.2108328,-1.9931183,-0.7327113,-0.47226128
552,1747638712260,0.326421485,-0.616773775,1.1792304,-1.5585005,-0.837777,-0.417590455
553,1747638712270,0.33178765,-0.61799335,1.147628,-1.1238827,-0.9428427,-0.36291963
554,1747638712280,0.25565517,-0.55649585,0.8850516,-1.0659285,-0.7913526,-0.24922568
555,1747638712290,0.25565517,-0.55649585,0.8850516,-1.0659285,-0.7913526,-0.24922568
556,1747638712300,0.44819686,-0.5567398,0.68272275,-1.558195,-0.27579755,-0.05070032
557,1747638712310,0.48798578000000004,-0.5649109999999999,0.69211355,-1.7348444,-0.164928766,-0.09437590000000001
558,1747638712320,0.5277747,-0.5730822,0.70150435,-1.9114938,-0.054059982,-0.13805148
559,1747638712330,0.36230773,-0.63851285,1.1676596,-2.5625806,0.4090386,-0.401403
560,1747638712340,0.32666540499999996,-0.6510745600000001,1.31079295,-2.4974872,0.44965994,-0.376052835
561,1747638712350,0.29102308,-0.66363627,1.4539263,-2.4323938,0.49028128,-0.35070267
562,1747638712360,0.18171792,-0.6453425,1.6245155,-1.02294,0.114533864,-0.16370706
563,1747638712370,0.23833707999999998,-0.619837985,1.4929682,-0.78463325,-0.016492878000000002,-0.125223685
564,1747638712380,0.29495624,-0.59433347,1.3614209,-0.5463265,-0.14751962,-0.08674031
565,1747638712390,0.41648772,-0.43154958,0.81770015,-0.2267007,-0.8750387,-0.2791572
566,1747638712400,0.41526812,-0.41250883,0.627704295,-0.6883867,-0.8814526,-0.34852654
567,1747638712410,0.41404852,-0.39346808,0.43770844,-1.1500727,-0.8878665,-0.41789588
568,1747638712420,0.41380462,-0.5574716,0.7495864,-1.4192272,-0.66735065,-0.36108708
569,1747638712430,0.41404855,-0.6144566,1.04684455,-1.2672026,-0.526550355,-0.30698892499999997
570,1747638712440,0.41429248,-0.6714416,1.3441027,-1.115178,-0.38575006,-0.25289077
571,1747638712450,0.43941587,-0.6294574,1.472464,-0.2578539,-0.76814044,-0.13255386
572,1747638712460,0.43673280000000003,-0.580293,1.36007935,0.03813977499999999,-1.21008842,-0.19272231499999998
573,1747638712470,0.43404973,-0.5311286,1.2476947,0.33413345,-1.6520364,-0.25289077
574,1747638712480,0.464310635,-0.46107875,0.76972475,0.535674875,-1.9660118500000001,-0.273965005
575,1747638712490,0.49457154,-0.3910289,0.2917548,0.7372163,-2.2799873,-0.29503924
576,1747638712500,0.65052575,-0.46987498,0.026739366,-1.3669235,-0.6050442,-0.36108708
577,1747638712510,0.608419625,-0.527347865,0.43526929799999997,-1.6335965,-0.16397430000000002,-0.35986539
578,1747638712520,0.5663135,-0.58482075,0.84379923,-1.9002695,0.2770956,-0.3586437
579,1747638712530,0.4486847,-0.655831,1.3238273,-0.9288696,-0.5677825,-0.56327754
580,1747638712540,0.40293509,-0.670344,1.040609525,-0.60985462,-0.9468132,-0.48631077999999994
581,1747638712550,0.35718548,-0.684857,0.75739175,-0.29083964,-1.3258439,-0.40934402
582,1747638712560,0.3620638,-0.6917172,0.72251165,-0.5176167,-1.1712996,-0.39651623
583,1747638712570,0.391714935,-0.689262775,0.8131724,-0.51265355,-0.9434536,-0.334171635
584,1747638712580,0.42136607,-0.68680835,0.90383315,-0.5076904,-0.7156076,-0.27182704
585,1747638712590,0.46408197,-0.6755882,0.84062827,-0.4640912,-0.65452284,-0.3342098
586,1747638712600,0.43735783500000003,-0.6680267799999999,0.8413600649999999,-0.46313675,-0.5152496550000001,-0.30607265
587,1747638712610,0.4106337,-0.66046536,0.84209186,-0.4621823,-0.37597647,-0.2779355
588,1747638712620,0.3749914,-0.6318966,0.88944215,-0.39926505,-0.05222744,-0.1551552
589,1747638712630,0.34655986,-0.6704659500000001,0.945573475,-0.35253523,-0.34696122,-0.14660334
590,1747638712640,0.31812832,-0.7090353,1.0017048,-0.30580541,-0.641695,-0.13805148
591,1747638712650,0.35302365,-0.733076315,1.00219265,-0.30859240499999996,-0.66276925,-0.11942064
592,1747638712660,0.38791898,-0.75711733,1.0026805,-0.3113794,-0.6838435,-0.1007898
593,1747638712670,0.32788497,-0.809346,1.2755318,-0.20547375,0.2679329,0.08246438
594,1747638712680,0.352657765,-0.79554947,1.3173787,0.23784865500000002,0.286258315,0.18783554
595,1747638712690,0.37743056,-0.78175294,1.3592256,0.68117106,0.30458373,0.2932067
596,1747638712700,0.3969439,-0.6777834,0.9619159,0.82074964,0.22883865,0.34146363
597,1747638712710,0.4425868,-0.6568066,0.89261305,0.7188527,0.32626879,0.30633990499999997
598,1747638712720,0.4882297,-0.6358298,0.8233102,0.61695576,0.42369893,0.27121618
599,1747638712730,0.57655805,-0.60409015,0.8777341,0.57152396,0.7010236,0.23945212
600,1747638712740,0.545443425,-0.60848066,0.8798074,0.6082893300000001,0.70438325,0.20432841000000002
601,1747638712750,0.5143288,-0.61287117,0.8818807,0.6450547,0.7077429,0.1692047
602,1747638712760,0.44892865,-0.5806741,0.74178106,1.0637141,0.6784222,0.36895174
603,1747638712770,0.460651885,-0.56407255,0.6503885300000001,1.0524898,0.58710056,0.372922245
604,1747638712780,0.47237512,-0.547471,0.558996,1.0412655,0.49577892,0.37689275
605,1747638712790,0.5494833,-0.5601546,0.7505621,0.41759047,0.85678965,0.31947312
606,1747638712800,0.5731584750000001,-0.5408852,0.8357347500000001,0.586146135,0.959717425,0.36650835000000004
607,1747638712810,0.59683365,-0.5216158,0.9209074,0.7547018,1.0626452,0.41354358
608,1747638712820,0.54777586,-0.41715845,0.35203275,1.0169843,0.0827698,-0.02687728
609,1747638712830,0.54362928,-0.430573895,0.332885275,0.82693445,0.2251354,-0.01343864
610,1747638712840,0.5394827,-0.44398934,0.3137378,0.6368846,0.367501,0.0
611,1747638712850,0.52265245,-0.6001875,0.8498971,-0.12323844,1.1890905,-0.07574506
612,1747638712860,0.417463395,-0.6735149,1.18961205,-0.009849915,1.5968311000000002,0.0024433899999999897
613,1747638712870,0.31227434,-0.7468423,1.529327,0.10353861,2.0045717,0.08063184
614,1747638712880,0.2458985,-0.6390007,1.7028433,1.0506573,2.1139133,0.36773005
615,1747638712890,0.23856575,-0.523933015,1.1626440850000002,1.85815915,1.021985645,0.28160058499999996
616,1747638712900,0.231233,-0.40886533,0.62244487,2.665661,-0.06994201,0.19547112
617,1747638712910,0.37265894999999993,-0.34942588,0.325567784,2.59308475,-0.318862255,0.215323655
618,1747638712920,0.5140849,-0.28998643,0.028690698,2.5205085,-0.5677825,0.23517619
619,1747638712930,0.63025016,-0.3409955,0.36889347,0.6368846,0.17202985,0.14171657
620,1747638712940,0.63477788,-0.38773602500000004,0.62380166,0.40167024,0.49119755499999995,0.07207997949999999
621,1747638712950,0.6393056,-0.43447655,0.87870985,0.16645588,0.81036526,0.002443389
622,1747638712960,0.33764166,-0.61774945,1.617442,0.16836478,1.6087426,-0.039094225
623,1747638712970,0.234663085,-0.58492741,1.53568415,0.6366173900000001,1.7220548,0.1377460575
624,1747638712980,0.13168451,-0.55210537,1.4539263,1.10487,1.835367,0.31458634
625,1747638712990,0.09677394,-0.4374036,0.79376584,2.269374,0.21723256,0.49051034
626,1747638713000,0.25882608500000004,-0.37810134,0.51835342,1.6858621,0.1484740625,0.38788801
627,1747638713010,0.42087823,-0.31879908,0.242941,1.1023502,0.079715565,0.28526568
628,1747638713020,0.44624552,-0.36932033,0.60195583,0.4150707,0.67597884,0.13988402
629,1747638713030,0.44624552,-0.36932033,0.60195583,0.4150707,0.67597884,0.13988402
630,1747638713040,0.3676739,-0.4476481,1.1156749,0.05062397,1.1542722,0.04886778
631,1747638713050,0.16851594,-0.61213934,1.7699509,0.35276428,1.6276789,0.14599249
632,1747638713060,0.15546638499999998,-0.558935045,1.63230565,1.27369294,1.259948835,0.41354359500000004
633,1747638713070,0.14241683,-0.50573075,1.4946604,2.1946216,0.89221877,0.6810947
634,1747638713080,0.15680792500000001,-0.43801337500000004,1.1154157,2.3865420999999998,0.521129065,0.6514686000000001
635,1747638713090,0.17119902,-0.370296,0.736171,2.5784626,0.15003936,0.6218425
636,1747638713100,0.3618199,-0.22702545,-0.007927292,1.5372735,0.28686914,0.51372254
637,1747638713110,0.385617,-0.26327756,0.268704704,0.83628808,0.77004932,0.32405446499999996
638,1747638713120,0.4094141,-0.29952967,0.5453367,0.13530266,1.2532295,0.13438639
639,1747638713130,0.2663875,-0.4598439,1.3880383,0.3129065,1.3283638,0.087962
640,1747638713140,0.20476804999999998,-0.4598439,1.4169577,0.43286162499999997,1.36959595,0.118504365
641,1747638713150,0.1431486,-0.4598439,1.4458771,0.55281675,1.4108281,0.14904673
642,1747638713160,0.1592471,-0.3676129,1.2672081,1.6226394,0.6979694,0.5430432
643,1747638713170,0.20184105000000002,-0.32831182999999997,1.0370727199999998,1.74381625,0.38639909499999997,0.49814594
644,1747638713180,0.244435,-0.28901076,0.80693734,1.8649931,0.07482879,0.45324868
645,1747638713190,0.45283127,-0.18482786,0.30202982,1.0001861,0.6545992,0.18936265
646,1747638713200,0.351926015,-0.24486185500000002,0.70139766,0.4905103835000001,1.2416234,0.04398100499999999
647,1747638713210,0.25102076,-0.30489585,1.1007655,-0.019165333,1.8286476,-0.10140064
648,1747638713220,0.09213952,-0.3466056,1.472464,-0.019165333,1.8286476,-0.10140064
649,1747638713230,0.09213952,-0.3466056,1.472464,0.18577392,1.898895,-0.040926766
650,1747638713240,0.082626775,-0.3175795,1.3445907,1.2462811,0.8543463,0.09590302
651,1747638713250,0.228306,-0.26388735,0.8076691,1.6918179,0.31435728,0.16126367
652,1747638713260,0.29347748,-0.206292525,0.59791599,1.58430875,0.24136103,0.031458630000000015
653,1747638713270,0.35864896,-0.1486977,0.38816288,1.4767996,0.16836478,-0.09834641
654,1747638713280,0.1402216,-0.15089294,0.54753196,0.39392012,1.139001,-0.18691926
655,1747638713290,0.1402216,-0.15089294,0.54753196,0.39392012,1.139001,-0.18691926
656,1747638713300,-0.13336144,-0.279498,1.472464,0.34467056,1.3308071,-0.04703524
657,1747638713310,-0.146532935,-0.281205425,1.5034566,0.57209663,1.1903122,0.077883025
658,1747638713320,-0.15970443,-0.28291285,1.5344492,0.7995227,1.0498173,0.20280129
659,1747638713330,-0.074790955,-0.19287711,1.1464083,1.3117181,0.587406,0.45447037
660,1747638713340,0.018552910500000006,-0.16505535999999998,1.066114,1.32855455,0.56877515,0.49936763500000003
661,1747638713350,0.111896776,-0.13723361,0.9858197,1.345391,0.5501443,0.5442649
662,1747638713360,0.11067719,-0.07476046,0.86502,0.9166527,0.69919103,0.37933615
663,1747638713370,0.093481065,-0.08476104500000001,0.9842495,0.81884075,0.790512715,0.33871481000000003
664,1747638713380,0.07628494,-0.09476163,1.103479,0.7210288,0.8818344,0.29809347
665,1747638713390,-0.060887698,-0.15991788,1.4185278,1.0755494,1.0351571,0.4379775
666,1747638713400,-0.10541772900000002,-0.103420675,1.27844345,1.26403395,0.9074899999999999,0.53143713
667,1747638713410,-0.14994776,-0.04692347,1.1383591,1.4525185,0.7798229,0.62489676
668,1747638713420,-0.13994719,-0.012043386,1.0722271,1.5067312,0.6747572,0.72568655
669,1747638713430,-0.062335954,0.014070942,0.977663715,1.54036595,0.49822231499999997,0.6914790749999999
670,1747638713440,0.015275282,0.04018527,0.88310033,1.5740007,0.32168743,0.6572716
671,1747638713450,0.04454528,0.071924925,0.7915706,1.4812282,0.4670691,0.6255076
672,1747638713460,0.04454528,0.071924925,0.7915706,1.4812282,0.4670691,0.6255076
673,1747638713470,0.027471114,0.089730844,0.7862044,1.0624925,0.8097544,0.48562357
674,1747638713480,-0.059180282,0.057533845,1.0607631,1.0518789,0.7853205,0.47768256
675,1747638713490,-0.093343866,0.0650952605,1.0503814,1.18053865,0.589849385,0.50028391
676,1747638713500,-0.12750745,0.072656676,1.0399997,1.3091984,0.39437827,0.52288526
677,1747638713510,-0.103832283,0.07741305300000001,1.0230475,1.33630475,0.36750098499999995,0.55495473
678,1747638713520,-0.080157116,0.08216943,1.0060953,1.3634111,0.3406237,0.5870242
679,1747638713530,0.0057625314,0.08729168,1.0517383,1.4512967,0.101706065,0.5131117
680,1747638713540,0.0164948642,0.0998686325,1.02147733,1.4743562,0.1264835575,0.47707171
681,1747638713550,0.027227197,0.112445585,0.99121636,1.4974157,0.15126105,0.44103172
682,1747638713560,0.014299615,0.17126,0.85745853,1.4270155,0.46279314,0.39766157
683,1747638713570,-0.004741130000000001,0.1838217,0.88040194,1.30644955,0.575494455,0.352764295
684,1747638713580,-0.023781875,0.1963834,0.90334535,1.1858836,0.68819577,0.30786702
685,1747638713590,-0.08527936,0.2095549,0.8669713,1.188327,0.419423,0.20402299
686,1747638713600,-0.09284078,0.21004273,0.8789384499999999,1.16435125,0.38277216999999997,0.214101965
687,1747638713610,-0.1004022,0.21053056,0.8909056,1.1403755,0.34612134,0.22418094
688,1747638713620,-0.0974752,0.18321191,0.95825714,1.1665655,0.43347248,0.18203248
689,1747638713630,-0.08857224,0.19870062500000002,0.93055734,1.18244755,0.51990737,0.220515855
690,1747638713640,-0.07966928,0.21418934,0.90285754,1.1983296,0.60634226,0.25899923
691,1747638713650,-0.104304865,0.22909874,0.9018819,1.0780691,0.53548396,0.17653486
692,1747638713660,-0.1076129875,0.23275749,0.9010282000000001,1.05096275,0.51746397,0.16462333499999998
693,1747638713670,-0.11092111,0.23641624,0.9001745,1.0238564,0.49944398,0.15271181
694,1747638713680,-0.21168917,0.24470939,0.9917042,0.9203941,0.58557343,0.16615045
695,1747638713690,-0.23684308,0.24373372,1.0688124,0.9203941,0.58557343,0.16615045
696,1747638713700,-0.23684308,0.24373372,1.0688124,0.9827005,0.51715857,0.19913621
697,1747638713710,-0.29346225,0.2271474,1.0949115,1.2263522,0.33146098,0.33169007
698,1747638713720,-0.29346225,0.2271474,1.0949115,1.2263522,0.33146098,0.33169007
699,1747638713730,-0.27318668,0.23714797,1.0263404,1.507342,0.012522369,0.45874628
700,1747638713740,-0.22255872,0.25080732,0.947387625,1.5908372,-0.07513421049999999,0.49112119
701,1747638713750,-0.17193076,0.26446667,0.86843485,1.6743324,-0.16279079,0.5234961
702,1747638713760,-0.1062562,0.34819105,0.6463792,1.4170129,0.0839915,0.44164258
703,1747638713770,-0.106622075,0.372354045,0.66808775,1.18053867,0.35249705,0.39460734
704,1747638713780,-0.10698795,0.39651704,0.6897963,0.94406444,0.6210026,0.3475721
705,1747638713790,-0.1899806,0.40895677,0.80279076,0.94406444,0.6210026,0.3475721
706,1747638713800,-0.18888296999999998,0.401502075,0.8739382,0.94998202,0.62772193,0.36589751000000004
707,1747638713810,-0.18778534,0.39404738,0.94508564,0.9558996,0.63444126,0.38422292
708,1747638713820,-0.18583402,0.37258273,0.9592328,1.1858836,0.3791071,0.5002839
709,1747638713830,-0.13555668999999998,0.39516025499999996,0.8996866299999999,1.2662482,0.29206135499999997,0.47676629000000004
710,1747638713840,-0.08527936,0.41773778,0.84014046,1.3466128,0.20501561,0.45324868
711,1747638713850,-0.1004022,0.45533144,0.6285428,1.1185377,0.36444676,0.32802498
712,1747638713860,-0.105295778,0.47130799,0.6492909499999999,0.9232192800000001,0.51410433,0.22387552
713,1747638713870,-0.110189356,0.48728454,0.6700391,0.72790086,0.6637619,0.11972606
714,1747638713880,-0.16632068,0.48874804,0.7100719,0.6219952,0.859233,0.13805148
715,1747638713890,-0.195605925,0.48057682,0.79963507,0.597065,0.9041303,0.1447708
716,1747638713900,-0.22489117,0.4724056,0.88919824,0.5721348,0.9490276,0.15149012
717,1747638713910,-0.22415942,0.45508754,0.973136,0.7839461,0.87511504,0.27732465
718,1747638713920,-0.230135375,0.46642965000000003,0.96155,0.9232193,0.69308257,0.280378895
719,1747638713930,-0.23611133,0.47777176,0.949964,1.0624925,0.5110501,0.28343314
720,1747638713940,-0.21024092500000002,0.4893578,0.91177575,1.09708175,0.460960625,0.30175856
721,1747638713950,-0.18437052,0.50094384,0.8735875,1.131671,0.41087115,0.32008398
722,1747638713960,-0.18485835,0.5614657,0.7830335,1.0082798,0.6173375,0.22784603
723,1747638713970,-0.19229781,0.573920675,0.75569958,0.9587247999999999,0.6924717300000001,0.23181654000000002
724,1747638713980,-0.19973727,0.58637565,0.72836566,0.9091698,0.76760596,0.23578705
725,1747638713990,-0.16433886,0.62101185,0.687845,0.68361443,1.0999068,0.20524468
726,1747638714000,-0.26879618,0.625783475,0.75704113,0.60294443,1.1625187000000001,0.19760909
727,1747638714010,-0.3732535,0.6305551,0.82623726,0.52227443,1.2251306,0.1899735
728,1747638714020,-0.42645782,0.61832875,0.9594767,0.42629504,1.1701543,0.379947
729,1747638714030,-0.39046486,0.613572375,1.0170715499999998,0.44252066,1.0540933000000001,0.41781952499999997
730,1747638714040,-0.3544719,0.608816,1.0746664,0.45874628,0.9380323,0.45569205
731,1747638714050,-0.23806266,0.62393886,1.232084,0.7627955,0.6863633,0.29626092
732,1747638714060,-0.228656625,0.644443095,1.06844647,0.99675,0.537927385,0.27029991
733,1747638714070,-0.21925059,0.66494733,0.90480894,1.2307045,0.38949147,0.2443389
734,1747638714080,-0.17607735,0.7308353,0.59146744,1.299883,0.57152396,0.29259583
735,1747638714090,-0.14337727,0.7255910999999999,0.49603504,0.9450189,1.0675319300000001,0.30298024
736,1747638714100,-0.11067719,0.7203469,0.40060264,0.5901548,1.5635399,0.31336465
737,1747638714110,-0.11640923,0.6899640499999999,0.45344107,0.4926483,1.6872365,0.28098974
738,1747638714120,-0.12214127,0.6595812,0.5062795,0.3951418,1.8109331,0.24861483
739,1747638714130,-0.22562292,0.55536777,0.7434885,0.3846047,1.9098903,0.15454435
740,1747638714140,-0.227818175,0.556953235,0.752772575,0.8170082000000001,1.37570438,0.1316375825
741,1747638714150,-0.23001343,0.5585387,0.76205665,1.2494117,0.84151846,0.108730815
742,1747638714160,-0.24025792,0.69180864,-0.16388151,2.112997,-0.5708368,0.23884128
743,1747638714170,-0.202664265,0.72719182,-0.34886183000000004,2.0055261,-0.5977140750000001,0.285265675
744,1747638714180,-0.16507061,0.762575,-0.53384215,1.8980552,-0.62459135,0.33169007
745,1747638714190,0.013323948,0.7759904,-0.6075354,0.9839986,-0.17378604,0.30664533
746,1747638714200,-0.0020580469999999986,0.74987607,-0.5165087749999999,0.6444057,-0.02535016000000001,0.173480625
747,1747638714210,-0.017440042,0.72376174,-0.42548215,0.3048128,0.12308572,0.04031592
748,1747638714220,-0.12970269,0.70498013,-0.26684484,0.3048128,0.12308572,0.04031592
749,1747638714230,-0.18107763999999998,0.704004495,-0.20376189,0.23193108,-0.33535513999999994,0.01863084185
750,1747638714240,-0.23245259,0.70302886,-0.14067894,0.15904936,-0.793796,-0.0030542363
751,1747638714250,-0.1575092,0.71107805,-0.1651011,-0.07398888,-1.065623,0.12583454
752,1747638714260,-0.139093485,0.7138831050000001,-0.1651011,-0.19394400500000003,-0.9593356,0.15423893
753,1747638714270,-0.12067777,0.71668816,-0.1651011,-0.31389913,-0.8530482,0.18264332
754,1747638714280,-0.045734376,0.70351666,-0.07893753,-0.8622109,-0.3203894,0.17897825
755,1747638714290,-0.0502620805,0.6616544799999999,0.14131923500000002,-1.0270251,-0.40621344000000004,-0.02137965
756,1747638714300,-0.054789785,0.6197923,0.361576,-1.1918393,-0.49203748,-0.22173755
757,1747638714310,-0.054789785,0.6197923,0.361576,-1.1918393,-0.49203748,-0.22173755
758,1747638714320,-0.18778534,0.5944249,0.46283188,-0.98804545,-1.2476555,-0.38429928
759,1747638714330,-0.25440508,0.6202801,0.38621157,-0.58122116,-2.0631366,-0.313441
760,1747638714340,-0.1914441,0.648589675,0.23746813,-0.635739295,-2.03106715,-0.229716745
761,1747638714350,-0.12848312,0.67689925,0.08872469,-0.69025743,-1.9989977,-0.14599249
762,1747638714360,-0.08101083,0.671655035,0.18170268500000003,-1.0908968,-1.462063,-0.08063184
763,1747638714370,-0.079486345,0.6403574825,0.2784690025,-1.35944055,-0.92146314,-0.0244338915
764,1747638714380,-0.07796186,0.60905993,0.37523532,-1.6279843,-0.38086328,0.031764057
765,1747638714390,-0.100646116,0.47899136,1.0290235,-1.460383,-1.0143119,-0.38429928
766,1747638714400,-0.17789148300000002,0.5177893499999999,0.95447645,-1.111131135,-1.6456225500000001,-0.42247723000000004
767,1747638714410,-0.25513685,0.55658734,0.8799294,-0.76187927,-2.2769332,-0.46065518
768,1747638714420,-0.004268542,0.6493367,0.31568915,-0.881529,-2.8316588,-0.3922403
769,1747638714430,0.053570199,0.6041816,0.422326475,-1.5653725,-1.62855696,-0.36017082
770,1747638714440,0.11140894,0.5590265,0.5289638,-2.249216,-0.42545512,-0.32810134
771,1747638714450,-0.06064378,0.45139828,0.97899,-2.5208902,0.35284066,-0.32810134
772,1747638714460,-0.16471998,0.40150207,1.198515,-2.13953065,0.284120335,-0.27583572
773,1747638714470,-0.26879618,0.35160586,1.41804,-1.7581711,0.21540001,-0.2235701
774,1747638714480,-0.31578062500000004,0.29791371499999997,1.70638005,-1.00705805,-0.989534345,-0.314624515
775,1747638714490,-0.36276507,0.24422157,1.9947201,-0.255945,-2.1944687,-0.40567893
776,1747638714500,-0.38753784,0.5092523,0.7372685830000001,1.1665655,-4.3172393,-0.43805385
777,1747638714510,0.18220575,0.8133401,-0.9624038,0.37773266,-3.5579562,0.09345963
778,1747638714520,0.275183745,0.65080014,-0.35239865000000004,-1.62424282,-1.24215785,-0.07055286000000001
779,1747638714530,0.36816174,0.48826018,0.2576065,-3.6262183,1.0736405,-0.23456535
780,1747638714540,0.209158552,0.34939537,0.8601569,-3.73212395,1.3250041000000001,-0.354635015
781,1747638714550,0.050155364,0.21053056,1.4627073,-3.8380296,1.5763677,-0.47470468
782,1747638714560,-0.26954315500000003,0.07533975849999999,2.4357212500000003,-2.21993345,0.011949674999999993,-0.56266665
783,1747638714570,-0.35214706250000005,0.08399880425,2.457079225,-0.9905842600000001,-1.4688013125000001,-0.555031075
784,1747638714580,-0.43475097,0.09265785,2.4784372,0.23876493,-2.9495523,-0.5473955
785,1747638714590,-0.024513626,0.5778386,-0.28199816,1.7372496,-4.1920156,0.0659715
786,1747638714600,0.144612087,0.65910858,-0.58338768,0.950631045,-3.2824258000000004,0.14232741
787,1747638714610,0.3137378,0.74037856,-0.8847772,0.16401249,-2.372836,0.21868332
788,1747638714620,0.39157772,0.5414645,-0.015000875,-2.763244,0.28809083,-0.059252184
789,1747638714630,0.25955783,0.37636341500000003,0.6636972624999999,-3.001589,0.6451310650000001,-0.178367392
790,1747638714640,0.12753794,0.21126233,1.3423954,-3.239934,1.0021713,-0.2974826
791,1747638714650,-0.1972981,0.1094881,2.052559,-1.225436,-1.1541959,-0.3702498
792,1747638714660,-0.219021935,0.18868479,1.6956478499999998,-0.29797894999999996,-2.15480195,-0.199785234
793,1747638714670,-0.24074577,0.26788148,1.3387367,0.6294781,-3.155408,-0.029320668
794,1747638714680,0.14973435,0.4843575,-0.16558893,0.41323817,-2.8683097,0.25411245
795,1747638714690,0.22271116000000002,0.523399425,-0.27882724,-0.13755517999999994,-2.2146649,0.330773785
796,1747638714700,0.29568797,0.56244135,-0.39206555,-0.68834853,-1.5610201,0.40743512
797,1747638714710,0.47310686,0.36136255,0.3515449,-2.9943733,0.7401178,0.25777754
798,1747638714720,0.33241268,0.2046765775,1.1117569,-2.77068865,0.48814331,-0.056541549999999996
799,1747638714730,0.1917185,0.047990605,1.8719689,-2.547004,0.23616882,-0.37086064
800,1747638714740,0.12118084999999999,0.036160647,1.9653128,-2.2037078,-0.14045669,-0.39346199000000004
801,1747638714750,0.0506432,0.024330689,2.0586567,-1.8604116,-0.5170822,-0.41606334
802,1747638714760,-0.07649837,0.15147226,1.5112772,0.3016822,-2.726593,-0.16981554
803,1747638714770,0.14241684500000001,0.28558068999999997,0.5588740700000001,0.02596101500000003,-2.2525374,0.070552855
804,1747638714780,0.36133206,0.41968912,-0.39352906,-0.24976017,-1.7784818,0.31092125
805,1747638714790,0.46577413,0.40345341,-0.3777812,-1.7793981,-0.2287623,0.26083177
806,1747638714800,0.47114793,0.331276955,-0.10072996499999998,-2.57475945,0.6679996500000001,0.10384403
807,1747638714810,0.47652173,0.2591005,0.17632127,-3.3701208,1.5647616,-0.05314371
808,1747638714820,0.12363527,-0.06646729,1.8036419,-2.9619985,0.52815384,-0.3146627
809,1747638714830,0.072138359,-0.08610258500000001,1.87757905,-2.4878282499999997,-0.052494680000000016,-0.32046575
810,1747638714840,0.020641448,-0.10573788,1.9515162,-2.013658,-0.6331432,-0.3262688
811,1747638714850,0.031129865,-0.043508638,1.5769213,-0.42354622,-2.0832946,-0.08490777
812,1747638714860,0.031129865,-0.043508638,1.5769213,-0.42354622,-2.0832946,-0.08490777
813,1747638714870,0.20391434,0.17247957,0.28736433,0.19020256,-2.381388,0.22173755
814,1747638714880,0.38913855,0.23056222,-0.16241801,-0.5849626,-1.4944378,0.34085277
815,1747638714890,0.38913855,0.23056222,-0.16241801,-0.5849626,-1.4944378,0.34085277
816,1747638714900,0.50823087,0.08265726,0.242941,-1.7619126,-0.5170822,0.26266432
817,1747638714910,0.3264215,-0.13796537,1.2122964,-2.926493,-0.02535016,-0.13866232
818,1747638714920,0.19708468,-0.2248302,1.6989406,-2.4728625,-0.9501729,-0.21013145
819,1747638714930,0.19708468,-0.2248302,1.6989406,-2.4728625,-0.9501729,-0.21013145
820,1747638714940,0.16389676,-0.24179765000000003,1.7634870999999999,-1.7329737,-1.7940966,-0.134691817
821,1747638714950,0.13070884,-0.2587651,1.8280336,-0.9930849,-2.6380203,-0.059252184
822,1747638714960,0.3030055,-0.06768687,0.75153774,0.36459947,-3.147467,0.39643988
823,1747638714970,0.35816115,-0.019604799,0.502010985,0.12006966999999999,-2.7390774,0.50058934
824,1747638714980,0.4133168,0.028477272,0.25248423,-0.12446013,-2.3306878,0.6047388
825,1747638714990,0.60317546,0.024818521,0.38621157,-1.6466914,-0.9501729,0.7201889
826,1747638715000,0.68798223,-0.021922009499999996,0.562044985,-1.8139872499999998,-0.9242119,0.63253232
827,1747638715010,0.772789,-0.06866254,0.7378784,-1.9812831,-0.8982509,0.54487574
828,1747638715020,0.5861013,-0.14747812,1.3023626,-1.806199,-0.92512816,0.14660335
829,1747638715030,0.57962227,-0.16200641,1.33006235,-1.6526090500000001,-0.9804098299999999,0.17958909499999998
830,1747638715040,0.57314324,-0.1765347,1.3577621,-1.4990191,-1.0356915,0.21257484
831,1747638715050,0.6322015,-0.15430778,1.1903439,-0.8485432,-1.1712996,0.2870982
832,1747638715060,0.62573773,-0.132949828,0.956427775,-0.79837738,-1.09585995,0.29931515
833,1747638715070,0.61927396,-0.111591876,0.72251165,-0.74821156,-1.0204203,0.3115321
834,1747638715080,0.65808713,-0.13211136,0.7129989,-1.2036746,-0.4718795,0.33963108
835,1747638715090,0.6585749949999999,-0.16590906,0.82172475,-1.3731465,-0.58702422,0.16676130369999997
836,1747638715100,0.65906286,-0.19970676,0.9304506,-1.5426184,-0.70216894,-0.0061084726
837,1747638715110,0.65003794,-0.23287943,1.0385362,-1.5837742,-0.75958854,-0.054976255
838,1747638715120,0.65247712,-0.246066185,1.0949114500000001,-1.55323185,-0.7461499199999999,-0.056503372499999996
839,1747638715130,0.6549163,-0.25925294,1.1512867,-1.5226895,-0.7327113,-0.05803049
840,1747638715140,0.65003794,-0.31953084,1.2908984,-1.1968025,-0.6300889,-0.034818295
841,1747638715150,0.65003794,-0.31953084,1.2908984,-1.1968025,-0.6300889,-0.034818295
842,1747638715160,0.53533614,-0.3439225,1.3533716,-0.27900448,-0.64963603,0.02260135
843,1747638715170,0.47920480499999996,-0.29780701,1.2218243,-0.124803728,-0.729046195,0.07146912999999999
844,1747638715180,0.42307347,-0.25169152,1.090277,0.029397024,-0.80845636,0.12033691
845,1747638715190,0.50871867,-0.19507235,0.4882297,-0.38804072,-1.14992,0.3127538
846,1747638715200,0.6466078150000001,-0.233260555,0.58889105,-0.84693971,-1.0466868,0.29565008000000004
847,1747638715210,0.78449696,-0.27144876,0.6895524,-1.3058387,-0.9434536,0.27854636
848,1747638715220,0.76961803,-0.32831186,1.0339018,-1.5993508,0.044897273,0.16859384
849,1747638715230,0.6973730149999999,-0.330629065,1.11931835,-1.48065555,0.0430647315,0.15210096499999998
850,1747638715240,0.625128,-0.33294627,1.2047349,-1.3619603,0.04123219,0.13560809
851,1747638715250,0.50920653,-0.29733443,0.9699651,-0.25350162,-0.7308788,0.11056335
852,1747638715260,0.47418925,-0.270854225,0.7752129000000001,-0.146641525,-0.8472451700000001,0.161263675
853,1747638715270,0.43917197,-0.24437402,0.5804607,-0.03978143,-0.96361154,0.211964
854,1747638715280,0.6080538,-0.2045851,0.25589907,-0.39804333,-1.2323843,0.35062632
855,1747638715290,0.6080538,-0.2045851,0.25589907,-0.39804333,-1.2323843,0.35062632
856,1747638715300,0.81818795,-0.3273362,0.6817471,-1.4385453,-0.7082774,0.19058435
857,1747638715310,0.81818795,-0.3273362,0.6817471,-1.4226632499999998,-0.5848862499999999,0.15973656000000003
858,1747638715320,0.81818795,-0.3273362,0.6817471,-1.4067812,-0.4614951,0.12888877
859,1747638715330,0.6187861,-0.37932092,1.1593665,-0.6927008,-0.60015744,0.092848785
860,1747638715340,0.592793735,-0.36223151,1.0262337,-0.5083012849999999,-0.71530214,0.1301104675
861,1747638715350,0.56680137,-0.3451421,0.8931009,-0.32390177,-0.83044684,0.16737215
862,1747638715360,0.60049236,-0.29221216,0.52554893,-0.19363858,-0.90191597,0.22845687
863,1747638715370,0.63563158,-0.28780642,0.47565273500000005,-0.35066449,-1.025001685,0.227235175
864,1747638715380,0.6707708,-0.28340068,0.42575654,-0.5076904,-1.1480874,0.22601348
865,1747638715390,0.8459944,-0.3661494,0.70934016,-1.1226609,-0.64291674,0.08185353
866,1747638715400,0.8430674300000001,-0.38872695,0.81427005,-1.13262535,-0.50058932,0.050394897499999994
867,1747638715410,0.84014046,-0.4113045,0.91919994,-1.1425898,-0.3582619,0.018936265
868,1747638715420,0.7047058,-0.44276974,1.1166505,-0.7811973,-0.06627693,0.004886778
869,1747638715430,0.65747742,-0.42606145500000003,1.0223157299999999,-0.47153591,-0.229067725,0.015576604499999999
870,1747638715440,0.61024904,-0.40935317,0.92798096,-0.16187452,-0.39185852,0.026266431
871,1747638715450,0.62683535,-0.39444375,0.8064495,-0.07834116,-0.5238015,0.045813546
872,1747638715460,0.62683535,-0.39444375,0.8064495,-0.07834116,-0.5238015,0.045813546
873,1747638715470,0.69324166,-0.39224848,0.73495144,-0.26907822,-0.5347968,0.019547112
874,1747638715480,0.70909623,-0.40323998,0.75887047,-0.283700375,-0.47890425999999997,0.01771457
875,1747638715490,0.7249508,-0.41423148,0.7827895,-0.29832253,-0.42301172,0.015882028
876,1747638715500,0.76693499,-0.42484186,0.9005403350000001,-0.2727433,-0.088878274,0.012216945
877,1747638715510,0.786951395,-0.42051234000000004,0.9472199175,-0.2200959,0.06875849299999999,-0.007024743
878,1747638715520,0.8069678,-0.41618282,0.9938995,-0.1674485,0.22639526,-0.026266431
879,1747638715530,0.81818795,-0.43691576,1.1171383,0.020081604,0.4970006,-0.14538164
880,1747638715540,0.7871952950000001,-0.42911041,1.1262851999999999,0.115106527,0.50402535,-0.16431791
881,1747638715550,0.75620264,-0.42130506,1.1354321,0.21013145,0.5110501,-0.18325418
882,1747638715560,0.6822349,-0.41715845,1.0131688,0.62382776,0.09743014,-0.2736596
883,1747638715570,0.6858936499999999,-0.41031355999999997,0.9414116000000001,0.67991118,0.23093845,-0.192722325
884,1747638715580,0.6895524,-0.40346867,0.8696544,0.7359946,0.36444676,-0.11178505
885,1747638715590,0.69761692,-0.408240275,0.869044625,0.734734725,0.44324603,-0.086740311
886,1747638715600,0.70568144,-0.41301188,0.86843485,0.73347485,0.5220453,-0.061695572
887,1747638715610,0.72836566,-0.4010295,0.9480126,0.8612183,0.76760596,0.012827792
888,1747638715620,0.76460253,-0.402980835,0.91384903,0.96620765,0.6665107299999999,-0.028404399000000004
889,1747638715630,0.8008394,-0.40493217,0.87968546,1.071197,0.5654155,-0.06963659
890,1747638715640,0.7801065,-0.34809956,0.67321,1.1839747,0.7651625,-0.124001995
891,1747638715650,0.78522875,-0.334425005,0.6452663000000001,1.08055062,0.7767686,-0.1814216375
892,1747638715660,0.790351,-0.32075045,0.6173226,0.97712654,0.7883747,-0.23884128
893,1747638715670,0.6478427,-0.32270175,0.67808837,0.81387764,1.1493855,-0.17164809
894,1747638715680,0.65211123,-0.339791165,0.7157887350000001,0.79769017,1.14510955,-0.14660335
895,1747638715690,0.65637976,-0.35688058,0.7534891,0.7815027,1.1408336,-0.12155861
896,1747638715700,0.630738,-0.35785624,0.78961927,0.8387696,0.99300855,-0.08490777
897,1747638715710,0.6600232500000001,-0.34064487,0.816953155,0.893936775,0.92062315,-0.07971557
898,1747638715720,0.6893085,-0.3234335,0.84428704,0.94910395,0.84823775,-0.07452337
899,1747638715730,0.7169016,-0.31367683,0.8381892,1.0045383,0.77310354,-0.13560809
900,1747638715740,0.7169016,-0.31367683,0.8381892,1.0045383,0.77310354,-0.13560809
901,1747638715750,0.69982743,-0.30587152,0.8208711,1.0331718,0.7413395,-0.19302773
902,1747638715760,0.62000567,-0.31562817,0.7676667,0.9964446,1.0278269,-0.16065283
903,1747638715770,0.5553372649999999,-0.29853876,0.7520408000000001,0.94162105,1.1527451499999999,-0.1010952215
904,1747638715780,0.49066886,-0.28144935,0.7364149,0.8867975,1.2776634,-0.041537613
905,1747638715790,0.50371838,-0.26583868499999996,0.769968685,0.8821015999999999,1.26147595,-0.01924168835
906,1747638715800,0.5167679,-0.25022802,0.80352247,0.8774057,1.2452885,0.0030542363
907,1747638715810,0.5538738,-0.20092636,0.8516046,0.8631272,0.94230825,0.03787253
908,1747638715820,0.5842566499999999,-0.20019461,0.84867755,0.8522083,0.882139805,0.014049487
909,1747638715830,0.6146395,-0.19946286,0.8457505,0.8412894,0.82197136,-0.009773556
910,1747638715840,0.630738,-0.22580586,0.96508676,0.80517304,1.0883007,-0.045813546
911,1747638715850,0.5709479500000001,-0.218244445,0.98046878,0.84098397,1.1475529,-0.053449135499999995
912,1747638715860,0.5111579,-0.21068303,0.9958508,0.8767949,1.2068051,-0.061084725
913,1747638715870,0.4865223,-0.2089756,0.96435505,1.0680665,1.3106492,0.007941014
914,1747638715880,0.49249825,-0.20873169000000003,0.958135155,1.0836431,1.2697224,0.0158820285
915,1747638715890,0.4984742,-0.20848778,0.95191526,1.0992197,1.2287956,0.023823043
916,1747638715900,0.46798465,-0.1797056,0.9228587,1.111742,1.0492065,0.012827792
917,1747638715910,0.462725195,-0.16176248,0.950436525,1.14694205,0.8696174,-0.009773556000000001
918,1747638715920,0.45746574,-0.14381936,0.97801435,1.1821421,0.6900283,-0.032374904
919,1747638715930,0.46063665,-0.12991612,0.96703815,1.2251306,0.7621083,0.007330167
920,1747638715940,0.46063665,-0.12991612,0.96703815,1.2251306,0.7621083,0.007330167
921,1747638715950,0.5096944,-0.102566965,0.90285754,1.2139062,1.0577583,0.04703524
922,1747638715960,0.49627899,-0.0989082125,0.91090679,1.1469038999999999,1.17443015,0.057114217499999995
923,1747638715970,0.48286358,-0.09524946,0.91895604,1.0799016,1.291102,0.067193195
924,1747638715980,0.483229435,-0.10403046499999999,1.0131688300000001,1.0780691,1.2917129,0.027488127
925,1747638715990,0.46912798749999995,-0.1006156305,1.022315715,1.09208035,1.2379583,0.0079410145
926,1747638716000,0.45502654,-0.097200796,1.0314626,1.1060916,1.1842037,-0.011606098
927,1747638716010,0.39938307,-0.07183346,1.0214621,1.1528215,0.9056574,-0.049478628
928,1747638716020,0.39194360500000003,-0.065354425,1.02158405,1.16309135,0.931618415,-0.0378725295
929,1747638716030,0.38450414,-0.05887539,1.021706,1.1733612,0.95757943,-0.026266431
930,1747638716040,0.37474748,-0.05009439,1.0346335,1.2226108,1.1383902,0.0061084726
931,1747638716050,0.358389805,-0.048996762,1.0487959500000001,1.25471845,1.16893255,0.031153211300000004
932,1747638716060,0.34203213,-0.047899134,1.0629584,1.2868261,1.1994749,0.05619795
933,1747638716070,0.33300723,-0.045947803,1.0708857,1.3048842999999999,1.19061765,0.0696365875
934,1747638716080,0.33300724,-0.039727926499999996,1.09132895,1.33384225,1.1370158250000002,0.07452336375
935,1747638716090,0.33300725,-0.03350805,1.1117722,1.3628002,1.083414,0.07941014
936,1747638716100,0.28492516,0.017744938,1.0102419,1.5254383,0.8164737,0.0775776
937,1747638716110,0.285656915,0.02786748,0.987176525,1.50738015,0.8555679199999999,0.102927765
938,1747638716120,0.28638867,0.037990022,0.96411115,1.489322,0.89466214,0.12827793
939,1747638716130,0.37523532,0.060948674,1.0314626,1.3883795,1.1261733,0.105065726
940,1747638716140,0.32995829,0.07143709200000001,1.0832034,1.4456845500000002,1.1503018,0.080631838
941,1747638716150,0.28468126,0.08192551,1.1349442,1.5029896,1.1744303,0.05619795
942,1747638716160,0.26028958,0.07924243,1.1625373,1.6214176,1.0602018,0.064138964
943,1747638716170,0.26028958,0.07924243,1.1625373,1.6214176,1.0602018,0.064138964
944,1747638716180,0.24833766,0.094853096,1.0822278,1.8288767,0.7963157,0.07818845
945,1747638716190,0.26443616,0.11317733,0.9475248,1.8251352,0.9001598,0.1227803
946,1747638716200,0.26443616,0.11317733,0.9475248,1.8251352,0.9001598,0.1227803
947,1747638716210,0.27150977,0.14366692,0.8950522,1.7204514,1.1109021,0.13133216
948,1747638716220,0.24466367,0.16453704,0.94508562,1.5852632,1.29751595,0.13438640000000002
949,1747638716230,0.21781757,0.18540716,0.99511904,1.450075,1.4841298,0.13744064
950,1747638716240,0.20098734,0.19735907,1.1171383,1.5970602,1.2941563,0.14721419
951,1747638716250,0.18536143,0.202359365,1.11226,1.6715454,1.1417498799999999,0.127361655
952,1747638716260,0.16973552,0.20735966,1.1073817,1.7460306,0.98934346,0.10750912
953,1747638716270,0.14875868,0.22199467,1.0500307,1.9441742,0.67597884,0.10445488
954,1747638716280,0.160710595,0.232498325,0.98327377,1.9762437,0.65826427,0.11453386
955,1747638716290,0.17266251,0.24300198,0.91651684,2.0083132,0.6405497,0.12461284
956,1747638716300,0.1563201,0.2815713,0.8433114,1.9329498,1.039433,0.20524468
957,1747638716310,0.15705185,0.28669355,0.82317303,1.88591455,1.13808485,0.21868332000000001
958,1747638716320,0.1577836,0.2918158,0.80303466,1.8388793,1.2367367,0.23212196
959,1747638716330,0.14631952,0.30401164,0.8701422,1.6918179,1.3314179,0.22051586
960,1747638716340,0.14631952,0.30401164,0.8701422,1.6918179,1.3314179,0.22051586
961,1747638716350,0.03527645,0.33498904,0.8950522,1.8294876,1.0815815,0.19486028
962,1747638716360,0.005518615,0.34721538,0.85501945,1.9148535,0.9258154,0.2522799
963,1747638716370,0.005518615,0.34721538,0.85501945,1.9148535,0.9258154,0.2522799
964,1747638716380,0.05698503,0.35843554,0.7583674,1.9672335,0.6185592,0.28343314
965,1747638716390,0.0716352775,0.3747855825,0.706573235,1.9544439,0.5797703999999999,0.27763009
966,1747638716400,0.086285525,0.391135625,0.65477907,1.9416543,0.5409816,0.27182704
967,1747638716410,0.12363527,0.4206648,0.58756477,1.6892982,0.9569686,0.26449686
968,1747638716420,0.110326562,0.43066538,0.587305605,1.6185926,1.06875365,0.2611372
969,1747638716430,0.097017854,0.44066596,0.58704644,1.547887,1.1805387,0.25777754
970,1747638716440,0.0067381975,0.46728337,0.7864483,1.278656,1.4212126,0.22906773
971,1747638716450,-0.030245666249999997,0.47496675,0.8191484,1.3145050999999999,1.30484615,0.237008745
972,1747638716460,-0.06722953,0.48265013,0.8518485,1.3503542,1.1884797,0.24494976
973,1747638716470,-0.051344458,0.48704064,0.8608734,1.6425682,0.68086565,0.35734564
974,1747638716480,-0.0163271715,0.49423617000000003,0.7869361500000001,1.7438162,0.55777991,0.37292224
975,1747638716490,0.018690115,0.5014317,0.7129989,1.8450642,0.43469417,0.38849884
976,1747638716500,0.08541657150000001,0.5629444,0.51347512,1.7740532,0.49516807500000004,0.36620294
977,1747638716510,0.12391729075,0.5899048499999999,0.45301426,1.6295114499999999,0.6692595375,0.32268007
978,1747638716520,0.16241801,0.6168653,0.3925534,1.4849697,0.843351,0.2791572
979,1747638716530,0.087992944,0.65567845,0.47652173,0.9010761,1.5580423,0.067193195
980,1747638716540,0.0430817844,0.6549467449999999,0.534482415,0.8365935200000001,1.60660465,0.05314371
981,1747638716550,-0.0018293752,0.65421504,0.5924431,0.77211094,1.655167,0.039094225
982,1747638716560,-0.10723186,0.63884825,0.75519645,0.8787038,1.3717339,0.099568106
983,1747638716570,-0.088328323,0.6562882999999999,0.701641525,1.0493974000000001,1.11945395,0.187530103
984,1747638716580,-0.069424786,0.67372835,0.6480866,1.220091,0.867174,0.2754921
985,1747638716590,0.038691282,0.6959552,0.5470441,1.2188693,0.8622873,0.2754921
986,1747638716600,0.088114896,0.72084998,0.47492099,1.07367857,1.0537879,0.18264332500000002
987,1747638716610,0.13753851,0.74574476,0.40279788,0.92848784,1.2452885,0.08979455
988,1747638716620,0.11506769,0.7774539,0.3312998,0.48111856,2.0131235,-0.028709821
989,1747638716630,0.08566048500000001,0.77818565,0.36692689,0.34997729,2.20584585,-0.0665823505
990,1747638716640,0.05625328,0.7789174,0.40255398,0.21883602,2.3985682,-0.10445488
991,1747638716650,-0.04914921,0.7864788,0.5750945,-0.0035887277,2.394292,-0.24678229
992,1747638716660,-0.09198707,0.7733073,0.664779625,0.11228136614999999,2.16461355,-0.215018235
993,1747638716670,-0.13482493,0.7601358,0.75446475,0.22815146,1.9349351,-0.18325418
994,1747638716680,-0.137142145,0.7542818,0.761187705,0.3437543,1.8720178,-0.14263283699999998
995,1747638716690,-0.13945936,0.7484278,0.76791066,0.45935714,1.8091005,-0.102011494
996,1747638716700,-0.0930847,0.7423299,0.54143405,0.8462525,1.3998328,-0.056808796
997,1747638716710,-0.0828402,0.7923328,0.32764107,1.0288194,0.9917869,-0.07269082
998,1747638716720,-0.0725957,0.81308095,0.157051848,0.93723055,0.8864157500000001,-0.08948912
999,1747638716730,-0.0623512,0.8338291,-0.013537374,0.8456417,0.7810446,-0.10628742
1000,1747638716740,-0.054530622,0.83443892,-0.025977123999999997,0.7481352,0.8241092999999999,-0.12430741499999999
1001,1747638716750,-0.046710044,0.83504874,-0.038416874,0.6506287,0.867174,-0.14232741
