id,timestamp,acc_x,acc_y,acc_z,gyro_x,gyro_y,gyro_z
0,1747638732840,0.33373898,0.060948674,0.75031817,0.23624517,-1.7913096,0.5552602
1,1747638732850,0.38052016333333333,0.035398404,0.74161848,0.15090472,-1.8462858666666666,0.60657135
2,1747638732860,0.4273013466666667,0.009848134000000001,0.73291879,0.06556427000000001,-1.9012621333333333,0.6578825
3,1747638732870,0.47408253,-0.015702136,0.7242191,-0.01977618,-1.9562384,0.70919365
4,1747638732880,0.627811,-0.09256637,0.74812293,-0.11018158,-1.4883293,0.5173876
5,1747638732890,0.5937694,-0.09610316499999999,0.757772865,-0.11609916,-1.10471725,0.40621341999999994
6,1747638732900,0.5597278,-0.09963996,0.7674228,-0.12201674,-0.7211052,0.29503924
7,1747638732910,0.54338535,-0.0963470825,0.7705937350000001,-0.121062292,-0.604433365,0.27304872999999996
8,1747638732920,0.5270429,-0.093054205,0.77376467,-0.120107844,-0.48776153,0.25105822
9,1747638732930,0.45941702,-0.013506886,0.7247069,-0.15003936,-0.5903839,0.24128467
10,1747638732940,0.4782748525,-0.018316617775000002,0.6376439,-0.25113458,-0.7273663925,0.29244313
11,1747638732950,0.497132685,-0.02312634955,0.5505809,-0.35222980000000004,-0.8643488850000001,0.34360159
12,1747638732960,0.5655818,-0.08646846,0.48213178,-0.7313369,-0.6374191,0.34329617
13,1747638732970,0.5509468,-0.12148574,0.5925650600000001,-0.82701085,-0.43736663,0.310004995
14,1747638732980,0.5363118,-0.15650302,0.70299834,-0.9226848,-0.23731416,0.27671382
15,1747638732990,0.40352964,-0.1194277,0.8257494,-0.8996253,-0.06261184,0.23700874
16,1747638733000,0.38950443,-0.12052532499999999,0.8258713799999999,-0.85037575,-0.17897824499999998,0.30267482
17,1747638733010,0.37547922,-0.12162295,0.82599336,-0.8011262,-0.29534465,0.3683409
18,1747638733020,0.4738386,-0.19482844,0.7601053,-0.68964654,-0.46760356,0.5815266
19,1747638733030,0.51958825,-0.18347107,0.79207363,-0.52483232,-0.45691373,0.510973735
20,1747638733040,0.5653379,-0.1721137,0.82404196,-0.3600181,-0.4462239,0.44042087
21,1747638733050,0.52361289,-0.14392608,0.80670866,-0.296146385,-0.60565505,0.40041037
22,1747638733060,0.48188788,-0.11573846,0.78937536,-0.23227467,-0.7650862,0.36039987
23,1747638733070,0.47725347,-0.15869829,0.5848512,-0.3537569,-1.2195566,0.51799846
24,1747638733080,0.534360455,-0.175665735,0.718959625,-0.58335912,-0.90894075,0.62000996
25,1747638733090,0.59146744,-0.19263318,0.85306805,-0.81296134,-0.5983249,0.72202146
26,1747638733100,0.59146744,-0.19263318,0.85306805,-0.81296134,-0.5983249,0.72202146
27,1747638733110,0.6463792049999999,-0.22008904499999998,1.018778925,-0.677773215,-0.36528666750000005,0.7004890925
28,1747638733120,0.70129097,-0.24754491,1.1844898,-0.54258509,-0.132248435,0.6789567249999999
29,1747638733130,0.7034862,-0.20751211,1.4075516,-0.06589515,-0.17684028,0.5210527
30,1747638733140,0.6938362,-0.183836945,1.40547835,0.085518615,-0.25625043,0.49997847500000003
31,1747638733150,0.6841862,-0.16016178,1.4034051,0.23693238,-0.33566058,0.47890425
32,1747638733160,0.7261704,-0.13528228,1.2640373,0.74286664,-0.33443886,0.47279578
33,1747638733170,0.76900827,-0.109899705,1.1938807,0.84720697,-0.15729316200000001,0.44622392499999997
34,1747638733180,0.81184614,-0.08451713,1.1237241,0.9515473,0.019852536,0.41965207
35,1747638733190,0.82013935,-0.07573613,1.1025034,0.934749,0.2917559,0.2987043
36,1747638733200,0.8398965899999999,-0.075126335,1.14300875,0.91199495,0.48753245,0.238841275
37,1747638733210,0.85965383,-0.07451654,1.1835141,0.8892409,0.683309,0.17897825
38,1747638733220,0.8717429649999999,-0.08451712750000001,1.24757275,0.9688610375,0.98873265,-0.014354909999999999
39,1747638733230,0.8838321,-0.094517715,1.3116314,1.048481175,1.2941563,-0.20768807
40,1747638733240,0.7986442,-0.12845263,1.3045579,1.3466128,1.4334295,-0.401403
41,1747638733250,0.790351,-0.132721165,1.2800289999999999,1.40456695,1.4367891,-0.44263519
42,1747638733260,0.7820578,-0.1369897,1.2555001,1.4625211,1.4401487,-0.48386738
43,1747638733270,0.69150376,-0.14625853,0.973136,1.6587558,1.4749671,-0.67689514
44,1747638733280,0.656974315,-0.13430661,0.9204195,1.6453552999999999,1.4920708,-0.6991910699999999
45,1747638733290,0.62244487,-0.12235469,0.867703,1.6319548,1.5091745,-0.721487
46,1747638733300,0.5072552,-0.027897969,0.7871801,1.4525185,1.4548091,-0.67994934
47,1747638733310,0.502011,-0.006418057500000001,0.86320585,1.3279056,1.2520078,-0.6237514
48,1747638733320,0.4967668,0.015061854,0.9392316,1.2032927,1.0492065,-0.56755346
49,1747638733330,0.5006695,0.016769271,1.000973,1.1528215,0.959412,-0.49974942
50,1747638733340,0.5286132,0.0161594795,1.0517382,1.1581282499999999,1.0058364,-0.49700061
51,1747638733350,0.5565569,0.015549688,1.1025034,1.163435,1.0522608,-0.4942518
52,1747638733360,0.60634637,0.029452939,1.1566528,1.3142378,1.2037508,-0.6353575
53,1747638733370,0.60634637,0.029452939,1.1566528,1.3142378,1.2037508,-0.6353575
54,1747638733380,0.46185625,0.10265843,1.1107966,1.4531293,1.2287956,-0.761192
55,1747638733390,0.43941590500000005,0.11182054999999999,1.11140635,1.4612612,1.1441932499999998,-0.75905405
56,1747638733400,0.41697556,0.12098267,1.1120161,1.4693931,1.0595909,-0.7569161
57,1747638733410,0.38352847,0.112201676,1.1432374,1.4986374,0.9807916,-0.6274165
58,1747638733420,0.38901660000000005,0.106088513,1.16179035,1.546149875,1.02920125,-0.5797704
59,1747638733430,0.39450473,0.09997535,1.1803433,1.59366235,1.0776109,-0.5321243
60,1747638733440,0.40109047,0.10582935,1.189856,1.6659332,1.11059665,-0.5168531000000001
61,1747638733450,0.389626385,0.113893845,1.15910725,1.72278015,1.130907325,-0.52754295
62,1747638733460,0.3781623,0.12195834,1.1283585,1.7796271,1.151218,-0.5382328
63,1747638733470,0.3091034,0.18882199,1.0429267,1.7945929,1.27522,-0.481424
64,1747638733480,0.31203039,0.19321249499999998,1.05038145,1.7961582,1.21871665,-0.46218231
65,1747638733490,0.31495738,0.197603,1.0578362,1.7977235,1.1622133,-0.44294062
66,1747638733500,0.29227313,0.21760416,1.030243,1.8052064,1.087079,-0.37269318
67,1747638733510,0.26481727499999996,0.22774195,1.07344675,1.84319345,1.0626451,-0.29293944
68,1747638733520,0.23736142,0.23787974,1.1166505,1.8811805,1.0382112,-0.2131857
69,1747638733530,0.22245201,0.24348982,1.1244558,1.9472283,0.87144995,-0.15698774
70,1747638733540,0.254664255,0.23054699,1.0760078499999999,2.02950185,0.779517445,-0.105065725
71,1747638733550,0.2868765,0.21760416,1.0275599,2.1117754,0.68758494,-0.05314371
72,1747638733560,0.33227548,0.24007498,0.9196878,2.1404088,0.7144622,-0.073912516
73,1747638733570,0.33227548,0.24007498,0.9196878,2.1404088,0.7144622,-0.073912516
74,1747638733580,0.361576,0.24812423,0.8481897,2.1017728,0.78959644,-0.14232741
75,1747638733590,0.344608535,0.267286935,0.83343275,2.0482091000000002,0.84701607,-0.21929416499999999
76,1747638733600,0.32764107,0.28644964,0.8186758,1.9946454,0.9044357,-0.29626092
77,1747638733610,0.23467834,0.29327932,0.86794704,1.9416543,0.92276114,-0.22540264
78,1747638733620,0.22234529,0.30120661000000004,0.917492595,1.9765489500000002,0.85892762,-0.20738264499999998
79,1747638733630,0.21001224,0.3091339,0.96703815,2.0114436,0.7950941,-0.18936265
80,1747638733640,0.24150799,0.28644964,0.8184319,2.3129733,0.5690806,-0.05619795
81,1747638733650,0.25553321,0.32451588,0.70616925,2.3145385000000003,0.5531985500000001,-0.06291727
82,1747638733660,0.26955843,0.36258212,0.5939066,2.3161037,0.5373165,-0.06963659
83,1747638733670,0.27590024,0.3842907,0.54801977,2.0451167,0.5800758,-0.19974706
84,1747638733680,0.28236404000000004,0.377217115,0.538247885,1.9759381999999999,0.60634225,-0.23425992
85,1747638733690,0.28882784,0.37014353,0.528476,1.9067597,0.6326087,-0.26877278
86,1747638733700,0.23050125,0.40407845,0.49335194,1.5858358,0.7889856,-0.46187687
87,1747638733710,0.136913475,0.438973795,0.57449997,1.4104462999999998,0.81555745,-0.432250785
88,1747638733720,0.0433257,0.47386914,0.655648,1.2350568,0.8421293,-0.4026247
89,1747638733730,0.026983283,0.50069994,0.8230663,1.2001622,0.71995986,-0.27182704
90,1747638733740,0.026983283,0.50069994,0.8230663,1.2001622,0.71995986,-0.27182704
91,1747638733750,0.083602436,0.5446355,0.99146026,1.5591112,0.25327253,-0.098957255
92,1747638733760,0.11604336,0.54024494,0.9235905,1.7372496,0.16103461,-0.080020994
93,1747638733770,0.11604336,0.54024494,0.9235905,1.7372496,0.16103461,-0.080020994
94,1747638733780,0.1563201,0.5543921,0.670283,1.8588082,0.3326827,-0.04886778
95,1747638733790,0.14266077,0.5809942800000001,0.6429491,1.8615951499999999,0.4646257,-0.052838288
96,1747638733800,0.12900144,0.60759646,0.6156152,1.8643821,0.5965687,-0.056808796
97,1747638733810,0.0787241,0.739159,0.56411827,1.4680951,0.6301653,-0.18569757
98,1747638733820,0.0526097735,0.739021785,0.582793135,1.3789877499999998,0.600233775,-0.193638585
99,1747638733830,0.026495447,0.73888457,0.601468,1.2898804,0.57030225,-0.2015796
100,1747638733840,-0.0030489585,0.7081511,0.86331254,1.3609676,0.69980186,-0.09407048
101,1747638733850,-0.008415125249999999,0.7175419000000001,0.86832807,1.4650026,0.61183986,-0.07116370699999999
102,1747638733860,-0.013781292,0.7269327,0.8733436,1.5690376,0.52387786,-0.048256934
103,1747638733870,0.02332453,0.7481839,0.76156884,1.7671812,0.39193487,0.06291727
104,1747638733880,0.079699775,0.7221915,0.66467294,1.83945205,0.611534485,0.052532865
105,1747638733890,0.13607502,0.6961991,0.56777704,1.9117229,0.8311341,0.04214846
106,1747638733900,0.07067485,0.7215665,0.42160997,1.9422653,0.84457266,-0.043370154
107,1747638733910,0.07067485,0.7215665,0.42160997,1.9422653,0.84457266,-0.043370154
108,1747638733920,0.041374367,0.83114606,0.26102132,1.6220286,0.5843518,-0.019547112
109,1747638733930,0.12070826,0.7896497,0.31178647,1.3715048,0.57091314,-0.05803049
110,1747638733940,0.12070826,0.7896497,0.31178647,1.3715048,0.57091314,-0.05803049
111,1747638733950,0.08409027,0.7547697,0.4921324,1.2649883,0.5861843,-0.25533417
112,1747638733960,0.0250319465,0.74867175,0.50420625,1.29240005,0.556863625,-0.24556061
113,1747638733970,-0.034026377,0.7425738,0.5162801,1.3198118,0.52754295,-0.23578705
114,1747638733980,-0.095523864,0.68985736,0.50823087,1.4899328,0.35711658,0.08551861
115,1747638733990,-0.04806682783,0.647263405,0.469432885,1.5326157500000002,0.393767415,0.127056225
116,1747638734000,-0.00060979166,0.60466945,0.4306349,1.5752987,0.43041825,0.16859384
117,1747638734010,-0.02646496,0.6039377,0.20245083,1.8588082,0.24777491,0.12583454
118,1747638734020,-0.04660333,0.63602797,0.157051845,1.8497599999999998,0.08158627999999998,0.16492876499999998
119,1747638734030,-0.0667417,0.66811824,0.11165286,1.8407118,-0.08460235,0.20402299
120,1747638734040,-0.038416874,0.7679412,0.0064637917,1.3379083,-0.6893411,0.33963108
121,1747638734050,0.007210785500000004,0.7537940249999999,0.02087012085,1.2518932999999999,-0.70369603,0.35337514
122,1747638734060,0.052838445,0.73964685,0.03527645,1.1658783,-0.71805096,0.3671192
123,1747638734070,0.181474,0.6940039,-0.0028050416,1.00576,-0.3130592,0.38300124
124,1747638734080,0.20476804999999998,0.6653284500000001,-0.0569850328,1.0120212,-0.106287415,0.33291176
125,1747638734090,0.2280621,0.636653,-0.111165024,1.0182824,0.10048437,0.28282228
126,1747638734100,0.071162686,0.79135716,-0.20827435,0.6736882,0.39254573,0.18569757
127,1747638734110,0.051146275500000005,0.81454448,-0.208640225,0.5767925349999999,0.30397287,0.20127417
128,1747638734120,0.031129865,0.8377318,-0.2090061,0.47989687,0.21540001,0.21685077
129,1747638734130,0.030398116,0.87752074,-0.119946025,0.11728267,-0.38086328,0.26449686
130,1747638734140,0.044423323,0.8772768200000001,-0.1100674025,0.08395332,-0.43736665,0.27763008
131,1747638734150,0.05844853,0.8770329,-0.10018878,0.05062397,-0.49387002,0.2907633
132,1747638734160,0.19196242,0.81480366,-0.10823802,-0.05596888,-0.31489176,0.21440738
133,1747638734170,0.19196242,0.81480366,-0.10823802,-0.05596888,-0.31489176,0.21440738
134,1747638734180,0.17217468,0.80309564,-0.1753456,-0.25846475,0.3962108,0.036650836
135,1747638734190,0.13520606,0.8333565700000001,-0.16081731999999999,-0.334782475,0.50158195,0.002443389499999997
136,1747638734200,0.09823744,0.8636175,-0.14628904,-0.4111002,0.6069531,-0.031764057
137,1747638734210,0.04600878,0.8296825,-0.07649837,-0.51387525,0.44202435,-0.09590302
138,1747638734220,0.013186744,0.8575043,-0.043676331,-0.550029775,-0.04180484999999995,-0.055281677
139,1747638734230,-0.019635292,0.8853261,-0.010854292,-0.5861843,-0.52563405,-0.014660334
140,1747638734240,-0.022806209,0.8040713,-0.055277612,-0.6771242,-0.77730316,0.08979455
141,1747638734250,-0.0012043379999999992,0.77246883,-0.0545458645,-0.724197625,-0.80967805,0.1279725
142,1747638734260,0.020397533,0.74086636,-0.053814117,-0.77127105,-0.84205294,0.16615045
143,1747638734270,0.17217468,0.6393361,0.009634708,-0.9020687,-0.33382803,0.21562909
144,1747638734280,0.17254055499999998,0.633726025,-0.010000583499999998,-0.900197965,-0.231205685,0.188751805
145,1747638734290,0.17290643,0.62811595,-0.029635875,-0.89832723,-0.12858334,0.16187452
146,1747638734300,0.07238227,0.75306225,-0.14043503,-1.2030637,0.073607095,0.08735116
147,1747638734310,0.018568155000000003,0.7912504250000001,0.0034300750000000046,-1.4361019,-0.37719818749999995,0.10811996500000001
148,1747638734320,-0.03524596,0.8294386,0.14729518,-1.6691401,-0.82800347,0.12888877
149,1747638734330,-0.030367626,0.79257673,0.31593305,-1.7121285,-1.297745,0.26266432
150,1747638734340,-0.030367626,0.79257673,0.31593305,-1.7121285,-1.297745,0.26266432
151,1747638734350,0.11872645,0.66885,0.49481544,-1.563769,-1.6966282,0.47768256
152,1747638734360,0.18304421999999998,0.6450528799999999,0.46821327,-1.4425921499999999,-1.4122788,0.5176930550000001
153,1747638734370,0.24736199,0.62125576,0.4416111,-1.3214153,-1.1279294,0.55770355
154,1747638734380,0.37035698,0.5849122,0.23513566,-1.2709441,-0.008246438,0.36773005
155,1747638734390,0.38011364999999997,0.59174187,0.151914347,-1.3229806499999999,0.240101151,0.25258534499999996
156,1747638734400,0.38987032,0.59857154,0.068693034,-1.3750172,0.48844874,0.13744064
157,1747638734410,0.1329041,0.6197923,0.031617697,-1.9245507,0.48600534,-0.41117656
158,1747638734420,-0.05489648999999999,0.63200335,0.2165979985,-2.105247,-0.05127299999999996,-0.41850673000000005
159,1747638734430,-0.24269708,0.6442144,0.4015783,-2.2859433,-0.58855134,-0.4258369
160,1747638734440,-0.24269708,0.6442144,0.4015783,-2.5189815,-1.385707,-0.1007898
161,1747638734450,0.005015539999999985,0.56757885,0.74714725,-2.3451571500000004,-1.6489821500000001,0.42148460000000004
162,1747638734460,0.25272816,0.4909433,1.0927162,-2.1713328,-1.9122573,0.943759
163,1747638734470,0.47408253,0.45557535,1.058324,-1.6871601,-1.4046433,0.92848784
164,1747638734480,0.5377752650000001,0.474234975,0.9720537,-1.48031195,-1.07600745,0.8124268699999999
165,1747638734490,0.601468,0.4928946,0.8857834,-1.2734638,-0.7473716,0.6963659
166,1747638734500,0.49188846,0.5844243,0.37694272,-1.0503519,0.117588095,0.08246438
167,1747638734510,0.2739489115,0.6594592,0.26224091,-1.4354529,-0.19486028249999998,-0.03329117499999999
168,1747638734520,0.056009363,0.7344941,0.1475391,-1.8205539,-0.50730866,-0.14904673
169,1747638734530,0.041252405,0.70851695,0.19048367500000002,-2.07474275,-0.9242118799999999,-0.07360709409999999
170,1747638734540,0.026495447,0.6825398,0.23342825,-2.3289316,-1.3411151,0.0018325418
171,1747638734550,0.18123008,0.55170906,0.8213589,-2.8305135,-2.0240424,0.532048
172,1747638734560,0.3154452325,0.47135373999999997,0.9503908000000001,-2.708248575,-1.758018425,0.59863033
173,1747638734570,0.44966038500000005,0.39099842,1.0794227,-2.58598365,-1.49199445,0.6652126599999999
174,1747638734580,0.51847535,0.32889116,1.16644,-2.0461092,-0.4046863,0.5473192
175,1747638734590,0.494083685,0.382461355,0.9929237499999999,-1.6320693,-0.1939440005,0.310921285
176,1747638734600,0.46969202,0.43603155,0.8194075,-1.2180294,0.016798299,0.07452337
177,1747638734610,0.32105532,0.49484593,0.53875095,-1.2123791,-0.26480228,-0.10567658
178,1747638734620,0.266875335,0.510471865,0.463091045,-1.3136269999999999,-0.44103174,-0.10659285
179,1747638734630,0.21269535,0.5260978,0.38743114,-1.4148749,-0.6172612,-0.10750912
180,1747638734640,0.11043327,0.52024376,0.5394827,-2.2946477,-1.1920685,0.2522799
181,1747638734650,0.11043327,0.52024376,0.5394827,-2.2946477,-1.1920685,0.2522799
182,1747638734660,0.36108813,0.34233707,1.1705866,-2.5925121,-1.3661599,0.81914616
183,1747638734670,0.44478208,0.2695889,1.3289495,-2.385664,-1.0589037,0.8826743
184,1747638734680,0.55058092,0.236279025,1.3034602,-1.89778795,-0.5149442274999999,0.803569565
185,1747638734690,0.65637976,0.20296915,1.2779709,-1.4099119,0.029015245,0.72446483
186,1747638734700,0.6114685799999999,0.26836930999999997,1.0368439999999999,-1.084673865,-0.10506572750000001,0.35795648399999996
187,1747638734710,0.5665574,0.33376947,0.7957171,-0.75943583,-0.2391467,-0.008551862
188,1747638734720,0.38011363,0.39282778,0.5453367,-0.91146046,-0.63925165,-0.18203248
189,1747638734730,0.28311102,0.405770615,0.5413121000000001,-1.46943133,-0.9312366750000001,-0.026266435000000005
190,1747638734740,0.18610841,0.41871345,0.5372875,-2.0274022,-1.2232217,0.12949961
191,1747638734750,0.28785217,0.34623972,0.8999306,-2.5183706,-1.2794195,0.41965207
192,1747638734760,0.28785217,0.34623972,0.8999306,-2.5183706,-1.2794195,0.41965207
193,1747638734770,0.5568008,0.16342416,1.5442059,-2.300298,-0.93917763,0.66276926
194,1747638734780,0.58462255,0.13328521000000002,1.5645882,-2.10276525,-0.796850235,0.63039438
195,1747638734790,0.6124443,0.10314626,1.5849705,-1.9052325,-0.65452284,0.5980195
196,1747638734800,0.5309456,0.17833358,1.0417072,-0.7313369,0.07849387,0.21868332
197,1747638734810,0.48810774,0.18918786999999998,0.87210885,-0.7182800199999999,0.082464378,0.160958255
198,1747638734820,0.44526988,0.20004216,0.7025105,-0.70522314,0.086434886,0.10323319
199,1747638734830,0.33056808,0.26861322,0.42941532,-1.219862,-0.083380654,0.1331647
200,1747638734840,0.36143877,0.23749860499999997,0.50201101,-1.756644,-0.094070479,0.181116215
201,1747638734850,0.39230946,0.20638399,0.5746067,-2.293426,-0.104760304,0.22906773
202,1747638734860,0.48725405,0.096072674,1.1700988,-2.3040395,-0.092543356,0.17409147
203,1747638734870,0.48725405,0.096072674,1.1700988,-2.3040395,-0.092543356,0.17409147
204,1747638734880,0.60195583,0.0018903542,1.3604453,-1.7382423,0.12003148,-0.05986303
205,1747638734890,0.580110065,0.0267698541,1.32054965,-1.59713655,0.28194419000000004,-0.12919419
206,1747638734900,0.5582643,0.051649354,1.280654,-1.4560308,0.4438569,-0.19852535
207,1747638734910,0.5367996,0.09899968,1.1627812,-1.3924264,0.815252,-0.3189386
208,1747638734920,0.43429363,0.1545212075,1.137208125,-1.4642581749999999,0.6915554349999999,-0.3053281725
209,1747638734930,0.33178766,0.210042735,1.1116350499999998,-1.53608995,0.56785887,-0.29171774500000003
210,1747638734940,0.2637044,0.2019935,1.2396455,-1.5407859,-0.06688777,-0.15698774
211,1747638734950,0.278598565,0.18699262,1.2796631,-1.44793705,-0.33046838500000003,-0.09590301749999999
212,1747638734960,0.29349273,0.17199174,1.3196807,-1.3550882,-0.594049,-0.034818295
213,1747638734970,0.31446958,0.14586218,1.3548352,-1.0080507,-0.9214631,0.06658235
214,1747638734980,0.31166454,0.131836967,1.2973623,-0.8323175700000001,-0.76600245,0.20829892499999997
215,1747638734990,0.3088595,0.117811754,1.2398894,-0.65658444,-0.6105418,0.3500155
216,1747638735000,0.37572315,0.07314452,1.1852217,-0.54815906,-0.4639385,0.43736663
217,1747638735010,0.40756950999999997,0.0526402715,1.11957755,-0.46622917,-0.430647325,0.476155445
218,1747638735020,0.43941587,0.032136023,1.0539334,-0.38429928,-0.39735615,0.51494426
219,1747638735030,0.51774365,0.012134855,0.90139407,-0.31512082,-0.34115818,0.5454866
220,1747638735040,0.541662725,0.016281437500000003,0.8383111050000001,-0.306416245,-0.343296155,0.5323534000000001
221,1747638735050,0.5655818,0.02042802,0.77522814,-0.29771167,-0.34543413,0.5192202
222,1747638735060,0.5841347,0.024818520500000003,0.6971290699999999,-0.382428555,-0.360094465,0.489899515
223,1747638735070,0.6026876,0.029209021,0.61903,-0.46714544,-0.3747548,0.46057883
224,1747638735080,0.6522332,-0.0020123124,0.7732768,-0.95689225,-0.59221643,0.33169007
225,1747638735090,0.66491685,-0.0166625587,0.8497752000000001,-1.030728375,-0.596186935,0.272743305
226,1747638735100,0.6776005,-0.031312805,0.9262736,-1.1045645,-0.60015744,0.21379654
227,1747638735110,0.64101297,-0.0898833,1.1395786,-1.1070843,-0.29045787,0.03298575
228,1747638735120,0.585003615,-0.074013467,1.1349442,-1.0030494,-0.18111621,-0.0006108500000000031
229,1747638735130,0.52899426,-0.058143634,1.1303098,-0.8990145,-0.07177455,-0.03420745
230,1747638735140,0.5028647,-0.021800052,0.96703815,-0.6372664,-0.062306422,-0.07849387
231,1747638735150,0.482116525,0.0038264434999999986,0.939826225,-0.6544083,-0.137287926,-0.078035735
232,1747638735160,0.46136835,0.029452939,0.9126143,-0.6715502,-0.21226943,-0.0775776
233,1747638735170,0.4984742,-0.0020123124,1.0321944,-0.789291,-0.4010212,-0.083686076
234,1747638735180,0.48835165,-0.0361911362,1.1168792,-0.688997525,-0.40621341,-0.09987352799999999
235,1747638735190,0.4782291,-0.07036996,1.201564,-0.58870405,-0.41140562,-0.11606098
236,1747638735200,0.47432646,-0.09159071,1.1901,-0.46034977,-0.3155026,-0.11606098
237,1747638735210,0.47432646,-0.09159071,1.1901,-0.46034977,-0.3155026,-0.11606098
238,1747638735220,0.46749678,-0.070613876,1.0141445,-0.2858765,0.23433629,-0.10934166
239,1747638735230,0.462847125,-0.058524758,1.0060953000000001,-0.29897154,0.309165075,-0.12705623
240,1747638735240,0.45819747,-0.04643564,0.9980461,-0.31206658,0.38399386,-0.1447708
241,1747638735250,0.45770964,-0.06280854,1.0117054,-0.32321456,0.42308807,-0.2131857
242,1747638735260,0.43154194999999995,-0.0556587345,1.0619751000000002,-0.29240495,0.34123455,-0.23364907499999998
243,1747638735270,0.40537426,-0.048508929,1.1122448,-0.26159534,0.25938103,-0.25411245
244,1747638735280,0.40990198,-0.0547288,1.2047349,-0.055358034,-0.0839915,-0.2596101
245,1747638735290,0.42685417999999997,-0.07267192,1.2365813,0.009162707999999992,-0.047646087499999996,-0.255945
246,1747638735300,0.44380638,-0.09061504,1.2684277,0.07368345,-0.011300675,-0.2522799
247,1747638735310,0.4308788,-0.085004956,1.3570304,0.3671192,0.4945572,-0.2583884
248,1747638735320,0.41978059,-0.080004668,1.369958,0.42537875999999997,0.583435475,-0.25533415000000004
249,1747638735330,0.40868238,-0.07500438,1.3828856,0.48363832,0.67231375,-0.2522799
250,1747638735340,0.4101459,-0.05863147,1.3084605,0.8076164,0.87511504,-0.20524468
251,1747638735350,0.41843905000000003,-0.038508344,1.2234098,0.9098188,0.8604547199999999,-0.24556059
252,1747638735360,0.4267322,-0.018385218,1.1383591,1.0120212,0.8457944,-0.2858765
253,1747638735370,0.40990198,-0.0022562293,1.0773494,1.0114104,0.7596649,-0.32199287
254,1747638735380,0.41612183999999997,-0.013613599649999999,1.06637315,0.99178692,0.74469915,-0.31893862500000003
255,1747638735390,0.4223417,-0.02497097,1.0553969,0.97216344,0.7297334,-0.31588438
256,1747638735400,0.4586853,-0.0415573,1.147384,0.96406966,0.68086565,-0.30053684
257,1747638735410,0.4586853,-0.0415573,1.147384,0.96406966,0.68086565,-0.30053684
258,1747638735420,0.43356186,-0.043508638,1.2242787,1.1086115,1.0663103,-0.26083177
259,1747638735430,0.41147217,-0.024727053500000002,1.23976745,1.1425517,1.1283113,-0.243728055
260,1747638735440,0.38938248,-0.005945469,1.2552562,1.1764919,1.1903123,-0.22662434
261,1747638735450,0.38377237,0.030672522,1.3052896,1.3945643,1.0815815,-0.12522368
262,1747638735460,0.399032425,0.043493391,1.27588235,1.4805792000000002,0.9890380999999999,-0.12339114500000001
263,1747638735470,0.41429248,0.05631426,1.2464751,1.5665941,0.8964947,-0.12155861
264,1747638735480,0.41599986,0.10509759,1.1120161,1.6001908,0.8549571,-0.1575986
265,1747638735490,0.413560705,0.1057073875,1.1384963,1.58243805,0.875267775,-0.17806198
266,1747638735500,0.41112155,0.106317185,1.1649765,1.5646852999999998,0.89557845,-0.19852535999999998
267,1747638735510,0.37865016,0.131715,1.2120525,1.5808727,1.0351571,-0.23823044
268,1747638735520,0.37182048,0.1273245,1.22658075,1.59114255,1.0870790499999998,-0.24494976
269,1747638735530,0.3649908,0.122934,1.241109,1.6014124,1.139001,-0.25166908
270,1747638735540,0.31251824,0.14366692,1.2987038,1.7011333,1.2538403,-0.27121618
271,1747638735550,0.26443616,0.16342416,1.3355657,1.8462858,1.2605597,-0.26083177
272,1747638735560,0.22708642,0.16464376,1.30407,1.9609724,1.2184112,-0.20341213
273,1747638735570,0.1917185,0.17808965,1.2537926,2.0425968,1.1890905,-0.10567658
274,1747638735580,0.1917185,0.17808965,1.2537926,2.0425968,1.1890905,-0.10567658
275,1747638735590,0.18903543,0.19418816,1.2140037,2.1603377,1.0577583,0.114839286
276,1747638735600,0.214905835,0.195773615,1.18057185,2.206914825,1.0064471625,0.18722468050000002
277,1747638735610,0.24077624,0.19735907,1.14714,2.25349195,0.955136025,0.259610075
278,1747638735620,0.24077624,0.19735907,1.14714,2.269374,0.9795699,0.28893074
279,1747638735630,0.26382637,0.227498015,1.1127326000000002,2.386523,0.95055466,0.29503921499999997
280,1747638735640,0.2868765,0.25763696,1.0783252,2.503672,0.92153942,0.30114768999999997
281,1747638735650,0.26980233,0.27763817,0.9978021,2.5248609,0.8732825,0.25533417
282,1747638735660,0.259679785,0.2797267,0.974005,2.49714365,0.8931350499999999,0.255639585
283,1747638735670,0.24955724,0.28181523,0.9502079,2.4694264,0.9129876,0.255945
284,1747638735680,0.19220634,0.29205972,0.87675846,2.3884127,1.0015604,0.3164189
285,1747638735690,0.19488942,0.28974251,0.91384906,2.3591302499999998,0.94078112,0.40774055
286,1747638735700,0.1975725,0.2874253,0.95093966,2.3298478,0.88000184,0.4990622
287,1747638735710,0.21171968,0.29693806,1.0014608,2.3952466,0.83021777,0.50333815
288,1747638735720,0.20879267499999998,0.30840213,0.9874203850000001,2.51987855,0.721945105,0.480431375
289,1747638735730,0.20586567,0.3198662,0.97337997,2.6445105,0.61367244,0.4575246
290,1747638735740,0.08774903,0.37599754,0.7954732,2.694371,0.28686914,0.4770717
291,1747638735750,0.08457811000000001,0.38233937,0.796204975,2.6831465999999997,0.10846356500000001,0.507614075
292,1747638735760,0.08140719,0.3886812,0.79693675,2.6719222,-0.06994201,0.53815645
293,1747638735770,0.13485542,0.42554313,0.76937413,2.5815933,-0.41018394,0.6969767
294,1747638735780,0.19781641,0.42554313,0.794512765,2.5345198,-0.18569757,0.6658235
295,1747638735790,0.2607774,0.42554313,0.8196514,2.4874463,0.0387888,0.6346703
296,1747638735800,0.26870468999999997,0.42566508000000003,0.81341632,2.5061536,0.11090694999999999,0.58977302
297,1747638735810,0.27663198,0.42578703,0.80718124,2.5248609,0.1830251,0.54487574
298,1747638735820,0.2326965,0.49069935,0.6749174,2.5211194,0.13782242,0.39216393
299,1747638735830,0.241248835,0.497894875,0.6093953,2.40773085,0.034856475,0.296260915
300,1747638735840,0.24980117,0.5050904,0.5438732,2.2943423,-0.06810947,0.2003579
301,1747638735850,0.279559,0.4853332,0.49944985,2.1690423,0.03939965,0.14049487
302,1747638735860,0.27809549,0.483747735,0.48859556,2.1307498000000002,0.110296105,0.11850437
303,1747638735870,0.27663198,0.48216227,0.47774127,2.0924573,0.18119256,0.09651387
304,1747638735880,0.21050009,0.5041148,0.44795296,1.923558,0.5409816,0.0684149
305,1747638735890,0.223808795,0.5293753999999999,0.468335245,1.85938085,0.5703022799999999,0.09681929
306,1747638735900,0.2371175,0.554636,0.48871753,1.7952037,0.59962296,0.12522368
307,1747638735910,0.28443733,0.6139383,0.5204267,1.7703117,0.4102603,0.036650836
308,1747638735920,0.280046815,0.6416380850000001,0.435010125,1.76748655,0.4438569,-0.051922016999999994
309,1747638735930,0.2756563,0.66933787,0.34959355,1.7646614,0.4774535,-0.14049487
310,1747638735940,0.20830485,0.6991262,0.28760824,1.657534,0.46767992,-0.1771457
311,1747638735950,0.20830485,0.6991262,0.28760824,1.657534,0.46767992,-0.1771457
312,1747638735960,0.14656343,0.7140051,0.22733033,1.3440931,0.44630027,-0.124001995
313,1747638735970,0.14802693,0.69424784,0.27833942,1.1746593,0.40842775,-0.08551861
314,1747638735980,0.14802693,0.69424784,0.27833942,1.0550096,0.40354097,-0.04459185
315,1747638735990,0.1917185,0.6695818,0.4501482,1.0550096,0.40354097,-0.04459185
316,1747638736000,0.207085255,0.676792575,0.4619934,1.2014220500000001,0.359254535,-0.08338065
317,1747638736010,0.22245201,0.68400335,0.4738386,1.3478345,0.3149681,-0.12216945
318,1747638736020,0.051862784,0.7464765,0.25614297,1.4849697,0.07177455,-0.08857285
319,1747638736030,0.08529461699999999,0.7840549,0.2072072,1.376677925,0.07711946624999999,-0.015882027499999993
320,1747638736040,0.11872645,0.8216333,0.15827143,1.26838615,0.08246438249999999,0.056808795
321,1747638736050,0.187328,0.80943745,0.17656519,1.0650122,0.19768545,0.0904054
322,1747638736060,0.1887915,0.808217875,0.169613555,1.00845155,0.2526616975,0.031305925
323,1747638736070,0.190255,0.8069983,0.16266192,0.9518909,0.307637945,-0.02779355
324,1747638736080,0.16314976,0.7574527,0.24318492,0.8899281,0.23128204,-0.087962
325,1747638736090,0.14698266100000001,0.7295623575,0.28187621,0.9394449,0.132286608,-0.090099967
326,1747638736100,0.130815562,0.701672015,0.3205675,0.9889617,0.033291176,-0.092237934
327,1747638736110,-0.000121958336,0.5844243,0.19976775,1.6413466,-0.42606595,0.08490777
328,1747638736120,-0.001585458418,0.6048066000000001,0.122156515,1.76282885,-0.593132675,0.181727065
329,1747638736130,-0.0030489585,0.6251889,0.04454528,1.8843111,-0.7601994,0.27854636
330,1747638736140,0.14961238,0.7063216999999999,-0.48356478999999997,1.6765085,-0.782189915,0.393691065
331,1747638736150,0.180300145,0.7217494149999999,-0.564834795,1.3707603499999998,-0.6355865775,0.41491800749999996
332,1747638736160,0.21098791,0.73717713,-0.6461048,1.0650122,-0.48898324,0.43614495
333,1747638736170,0.19123067,0.58540004,-0.28760824,0.29984966,0.2734305,0.3658975
334,1747638736180,0.132172345,0.56404209,-0.25283487,0.31790783,0.26548949,0.38025242
335,1747638736190,0.07311402,0.54268414,-0.2180615,0.335966,0.25754848,0.39460734
336,1747638736200,-0.07820578,0.60808426,-0.45966098,0.34467056,-0.46638188,0.6450547
337,1747638736210,0.019162705000000002,0.63456446,-0.4497671,-0.09242882000000002,-0.7995990399999999,0.84693975
338,1747638736220,0.11653119,0.66104466,-0.43987322,-0.5295282,-1.1328162,1.0488248
339,1747638736230,0.2563869,0.6864425,-0.2968771,-0.7537855,-1.2494881,1.0433271
340,1747638736240,0.2563869,0.6864425,-0.2968771,-0.7537855,-1.2494881,1.0433271
341,1747638736250,0.47066772,0.70376056,-0.087230705,-0.9320002,-1.1456441,0.7629482
342,1747638736260,0.45918838500000003,0.7063216800000001,-0.08662090750000001,-0.9665893999999999,-0.91138415,0.651774
343,1747638736270,0.44770905,0.7088828,-0.08601111,-1.0011786,-0.6771242,0.5405998
344,1747638736280,0.3957243,0.7279083,-0.08210845,-1.1307546,-0.2855711,0.43125817
345,1747638736290,0.335575975,0.7449367375,-0.0491720775,-1.28808595,-0.047913335,0.359178185
346,1747638736300,0.27542765,0.761965175,-0.016235705,-1.4454173,0.18974443,0.2870982
347,1747638736310,0.20537783,0.7481839,0.08384635,-1.6049248,0.020463383,0.255945
348,1747638736320,0.18902017,0.7401194,0.098359397,-1.6002671,-0.0949867485,0.26296975
349,1747638736330,0.17266251,0.7320549,0.112872444,-1.5956094,-0.21043688,0.2699945
350,1747638736340,0.17510168,0.6817776,0.20562175,-1.6597483,-0.6038225,0.3695626
351,1747638736350,0.22281789000000002,0.6565322,0.28689174500000003,-1.59091345,-0.6664343500000001,0.380863265
352,1747638736360,0.2705341,0.6312868,0.36816174,-1.5220786,-0.7290462,0.39216393
353,1747638736370,0.25394773,0.6364091,0.29736492,-1.3986875,-0.74248487,0.36773005
354,1747638736380,0.23917554,0.6412874,0.209021345,-1.3890285,-0.7470661999999999,0.368951735
355,1747638736390,0.22440335,0.6461657,0.12067777,-1.3793695,-0.75164753,0.37017342
356,1747638736400,0.2841934,0.6698257,-0.0020732917,-1.7693955,-0.49448085,0.46607646
357,1747638736410,0.37182048,0.68863773,0.05552153,-1.7693955,-0.49448085,0.46607646
358,1747638736420,0.42112213,0.674704,0.2754124,-2.1526258,-0.26846737,0.4300365
359,1747638736430,0.42112213,0.6708013349999999,0.37143935,-2.33610905,-0.15393351,0.31947313
360,1747638736440,0.42112213,0.66689867,0.4674663,-2.5195923,-0.03939965,0.20890976
361,1747638736450,0.20489,0.57003325,0.7534891,-2.1146004,-0.45538664,0.17897825
362,1747638736460,0.17158013,0.5501388,0.768505225,-1.94669385,-0.662463845,0.254723305
363,1747638736470,0.13827026,0.53024435,0.78352135,-1.7787873,-0.86954105,0.33046836
364,1747638736480,0.18927933,0.537074,0.4191708,-1.2478846,-1.5200934,0.8087618
365,1747638736490,0.36096618,0.55012355,0.28128165,-1.5360518,-1.115101675,0.8698465
366,1747638736500,0.53265303,0.5631731,0.1433925,-1.824219,-0.71010995,0.9309312
367,1747638736510,0.6275671,0.59832764,0.28346166,-2.2566988,-0.20127417,0.747677
368,1747638736520,0.6352657,0.59418102,0.38267477,-2.3953230000000003,-0.042453885,0.650857735
369,1747638736530,0.6429643,0.5900344,0.48188788,-2.5339472,0.1163664,0.55403847
370,1747638736540,0.5526542,0.5448794,1.0605192,-2.5925121,0.34612134,0.03787253
371,1747638736550,0.487254035,0.5336592,1.07381265,-2.3943685500000003,0.10907442,-0.037567105
372,1747638736560,0.42185387,0.522439,1.0871061,-2.196225,-0.1279725,-0.11300674
373,1747638736570,0.18342534,0.4804549,0.7801065,-1.61676,-0.9709417,0.19791451
374,1747638736580,0.18342534,0.4804549,0.7801065,-1.61676,-0.9709417,0.19791451
375,1747638736590,0.3693813,0.45606318,0.51164573,-1.630504,-1.0955546,0.66276926
376,1747638736600,0.43337895000000004,0.4445838525,0.490173435,-1.7364096500000001,-0.886644815,0.70613943
377,1747638736610,0.49737660000000006,0.43310452499999996,0.46870113999999996,-1.8423153,-0.67773503,0.7495096
378,1747638736620,0.5834182,0.41920128,0.56143516,-2.2435656,0.08460235,0.63894624
379,1747638736630,0.603000125,0.41529862500000003,0.69077963,-2.265078925,0.16389795499999998,0.4592044325
380,1747638736640,0.62258205,0.41139597,0.8201241,-2.28659225,0.24319355999999998,0.279462625
381,1747638736650,0.49993768,0.43651935,0.8635565,-2.1096373,-0.11880979,-0.03787253
382,1747638736660,0.448806655,0.430665375,0.84989715,-2.1115080500000003,-0.28251684499999996,-0.0314586335
383,1747638736670,0.39767563,0.4248114,0.8362378,-2.1133788,-0.4462239,-0.025044737
384,1747638736680,0.38279673,0.3386783,0.91798043,-2.1675916,-0.67040485,0.25655586
385,1747638736690,0.457480965,0.31463726000000003,0.8827192150000001,-2.0940608000000003,-0.282822273,0.39155310499999996
386,1747638736700,0.5321652,0.29059622,0.847458,-2.02053,0.104760304,0.52655035
387,1747638736710,0.59195524,0.29010838,0.7798626,-2.0716121,0.49516806,0.4770717
388,1747638736720,0.64075382,0.2991333,0.81963625,-2.1909181999999996,0.82380388,0.19119519000000001
389,1747638736730,0.6895524,0.30815822,0.8594099,-2.3102243,1.1524397,-0.09468132
390,1747638736740,0.5468002,0.2827909,0.84160393,-2.3046503,0.8824452,-0.43133453
391,1747638736750,0.5468002,0.2827909,0.84160393,-2.3046503,0.8824452,-0.43133453
392,1747638736760,0.32422623,0.27105242,0.858922,-2.3183944,0.44752198,-0.5217399
393,1747638736770,0.24638632,0.23983108,1.0536895,-2.385664,-0.4535541,-0.13438639
394,1747638736780,0.24638632,0.23983108,1.0536895,-2.385664,-0.4535541,-0.13438639
395,1747638736790,0.46847245,0.12342183,1.1522623,-2.0660381,0.033291176,0.27060533
396,1747638736800,0.482619625,0.11084488249999999,1.0687971,-2.0065187,0.463976658,0.257777545
397,1747638736810,0.4967668,0.098267935,0.9853319,-1.9469993,0.89466214,0.24494976
398,1747638736820,0.4367328,0.106317185,0.7827895,-1.986857,1.4700803,0.039094225
399,1747638736830,0.38621156,0.1011949295,0.765578165,-2.095912375,0.955422386,-0.0068720325
400,1747638736840,0.33569032,0.096072674,0.74836683,-2.20496775,0.440764472,-0.05283829
401,1747638736850,0.42185387,0.08924301,0.9633794,-2.3205325,-0.272132453,-0.0262664315
402,1747638736860,0.440391535,0.038599812,1.16776635,-2.30388685,-0.4831801915,-0.005497625249999999
403,1747638736870,0.4589292,-0.012043386,1.3721533,-2.2872412,-0.69422793,0.015271181
404,1747638736880,0.4089263,-0.10037171,1.4714884,-1.8921758,-0.38208497,0.10750912
405,1747638736890,0.38086064,-0.11038754,1.44110545,-1.70056065,-0.23334366,0.17256434999999998
406,1747638736900,0.35279498,-0.12040337,1.4107225,-1.5089455,-0.08460235,0.23761958
407,1747638736910,0.35547805,-0.07207738,1.1086012,-1.1382375,-0.08521319,0.4086568
408,1747638736920,0.414658325,-0.0236294295,0.9879082,-1.23417865,-0.17989451,0.40407545
409,1747638736930,0.4738386,0.024818521,0.8672152,-1.3301198,-0.27457583,0.3994941
410,1747638736940,0.4738386,0.024818521,0.8672152,-1.5376552,-0.32649785,0.25350162
411,1747638736950,0.5375314,0.015549688,0.8598978,-1.5376552,-0.32649785,0.25350162
412,1747638736960,0.4979864,-0.06183288,1.0592996,-1.8279604,-0.22326468,0.10384403
413,1747638736970,0.45087993,-0.17113803,1.3050457,-1.7470231,-0.19150062,0.18814096
414,1747638736980,0.38474804,-0.21117085,1.3912092,-1.4753488,-0.088878274,0.34818295
415,1747638736990,0.38474804,-0.21117085,1.3912092,-1.4753488,-0.088878274,0.34818295
416,1747638737000,0.36694212000000004,-0.19860914000000002,1.3344681,-1.19496995,-0.088267427,0.4999785
417,1747638737010,0.3491362,-0.18604743,1.277727,-0.9145911,-0.08765658,0.65177405
418,1747638737020,0.418683,-0.11281146,0.9216392,-0.65971506,-0.3307738,0.79532313
419,1747638737030,0.42685418,-0.11000641750000001,0.86209303,-0.70396331,-0.44775105,0.798682765
420,1747638737040,0.43502536,-0.107201375,0.80254686,-0.74821156,-0.5647283,0.8020424
421,1747638737050,0.47530213,-0.11744587,0.7993759,-0.94131565,-1.010036,0.8050967
422,1747638737060,0.502148195,-0.14429195,0.8086599750000001,-0.97357599,-1.14549135,0.8228112599999999
423,1747638737070,0.52899426,-0.17113803,0.81794405,-1.00583633,-1.2809466999999999,0.84052582
424,1747638737080,0.5904918,-0.21458568,0.847458,-1.0684482,-1.1193776,0.90649736
425,1747638737090,0.6096392500000001,-0.20470706,0.8712551,-1.0609653,-1.0408837,0.8652651600000001
426,1747638737100,0.6287867,-0.19482844,0.8950522,-1.0534824,-0.9623898,0.82403296
427,1747638737110,0.69174767,-0.10598179,0.9485004,-1.0491302,-1.0369133,0.6658235
428,1747638737120,0.714081285,-0.091102875,0.9744927999999999,-1.04756485,-1.11540715,0.582748285
429,1747638737130,0.7364149,-0.07622396,1.0004852,-1.0459995,-1.193901,0.49967307
430,1747638737140,0.6834545,-0.13211136,0.96533066,-1.0572239,-1.2006203,0.22784603
431,1747638737150,0.67540525,-0.21289353,0.94494838,-1.0668829,-0.8704573499999999,0.17073181
432,1747638737160,0.667356,-0.2936757,0.9245661,-1.0765419,-0.5402944,0.11361759
433,1747638737170,0.58390605,-0.30977416,0.91798043,-1.0553913,-0.088878274,0.11606098
434,1747638737180,0.55827954,-0.29329455000000004,0.9700871149999999,-1.02206197,-0.017409146,0.18661382999999998
435,1747638737190,0.53265303,-0.27681494,1.0221938,-0.98873264,0.054059982,0.25716668
436,1747638737200,0.533994585,-0.26876569,1.0310967500000001,-0.92860237,-0.039094224000000004,0.29381752
437,1747638737210,0.53533614,-0.26071644,1.0399997,-0.8684721,-0.13224843,0.33046836
438,1747638737220,0.6185422,-0.27827844,0.95825714,-0.5999284,-0.59221643,0.27427042
439,1747638737230,0.6352657,-0.29207498,0.90639432,-0.57904505,-0.6175665850000001,0.22692976
440,1747638737240,0.6519892,-0.30587152,0.8545315,-0.5581617,-0.64291674,0.1795891
441,1747638737250,0.6395495,-0.39419982,0.85575116,-0.7425612,-0.35276428,0.04214846
442,1747638737260,0.6191672500000001,-0.370036825,0.9527689799999999,-0.6603258750000001,-0.19363857499999998,0.0384833775
443,1747638737270,0.598785,-0.34587383,1.0497868,-0.57809055,-0.03451287,0.034818295
444,1747638737280,0.56045955,-0.3192869,1.0324383,-0.43912283,0.080326416,0.043981
445,1747638737290,0.5405803250000001,-0.285001375,1.0107296799999999,-0.41297093,0.110296113,0.04734066
446,1747638737300,0.5207011,-0.25071585,0.98902106,-0.38681903,0.14026581,0.05070032
447,1747638737310,0.5572886,-0.23092812,1.0107297,-0.29648998,0.07727218,0.011606098
448,1747638737320,0.5635085,-0.22117145,1.0241451499999998,-0.26033545999999996,0.017103724,-0.025044736999999997
449,1747638737330,0.5697284,-0.21141478,1.0375606,-0.22418094,-0.043064732,-0.061695572
450,1747638737340,0.58756477,-0.2573016,1.0314626,-0.08460235,-0.16645588,-0.1447708
451,1747638737350,0.58756477,-0.2573016,1.0314626,-0.08460235,-0.16645588,-0.1447708
452,1747638737360,0.6156152,-0.32367742,1.0475917,0.14156385,0.15126105,-0.18630841
453,1747638737370,0.6282988,-0.31245726,1.0585679,0.24441525,0.30152947,-0.19669282
454,1747638737380,0.6282988,-0.31245726,1.0585679,0.24441525,0.30152947,-0.19669282
455,1747638737390,0.63025016,-0.3031884,1.0324383,0.40575528,0.5690806,-0.2675511
456,1747638737400,0.63282653,-0.29012363500000005,1.04855205,0.43038006,0.5742728,-0.28251685
457,1747638737410,0.6354029,-0.27705887,1.0646658,0.45500484,0.579465,-0.2974826
458,1747638737420,0.62976235,-0.25925294,1.0868622,0.53594214,0.5489226,-0.33909658
459,1747638737430,0.630859975,-0.25583809999999996,1.1375054,0.61386332,0.463709415,-0.36444674
460,1747638737440,0.6319576,-0.25242326,1.1881486,0.6917845,0.37849623,-0.3897969
461,1747638737450,0.69299775,-0.28340068,1.2545244,1.0288194,0.61367244,-0.51990736
462,1747638737460,0.69641259,-0.28644964,1.2451336,1.07650375,0.7413395199999999,-0.544952095
463,1747638737470,0.69982743,-0.2894986,1.2357428,1.1241881,0.8690066,-0.56999683
464,1747638737480,0.7027544,-0.28681552,1.1671717,1.2145171,1.4548091,-0.67628425
465,1747638737490,0.6820062499999999,-0.252408025,1.0877311,1.245517575,1.6376051500000002,-0.74225575
466,1747638737500,0.6612581,-0.21800053,1.0082905,1.27651805,1.8204012,-0.80822725
467,1747638737510,0.598785,-0.20848778,1.0112176,1.2132953,1.9080578,-0.92306656
468,1747638737520,0.54033644,-0.23826085,1.1067567,1.24288325,1.84972185,-0.85159743
469,1747638737530,0.48188788,-0.26803392,1.2022958,1.2724712,1.7913859,-0.7801283
470,1747638737540,0.43575716,-0.28193718,1.2877276,1.5727789,1.7602327,-0.50158197
471,1747638737550,0.439537855,-0.24167569,1.2630767999999999,1.7008278,1.77122795,-0.420950135
472,1747638737560,0.44331855,-0.2014142,1.238426,1.8288767,1.7822232,-0.3403183
473,1747638737570,0.57704586,-0.060094967,0.94874436,1.8588082,1.9575363,-0.263886
474,1747638737580,0.6541692649999999,-0.009954848500000002,0.9737610800000001,1.6647115000000001,2.12674115,-0.46916884999999997
475,1747638737590,0.73129267,0.04018527,0.9987778,1.4706148,2.295946,-0.6744517
476,1747638737600,0.67321,0.052381106,1.1173823,1.3889903,2.3075519,-0.8784747
477,1747638737610,0.67321,0.052381106,1.1173823,1.3889903,2.3075519,-0.8784747
478,1747638737620,0.56119126,0.055094678,1.235255,1.4899328,1.9728075,-1.1240354
479,1747638737630,0.411228255,0.014886538375000001,1.2783825,1.57247355,1.82223365,-1.09929605
480,1747638737640,0.26126525,-0.025321601250000002,1.32151,1.6550143,1.6716598,-1.0745567
481,1747638737650,0.1577836,-0.08159013,1.3895018,1.735417,1.8714069,-0.9096279
482,1747638737660,0.121668685,-0.08427321,1.44305675,1.82513525,1.9028654999999999,-0.8241093
483,1747638737670,0.08555377,-0.08695629,1.4966117,1.9148535,1.9343241,-0.7385907
484,1747638737680,0.0018293752,-0.08915155,1.4853915,2.3404613,1.7345772,-0.25166908
485,1747638737690,0.0125769526,-0.07450129999999999,1.46929305,2.40868525,1.6566941,-0.20463384
486,1747638737700,0.02332453,-0.05985105,1.4531946,2.4769092,1.578811,-0.1575986
487,1747638737710,0.041374367,-0.0005488125,1.2172052,2.6713114,1.0797489,0.0018325418
488,1747638737720,0.07883081850000001,0.007622396249999999,1.1726599,2.6557348000000003,0.9361998,0.0256555849
489,1747638737730,0.11628727,0.015793605,1.1281146,2.6401582,0.7926507,0.049478628
490,1747638737740,0.13534325,0.017013188,1.1120161,2.5771646,0.80120254,0.045813546
491,1747638737750,0.14058747,0.0071345626999999995,1.11543095,2.52921305,0.92978592,0.047646087
492,1747638737760,0.14583169,-0.0027440626,1.1188458,2.4812615,1.0583693,0.049478628
493,1747638737770,0.1270501,-0.004451479,1.3714216,2.5254717,1.7926077,0.11667182
494,1747638737780,0.1270501,-0.004451479,1.3714216,2.6644394,1.8103222,0.11545013
495,1747638737790,0.046496615,0.07997418,1.2613541,2.6644394,1.8103222,0.11545013
496,1747638737800,0.00060979166,0.11171384,1.1820507,2.823947,1.3778423,0.1551552
497,1747638737810,0.00060979166,0.11171384,1.1820507,2.823947,1.3778423,0.1551552
498,1747638737820,-0.029635875,0.09899968,1.1351881,2.8812902,0.923372,0.3475721
499,1747638737830,0.0028202852500000056,0.1002802425,1.0744223924999998,2.90247895,0.9142093,0.38422292999999996
500,1747638737840,0.0352764455,0.101560805,1.013656685,2.9236677,0.9050466,0.42087376
501,1747638737850,0.08384635,0.10314626,0.95459837,2.9497814,1.0137774,0.52532864
502,1747638737860,0.10191143,0.144154745,0.9002963850000001,2.8295208,1.3586007,0.42362257000000003
503,1747638737870,0.11997651,0.18516323,0.8459944,2.7092602,1.703424,0.3219165
504,1747638737880,0.019177949,0.19979824,0.8367256,2.6519933,1.7492375,0.28648737
505,1747638737890,-0.017074165500000002,0.208335325,0.84892145,2.6335915500000002,1.717168,0.314586335
506,1747638737900,-0.05332628,0.21687241,0.8611173,2.6151898,1.6850985,0.3426853
507,1747638737910,-0.095523864,0.22077508,0.8408722,2.7155216,1.3662362,0.5436541
508,1747638737920,-0.035977707,0.25897852,0.71334955,2.6582165,1.179622375,0.60901473
509,1747638737930,0.02356845,0.29718196,0.5858269,2.6009114,0.99300855,0.67437536
510,1747638737940,0.021861032000000002,0.305475145,0.5905985,2.5186378,1.030881075,0.676513345
511,1747638737950,0.020153614,0.31376833,0.5953701,2.4363642,1.0687536,0.67865133
512,1747638737960,0.034788612,0.31620747,0.67321,2.270672,1.3925027,0.6493306
513,1747638737970,0.030763989,0.34305355,0.6740637,2.2666250999999997,1.4447301000000001,0.62886723
514,1747638737980,0.026739366,0.36989963,0.6749174,2.2625782,1.4969575,0.60840386
515,1747638737990,0.044057447,0.42920187,0.5441171,2.1372783,1.4059414,0.54121065
516,1747638738000,0.060293151,0.44421799500000003,0.53446715,2.09241915,1.3863941999999998,0.535102175
517,1747638738010,0.076528855,0.45923412,0.5248172,2.04756,1.366847,0.5289937
518,1747638738020,0.14509992,0.5053344,0.4796926,1.9809014,1.3259203,0.48440188
519,1747638738030,0.14766105000000002,0.52169205,0.45735898,1.9556657,1.3246986,0.43339613
520,1747638738040,0.15022218,0.5380497,0.43502536,1.93043,1.3234769,0.38239038
521,1747638738050,0.13070884,0.5631731,0.34032473,1.6930395,1.2880478,0.26571855
522,1747638738060,0.12436701,0.52951264,0.33056808,1.6930395,1.2880478,0.26571855
523,1747638738070,0.13022101,0.4899676,0.31007907,1.6319548,1.355241,0.23517619
524,1747638738080,0.10604277,0.53780574,0.21171968,1.7391585,1.2623922,0.2596101
525,1747638738090,0.10604277,0.53780574,0.21171968,1.7391585,1.2623922,0.2596101
526,1747638738100,0.09482261,0.59174186,-0.05430195,1.6537926,0.8476269,0.29626092
527,1747638738110,0.106599209,0.6041282299999999,-0.1209216875,1.4706147999999999,0.519296515,0.32313821
528,1747638738120,0.118375808,0.6165145999999999,-0.18754142499999998,1.287437,0.19096613,0.3500155
529,1747638738130,0.13900201,0.5978397,-0.22464725,1.287437,0.19096613,0.3500155
530,1747638738140,0.18945465,0.61589719,-0.28577124,1.1576700925,0.10556204475,0.33291177250000004
531,1747638738150,0.23990729,0.63395468,-0.34689523,1.027903185,0.0201579595,0.31580804500000004
532,1747638738160,0.2693145,0.7191273,-0.45063603,0.6381827,0.15798037,0.0904054
533,1747638738170,0.24259038500000002,0.73463127,-0.43208313,0.46214413499999996,0.22181391,0.015882031500000005
534,1747638738180,0.21586627,0.75013524,-0.41353023,0.28610557,0.28564745,-0.058641337
535,1747638738190,0.10384752,0.7740391,-0.22025676,-0.0104607595,0.28564745,-0.175924
536,1747638738200,0.057488108999999996,0.780015025,-0.154231563,-0.044114626000000004,0.015003936250000016,-0.18371231
537,1747638738210,0.011128698,0.78599095,-0.088206366,-0.07776849250000001,-0.2556395775,-0.19150062
538,1747638738220,-0.005000292,0.75355005,-0.0960117,-0.09460497,-0.7278245,-0.12949961
539,1747638738230,0.005991202500000001,0.747208205,-0.118955105,-0.12171131499999999,-0.775165165,-0.09956809999999999
540,1747638738240,0.016982697,0.74086636,-0.14189851,-0.14881766,-0.82250583,-0.06963659
541,1747638738250,0.028934615,0.7340062,-0.103359684,-0.49211383,-0.53846186,-0.025655584
542,1747638738260,0.022836698500000002,0.7365826,-0.076757524,-0.56281939,-0.42301173,-0.034512869
543,1747638738270,0.016738782,0.739159,-0.050155364,-0.63352495,-0.3075616,-0.043370154
544,1747638738280,0.0015854583,0.8216333,0.013049542,-0.7563053,-0.55373305,-0.26449686
545,1747638738290,0.0015854583,0.8216333,0.013049542,-0.7563053,-0.55373305,-0.26449686
546,1747638738300,-0.10454878,0.76940465,0.034788612,-1.1058626,-0.93917763,-0.29381752
547,1747638738310,-0.1153116,0.71961516,0.14656343,-1.1924502,-1.0234746,-0.24250636
548,1747638738320,-0.1153116,0.71961516,0.14656343,-1.1924502,-1.0234746,-0.24250636
549,1747638738330,-0.17193076,0.66055685,0.21611017,-1.1662601,-1.0222529,-0.14110571
550,1747638738340,-0.133666335,0.6741704399999999,0.1932963425,-1.1472475,-0.940704785,0.007024744999999999
551,1747638738350,-0.09540191,0.68778403,0.170482515,-1.1282349,-0.85915667,0.1551552
552,1747638738360,-0.03280679,0.6905891,0.18805976,-1.3537903,-0.5763344,0.27732465
553,1747638738370,0.006844912499999994,0.72975295,0.261997005,-1.3005320500000002,-0.69025742,0.08002099000000001
554,1747638738380,0.046496615,0.7689168,0.33593425,-1.2472738,-0.80418044,-0.11728267
555,1747638738390,-0.08210845,0.7486717,0.39084598,-1.6080554,-0.9886563,-0.21135315
556,1747638738400,-0.080157115,0.723045225,0.473213565,-1.5899972500000001,-1.08150505,-0.21165857500000002
557,1747638738410,-0.07820578,0.69741875,0.55558115,-1.5719391,-1.1743538,-0.211964
558,1747638738420,-0.08210845,0.64787316,0.49896204,-1.3326397,-1.4083084,-0.083686076
559,1747638738430,0.007820577999999995,0.6612885799999999,0.42917138,-1.47408895,-1.0802834,-0.051616594
560,1747638738440,0.097749606,0.674704,0.35938072,-1.6155382,-0.7522584,-0.019547112
561,1747638738450,0.11336028,0.67982626,0.45356306,-1.8391848,-0.3967453,-0.15393351
562,1747638738460,0.1012864,0.676899255,0.5220274300000001,-1.89248115,-0.280378895,-0.233076405
563,1747638738470,0.08921252,0.67397225,0.5904918,-1.9457775,-0.16401249,-0.3122193
564,1747638738480,0.0020732917,0.6320186,0.7796187,-1.8672837,-0.19333316,-0.5144097
565,1747638738490,-0.08529460915,0.590522275,0.7365368999999999,-1.6613518,-0.6190937299999999,-0.43438873
566,1747638738500,-0.17266251,0.54902595,0.6934551,-1.4554199,-1.0448543,-0.35436776
567,1747638738510,-0.16116793,0.5226829,0.6026876,-1.3912046,-1.2012311,-0.13744064
568,1747638738520,-0.16116793,0.5226829,0.6026876,-1.3912046,-1.2012311,-0.13744064
569,1747638738530,-0.054058034,0.46435636,0.51871926,-1.4641246,-1.0876136,0.13255386
570,1747638738540,0.007820578000000002,0.44921828,0.61561518,-1.5320431,-0.9434536200000001,0.13285928
571,1747638738550,0.06969919,0.4340802,0.7125111,-1.5999616,-0.79929364,0.1331647
572,1747638738560,0.10823802,0.42212826,0.9135899,-1.5725499,-0.64780354,-0.0061084726
573,1747638738570,0.039423034,0.50118774,1.0878378,-1.3301198,-0.7192727,-0.30733252
574,1747638738580,-0.020732917999999996,0.53512267,1.04855195,-1.2936981,-0.81303775,-0.30271299500000004
575,1747638738590,-0.08088887,0.5690576,1.0092661,-1.2572764,-0.9068028,-0.29809347
576,1747638738600,-0.1255561,0.58564395,0.8943204,-1.3395116,-0.8768712,-0.14110571
577,1747638738610,-0.1255561,0.58564395,0.8943204,-1.3395116,-0.8768712,-0.14110571
578,1747638738620,-0.027684543,0.5509773,0.8999306,-1.310191,-0.8011262,0.083075225
579,1747638738630,0.022348863500000003,0.54000105,0.8322132250000001,-1.2993103000000001,-0.7030852000000001,0.1053711525
580,1747638738640,0.07238227,0.5290248,0.76449585,-1.2884296,-0.6050442,0.12766708
581,1747638738650,0.11360419,0.513658,0.6758931,-1.3575317,-0.3399365,0.099568106
582,1747638738660,0.1602227625,0.5000444175,0.7318414900000001,-1.4011690749999999,-0.25212720624999996,-0.045355402
583,1747638738670,0.20684133500000002,0.48643083499999995,0.78778988,-1.44480645,-0.1643179125,-0.19027891
584,1747638738680,0.10165227,0.50631005,0.736171,-1.4099119,-0.7430957,-0.44355148
585,1747638738690,0.0757818585,0.502285425,0.72836565,-1.4722183,-0.84205295,-0.42430979
586,1747638738700,0.049911447,0.4982608,0.7205603,-1.5345247,-0.9410102,-0.4050681
587,1747638738710,0.066772185,0.43554372,0.82794464,-1.7320575,-0.9031377,-0.21074231
588,1747638738720,0.091163855,0.39674571000000003,0.8688159200000001,-1.7139611000000001,-0.59191101,-0.0910162445
589,1747638738730,0.115555525,0.3579477,0.9096872,-1.6958647,-0.28068432,0.028709821
590,1747638738740,0.121683925,0.3418492,0.8647761,-1.6560069,-0.0503949,0.06536066
591,1747638738750,0.19684074750000002,0.355752465,0.928484065,-1.6416902,-0.034512871,0.050394901
592,1747638738760,0.27199757,0.36965573,0.99219203,-1.6273735,-0.018630842,0.035429142
593,1747638738770,0.13558719,0.3823394,0.7959611,-1.3693669,-1.2372711,-0.4050681
594,1747638738780,0.13558719,0.3823394,0.7959611,-1.3693669,-1.2372711,-0.4050681
595,1747638738790,0.13558719,0.3823394,0.7959611,-1.5494905,-1.5524683,-0.44232976
596,1747638738800,0.15949102,0.26324704,1.0739347,-1.8198667,-1.3472236,-0.22295925
597,1747638738810,0.15949102,0.26324704,1.0739347,-1.8198667,-1.3472236,-0.22295925
598,1747638738820,0.27858332,0.17979708,1.175221,-1.4716074,-0.35093176,-0.14782503
599,1747638738830,0.27626611,0.178943365,1.0982196000000002,-1.41957085,-0.08364790500000002,-0.16523417499999998
600,1747638738840,0.2739489,0.17808965,1.0212182,-1.3675343,0.18363595,-0.18264332
601,1747638738850,0.29053524,0.24983165,0.9021258,-1.4361019,0.55136603,-0.42950198
602,1747638738860,0.22233004,0.233717905,1.018535,-1.5273663,0.22118398499999997,-0.583130065
603,1747638738870,0.15412484,0.21760416,1.1349442,-1.6186307,-0.10899806000000001,-0.73675815
604,1747638738880,0.12802577,0.14537434,1.349713,-1.6641006,-0.65207946,-0.82899606
605,1747638738890,0.1143511875,0.1282925465,1.430365525,-1.5793837499999999,-0.63039438,-0.80425678
606,1747638738900,0.100676605,0.111210753,1.5110180500000001,-1.4946669,-0.6087093,-0.7795175
607,1747638738910,0.052350618,0.1185435,1.4202354,-0.9039776,-0.032069482,-0.545563
608,1747638738920,0.030642033,0.15953675,1.2464752,-0.915812775,0.16435609399999998,-0.42675318500000003
609,1747638738930,0.008933448,0.20053,1.072715,-0.92764795,0.36078167,-0.30794337
610,1747638738940,0.017958365,0.21175015,1.0490551,-1.012403,0.3106922,-0.263886
611,1747638738950,0.027105240000000003,0.20626202999999999,0.99682647,-1.09215675,0.1500011865,-0.23212195000000002
612,1747638738960,0.036252115,0.20077391,0.94459784,-1.1719105,-0.010689827,-0.2003579
613,1747638738970,0.0623512,0.19174899,0.9585011,-1.2510152,-0.17500775,-0.21440738
614,1747638738980,0.0623512,0.19174899,0.9585011,-1.2510152,-0.17500775,-0.21440738
615,1747638738990,0.117506854,0.12830016,1.0739347,-1.2965233,-0.54212695,-0.29381752
616,1747638739000,0.110433271,0.1040761915,1.080703375,-1.24883905,-0.494328155,-0.29414204499999996
617,1747638739010,0.103359688,0.079852223,1.08747205,-1.2011547999999999,-0.44652936,-0.29446657
618,1747638739020,0.073845774,0.06485134,1.0121932,-1.1163998,-0.24097924,-0.18142164
619,1747638739030,0.06872352200000001,0.064729385,0.9859569,-1.1262306,-0.2441861925,-0.13530266875
620,1747638739040,0.06360127,0.06460743,0.9597206,-1.1360614,-0.247393145,-0.0891836975
621,1747638739050,0.16168626,0.06314393,0.9848441,-1.2155097,-0.60809845,-0.067193195
622,1747638739060,0.17950742,0.033858684,1.03524335,-1.2500989,-0.71805096,-0.11850436749999999
623,1747638739070,0.19732858,0.004573438,1.0856426,-1.2846881,-0.82800347,-0.16981554
624,1747638739080,0.19196242,-0.02058047,1.1249437,-1.2665918,-0.70888823,-0.19608197
625,1747638739090,0.19196242,-0.02058047,1.1249437,-1.2665918,-0.70888823,-0.19608197
626,1747638739100,0.16973552,-0.030093221,1.0705198,-1.2360494,-0.31855685,-0.14721419
627,1747638739110,0.17607735,-0.030824969,1.0622267,-1.2454412,-0.2519745,-0.12583454
628,1747638739120,0.17607735,-0.030824969,1.0622267,-1.2454412,-0.2519745,-0.12583454
629,1747638739130,0.18220575,-0.015946053,1.0378045,-1.2535349,-0.2751867,-0.12705623
630,1747638739140,0.18415708,-0.016189969,1.02438905,-1.2662863500000001,-0.34237989,-0.14080029
631,1747638739150,0.18610841,-0.016433885,1.0109736,-1.2790378,-0.40957308,-0.15454435
632,1747638739160,0.13485542,-0.0061893854,1.0653975,-1.3095802,-0.6172612,-0.19363858
633,1747638739170,0.126425055,0.0065095258,1.0863896,-1.29026215,-0.6746808,-0.196081965
634,1747638739180,0.11799469,0.019208437,1.1073817,-1.2709441,-0.7321004,-0.19852535
635,1747638739190,0.08823685,0.032623854,1.1203092,-1.2304754,-0.8176191,-0.20341213
636,1747638739200,0.031129865,0.034819108,1.1730257,-1.2665918,-0.8835906,-0.11972606
637,1747638739210,0.0272271975,0.023842856000000003,1.2185315,-1.2734638500000002,-0.8542699,-0.08643488499999999
638,1747638739220,0.02332453,0.012866604,1.2640373,-1.2803359,-0.8249492,-0.05314371
639,1747638739230,0.02356845,-0.044484302,1.3577621,-1.1021211,-0.837777,0.123391144
640,1747638739240,0.10593605500000002,-0.088663711,1.3509324,-0.91611815,-0.85610243,0.222042972
641,1747638739250,0.18830366,-0.13284312,1.3441027,-0.7301152,-0.87442786,0.3206948
642,1747638739260,0.2915414,-0.1486977,1.2620858,-0.5201364,-0.77730316,0.31886226
643,1747638739270,0.348267275,-0.164689485,1.06026,-0.46126602000000005,-0.7036960299999999,0.29534465
644,1747638739280,0.40499315,-0.18068127,0.8584342,-0.40239564,-0.6300889,0.27182704
645,1747638739290,0.38499197,-0.20848778,0.7769356,-0.60237175,-0.18905723,0.09407048
646,1747638739300,0.35011187,-0.21092694,0.8381892,-0.60237175,-0.18905723,0.09407048
647,1747638739310,0.32617757,-0.20507295,0.95752543,-0.8515974,-0.36498123,0.03298575
648,1747638739320,0.3091034,-0.205560785,1.015242215,-0.8391514,-0.47432288499999997,0.0210742295
649,1747638739330,0.29202923,-0.20604862,1.072959,-0.8267054,-0.58366454,0.009162709
650,1747638739340,0.29053524,-0.22702545,1.1583602,-0.6329141,-0.78829837,0.009162709
651,1747638739350,0.30079499,-0.23007440499999998,1.15604305,-0.6111145,-0.725686535,-0.0012216945000000003
652,1747638739360,0.31105474,-0.23312336,1.1537259,-0.5893149,-0.6630747,-0.011606098
653,1747638739370,0.28516906,-0.2368126,1.2115647,-0.49463356,-0.26296973,-0.117893524
654,1747638739380,0.2357607,-0.230089655,1.24109385,-0.40583163,-0.055243490000000006,-0.101706067
655,1747638739390,0.18635234,-0.22336671,1.270623,-0.3170297,0.15248275,-0.08551861
656,1747638739400,0.16973552,-0.22117145,1.277727,-0.18867545,0.18791188,-0.027488127
657,1747638739410,0.18353205,-0.216415075,1.2673453000000001,-0.1176262765,0.17233528,0.0021379649999999986
658,1747638739420,0.19732858,-0.2116587,1.2569636,-0.046577103,0.15675868,0.031764057
659,1747638739430,0.2680949,-0.21117085,1.1786358,0.2294495,0.012522369,0.07513421
660,1747638739440,0.2680949,-0.21117085,1.1786358,0.3148154,0.0045813546,0.0555871
661,1747638739450,0.28834,-0.21873227,1.1276268,0.3148154,0.0045813546,0.0555871
662,1747638739460,0.291892035,-0.22996769,1.0946828000000002,0.34688489,0.0558925223,0.044286425000000004
663,1747638739470,0.29544407,-0.24120311,1.0617388,0.37895438,0.10720369,0.03298575
664,1747638739480,0.2578504,-0.22897679,1.1029912,0.39766157,0.4182013,0.10689827
665,1747638739490,0.241492745,-0.19578887,1.1643667500000001,0.4324034975,0.43163994,0.13041589
666,1747638739500,0.22513509,-0.16260095,1.2257423,0.467145425,0.44507858,0.15393351
667,1747638739510,0.25833824,-0.14601462,1.3101679,0.6094729,0.2966427,0.17409147
668,1747638739520,0.29250182,-0.13820928500000002,1.29455725,0.7238349374999999,0.24410983749999998,0.1331647025
669,1747638739530,0.3266654,-0.13040395,1.2789466,0.838196975,0.19157697499999998,0.09223793500000001
670,1747638739540,0.319104,-0.111591876,1.2684277,0.97216344,0.27892813,-0.015882028
671,1747638739550,0.318128325,-0.120997913,1.2890538999999999,0.99909797,0.40186114500000003,-0.0574196415
672,1747638739560,0.31715265,-0.13040395,1.3096801,1.0260325,0.52479416,-0.098957255
673,1747638739570,0.22440335,-0.13308702,1.5110333,1.2176477,0.72729003,-0.11178505
674,1747638739580,0.2105001,-0.0961031635,1.4542922,1.4026962,0.8659523650000001,-0.09681929
675,1747638739590,0.19659685,-0.059119307,1.3975511,1.5877447,1.0046147,-0.08185353
676,1747638739600,0.22781818,-0.022287887,1.3521521,1.565907,1.2135245,-0.05986303
677,1747638739610,0.22781818,-0.022287887,1.3521521,1.565907,1.2135245,-0.05986303
678,1747638739620,0.24516673,0.032623854,1.50149,1.6450881,1.2043617,-0.2247918
679,1747638739630,0.21649128,0.029209021,1.5492062,1.6859003000000001,1.1863416999999998,-0.24250637000000003
680,1747638739640,0.18781583,0.025794188,1.5969224,1.7267125,1.1683217,-0.26022094
681,1747638739650,0.15119785,0.007256521,1.6269547,1.8568993,1.179317,-0.25105822
682,1747638739660,0.1316692675,0.003597770916,1.61937805,1.951599725,1.3894484500000002,-0.185850276
683,1747638739670,0.112140685,-6.0979168e-05,1.6118014,2.04630015,1.5995799000000002,-0.120642332
684,1747638739680,0.0077138646,-0.008872469,1.6352478,2.198974,1.6777683,0.0555871
685,1747638739690,-0.004009380200000001,-0.0153362605,1.65256595,2.2799875,1.64356085,0.133470125
686,1747638739700,-0.015732625,-0.021800052,1.6698841,2.361001,1.6093534,0.21135315
687,1747638739710,-0.026708877,-0.030824969,1.6303695,2.7180412,1.3558519,0.52593946
688,1747638739720,0.0016007020000000025,-0.024483135,1.5850924499999999,2.8622775000000003,1.28713155,0.660631295
689,1747638739730,0.029910281,-0.018141301,1.5398154,3.0065138,1.2184112,0.79532313
690,1747638739740,0.046999692999999995,0.000167693,1.49931,3.05885575,1.211081,0.8273926149999999
691,1747638739750,0.064089105,0.018476687,1.4588046,3.1111977,1.2037508,0.8594621
692,1747638739760,0.13509935,0.05189327,1.346542,3.1447945,1.151218,0.72874075
693,1747638739770,0.1110583125,0.0325018955,1.3632502999999998,3.1127249,1.1188431,0.6850651750000001
694,1747638739780,0.087017275,0.013110521,1.3799586,3.0806553,1.0864682,0.6413896
695,1747638739790,0.0921395225,0.0054271458500000005,1.3809342,3.1161609,1.5898063,0.700031
696,1747638739800,0.09213952125,0.005854000075000001,1.3806903,3.148574,1.7083107,0.715913
697,1747638739810,0.09213952,0.0062808543,1.3804464,3.1809871,1.8268151,0.731795
698,1747638739820,0.08116327,0.06777835,1.2071741,3.371037,1.7144192,0.6804838
699,1747638739830,0.036252114249999995,0.08424272499999999,1.16118055,3.3401892,1.655167,0.695755
700,1747638739840,-0.0086590415,0.1007071,1.115187,3.3093414,1.5959148,0.7110262
701,1747638739850,0.031861614,0.07338843,1.1993687,3.3666084,1.3246987,0.8002099
702,1747638739860,0.056390484500000004,0.06911988499999999,1.18436785,3.4700706,1.32653125,0.8206732999999999
703,1747638739870,0.080919355,0.06485134,1.169367,3.5735328,1.3283638,0.8411367
704,1747638739880,0.19074284,0.029940773,0.88944215,3.4881668,1.4383162,0.58213747
705,1747638739890,0.14070943,0.0920480515,0.8788165450000001,3.4439186,1.5348301,0.503643575
706,1747638739900,0.09067602,0.15415533,0.86819094,3.3996704,1.631344,0.42514968
707,1747638739910,-0.006707709,0.15098442,0.65784323,3.1753368,1.7522917,0.40743512
708,1747638739920,-0.045505704499999994,0.17307412500000002,0.646363915,3.0943613,1.72694155,0.43431241
709,1747638739930,-0.0843037,0.19516383,0.6348846,3.0133858,1.7015914,0.4611897
710,1747638739940,-0.10236877999999999,0.177952455,0.656608435,2.9221024,1.50214975,0.5546493299999999
711,1747638739950,-0.12043386,0.16074108,0.67833227,2.830819,1.3027081,0.64810896
712,1747638739960,0.22708642,0.00042685418,0.69125986,3.031406,0.48967043,0.739736
713,1747638739970,0.184629675,0.15892696208999998,0.6606330549999999,3.0298406499999997,0.44416231500000003,0.5796940349999999
714,1747638739980,0.14217293,0.31742707,0.63000625,3.0282753,0.3986542,0.41965207
715,1747638739990,0.2329404,0.27812597,0.4367328,2.823947,0.2722088,-0.07941014
716,1747638740000,0.116294885,0.25195829000000003,0.25454991287499995,2.5825095,0.6863632499999999,-0.03939964637
717,1747638740010,-0.00035062999999999934,0.22579061,0.07236702575,2.341072,1.1005177,0.00061084726
718,1747638740020,0.017958365,0.28376657,-0.15116736,2.2027152,1.0614234,0.19302773
719,1747638740030,0.0415115675,0.287181395,-0.23365692999999998,2.16316285,0.9462787500000001,0.227846025
720,1747638740040,0.06506477,0.29059622,-0.3161465,2.1236105,0.8311341,0.26266432
721,1747638740050,0.18366925,0.42334786,-0.6973577,1.4818391,0.5214345,0.41048935
722,1747638740060,0.204890005,0.45507228,-0.6474462999999999,1.28308465,0.5150205999999999,0.371395125
723,1747638740070,0.22611076,0.4867967,-0.5975349,1.0843302,0.5086067,0.3323009
724,1747638740080,0.21184163,0.5105938,-0.50821564,0.91546915,0.481729415,0.22631890500000001
725,1747638740090,0.1975725,0.5343909,-0.41889638,0.7466081,0.45485213,0.12033691
726,1747638740100,0.08140719,0.6486049,-0.4852722,0.36459947,0.2606027,0.14232741
727,1747638740110,0.08409027499999999,0.6706946,-0.44781576,0.24063564499999998,0.213262045,0.159125705
728,1747638740120,0.08677336,0.6927843,-0.41035932,0.11667182,0.16592139,0.175924
729,1747638740130,0.07482144,0.70741934,-0.13653237,-0.12201674,-0.013744064,0.13744064
730,1747638740140,0.041138071,0.72242783,-0.06557547875,-0.10017895,-0.014354911,0.12216945500000001
731,1747638740150,0.007454701999999999,0.73743632,0.0053814125,-0.07834116,-0.014965758,0.10689827
732,1747638740160,-0.06722953,0.77867347,0.02844678,-0.09086353,-0.01007898,0.131943
733,1747638740170,-0.043920244,0.80454391,0.0405206575,-0.103614965,-0.033291175,0.12369656500000001
734,1747638740180,-0.020610958,0.83041435,0.052594535,-0.1163664,-0.05650337,0.11545013
735,1747638740190,-0.034514207,0.89361924,-0.066009946,-0.26907822,-0.25563958,-0.09345963
736,1747638740200,-0.048920536,0.89508272,-0.057594823,-0.36876085000000003,-0.28954159999999995,-0.11789352
737,1747638740210,-0.063326865,0.8965462,-0.0491797,-0.46844348,-0.32344362,-0.14232741
738,1747638740220,-0.14409378,0.8228529,0.11921428,-0.74317205,-0.24769856,-0.0787993
739,1747638740230,-0.14750860500000001,0.79820205,0.22208614000000002,-0.686172375,-0.11819894250000001,0.05131117
740,1747638740240,-0.15092343,0.7735512,0.324958,-0.6291727,0.011300675,0.18142164
741,1747638740250,-0.089182034,0.8379757,0.36084422,-0.4715741,-0.118198946,0.19241689
742,1747638740260,-0.089182034,0.8379757,0.36084422,-0.4715741,-0.118198946,0.19241689
743,1747638740270,-0.0813767,0.876789,0.21830542,-0.45599747,-0.34971005,0.1007898
744,1747638740280,-0.049286412,0.8747157000000001,0.192678925,-0.5650146275000001,-0.356276665,0.03542914325
745,1747638740290,-0.017196124,0.8726424,0.16705243,-0.674031785,-0.36284328,-0.029931513500000003
746,1747638740300,-0.03670946,0.8370001,0.21025616,-0.8915316,-0.34971005,-0.13744064
747,1747638740310,-0.05392083,0.814910365,0.254786195,-0.90149603,-0.37689276,-0.127667082
748,1747638740320,-0.0711322,0.79282063,0.29931623,-0.91146046,-0.40407547,-0.117893524
749,1747638740330,-0.113116354,0.7601358,0.33373898,-0.8634326,-0.50730866,-0.06902574
750,1747638740340,-0.067595407,0.7711120499999999,0.24868829,-0.8282325349999999,-0.7992936799999999,0.026266435000000005
751,1747638740350,-0.02207446,0.7820883,0.1636376,-0.79303247,-1.0912787,0.12155861
752,1747638740360,0.033325117,0.81748676,0.1917185,-1.017366,-0.9733851,0.08246438
753,1747638740370,0.0334470735,0.77159993,0.3205675,-1.134496,-0.8231166999999999,-0.025961004999999995
754,1747638740380,0.03356903,0.7257131,0.4494165,-1.251626,-0.6728483,-0.13438639
755,1747638740390,0.005518615,0.6588494,0.51335317,-1.1538141,-0.6649072,-0.15026842
756,1747638740400,0.0020885366,0.63822322,0.506889385,-0.98338772,-0.71041535,-0.12675080500000002
757,1747638740410,-0.0013415418,0.61759704,0.5004256,-0.81296134,-0.7559235,-0.10323319
758,1747638740420,-0.05332628,0.7015653,0.13729459,-0.61176354,-1.1486983,-0.05375456
759,1747638740430,0.041984155,0.73841198,0.17523887500000002,-0.98716732,-1.2568183,-0.112395895
760,1747638740440,0.13729459,0.77525866,0.21318316,-1.3625711,-1.3649383,-0.17103723
761,1747638740450,0.18903543,0.7264448,0.37157655,-1.629206,-1.2555965,-0.39040774
762,1747638740460,0.18903543,0.7264448,0.37157655,-1.629206,-1.2555965,-0.39040774
763,1747638740470,0.053570196,0.6229632,0.6085416,-1.8940083,-0.5549547,-0.62558395
764,1747638740480,-0.03660274200000001,0.594165775,0.6879822,-1.8479275,-0.28098972180000004,-0.541897875
765,1747638740490,-0.12677568,0.56536835,0.7674228,-1.8018467,-0.0070247436,-0.4582118
766,1747638740500,-0.097231284,0.5451233,0.90358925,-1.34852175,-0.15057384499999998,-0.18264333500000002
767,1747638740510,-0.083937824,0.58710743,0.795351275,-1.03840219,-0.5686987925,-0.1420219875
768,1747638740520,-0.070644364,0.62909156,0.6871133,-0.72828263,-0.98682374,-0.10140064
769,1747638740530,-0.014513042,0.74476904,0.17876044,-1.1139563,-1.7247273,0.0030542363
770,1747638740540,0.045764864,0.73914372,0.24393191999999997,-1.3771933,-1.7406093,-0.01374406285
771,1747638740550,0.10604277,0.7335184,0.3091034,-1.6404303,-1.7564913,-0.030542362
772,1747638740560,0.11384811,0.5819852,0.7505621,-2.2610512,-1.3667707,-0.19302773
773,1747638740570,0.10177423299999999,0.51291102,1.0005918999999999,-1.92955195,-0.77302718,-0.143854525
774,1747638740580,0.089700356,0.44383684,1.2506217,-1.5980527,-0.17928366,-0.09468132
775,1747638740590,0.032837283,0.5226829,1.1529942,-0.97315603,-0.5531222,-0.21623993
776,1747638740600,-0.045261788500000004,0.5552610499999999,0.8425796999999999,-0.8083418,-0.8316686,-0.153628085
777,1747638740610,-0.12336086,0.5878392,0.5321652,-0.64352757,-1.110215,-0.09101624
778,1747638740620,-0.013049542,0.6486049,0.25589907,-1.1002122,-1.3429477,0.07146913
779,1747638740630,0.052106699000000006,0.62517365,0.286159985,-1.3525685,-1.37562805,0.043064732
780,1747638740640,0.11726294,0.6017424,0.3164209,-1.6049248,-1.4083084,0.014660334
781,1747638740650,0.14388034,0.50362694,0.7637641,-2.2049296,-1.1444223,-0.12766708
782,1747638740660,0.12508352,0.460560395,0.8843198999999999,-2.2360828,-0.93673425,-0.118809795
783,1747638740670,0.1062867,0.41749385,1.0048757,-2.267236,-0.7290462,-0.10995251
784,1747638740680,0.16388151,0.3530694,1.3741045,-1.6977736,-0.07482879,0.01343864
785,1747638740690,0.12264435000000001,0.38820863,1.16605887,-1.254145785,-0.474322895,-0.09040539
786,1747638740700,0.08140719,0.42334786,0.95801324,-0.81051797,-0.873817,-0.19424942
787,1747638740710,0.04454528,0.48240623,0.5233537,-0.87839836,-1.0753967,-0.058641337
788,1747638740720,0.04454528,0.48240623,0.5233537,-0.87839836,-1.0753967,-0.058641337
789,1747638740730,0.18244967,0.453624,0.46234405,-1.492758,-1.2519314,-0.06352811
790,1747638740740,0.18330338000000002,0.43287585,0.5010353249999999,-1.6616191,-1.2268867,-0.088267425
791,1747638740750,0.18415709,0.4121277,0.5397266,-1.8304802,-1.201842,-0.11300674
792,1747638740760,0.19562118,0.27105242,0.9094433,-2.2180626,-0.58855134,-0.040926766
793,1747638740770,0.21954025500000002,0.26166162000000004,1.000348,-2.1557562,-0.512195435,-0.054976253
794,1747638740780,0.24345933,0.25227082,1.0912527,-2.0934498,-0.43583953,-0.06902574
795,1747638740790,0.22147635,0.27593073,1.2486705,-1.6498221,-0.85793495,-0.24494976
796,1747638740800,0.17719022499999998,0.29570323,1.17483995,-1.5575841499999998,-1.005454575,-0.179283675
797,1747638740810,0.1329041,0.31547573,1.1010094,-1.4653462,-1.1529742,-0.11361759
798,1747638740820,0.14631952,0.30059683,1.0897892,-1.4310625,-1.1004413,-0.012216945
799,1747638740830,0.15729576,0.2930354,1.057577,-1.39868755,-1.04546505,0.038177952499999994
800,1747638740840,0.168272,0.28547397,1.0253648,-1.3663126,-0.9904888,0.08857285
801,1747638740850,0.2549234,0.2461729,0.8430675,-1.3856306,-0.594049,0.18203248
802,1747638740860,0.288111315,0.22944936,0.907248065,-1.5522774,-0.43889377500000004,0.036345409999999995
803,1747638740870,0.32129923,0.21272582,0.97142863,-1.7189242,-0.28373855,-0.10934166
804,1747638740880,0.28614473,0.209311,1.0766177,-1.7713044,-0.36498123,-0.22967857
805,1747638740890,0.26797295,0.201627625,1.1414081,-1.6865493,-0.468825265,-0.262053475
806,1747638740900,0.24980117,0.19394425,1.2061985,-1.6017942,-0.5726693,-0.29442838
807,1747638740910,0.14461209,0.1963834,1.2113208,-1.323935,-0.7754706,-0.17897825
808,1747638740920,0.172921675,0.194310115,1.15506745,-1.2404399000000002,-0.8362499,-0.1230857225
809,1747638740930,0.20123126,0.19223683,1.0988141,-1.1569448,-0.8970292,-0.067193195
810,1747638740940,0.21013421999999998,0.188821995,1.0680654,-1.07658015,-0.9297095,0.0009162724999999955
811,1747638740950,0.21903718,0.18540716,1.0373167,-0.9962155,-0.9623898,0.06902574
812,1747638740960,0.2837056,0.17126,0.9628916,-1.2466629,-0.7461499,0.11728267
813,1747638740970,0.296038615,0.15075575,0.99034745,-1.34042795,-0.64352757,0.122474875
814,1747638740980,0.30837163,0.1302515,1.0178033,-1.434193,-0.54090524,0.12766708
815,1747638740990,0.30373722,0.10168276,1.1434814,-1.5513229,-0.14446537,0.11606098
816,1747638741000,0.294765665,0.09338959499999999,1.1975394000000001,-1.47905205,-0.09910996350000001,0.10109522125
817,1747638741010,0.28579411,0.08509643,1.2515974,-1.4067812,-0.05375455700000001,0.0861294625
818,1747638741020,0.26955843,0.08460859,1.2052227,-1.2304754,-0.14813046,0.092237934
819,1747638741030,0.252362295,0.077047175,1.13909085,-1.1600753,-0.153017235,0.122780302
820,1747638741040,0.23516616,0.06948576,1.072959,-1.0896752,-0.15790401,0.15332267
821,1747638741050,0.22172025,0.035794772,0.9970704,-1.0927294,-0.104760304,0.2675511
822,1747638741060,0.27089995,0.01945235475,1.05637265,-1.10334285,-0.136524362,0.28679279
823,1747638741070,0.32007965,0.0031099375,1.1156749,-1.1139563,-0.16828842,0.30603448
824,1747638741080,0.34617874,0.06485134,1.2074181,-0.9755994,-0.82006246,0.12583454
825,1747638741090,0.34617874,0.06485134,1.2074181,-0.9755994,-0.82006246,0.12583454
826,1747638741100,0.34788615,0.043356188,1.0914966,-0.9675057,-1.1853491,-0.073912516
827,1747638741110,0.34924294499999997,0.035428896,1.0996830499999999,-1.0120594,-1.0625688,-0.076661328
828,1747638741120,0.35059974,0.027501604,1.1078695,-1.0566131,-0.9397885,-0.07941014
829,1747638741130,0.34962407,-0.0576558,1.1847337,-1.0934166,-0.21776704,-0.002443389
830,1747638741140,0.31349391000000004,-0.053143342999999996,1.1854654999999998,-0.946965975,0.06753680999999997,0.062306420499999994
831,1747638741150,0.27736375,-0.048630886,1.1861973,-0.80051535,0.35284066,0.12705623
832,1747638741160,0.3003224,-0.038630303,1.1303098,-0.6397861,0.28076068,0.19363858
833,1747638741170,0.30690815,-0.0181260577,1.11346435,-0.58900945,0.17168625999999998,0.17775655
834,1747638741180,0.3134939,0.0023781876,1.0966189,-0.5382328,0.06261184,0.16187452
835,1747638741190,0.30495682,0.004573438,0.86892265,-0.5145625,-0.69483876,0.06474981
836,1747638741200,0.30861558,-0.004954556999999999,0.8685567949999999,-0.58962033,-0.79287973,0.0616955735
837,1747638741210,0.31227434,-0.014482552,0.86819094,-0.66467816,-0.8909207,0.058641337
838,1747638741220,0.38426024,-0.13942887,1.0134128,-0.8092199,-0.80418044,0.083075225
839,1747638741230,0.36204857,-0.14808791,1.0164617,-0.6818200649999999,-0.386666327,0.20005246250000003
840,1747638741240,0.3398369,-0.15674695,1.0195106,-0.55442023,0.030847786,0.3170297
841,1747638741250,0.32471406,-0.12918437,0.9709408,-0.49585527,0.12003148,0.39521816
842,1747638741260,0.32471406,-0.12918437,0.9709408,-0.49585527,0.12003148,0.39521816
843,1747638741270,0.33593425,-0.031800635,0.78937536,-0.48272204,-0.08521319,0.5082249
844,1747638741280,0.33422682,0.02262327,0.7559283,-0.6372664,-0.44500223,0.51005745
845,1747638741290,0.35962465,0.038965687,0.8003516,-0.6372664,-0.44500223,0.51005745
846,1747638741300,0.35962465,0.038965687,0.8003516,-0.8217423,-0.83838785,0.46180052
847,1747638741310,0.39816347,-0.053021386,1.0278038,-1.0946383,-1.1890142,0.24494976
848,1747638741320,0.39816347,-0.053021386,1.0278038,-1.0946383,-1.1890142,0.24494976
849,1747638741330,0.38133323,-0.15967394,1.2545244,-0.984304,-0.7094991,0.19424942
850,1747638741340,0.38255280999999997,-0.164925775,1.2823461749999998,-0.8017561275,-0.4537068025,0.22036314499999998
851,1747638741350,0.38377238999999996,-0.17017760999999998,1.3101679499999999,-0.619208255,-0.197914505,0.24647687
852,1747638741360,0.36084422,-0.12162295,1.2374502,-0.3736858,-0.019852536,0.25655586
853,1747638741370,0.34948686,-0.11111929,1.1417891,-0.33287358,-0.01038440345,0.2467823
854,1747638741380,0.3381295,-0.10061563,1.046128,-0.29206136,-0.0009162709,0.23700874
855,1747638741390,0.33715382,-0.11476279,1.0175594,-0.3276432,-0.029626092,0.2327328
856,1747638741400,0.346193985,-0.128559325,1.0214621,-0.330430185,-0.07818845099999999,0.231511105
857,1747638741410,0.35523415,-0.14235586,1.0253648,-0.33321717,-0.12675081,0.23028941
858,1747638741420,0.4250248,-0.2001946,1.0453963,-0.19676918,-0.30267483,0.1899735
859,1747638741430,0.42782984999999996,-0.19641388999999998,1.0315998,-0.12014602499999999,-0.336271415,0.16462334
860,1747638741440,0.4306349,-0.19263318,1.0178033,-0.04352287,-0.369868,0.13927318
861,1747638741450,0.41551206,-0.17872995,0.93167025,-0.04535541,-0.18905723,0.10995251
862,1747638741460,0.406715815,-0.16810432,0.949842025,-0.120107845,-0.043064729999999996,0.08154811000000001
863,1747638741470,0.39791957,-0.15747869,0.9680138,-0.19486028,0.10292777,0.05314371
864,1747638741480,0.37865016,-0.16455229,1.0402436,-0.22295925,0.25571594,0.0030542363
865,1747638741490,0.37938189499999997,-0.15906416,1.0617234999999998,-0.206733625,0.23158747,-0.02199050185
866,1747638741500,0.38011363,-0.15357603,1.0832034,-0.190508,0.207459,-0.04703524
867,1747638741510,0.3488923,-0.14113629,1.1627812,-0.049707696,-0.04123219,-0.11178505
868,1747638741520,0.3538926,-0.157722615,1.19255435,0.098575472,-0.037261683000000004,-0.11361758999999999
869,1747638741530,0.3588929,-0.17430894,1.2223275,0.24685864,-0.033291176,-0.11545013
870,1747638741540,0.35913682,-0.19287711,1.2279375,0.34719032,0.089489125,-0.064138964
871,1747638741550,0.35913682,-0.19287711,1.2279375,0.34719032,0.089489125,-0.064138964
872,1747638741560,0.3776745,-0.1501612,1.3121192,0.5035672,0.22211933,-0.005497625
873,1747638741570,0.39256865,-0.14320957499999998,1.3234766,0.6197809000000001,0.299696935,0.006108472999999999
874,1747638741580,0.4074628,-0.13625795,1.334834,0.7359946,0.37727454,0.017714571
875,1747638741590,0.46725285,-0.08939546,1.3026065,0.8543463,0.49394637,0.0030542363
876,1747638741600,0.482009825,-0.0753550065,1.30114295,0.8932878,0.569080585,-0.06841489185
877,1747638741610,0.4967668,-0.061314553,1.2996794,0.9322293,0.6442148,-0.13988402
878,1747638741620,0.45966098,-0.05204572,1.4485601,0.97712654,0.68880665,-0.4777589
879,1747638741630,0.43380580999999996,-0.059744334999999996,1.4846750499999999,0.99953702,0.713240525,-0.50158195
880,1747638741640,0.40795064,-0.06744295,1.52079,1.0219475,0.7376744,-0.525405
881,1747638741650,0.31300604,-0.059119307,1.8619684,1.3017155,0.9636879,-0.46554196
882,1747638741660,0.324470145,-0.0598510535,1.98447555,1.4615665500000001,1.10357195,-0.44110808
883,1747638741670,0.33593425,-0.0605828,2.1069827,1.6214176,1.243456,-0.4166742
884,1747638741680,0.34764224,-0.055460554,2.1211298,2.2469254,1.6380633,-0.43316707
885,1747638741690,0.300063235,-0.0442403855,2.0608518499999997,2.3768449,1.6802118,-0.452714175
886,1747638741700,0.25248423,-0.033020217,2.0005739,2.5067644,1.7223603,-0.47226128
887,1747638741710,0.14436817,-0.05448489,1.9427352,2.9286308,1.983192,-0.26022094
888,1747638741720,0.1425388,-0.06645205,1.95090645,3.0438901,2.0265621,-0.15576605500000001
889,1747638741730,0.14070943,-0.07841921,1.9590777,3.1591494,2.0699322,-0.05131117
890,1747638741740,0.1724186,-0.055216637,1.8253504,3.675697,2.0088475,0.20463383
891,1747638741750,0.17315035,-0.085233631,1.6603713,3.72490845,2.1426231,0.316418885
892,1747638741760,0.1738821,-0.115250625,1.4953922,3.7741199,2.2763987,0.42820394
893,1747638741770,0.15888122,-0.1258762425,1.51382315,3.78286255,2.366804,0.51402797
894,1747638741780,0.14388034,-0.13650186,1.5322541,3.7916052,2.4572093,0.599852
895,1747638741790,0.21001224,-0.12650128,1.5190825,4.0913024,2.1426232,0.9382614
896,1747638741800,0.27382695,-0.087322165,1.36361615,4.17914985,1.97922155,0.94834035
897,1747638741810,0.33764166,-0.04814305,1.2081498,4.2669973,1.8158199,0.9584193
898,1747638741820,0.4179512,-0.022287887,1.0446341,4.077558,1.9105011,0.8173136
899,1747638741830,0.3825528,-0.0431580085,1.0996678,3.7968738,2.26479255,0.5650337
900,1747638741840,0.3471544,-0.06402813,1.1547015,3.5161896,2.619084,0.3127538
901,1747638741850,0.22586684,-0.050826136,1.2032714,3.4339542,2.9978857,0.12583454
902,1747638741860,0.19536201,-0.045825844500000004,1.17105915,3.5074849,2.8961795500000003,0.162179945
903,1747638741870,0.16485718,-0.040825553,1.1388469,3.5810156,2.7944734,0.19852535
904,1747638741880,0.1006766,0.09290177,0.81059605,3.643933,2.1255193,0.3671192
905,1747638741890,0.1006766,0.09290177,0.81059605,3.643933,2.1255193,0.3671192
906,1747638741900,0.13705069,0.01750102,0.83696955,3.408375,1.623403,0.39521816
907,1747638741910,0.24784984,-0.03521547,0.71568197,3.4974823,2.0015173,0.431869
908,1747638741920,0.24784984,-0.03521547,0.71568197,3.4974823,2.0015173,0.431869
909,1747638741930,0.18659624,0.05485076,0.3957243,3.4769425,2.2458563,0.3243599
910,1747638741940,0.08006564,0.10121017,0.247590663,3.30434,1.9685316499999999,0.43675578000000004
911,1747638741950,-0.02646496,0.14756958,0.099457026,3.1317375,1.691207,0.54915166
912,1747638741960,-0.10089003,0.22763525,0.13631892,2.9379463,1.1451095,0.759894
913,1747638741970,-0.07440982800000001,0.19737433,0.142172925,2.8728529,0.8616764,0.82403295
914,1747638741980,-0.047929626,0.16711341,0.14802693,2.8077595,0.5782433,0.8881719
915,1747638741990,0.014299615,0.18687066,0.16754027,2.887475,-0.28679278,1.0818105
916,1747638742000,0.0917736425,0.22810783,0.06186337,2.9289362499999996,-0.5680879400000001,1.0540169499999998
917,1747638742010,0.16924767,0.269345,-0.04381353,2.9703975,-0.8493831,1.0262234
918,1747638742020,0.24687417,0.36599696,-0.22293983,2.616488,-1.3728793,0.64688724
919,1747638742030,0.22600405,0.37453404,-0.1282391865,2.20275345,-1.0109522499999999,0.45721917
920,1747638742040,0.20513393,0.38307112,-0.033538543,1.7890189,-0.6490252,0.2675511
921,1747638742050,0.18952326,0.3960292,0.072870106,1.716099,-0.118198946,0.19241689
922,1747638742060,0.16536025999999998,0.453989875,0.079333898,1.7516045,0.027831727,0.17684028000000002
923,1747638742070,0.14119726,0.51195055,0.08579769,1.78711,0.1738624,0.16126367
924,1747638742080,0.107750185,0.60198635,-0.18876101,1.7148774,0.18424681,0.123391144
925,1747638742090,0.107750185,0.60198635,-0.18876101,1.7148774,0.18424681,0.123391144
926,1747638742100,0.15241744,0.674704,-0.4501482,1.0761602,0.015576605,0.06291727
927,1747638742110,0.169140975,0.66604495,-0.44795296,0.921959435,0.0342074475,0.0244338915
928,1747638742120,0.18586451,0.6573859,-0.44575772,0.76775867,0.05283829,-0.014049487
929,1747638742130,0.15266134,0.5783264,-0.5043282,0.42385164,0.41209283,-0.14049487
930,1747638742140,0.0556587325,0.6633770999999999,-0.44953843,0.08800017999999998,0.32871218,-0.11880979
931,1747638742150,-0.041343875,0.7484278,-0.39474866,-0.24785128,0.24533153,-0.09712471
932,1747638742160,-0.07381528,0.807974,-0.26733267,-0.4696652,-0.07849387,-0.05619795
933,1747638742170,-0.053311035,0.8228529,-0.109076485,-0.54663195,-0.37200598500000004,-0.012216946499999999
934,1747638742180,-0.03280679,0.8377318,0.0491797,-0.6235987,-0.6655181,0.031764057
935,1747638742190,0.001097625,0.8426101,0.22001283,-0.5045598,-0.8640435,0.06963659
936,1747638742200,-0.0004878333499999999,0.85969955,0.226476615,-0.45844085,-0.79104723,0.104760305
937,1747638742210,-0.0020732917,0.876789,0.2329404,-0.4123219,-0.71805096,0.13988402
938,1747638742220,0.061863367,0.9497505,0.285413,-0.54945713,-0.21959959,0.15087928
939,1747638742230,0.0545458645,0.97952365,0.4004807,-0.5485026799999999,-0.05986303000000001,-0.01679829499999999
940,1747638742240,0.047228362,1.0092968,0.5155484,-0.54754823,0.09987353,-0.18447587
941,1747638742250,-0.005366167499999998,1.00697955,0.512377465,-0.5083012849999999,0.084602345,-0.238841285
942,1747638742260,-0.057960697,1.0046623,0.50920653,-0.46905434,0.06933116,-0.2932067
943,1747638742270,-0.1914441,0.96414167,0.4735947,-0.33069745,0.0051922016,-0.26449686
944,1747638742280,-0.2052330075,0.943218185,0.41740240500000003,-0.26421054,-0.08521319420000001,-0.15637689625
945,1747638742290,-0.219021915,0.9222947,0.36121011000000003,-0.19772363,-0.17561859000000002,-0.0482569325
946,1747638742300,-0.13531277,0.8987415,0.29614532,-0.20860434,-0.16279079,0.1123959
947,1747638742310,-0.099807652,0.8848381999999999,0.30567332999999997,-0.2129566275,-0.1003316605,0.141105715
948,1747638742320,-0.064302534,0.8709349,0.31520134,-0.217308915,-0.037872531,0.16981553
949,1747638742330,-0.07283961,0.8484642,0.33008024,-0.16683766,0.10048437,0.18936265
950,1747638742340,-0.066131905,0.8484642,0.32678737,-0.1272853,0.029015242499999996,0.186308415
951,1747638742350,-0.0594242,0.8484642,0.3234945,-0.08773294,-0.042453885,0.18325418
952,1747638742360,-0.09527995,0.84163445,0.13997768,-0.016034741,-0.40285376,0.21562909
953,1747638742370,-0.034514210000000003,0.845537125,0.0552928615,-0.19050798549999998,-0.50883575,0.23334365499999998
954,1747638742380,0.02625153,0.8494398,-0.029391957,-0.36498123,-0.61481774,0.25105822
955,1747638742390,0.07677277,0.8477324,0.005000292,-0.36498123,-0.61481774,0.25105822
956,1747638742400,0.07677277,0.8477324,0.005000292,-0.60741127,-0.5561764,0.211964
957,1747638742410,0.09140777,0.80626655,0.13022101,-0.867174,-0.32405448,0.13805148
958,1747638742420,0.059805317499999996,0.798445975,0.22295507999999997,-0.870610025,-0.23074755749999998,0.13973131
959,1747638742430,0.028202865,0.7906254,0.31568915,-0.87404605,-0.137440635,0.14141114
960,1747638742440,-0.04036821,0.7840396,0.47039333,-0.59679776,-0.4303419,0.18447587
961,1747638742450,-0.039392542,0.7852592,0.440742195,-0.4754491425,-0.6410842,0.1916533275
962,1747638742460,-0.038416874,0.7864788,0.41109106,-0.354100525,-0.8518265,0.198830785
963,1747638742470,0.014543531,0.9016685,0.047960117,-0.6329141,-1.1242644,0.1655396
964,1747638742480,0.0454142355,0.9058151,0.0568630735,-0.81517567,-1.1105203000000001,0.12369656500000001
965,1747638742490,0.07628494,0.9099617,0.06576603,-0.99743724,-1.0967762,0.08185353
966,1747638742500,0.17485777,0.7969977,0.34691048,-1.3805912,-0.6838435,-0.14782503
967,1747638742510,0.15753968499999998,0.7696638,0.377293365,-1.398993,-0.5341859200000001,-0.18203248
968,1747638742520,0.1402216,0.7423299,0.40767625,-1.4173948,-0.38452834,-0.21623993
969,1747638742530,-0.087230705,0.696687,0.5262807,-1.0609653,0.30091864,-0.108119965
970,1747638742540,-0.09515799750000001,0.72572835,0.52469525,-0.9740341299999999,0.1200696685,-0.059252184
971,1747638742550,-0.10308529,0.7547697,0.5231098,-0.88710296,-0.060779303,-0.010384403
972,1747638742560,-0.06796128,0.8609344,0.28882784,-0.85411716,-1.0790616,0.083075225
973,1747638742570,0.026739368,0.82760928,0.38511394,-1.13732123,-0.9633061,0.042759307
974,1747638742580,0.121440016,0.79428416,0.48140004,-1.4205253,-0.8475506,0.002443389
975,1747638742590,0.14680736,0.7452569,0.59024787,-1.4809228,-0.56595,-0.07330167
976,1747638742600,0.077504529,0.7071754,0.627826285,-1.3310743500000002,-0.12335297,-0.105981995
977,1747638742610,0.008201698,0.6690939,0.6654047,-1.1812259,0.31924406,-0.13866232
978,1747638742620,-0.008277922,0.67397225,0.6339242,-1.10926045,0.35711658,-0.1029277575
979,1747638742630,-0.024757542,0.6788506,0.6024437,-1.037295,0.3949891,-0.067193195
980,1747638742640,0.0062503647,0.73595756,0.5755824,-0.87778753,-0.21288027,-0.114228435
981,1747638742650,-0.007058338149999999,0.75877903,0.4738234,-0.8952348649999999,-0.413238185,-0.1316375825
982,1747638742660,-0.020367041,0.7816005,0.3720644,-0.9126822,-0.6135961,-0.14904673
983,1747638742670,0.0020732917,0.7244935,0.4914006,-1.4223578,-1.1291511,-0.09162709
984,1747638742680,0.0076986198499999995,0.696915685,0.5705973,-1.42888625,-1.1459494000000001,-0.07146912999999999
985,1747638742690,0.013323948,0.66933787,0.649794,-1.4354147,-1.1627477,-0.05131117
986,1747638742700,0.0330812,0.5968641,0.7108037,-1.2584981,-0.7559235,0.14599249
987,1747638742710,0.11715623,0.62639325,0.7439916,-1.21333355,-0.5155551,0.11056335
988,1747638742720,0.20123126,0.6559224,0.7771795,-1.168169,-0.2751867,0.07513421
989,1747638742730,0.20464608,0.7096146,0.72177994,-1.1163998,-0.29778802,-0.13438639
990,1747638742740,0.20464608,0.7096146,0.72177994,-1.1163998,-0.29778802,-0.13438639
991,1747638742750,0.066772185,0.67421615,0.60390717,-1.3133216,-0.39185852,-0.36841726
992,1747638742760,0.030642033,0.6493367,0.64491564,-1.3332505,-0.41323817,-0.3458159
993,1747638742770,0.030642033,0.6493367,0.64491564,-1.3332505,-0.41323817,-0.3458159
994,1747638742780,-0.004268542,0.59174186,0.65003794,-1.225436,-0.5354076,-0.22418094
995,1747638742790,0.07555319,0.5705211,0.4018222,-1.219862,-0.43889377,0.038483378
996,1747638742800,0.186474295,0.53731795,0.46466125,-1.5426184,0.050738494999999995,-0.044591851
997,1747638742810,0.2973954,0.5041148,0.5275003,-1.8653748,0.54037076,-0.12766708
998,1747638742820,0.30105415,0.5317079,0.74080545,-1.9544822,0.61428326,-0.44232976
999,1747638742830,0.30105415,0.5317079,0.74080545,-1.9544822,0.61428326,-0.44232976
1000,1747638742840,0.12583052,0.5636609,0.83087164,-1.8217756,0.11025793,-0.8357154
