id,timestamp,acc_x,acc_y,acc_z,gyro_x,gyro_y,gyro_z
0,1747638720630,-0.11165286,0.55927044,0.37255222,-1.5301723,-1.0717316,0.13438639
1,1747638720640,-0.02623628900000001,0.5580508399999999,0.51336836,-1.7793980500000002,-1.2439905,0.41934664499999996
2,1747638720650,0.059180282,0.55683124,0.6541845,-2.0286238,-1.4162494,0.7043069
3,1747638720660,0.121440016,0.54975766,0.7100719,-1.7500774,-1.8548377,1.6340164
4,1747638720670,0.124488978,0.35561525000000005,0.64942812,-1.4905818499999999,-1.67036185,1.5601039
5,1747638720680,0.12753794,0.16147284,0.58878434,-1.2310863,-1.485886,1.4861914
6,1747638720690,0.14485602,0.14439867,0.7586113,-0.46034977,-1.5042114,-0.22051586
7,1747638720700,0.015503954999999986,0.25117318499999997,0.569240515,-0.553809385,-1.6444008,0.24006297
8,1747638720710,-0.11384811,0.3579477,0.37986973,-0.647269,-1.7845902,0.7006418
9,1747638720720,-0.11384811,0.3579477,0.37986973,-0.647269,-1.7845902,0.7006418
10,1747638720730,0.02435355624999999,0.28760061,0.43465188,-0.9784246000000001,-1.2528477,0.8832851500000001
11,1747638720740,0.16255522249999999,0.21725351999999998,0.48943402999999996,-1.3095802,-0.7211052,1.0659285
12,1747638720750,0.1797666,0.26495448,0.67540526,-1.8211647,0.6662053,0.7794411
13,1747638720760,0.17036056,0.2558076,0.712007995,-1.84048275,0.52754297,0.6966713
14,1747638720770,0.16095452,0.24666072,0.74861073,-1.8598008,0.38888064,0.6139015
15,1747638720780,0.20293866,0.17613833,0.67662483,-1.8604116,-0.3967453,0.3683409
16,1747638720790,0.24955723,0.119519172,0.726048435,-1.84514045,-0.8139540000000001,0.278851775
17,1747638720800,0.2961758,0.062900014,0.77547204,-1.8298693,-1.2311627,0.18936265
18,1747638720810,0.34813008,0.06753443,0.78376526,-1.7233528,-1.565296,0.025044737
19,1747638720820,0.33227549,0.0756446585,0.78541169,-1.6435609,-1.6862438,-0.0797155665
20,1747638720830,0.3164209,0.083754887,0.78705812,-1.563769,-1.8071916,-0.18447587
21,1747638720840,0.20269476,0.1024145,0.65906286,-1.6447825,-2.345959,-0.3635305
22,1747638720850,0.1488806425,0.109991165,0.61366385,-1.75351335,-2.2375336,-0.27614115
23,1747638720860,0.095066525,0.11756783,0.56826484,-1.8622442,-2.1291082,-0.1887518
24,1747638720870,0.13827026,0.0075004376,0.63659203,-2.327099,-1.1908467,0.45324868
25,1747638720880,0.26870471500000004,-0.04997243119999999,0.660633085,-2.4410984,-0.795323115,0.505476115
26,1747638720890,0.39913917,-0.1074453,0.68467414,-2.5550978,-0.39979953,0.55770355
27,1747638720900,0.44258681,-0.115143915,0.71786204,-2.5949937,-0.30328566,0.496313405
28,1747638720910,0.48603445,-0.12284253,0.75104994,-2.6348896,-0.20677179,0.43492326
29,1747638720920,0.60293156,-0.21702486,0.9216392,-2.7295709500000003,-0.39430190499999995,0.141411137
30,1747638720930,0.5363117900000001,-0.23435819000000002,1.01451045,-2.711818275,-0.9892671025,-0.10036983149999998
31,1747638720940,0.46969202,-0.25169152,1.1073817,-2.6940656,-1.5842323,-0.3421508
32,1747638720950,0.37962583,-0.26827785,1.132993,-2.613052,-1.769319,-0.20768806
33,1747638720960,0.35046253,-0.261204275,1.14752125,-2.5413919,-1.7885607000000001,-0.1325538515
34,1747638720970,0.32129923,-0.2541307,1.1620495,-2.4697318,-1.8078024,-0.057419643
35,1747638720980,0.29178533,-0.3029445,0.985088,-2.2448637,-1.421747,0.38422292
36,1747638720990,0.46016406499999996,-0.356270785,1.0367068499999998,-2.293445125,-1.31271075,0.51066832
37,1747638721000,0.6285428,-0.40959707,1.0883257,-2.34202655,-1.2036745,0.63711372
38,1747638721010,0.7403176,-0.41837808,1.1200653,-2.3750505,-1.2476555,0.6071822
39,1747638721020,0.76082185,-0.429110405,1.18424595,-2.280331,-1.37898765,0.266329415
40,1747638721030,0.7813261,-0.43984273,1.2484266,-2.1856115,-1.5103198,-0.07452337
41,1747638721040,0.69958353,-0.41935372,1.2198882,-1.9818939,-1.5384188,-0.23028941
42,1747638721050,0.65296495,-0.41776827,1.18314825,-1.8980933,-1.5051276,-0.25044737
43,1747638721060,0.60634637,-0.41618282,1.1464083,-1.8142927,-1.4718364,-0.27060533
44,1747638721070,0.43624496,-0.4042004,1.0527139,-1.650433,-1.0888352,-0.07941014
45,1747638721080,0.448562755,-0.41336253,1.0320877,-1.6588321000000001,-0.72507567,0.09865184
46,1747638721090,0.46088055,-0.42252466,1.0114615,-1.6672312,-0.36131614,0.27671382
47,1747638721100,0.49993768,-0.45057508,1.0290235,-1.6634898,-0.15668233,0.3219165
48,1747638721110,0.527637465,-0.45985916000000004,1.0320724000000001,-1.6737597,-0.257166705,0.29320668
49,1747638721120,0.55533725,-0.46914324,1.0351213,-1.6840296,-0.35765108,0.26449686
50,1747638721130,0.5953700749999999,-0.50708752,1.04830805,-1.7251854,-0.69942014,0.205244675
51,1747638721140,0.6354029,-0.5450318,1.0614948,-1.7663412,-1.0411892,0.14599249
52,1747638721150,0.6422326,-0.55576414,1.1568967,-1.7438926,-1.4046433,0.06658235
53,1747638721160,0.5946383500000001,-0.5413730699999999,1.1307976,-1.5675485999999998,-1.50329515,0.0439810015
54,1747638721170,0.5470441,-0.526982,1.1046985,-1.3912046,-1.601947,0.021379653
55,1747638721180,0.4735947,-0.475729,0.9480126,-0.9195542,-0.5677825,0.23823044
56,1747638721190,0.47432644999999996,-0.46193245,0.8843198999999999,-0.901152415,-0.437977465,0.30633990499999997
57,1747638721200,0.4750582,-0.4481359,0.8206272,-0.88275063,-0.30817243,0.37444937
58,1747638721210,0.6065903,-0.46670407,0.6439096,-1.2024528,-0.17561859,0.5827483
59,1747638721220,0.7006659,-0.488900485,0.7957171999999999,-1.31458145,-0.48989951499999995,0.45538664
60,1747638721230,0.7947415,-0.5110969,0.9475248,-1.4267101,-0.80418044,0.32802498
61,1747638721240,0.8013272,-0.5152435,1.0370728,-1.2242143,-1.2048962,0.20219044
62,1747638721250,0.770342175,-0.5063405325,1.05184495,-0.991825065,-1.32798195,0.137746055
63,1747638721260,0.73935715,-0.497437565,1.0666171,-0.75943583,-1.4510677,0.07330167
64,1747638721270,0.68272275,-0.51939005,0.94191474,-0.43790114,-1.1132691,0.117893524
65,1747638721280,0.671624545,-0.5086577250000001,0.90762917,-0.4288529525,-0.8208259874999999,0.15927842450000002
66,1747638721290,0.66052634,-0.4979254,0.8733436,-0.419804765,-0.528382875,0.200663325
67,1747638721300,0.6429491199999999,-0.49621796500000004,0.853937,-0.4740174825,-0.2915268525,0.2347180525
68,1747638721310,0.6253719,-0.49451053,0.8345304,-0.5282302,-0.05467083,0.26877278
69,1747638721320,0.72836566,-0.52966505,1.0080466,-0.69835114,0.12621632,0.3115321
70,1747638721330,0.784984795,-0.530030905,1.1065127,-0.61829197,0.004924960000000006,0.22295924499999997
71,1747638721340,0.84160393,-0.53039676,1.2049788,-0.5382328,-0.1163664,0.13438639
72,1747638721350,0.6817471,-0.5318603,1.3165097,0.16958646,-0.46332765,-0.21562909
73,1747638721360,0.6004771,-0.54869055,1.2667354999999998,0.5070032099999999,-0.15511703,-0.083075231
74,1747638721370,0.5192071,-0.5655208,1.2169613,0.84441996,0.15309359,0.049478628
75,1747638721380,0.57338715,-0.56478906,1.0566165,0.8942804,0.5269321,0.10628742
76,1747638721390,0.571679725,-0.5657647299999999,1.0351366,0.8867974999999999,0.652766635,0.11270132
77,1747638721400,0.5699723,-0.5667404,1.0136567,0.8793146,0.77860117,0.11911522
78,1747638721410,0.6114686,-0.57552135,1.0924723,0.77524155,1.2141353,0.10567658
79,1747638721420,0.6235577,-0.59163511,1.1713031,0.8760313149999999,1.2762889999999998,0.050700324250000005
80,1747638721430,0.6356468,-0.60774887,1.2501339,0.9768210799999999,1.3384426999999999,-0.0042759315
81,1747638721440,0.6272164499999999,-0.6107978350000001,1.24696295,1.15484489,1.4045668999999998,-0.034818295750000006
82,1747638721450,0.6187861,-0.6138468,1.243792,1.3328687,1.4706911,-0.06536066
83,1747638721460,0.52265245,-0.5950652,1.0832034,1.7385477,1.6967046,0.043370154
84,1747638721470,0.519832175,-0.58419565,1.0703977999999998,1.7640887,1.70617275,0.076966752
85,1747638721480,0.5170119,-0.5733261,1.0575922,1.7896297,1.7156409,0.11056335
86,1747638721490,0.51591427,-0.571008915,1.0550310999999999,1.8575483,1.62676255,0.167677565
87,1747638721500,0.5095114350000001,-0.5758415075,1.0694830999999998,1.96908525,1.5233766750000002,0.2142546675
88,1747638721510,0.5031086,-0.5806741,1.0839351,2.0806222,1.4199908,0.26083177
89,1747638721520,0.49408373,-0.56893563,1.0793008,2.1510222,1.4157149,0.29809347
90,1747638721530,0.503596465,-0.543796985,1.0774713999999999,2.18309175,1.35737895,0.309088725
91,1747638721540,0.5131092,-0.51865834,1.075642,2.2151613,1.299043,0.32008398
92,1747638721550,0.47408253,-0.46938714,1.0880818,2.300527,1.1573265,0.29931515
93,1747638721560,0.4848758575,-0.451139135,1.0636215,2.330592225,1.195199025,0.3158080325
94,1747638721570,0.495669185,-0.43289113,1.0391612000000001,2.3606574499999997,1.23307155,0.332300915
95,1747638721580,0.5172558,-0.39834642,0.970453,2.349166,1.4651935,0.32741413
96,1747638721590,0.50384038,-0.370646625,0.9764288999999999,2.2155049499999997,1.54826875,0.28893074500000004
97,1747638721600,0.49042496,-0.34294683,0.9824048,2.0818439,1.631344,0.25044736
98,1747638721610,0.47432646,-0.3322145,1.0656415,1.996478,1.5342193,0.21868332
99,1747638721620,0.4655302,-0.33075101500000004,1.10882995,2.004877,1.49817925,0.204939255
100,1747638721630,0.45673394,-0.32928753,1.1520184,2.013276,1.4621392,0.19119519
101,1747638721640,0.39328513,-0.31270117,1.2130281,2.2046242,1.3570735,0.15882029
102,1747638721650,0.376210975,-0.29402629999999996,1.17081525,2.3254956,1.3534084499999999,0.16584503
103,1747638721660,0.35913682,-0.27535143,1.1286024,2.446367,1.3497434,0.17286977
104,1747638721670,0.3559659,-0.25949684,1.073203,2.4101741,1.3210336,0.18325418
105,1747638721680,0.3830559,-0.23045552,1.0494058499999999,2.34164475,1.36593085,0.161874525
106,1747638721690,0.4101459,-0.2014142,1.0256087,2.2731154,1.4108281,0.14049487
107,1747638721700,0.40061789999999997,-0.18615416,1.0458690000000002,2.2198571,1.43892705,0.08521319249999999
108,1747638721710,0.3910899,-0.17089412,1.0661293,2.1665988,1.467026,0.029931515
109,1747638721720,0.3269093,-0.1486977,1.1578724,2.1419741,1.4056359,-0.03206948
110,1747638721730,0.305673315,-0.146868325,1.1622781500000001,2.2016272,1.4002910000000002,-0.027029989999999997
111,1747638721740,0.28443733,-0.14503895,1.1666839,2.2612803,1.3949461,-0.0219905
112,1747638721750,0.24492283,-0.107201375,1.0392679,2.456904,1.4413705,0.06352811
113,1747638721760,0.239800585,-0.0934200845,1.00132365,2.4391513,1.43984335,0.0653606525
114,1747638721770,0.23467834,-0.079638794,0.9633794,2.4213986,1.4383162,0.067193195
115,1747638721780,0.168272,-0.043020803,0.9697212,2.2463145,1.4377054,0.09529217
116,1747638721790,0.175970625,-0.0361911355,1.0717394,2.23635005,1.3075949,0.109036235
117,1747638721800,0.18366925,-0.029361468,1.1737576,2.2263856,1.1774844,0.1227803
118,1747638721810,0.18610841,-0.024483135,1.226718,2.347257,0.9869001,0.070247434
119,1747638721820,0.12997709200000002,-0.00032014049999999974,1.1561803,2.438406875,0.963382475,0.060321167499999995
120,1747638721830,0.073845774,0.023842854,1.0856426,2.5295567500000002,0.93986485,0.050394901
121,1747638721840,0.035520367,0.067290515,0.91724867,2.5715907,1.0944092,0.20280129
122,1747638721850,0.01940662105,0.0814376825,0.884304685,2.5416973,1.1335034,0.255334155
123,1747638721860,0.0032928751,0.09558485,0.8513607,2.5118039,1.1725976,0.30786702
124,1747638721870,0.089700356,0.13830076,0.85575116,2.3310695,1.0919658,0.4263714
125,1747638721880,0.11081439300000001,0.171366715,0.84623838,2.29743475,0.9963682300000001,0.311837535
126,1747638721890,0.13192843,0.20443267,0.8367256,2.2638,0.90077066,0.19730367
127,1747638721900,0.11800993500000001,0.217009615,0.8347742499999999,2.2105034999999997,0.9273425,0.14874131
128,1747638721910,0.10409144,0.22958656,0.8328229,2.157207,0.95391434,0.10017895
129,1747638721920,-0.021098793,0.24080674,0.87895375,2.0451167,1.0968527,0.092237934
130,1747638721930,-0.021830542,0.26326232,0.8511319749999999,2.056780025,1.2011547999999999,0.1913479045
131,1747638721940,-0.022562291,0.2857179,0.8233102,2.06844335,1.3054569,0.290457875
132,1747638721950,0.017958365,0.30303597,0.78327745,2.0849743,1.2617813,0.38483378
133,1747638721960,0.03637407300000001,0.326642525,0.7557605875,2.081538325,1.1725976500000002,0.3472666725
134,1747638721970,0.054789781,0.35024908,0.728243725,2.07810235,1.083414,0.309699565
135,1747638721980,0.040642615,0.40383455,0.5748506,2.0120544,0.92031777,0.19363858
136,1747638721990,0.0374716975,0.41017637500000004,0.54934605,1.92981915,0.9081008150000001,0.16248537000000002
137,1747638722000,0.03430078,0.4165182,0.5238415,1.8475839,0.89588386,0.13133216
138,1747638722010,0.007957782,0.4057859,0.65394056,1.5615547,0.7969266,0.037261683
139,1747638722020,-0.013644089000000002,0.406761565,0.674185665,1.57839115,0.9145147,0.0928487865
140,1747638722030,-0.03524596,0.40773723,0.69443077,1.5952276,1.0321028,0.14843589
141,1747638722040,-0.030123709,0.43969032,0.65979457,1.671889,1.1732085,0.21990502
142,1747638722050,-0.025489291999999997,0.474341735,0.584744485,1.701782325,1.1474001999999999,0.229067725
143,1747638722060,-0.020854875,0.50899315,0.5096944,1.7316756500000001,1.1215918999999999,0.23823043
144,1747638722070,-0.014756958,0.5324396,0.45356306,1.6556251,0.9917869,0.20707722
145,1747638722080,-0.0297578325,0.55635867,0.47150619000000005,1.5372734499999998,0.7645517,0.10292776275
146,1747638722090,-0.044758707,0.58027774,0.48944932,1.4189218,0.5373165,-0.0012216945
147,1747638722100,-0.0663605785,0.59503472,0.46357888,1.38807405,0.49119754,-0.007635590749999999
148,1747638722110,-0.08796245,0.6097917,0.43770844,1.3572263,0.44507858,-0.014049487
149,1747638722120,-0.09698737,0.594181,0.4223417,1.1123528,0.4774535,-0.011606098
150,1747638722130,-0.0886942,0.5866195999999999,0.4472212,1.02885765,0.5950416000000001,0.014354911
151,1747638722140,-0.08040103,0.5790582,0.4721007,0.9453625,0.7126297,0.04031592
152,1747638722150,-0.0638147,0.58637565,0.5309456,0.8911498,0.9142093,0.041537613
153,1747638722160,-0.107247115,0.612733925,0.511539,0.922303,1.01988585,0.018019994
154,1747638722170,-0.15067953,0.6390922,0.4921324,0.9534562,1.1255624,-0.005497625
155,1747638722180,-0.21827492,0.682052,0.4545387,1.00576,0.7798229,-0.02687728
156,1747638722190,-0.20803042500000002,0.69254043,0.441855025,0.981478835,0.636884635,0.007635590000000001
157,1747638722200,-0.19778593,0.70302886,0.42917135,0.95719767,0.49394637,0.04214846
158,1747638722210,-0.15409435,0.705468,0.4071884,0.8419002,0.2697654,0.04031592
159,1747638722220,-0.158972685,0.6993701,0.39621215,0.78503415,0.40445722500000003,0.0674986225
160,1747638722230,-0.16385102,0.6932722,0.3852359,0.7281681,0.53914905,0.094681325
161,1747638722240,-0.16165577,0.69424784,0.42526874,0.69552594,0.67231375,0.15271181
162,1747638722250,-0.14048838,0.6993700825,0.43270056749999997,0.731031455,0.5545729500000001,0.1308740225
163,1747638722260,-0.11932099,0.704492325,0.440132395,0.76653697,0.43683215,0.109036235
164,1747638722270,-0.09479212,0.7618432,0.41990253,0.94162107,-0.45477578,-0.19547112
165,1747638722280,-0.11419873999999999,0.7683070000000001,0.370844815,0.938490455,-0.58610794,-0.26545131
166,1747638722290,-0.13360536,0.7747708,0.3217871,0.93535984,-0.7174401,-0.3354315
167,1747638722300,-0.20144469,0.7611115,0.17168686,0.60199,-0.273965,-0.35436776
168,1747638722310,-0.22341243500000002,0.766355725,0.29224268,0.4147653,0.021112414999999995,-0.253845215
169,1747638722320,-0.24538018,0.77159995,0.4127985,0.2275406,0.31618983,-0.15332267
170,1747638722330,-0.218031,0.7891619,0.44746515,0.33222455,-0.029015245,-0.1655396
171,1747638722340,-0.21766512500000001,0.79332375,0.380723425,0.42446249999999996,-0.2666348225,-0.18447586500000002
172,1747638722350,-0.21729925,0.7974856,0.3139817,0.51670045,-0.5042544,-0.20341213
173,1747638722360,-0.22426612499999998,0.7950311649999999,0.2828671,0.556863625,-0.86160005,-0.196692815
174,1747638722370,-0.231233,0.79257673,0.2517525,0.5970268,-1.2189457,-0.1899735
175,1747638722380,-0.20534734,0.755135525,0.19915796,0.53533125,-0.81884074,-0.057419643
176,1747638722390,-0.21548513,0.7561721625,0.172616775,0.521014525,-0.631921485,-0.022601349
177,1747638722400,-0.22562292,0.7572088,0.14607559,0.5066978,-0.44500223,0.012216945
178,1747638722410,-0.24318492,0.83114606,0.12750745,0.2506001,0.025961008,0.15271181
179,1747638722420,-0.240257915,0.83358523,0.12959598,0.188904525,-0.030542365999999994,0.157598595
180,1747638722430,-0.23733091,0.8360244,0.13168451,0.12720895,-0.08704574,0.16248538
181,1747638722440,-0.196322425,0.8456591,0.130449685,-0.026991813500000003,-0.24281179,0.15607147500000002
182,1747638722450,-0.1699641875,0.8426711499999999,0.11995364250000001,-0.08977545675,-0.261442625,0.13789876750000002
183,1747638722460,-0.14360595,0.8396832,0.1094576,-0.1525591,-0.28007346,0.11972606
184,1747638722470,-0.07210787,0.81455976,0.16973552,-0.4285857,-0.20677179,0.026266431
185,1747638722480,-0.0858891625,0.79856795,0.181946595,-0.450385315,-0.17103722500000001,0.01099525
186,1747638722490,-0.099670455,0.78257614,0.19415767,-0.47218493,-0.13530266,-0.004275931
187,1747638722500,-0.14214244,0.7952598,0.17071119,-0.56999683,-0.1279725,0.087962
188,1747638722510,-0.12811723,0.8030804,0.16278389,-0.636655535,-0.198830775,0.09468132
189,1747638722520,-0.11409202,0.810901,0.15485659,-0.70331424,-0.26968905,0.10140064
190,1747638722530,-0.029879792,0.79428416,0.18903543,-0.95689225,-0.4926483,-0.007330167
191,1747638722540,-0.058311326,0.7630475800000001,0.231492165,-1.066882925,-0.4810422,-0.1105633535
192,1747638722550,-0.08674286,0.731811,0.2739489,-1.1768736,-0.4694361,-0.21379654
193,1747638722560,-0.17485777,0.6754358,0.34788615,-1.2105466,-0.41018394,-0.19608197
194,1747638722570,-0.21304596999999997,0.6528735,0.386089595,-1.1664510250000002,-0.41048936,-0.1038440335
195,1747638722580,-0.25123417,0.6303112,0.42429304,-1.1223554500000001,-0.41079478,-0.011606097000000003
196,1747638722590,-0.19998118,0.62835985,0.44429418,-1.0204967,-0.4755446,0.14782503
197,1747638722600,-0.12897093850000002,0.676060795,0.3715613,-0.9949556500000001,-0.67132115,0.039705065
198,1747638722610,-0.057960697,0.72376174,0.29882842,-0.9694146,-0.8670977,-0.0684149
199,1747638722620,-0.0896851135,0.717419895,0.304209825,-1.0413800500000001,-1.0808942,-0.12766708
200,1747638722630,-0.12140953,0.71107805,0.30959123,-1.1133455,-1.2946907,-0.18691926
201,1747638722640,-0.19924943,0.60832816,0.48140004,-1.2366602,-2.0796294,-0.15393351
202,1747638722650,-0.191931925,0.58160403,0.51105117,-1.1887086999999998,-2.1443792,-0.0595576075
203,1747638722660,-0.18461442,0.5548799,0.5407023,-1.1407572,-2.209129,0.034818295
204,1747638722670,-0.13823977,0.5336592,0.48554665,-1.1438115,-1.3594406,0.41781953
205,1747638722680,-0.07174198925,0.5462209,0.552288325,-1.1830965999999998,-1.1126583,0.445613065
206,1747638722690,-0.0052442085,0.5587826,0.61903,-1.2223817,-0.865876,0.4734066
207,1747638722700,-0.022562291,0.6017424,0.7347075,-0.9836932,-1.4761124,0.22845687
208,1747638722710,-0.0661319055,0.6050352800000001,0.696397315,-0.8768331,-1.9003458000000002,0.189362645
209,1747638722720,-0.10970152,0.60832816,0.65808713,-0.769973,-2.3245792,0.15026842
210,1747638722730,-0.014269125,0.6500684,0.36255166,-0.8497649,-3.3447704,0.27243787
211,1747638722740,0.1372793575,0.5862537,0.41183805500000004,-1.3846762,-2.62057285,0.27793550499999997
212,1747638722750,0.28882784,0.522439,0.46112445,-1.9195875,-1.8963753,0.28343314
213,1747638722760,0.23955666,0.45508754,0.6961382,-2.1015437,-0.8842014,0.23761958
214,1747638722770,0.109960684,0.43543700500000004,0.8170751300000001,-2.0401535,-0.58794048,0.24159008999999998
215,1747638722780,-0.019635292,0.41578647,0.93801206,-1.9787633,-0.29167956,0.2455606
216,1747638722790,0.0506432,0.40846896,0.9345972,-1.2385691,-1.1822948,0.40560257
217,1747638722800,0.09884723,0.43897379999999997,0.8516197999999999,-1.08715538,-1.59858725,0.36986801
218,1747638722810,0.14705126,0.46947864,0.7686424,-0.93574166,-2.0148797,0.33413345
219,1747638722820,0.18366925,0.49021152,0.41990253,-1.2092485,-2.5763247,0.32374904
220,1747638722830,0.284574525,0.44836457,0.5111731150000001,-1.76660845,-1.92420705,0.36284326
221,1747638722840,0.3854798,0.40651762,0.6024437,-2.3239684,-1.2720894,0.40193748
222,1747638722850,0.3575361,0.37515908,0.7312927,-2.44483985,-0.8142593850000001,0.41720867
223,1747638722860,0.3295924,0.34380054,0.8601417,-2.5657113,-0.35642937,0.43247986
224,1747638722870,0.13851418,0.2622714,1.2213517,-2.4027678000000003,0.5357894000000001,0.550373405
225,1747638722880,0.177434135,0.25288061,1.2735651,-2.1512132,0.5249468500000001,0.6221479325
226,1747638722890,0.21635409,0.24348982,1.3257785,-1.8996586,0.5141043,0.69392246
227,1747638722900,0.16705243,0.38307112,0.79376584,-0.6678088,-1.7998614,0.20585553
228,1747638722910,0.13569388999999998,0.389291,0.66869757,-0.70770475,-2.0613041,0.22387552
229,1747638722920,0.10433535,0.39551088,0.5436293,-0.7476007,-2.3227468,0.24189551
230,1747638722930,0.3852359,0.31401223,0.42478088,-1.8105513,-2.1798084,0.5234961
231,1747638722940,0.43856218,0.284605025,0.5265398400000001,-2.0629075,-1.7622943000000002,0.52410695
232,1747638722950,0.49188846,0.25519782,0.6282988,-2.3152637,-1.3447802,0.5247178
233,1747638722960,0.37889406,0.14683785,1.0278038,-2.6199238,0.44752198,0.46729815
234,1747638722970,0.35058448,0.13878859,1.2830778500000002,-2.1647663,0.173824225,0.427898495
235,1747638722980,0.3222749,0.13073933,1.5383519,-1.7096088,-0.09987353,0.38849884
236,1747638722990,0.22147635,0.19443208,1.2586709,-0.789291,-1.8517835,0.19547112
237,1747638723000,0.204890005,0.22103424,1.03733185,-0.6752916499999999,-2.3615737,0.22051586
238,1747638723010,0.18830366,0.2476364,0.8159928,-0.5612923,-2.8713639,0.2455606
239,1747638723020,0.46063665,0.22053115,0.39304122,-1.2647593,-2.7443078,0.4575246
240,1747638723030,0.44319659499999997,0.133651085,0.68930851,-1.89282475,-1.3255767950000001,0.45141612
241,1747638723040,0.42575654,0.04677102,0.9855758,-2.5208902,0.09315421,0.44530764
242,1747638723050,0.30067303,0.012241566500000002,1.1129765,-2.4616762000000003,0.26972724,0.51005747
243,1747638723060,0.17558952,-0.022287887,1.2403772,-2.4024622,0.44630027,0.5748073
244,1747638723070,0.26224092,-0.075980045,1.4248698,-1.4280082,-0.75164753,0.9242119
245,1747638723080,0.35838981000000003,-0.0242392205,1.274175,-1.1236153500000001,-1.517955465,0.80692922
246,1747638723090,0.4545387,0.027501604,1.1234802,-0.8192225,-2.2842634,0.68964654
247,1747638723100,0.586833,0.05213719,0.60463893,-1.14820195,-2.52192115,0.641695055
248,1747638723110,0.625204165,0.0068144235450000035,0.7979809975000001,-1.6228303249999998,-1.7859838,0.5978667525
249,1747638723120,0.66357533,-0.03850834291,0.991323065,-2.0974587,-1.05004645,0.55403845
250,1747638723130,0.46969202,-0.095493376,1.4236501,-1.9189767,-0.0387888,0.5351022
251,1747638723140,0.43991895999999997,-0.091468753,1.4033897999999998,-1.68467855,-0.051311169999999996,0.59099472
252,1747638723150,0.4101459,-0.08744413,1.3831295,-1.4503804,-0.06383354,0.64688724
253,1747638723160,0.4882297,-0.026190553,0.97947794,-1.0067526,-0.70522314,0.7165238
254,1747638723170,0.59988255,-0.030824968499999997,0.860385595,-1.26036875,-0.75745057,0.5763343750000001
255,1747638723180,0.7115354,-0.035459384,0.74129325,-1.5139849,-0.809678,0.43614495
256,1747638723190,0.72177994,-0.06451596,0.72763395,-1.668453,-0.6368083,0.29687178
257,1747638723200,0.615005405,-0.1075825,0.818172775,-1.8289149,-0.409878525,0.21471281999999997
258,1747638723210,0.50823087,-0.15064904,0.9087116,-1.9893768,-0.18294875,0.13255386
259,1747638723220,0.46700895,-0.21043912,1.1049424,-1.8765992,-0.117588095,0.22662434
260,1747638723230,0.46700895,-0.21043912,1.1049424,-1.7339281500000001,-0.1261399575,0.287709055
261,1747638723240,0.46700895,-0.21043912,1.1049424,-1.5912571,-0.13469182,0.34879377
262,1747638723250,0.4838392,-0.23925178,0.93825597,-1.1569448,-0.3814741,0.49356458
263,1747638723260,0.5615724,-0.22643090999999999,0.792561485,-1.18622725,-0.6474980800000001,0.50486524
264,1747638723270,0.6393056,-0.21361004,0.646867,-1.2155097,-0.91352206,0.5161659
265,1747638723280,0.6519892,-0.22165927,0.633665,-1.4572525,-0.7547018,0.5204419
266,1747638723290,0.699934085,-0.24960296999999998,0.7514158,-1.5694193,-0.60046285,0.5060869649999999
267,1747638723300,0.74787897,-0.27754667,0.8691666,-1.6815861,-0.4462239,0.49173203
268,1747638723310,0.7228775350000001,-0.28731858499999996,0.95287575,-1.6454316,-0.4926483,0.457219165
269,1747638723320,0.6978761,-0.2970905,1.0365849,-1.6092771,-0.5390727,0.4227063
270,1747638723330,0.6651608,-0.29782224,1.1022594,-1.34913255,-0.7024743499999999,0.474017465
271,1747638723340,0.6851772,-0.293172585,1.0868774,-1.222801675,-0.699572825,0.4944808625
272,1747638723350,0.7051936,-0.28852293,1.0714954,-1.0964708,-0.6966713,0.51494426
273,1747638723360,0.7366588,-0.23852001,0.9240783,-1.0073634,-0.74798244,0.29503924
274,1747638723370,0.71556,-0.23681259999999998,0.88028,-1.0877662,-0.69117367,0.243117215
275,1747638723380,0.6944612,-0.23510519,0.8364817,-1.168169,-0.6343649,0.19119519
276,1747638723390,0.58854043,-0.27705887,0.9345972,-1.3650146,-0.54090524,0.12216945
277,1747638723400,0.509587665,-0.310124815,1.0347707000000002,-1.228872,-0.768140435,0.189973495
278,1747638723410,0.4306349,-0.34319076,1.1349442,-1.0927294,-0.99537563,0.25777754
279,1747638723420,0.4018222,-0.36688116,1.1307976,-0.83357745,-1.1694671,0.40010494
280,1747638723430,0.435383635,-0.38286533,1.058316285,-0.6929107675,-1.231009975,0.50333812
281,1747638723440,0.46894507,-0.39884949999999997,0.98583497,-0.552244085,-1.2925528499999999,0.6065712999999999
282,1747638723450,0.6280549,-0.43472052,0.790351,-0.47218493,-1.3838744,0.7305733
283,1747638723460,0.6552668749999999,-0.42496385000000003,0.76277317,-0.496160665,-1.41380595,0.713775
284,1747638723470,0.68247885,-0.41520718,0.73519534,-0.5201364,-1.4437375,0.6969767
285,1747638723480,0.71373063,-0.40886533,0.64293385,-0.64910156,-1.1541959,0.59374356
286,1747638723490,0.719218765,-0.40874335,0.6545351450000001,-0.7332457649999999,-0.8338064999999999,0.5286883099999999
287,1747638723500,0.7247069,-0.40862137,0.66613644,-0.81738997,-0.5134171,0.46363306
288,1747638723510,0.7443574500000001,-0.42508577000000003,0.6861528450000001,-0.846328855,-0.43614493499999996,0.43919918
289,1747638723520,0.764008,-0.44155017,0.70616925,-0.87526774,-0.35887277,0.4147653
290,1747638723530,0.79571715,-0.41837807,0.8239048,-0.7943305,-0.3839175,0.2596101
291,1747638723540,0.76181275,-0.41179234,0.9040772,-0.712706,-0.45660833,0.19791451
292,1747638723550,0.742406125,-0.41532912,0.872596665,-0.619857235,-0.4144598625,0.16691401349999999
293,1747638723560,0.7229995,-0.4188659,0.84111613,-0.52700847,-0.372311395,0.13591351699999998
294,1747638723570,0.7229995,-0.4188659,0.84111613,-0.49959671,-0.27701923,0.123391144
295,1747638723580,0.78425305,-0.41508520000000004,0.911150715,-0.494289975,-0.041194015,0.131637582
296,1747638723590,0.8455066,-0.4113045,0.9811853,-0.48898324,0.1946312,0.13988402
297,1747638723600,0.82696897,-0.3998099,1.0034122,-0.24846213,0.32474166,-0.10384403
298,1747638723610,0.790732085,-0.40311803,0.97961507,-0.172449822,0.29450473,-0.14171656500000002
299,1747638723620,0.7544952,-0.40642616,0.95581794,-0.096437514,0.2642678,-0.1795891
300,1747638723630,0.6734539,-0.4159389,0.922127,0.013209572,0.10720369,-0.114839286
301,1747638723640,0.7297072,-0.43533028,0.9462900000000001,0.06089383599999999,0.229716745,-0.08521319299999999
302,1747638723650,0.7859605,-0.45472166,0.970453,0.1085781,0.3522298,-0.0555871
303,1747638723660,0.78791183,-0.4625575,0.9738678,0.22441001,0.71507305,-0.114839286
304,1747638723670,0.75996813,-0.460225035,0.9785022,0.300422315,0.857705925,-0.149352158
305,1747638723680,0.73202443,-0.45789257,0.9831366,0.37643462,1.0003388,-0.18386503
306,1747638723690,0.7309268149999999,-0.45130682,1.0059581,0.44061176,0.987510985,-0.20952061
307,1747638723700,0.7298292,-0.44472107,1.0287796,0.5047889,0.97468317,-0.23517619
308,1747638723710,0.7266582500000001,-0.444843025,1.0229256,0.67647518,0.933756375,-0.33142282
309,1747638723720,0.72287755,-0.43685475250000005,1.013351835,0.7488987324999999,0.9621607875,-0.3845856175
310,1747638723730,0.7190968499999999,-0.42886648000000005,1.00377807,0.8213222849999999,0.9905652,-0.437748415
311,1747638723740,0.65857506,-0.4366718,0.9472809,0.92848784,1.2208546,-0.46432027
312,1747638723750,0.64038798,-0.43947685000000003,0.9210446,0.9493711899999999,1.33080715,-0.449965355
313,1747638723760,0.6222009,-0.4422819,0.8948083,0.97025454,1.4407597,-0.43561044
314,1747638723770,0.54460496,-0.41764635,0.86404437,1.012632,1.5580423,-0.37330404
315,1747638723780,0.5580203800000001,-0.414841295,0.917858485,1.0624924,1.37295555,-0.37452572
316,1747638723790,0.5714358,-0.41203624,0.9716726,1.1123528,1.1878688,-0.3757474
317,1747638723800,0.601468,-0.42496383,1.0195106,1.1858836,1.079138,-0.39651623
318,1747638723810,0.628558,-0.41545106499999995,1.05147895,1.2890023,1.1011285,-0.437137565
319,1747638723820,0.655648,-0.4059383,1.0834473,1.392121,1.123119,-0.4777589
320,1747638723830,0.65345275,-0.366393315,1.0389173,1.4640864,1.24712105,-0.507385
321,1747638723840,0.6512575,-0.32684833,0.9943873,1.5360518,1.3711231,-0.5370111
322,1747638723850,0.6143956,-0.24852058,0.8974914,1.3927318,1.6130185,-0.5180748
323,1747638723860,0.6123223200000001,-0.2508378,0.9083456700000001,1.3490944,1.65425075,-0.51440975
324,1747638723870,0.61024904,-0.25315502,0.91919994,1.305457,1.695483,-0.5107447
325,1747638723880,0.5363118,-0.2721805,1.0656415,1.241318,1.7981052,-0.53578943
326,1747638723890,0.50983159,-0.27254638,1.0888288,1.27151675,1.7470995,-0.513493495
327,1747638723900,0.48335138,-0.27291226,1.1120161,1.3017155,1.6960938,-0.49119756
328,1747638723910,0.45966098,-0.27315617,1.1320173,1.4531293,1.6069101,-0.4062898
329,1747638723920,0.43697673000000004,-0.2721805,1.1459358,1.51982615,1.6646352,-0.337225875
330,1747638723930,0.41429248,-0.27120483,1.1598543,1.586523,1.7223603,-0.26816195
331,1747638723940,0.36669824,-0.26388735,1.1964418,1.6494403,1.6606647,-0.20341213
332,1747638723950,0.366942145,-0.254313625,1.20235675,1.6836859,1.61546195,-0.17225891999999998
333,1747638723960,0.36718605000000004,-0.24473989999999998,1.2082717,1.7179315,1.5702592,-0.14110571
334,1747638723970,0.3852359,-0.21214652,1.1666839,1.9254669,1.2721658,-0.09834641
335,1747638723980,0.385113935,-0.18066603,1.1107965,1.91393715,1.23032275,-0.09956810499999999
336,1747638723990,0.38499197,-0.14918554,1.0549091,1.9024074,1.1884797,-0.1007898
337,1747638724000,0.38413827,-0.14845379,1.0705198,1.88587635,1.1854255,-0.11239589750000001
338,1747638724010,0.38328457,-0.14772204,1.0861305,1.8693453,1.1823713,-0.124001995
339,1747638724020,0.31861615,-0.13064787,1.1596104,1.9603616,1.1218973,-0.117893524
340,1747638724030,0.325079945,-0.12650128,1.1619276,1.9912093,1.0937984,-0.10598200199999999
341,1747638724040,0.33154374,-0.12235469,1.1642448,2.022057,1.0656995,-0.09407048
342,1747638724050,0.3264215,-0.09524946,1.1459205,2.1404088,0.8268581,-0.080020994
343,1747638724060,0.344364615,-0.0737695475,1.12297715,2.1665798,0.8801545325,-0.08536590699999999
344,1747638724070,0.36230773,-0.052289635,1.1000338,2.1927507999999998,0.933450965,-0.09071082
345,1747638724080,0.35572195,-0.025946636,1.0683244,2.2076783,1.1738194,-0.14965758
346,1747638724090,0.351316215,-0.0121500992,1.0606411,2.2076783,1.22940645,-0.16798299500000002
347,1747638724100,0.34691048,0.0016464376,1.0529578,2.2076783,1.2849935,-0.18630841
348,1747638724110,0.30227375,0.048722353,0.9594767,2.1890476,1.3118708,-0.2583884
349,1747638724120,0.27335437500000004,0.0705681415,0.9348259,2.1055523000000003,1.27888505,-0.26632941
350,1747638724130,0.244435,0.09241393,0.9101751,2.022057,1.2458993,-0.27427042
351,1747638724140,0.23380937499999999,0.091316305,0.9101751,1.99495075,1.2287956,-0.26083178500000004
352,1747638724150,0.22318375,0.09021868,0.9101751,1.9678445,1.2116919,-0.24739315
353,1747638724160,0.2122075,0.094121344,1.0075588,1.9341714,1.1359469,-0.21135315
354,1747638724170,0.201841045,0.093633512,1.0286727999999998,1.9812066499999998,1.1154834500000002,-0.187530105
355,1747638724180,0.19147459,0.09314568,1.0497868,2.0282419,1.09502,-0.16370706
356,1747638724190,0.15656401,0.12171442,0.9638672,2.1902692,1.2739983,-0.050089475
357,1747638724200,0.142172925,0.14917029,0.909443325,2.1940106,1.2935454499999999,-0.0323749045
358,1747638724210,0.12778184,0.17662616,0.85501945,2.197752,1.3130926,-0.014660334
359,1747638724220,0.0831146,0.20711574,0.84233576,2.1098664,1.1487746,-0.004886778
360,1747638724230,0.072245066,0.21211603499999998,0.81866058,2.1070794,0.9881218,0.027182702999999996
361,1747638724240,0.061375532,0.21711633,0.7949854,2.1042924,0.827469,0.059252184
362,1747638724250,0.09677394,0.22861089,0.73836625,2.0662673,0.4597389,0.12766708
363,1747638724260,0.1381483,0.224083195,0.7344635749999999,1.9631485999999998,0.54159245,0.09284878499999999
364,1747638724270,0.17952266,0.2195555,0.7305609,1.8600299,0.623446,0.05803049
365,1747638724280,0.13851418,0.25519782,0.7371467,1.8158199,0.8885537,0.025044737
366,1747638724290,0.10081380799999999,0.27862906,0.7093249500000001,1.749123,0.9884272000000001,0.0329857515
367,1747638724300,0.063113436,0.3020603,0.6815032,1.6824261,1.0883007,0.040926766
368,1747638724310,0.060293153,0.32463784,0.6758930999999999,1.6098498,1.0363787,0.042759308
369,1747638724320,0.05747287,0.34721538,0.670283,1.5372735,0.9844567,0.04459185
370,1747638724330,0.033812948,0.40237105,0.65003794,1.448777,0.8940513,0.025655584
371,1747638724340,0.026007614000000002,0.41993305000000003,0.6381927199999999,1.3939534500000001,0.8344937,0.045202697
372,1747638724350,0.01820228,0.43749505,0.6263475,1.3391299,0.7749361,0.06474981
373,1747638724360,0.051131032,0.4628929,0.6976017,1.1939774,0.66925955,0.1655396
374,1747638724370,0.070171776,0.47057625999999997,0.717983975,1.21390625,0.661318525,0.14660334
375,1747638724380,0.08921252,0.47825962,0.73836625,1.2338351,0.6533775,0.12766708
376,1747638724390,0.12656227,0.50899315,0.670283,1.3559282,0.6985802,0.03115321
377,1747638724400,0.0864760845,0.5391397,0.6047532675,1.2444104,0.9184851999999999,-0.023823045
378,1747638724410,0.046389899,0.56928625,0.539223535,1.1328926,1.1383902,-0.0787993
379,1747638724420,-0.012805625,0.59905934,0.50505996,0.9116895,1.3405807,-0.08979455
380,1747638724430,-0.03439987325,0.5974738875000001,0.5468535649999999,0.87962005,1.3555464000000002,-0.088572855
381,1747638724440,-0.0559941215,0.595888435,0.58864717,0.8475506,1.3705121,-0.08735116
382,1747638724450,-0.13531277,0.60759646,0.6715026,0.9142093,1.1561048,-0.018936265
383,1747638724460,-0.12146287875,0.61143813,0.712320525,0.98147885,0.9502492849999999,0.017103722499999995
384,1747638724470,-0.1076129875,0.6152798,0.75313845,1.0487484,0.74439377,0.05314371
385,1747638724480,-0.034514207,0.6522637,0.76473975,1.3534849,0.21967594,0.047646087
386,1747638724490,0.016250946499999995,0.67764628,0.6333143999999999,1.4868023,0.03577274,-0.04825693650000001
387,1747638724500,0.0670161,0.70302886,0.50188905,1.6201197,-0.14813046,-0.14415996
388,1747638724510,0.029422449,0.7428177,0.34471524,1.5272709,-0.12125318,-0.2974826
389,1747638724520,-0.010229255500000003,0.7336556000000001,0.28955958,1.3129399,0.07547780999999999,-0.30053684999999997
390,1747638724530,-0.04988096,0.7244935,0.23440392,1.0986089,0.2722088,-0.3035911
391,1747638724540,-0.021449422500000002,0.7002085499999999,0.3025024,0.9886563500000001,0.42278265000000004,-0.27029992
392,1747638724550,0.006982115,0.6759236,0.37060088,0.8787038,0.5733565,-0.23700874
393,1747638724560,0.067503944,0.6954674,0.5468002,0.87061006,0.43713757,-0.34092912
394,1747638724570,0.0350325345,0.7152246499999999,0.51983215,1.0434798299999999,0.19214963999999998,-0.47714806
395,1747638724580,0.002561125,0.7349819,0.4928641,1.2163496,-0.05283829,-0.613367
396,1747638724590,-0.1414107,0.76623374,0.27858332,1.1665655,-0.030236939,-0.5345677
397,1747638724600,-0.1414107,0.76623374,0.27858332,0.980868,0.2398339,-0.35131353
398,1747638724610,-0.17144293,0.7647702,0.18830366,0.82693446,0.41881216,-0.24128467
399,1747638724620,-0.179004345,0.76294085,0.17597063000000002,0.77150008,0.46462568,-0.215018235
400,1747638724630,-0.18656576,0.7611115,0.1636376,0.7160657,0.5104392,-0.1887518
401,1747638724640,-0.16851594,0.7344941,0.193182,0.41881216,0.5770216,-0.13499725
402,1747638724650,-0.17351622,0.746217315,0.215256455,0.40293013,0.4270586,-0.18294875500000002
403,1747638724660,-0.1785165,0.75794053,0.23733091,0.3870481,0.2770956,-0.23090026
404,1747638724670,-0.21461618,0.7891619,0.13948984,0.36024716,-0.24708772,-0.34276167
405,1747638724680,-0.26062496,0.77257555,0.10518906,0.17580947125000002,-0.35093175,-0.26789470000000004
406,1747638724690,-0.30663374,0.7559892,0.07088828,-0.0086282175,-0.45477578,-0.19302773
407,1747638724700,-0.34056866,0.7322988,0.098725274,-0.12759072,-0.28740364,-0.030542362
408,1747638724710,-0.34733734250000003,0.7127168850000001,0.12410022799999999,-0.195203875,-0.1499630045,0.137135219
409,1747638724720,-0.354106025,0.69313497,0.14947518199999998,-0.26281703,-0.012522369,0.3048128
410,1747638724730,-0.28736433,0.6893695,0.2663875,-0.23044212,-0.014965758,0.42087376
411,1747638724740,-0.269543165,0.6919306199999999,0.27419283,-0.195547475,-0.087962004,0.422706305
412,1747638724750,-0.251722,0.69449174,0.28199816,-0.16065283,-0.16095825,0.42453885
413,1747638724760,-0.23634001,0.71902062,0.24015120499999998,-0.128239745,-0.391247675,0.378725305
414,1747638724770,-0.22095802,0.7435495,0.19830425,-0.09582666,-0.6215371,0.33291176
415,1747638724780,-0.18754143,0.7806248,0.124336526,-0.445384,-0.82006246,0.3035911
416,1747638724790,-0.17319608,0.771355985,0.1564344355,-0.5369729249999999,-0.77638688,0.31611345
417,1747638724800,-0.15885073,0.76208717,0.188532345,-0.62856185,-0.7327113,0.3286358
418,1747638724810,-0.16409494,0.7581845,0.20830485,-0.764399,-0.61970454,0.37078428
419,1747638724820,-0.145069435,0.7349971500000001,0.219890885,-0.849459475,-0.51158458,0.43981004
420,1747638724830,-0.12604393,0.7118098,0.23147692,-0.93451995,-0.40346462,0.5088358
421,1747638724840,0.08018761,0.65543455,0.37304008,-0.85411716,-0.54945713,0.3127538
422,1747638724850,0.073845777,0.669962855,0.37060091,-0.79929363,-0.674375385,0.20860434
423,1747638724860,0.067503944,0.68449116,0.36816174,-0.7444701,-0.79929364,0.10445488
424,1747638724870,-0.01695221,0.6961991,0.30102366,-0.7831062,-1.3484453,-0.06536066
425,1747638724880,-0.03709058,0.6830124,0.30335611,-0.93887225,-1.38662325,0.009468130000000005
426,1747638724890,-0.05722895,0.6698257,0.30568856,-1.0946383,-1.4248012,0.08429692
427,1747638724900,-0.05308236,0.65494674,0.30053583,-1.1968025,-1.2226108,0.19363858
428,1747638724910,0.045764864999999995,0.62578347,0.36021917999999997,-1.29726775,-0.9504783375,0.24479703749999998
429,1747638724920,0.14461209,0.5966202,0.41990253,-1.3977330000000001,-0.678345875,0.29595549499999996
430,1747638724930,0.24370325,0.5468307,0.50530386,-1.4242667,-0.49570256,0.067804046
431,1747638724940,0.25016704500000003,0.54475742,0.53836983,-1.3812402000000001,-0.62398048,-0.092237927
432,1747638724950,0.25663084,0.54268414,0.5714358,-1.3382137,-0.7522584,-0.2522799
433,1747638724960,0.149490435,0.54914792,0.53300367,-1.2575436500000001,-1.00637085,-0.4163306
434,1747638724970,0.04235003,0.5556117,0.49457154,-1.1768736,-1.2604833,-0.5803813
435,1747638724980,-0.18315093,0.55609953,0.26297268,-1.6317258,-1.2922474,-0.10323319
436,1747638724990,-0.14080089499999998,0.530960865,0.29835583,-1.8161634,-1.1615261000000001,0.051616595000000015
437,1747638725000,-0.09845086,0.5058222,0.33373898,-2.000601,-1.0308048,0.20646638
438,1747638725010,-0.000365875,0.453624,0.6341528,-2.3881073,-0.6227588,0.41904122
439,1747638725020,0.1530272125,0.43226605,0.9050528,-2.2395187500000002,-0.62245335,0.2947338
440,1747638725030,0.3064203,0.4109081,1.1759528,-2.0909302,-0.6221479,0.17042638
441,1747638725040,0.24711807,0.44359294,1.2018079,-1.6721944,-0.97888273,-0.108119965
442,1747638725050,0.205865665,0.46336544,1.15337515,-1.4405687249999999,-1.230246365,-0.19684553249999998
443,1747638725060,0.16461326,0.48313794,1.1049424,-1.20894305,-1.4816099999999999,-0.28557109999999997
444,1747638725070,-0.020367041,0.52975655,0.7108037,-1.1463312,-1.5396405,-0.1692047
445,1747638725080,-0.0539208305,0.5301224,0.632826575,-1.2672026,-1.3976185,-0.008246445000000019
446,1747638725090,-0.08747462,0.53048825,0.55484945,-1.388074,-1.2555965,0.15271181
447,1747638725100,0.06064378,0.44481254,0.5575325,-1.9725785,-0.8011262,0.5833591
448,1747638725110,0.24820047,0.35427372,0.859791,-2.2330285,-0.60412795,0.62031535
449,1747638725120,0.43575716,0.2637349,1.1620495,-2.4934785,-0.4071297,0.6572716
450,1747638725130,0.5653379,0.29401106,1.4736835,-2.156367,-0.6612422,0.23945212
451,1747638725140,0.410740435,0.320369305,1.3946087999999999,-1.7164807,-0.948035,-0.04798969000000003
452,1747638725150,0.25614297,0.34672755,1.3155341,-1.2765944,-1.2348278,-0.3354315
453,1747638725160,0.037471697,0.37892455,1.0441463,-1.058522,-1.3020209,-0.2443389
454,1747638725170,-0.025123421499999993,0.371119215,0.9041991,-1.0572620499999998,-1.0821159,0.10414946
455,1747638725180,-0.08771854,0.36331388,0.7642519,-1.0560021,-0.8622109,0.45263782
456,1747638725190,-0.025733212499999998,0.35085888,0.69871455,-1.0560021,-0.8622109,0.45263782
457,1747638725200,0.036252115,0.33840388,0.6331772,-1.0560021,-0.8622109,0.45263782
458,1747638725210,0.35694158,0.21443325,0.82038325,-1.9121046,-0.41690326,0.57236385
459,1747638725220,0.38976359,0.192846625,0.9422805750000001,-1.9709750499999998,-0.36314870499999996,0.483180165
460,1747638725230,0.4225856,0.17126,1.0641779,-2.0298455,-0.30939415,0.39399648
461,1747638725240,0.33715382,0.18418758,1.2613541,-1.7632107,-0.4242334,0.008551862
462,1747638725250,0.19097151,0.18248016,1.19997855,-1.5645898749999998,-0.45645561,0.043981001750000005
463,1747638725260,0.0447892,0.18077274,1.138603,-1.36596905,-0.48867782,0.0794101415
464,1747638725270,0.008689531,0.1815045,1.0475917,-1.1238827,-0.4382829,0.34573954
465,1747638725280,0.0189340315,0.181382535,0.98412755,-1.05565866,-0.41125291249999996,0.523190675
466,1747638725290,0.029178532,0.18126057,0.9206634,-0.98743462,-0.384222925,0.70064181
467,1747638725300,0.37328398,0.11293342,0.84648234,-1.3444748,-0.55739814,0.6371137
468,1747638725310,0.38230889,0.10157605,0.9688675200000001,-1.3996038,-0.64627642,0.54854085
469,1747638725320,0.3913338,0.09021868,1.0912527,-1.4547328,-0.7351547,0.459968
470,1747638725330,0.33471465,0.0787546,1.1793675,-1.505204,-0.9165763,0.2003579
471,1747638725340,0.315689145,0.06838814,1.2115797499999998,-1.3687559999999999,-0.76050483,0.24159008999999998
472,1747638725350,0.29666364,0.05802168,1.243792,-1.232308,-0.60443336,0.28282228
473,1747638725360,0.27554960500000003,0.058387553499999995,1.2092626,-1.1457204,-0.51036288,0.32283278
474,1747638725370,0.25443557,0.058753427,1.1747332,-1.0591328,-0.4162924,0.36284328
475,1747638725380,0.25882608,0.07143709,0.92481005,-0.96345883,-0.1588202875,0.58213743
476,1747638725390,0.34107174,0.05264026249999999,0.95019266,-1.059590915,-0.04627167874999999,0.6206208
477,1747638725400,0.4233174,0.033843435,0.97557527,-1.155723,0.06627693,0.65910417
478,1747638725410,0.523872,0.0026221042,1.1647326,-1.4653462,-0.13835691,0.37017342
479,1747638725420,0.49176649,-0.0044667241499999994,1.19779855,-1.4357582999999998,-0.371700555,0.24067381
480,1747638725430,0.45966098,-0.0115555525,1.2308645,-1.4061704,-0.6050442,0.1111742
481,1747638725440,0.37669882,-0.048874803,1.3074849,-1.1675582,-1.101663,-0.0018325418
482,1747638725450,0.31581111,-0.044362344,1.23036145,-0.9139420425,-0.9587247750000001,0.0986518366
483,1747638725460,0.2549234,-0.039849885,1.153238,-0.660325885,-0.81578655,0.199136215
484,1747638725470,0.25199643,-0.010092053,0.9589889,-0.42415705,-0.4224009,0.43370155
485,1747638725480,0.30593249499999997,0.004680150500000001,0.7882777000000001,-0.701443525,-0.12182586499999998,0.5015056
486,1747638725490,0.35986856,0.019452354,0.6175665,-0.97873,0.17874917,0.56930965
487,1747638725500,0.49774244,-0.027410137,0.75739175,-1.2329189,0.1311031,0.47768256
488,1747638725510,0.5067749850000001,-0.0381500915,0.8899147575,-1.2921329,-0.26904005,0.24922568299999998
489,1747638725520,0.51580753,-0.048890046,1.022437765,-1.3513469,-0.6691832,0.020768806
490,1747638725530,0.485660965,-0.0709721255,1.0897892325,-1.3223698000000002,-0.7959339999999999,-0.006413895999999999
491,1747638725540,0.4555144,-0.093054205,1.1571407,-1.2933927,-0.9226848,-0.033596598
492,1747638725550,0.41697556,-0.13820928,1.2713547,-0.7500441,-0.9849912,0.028709821
493,1747638725560,0.4102526,-0.13150157499999998,1.18142565,-0.597408635,-0.82158955,0.09956810049999999
494,1747638725570,0.40352964,-0.12479387,1.0914966,-0.44477317,-0.6581879,0.17042638
495,1747638725580,0.4601488,-0.09354204,0.85038495,-0.46783265,-0.14629792,0.23334365
496,1747638725590,0.47479906000000005,-0.09585925000000001,0.8074404,-0.647269025,0.06387171500000002,0.19852535500000001
497,1747638725600,0.48944932,-0.09817646,0.76449585,-0.8267054,0.27404135,0.16370706
498,1747638725610,0.48944932,-0.09817646,0.76449585,-1.3282874,0.34489962,-0.029320668
499,1747638725620,0.48871756,-0.12904717,0.943256275,-1.265981,0.06967476,-0.164623334
500,1747638725630,0.4879858,-0.15991788,1.1220167,-1.2036746,-0.2055501,-0.299926
501,1747638725640,0.4494165,-0.1797056,1.1686352,-1.0092723,-0.4511107,-0.3378749
502,1747638725650,0.424765665,-0.18421806000000002,1.1672937,-0.9301294499999999,-0.46302222,-0.31737333999999995
503,1747638725660,0.40011483,-0.18873052,1.1659522,-0.8509866,-0.47493374,-0.29687178
504,1747638725670,0.35962465,-0.1999507,1.0287796,-0.5612923,-0.27824092,-0.12155861
505,1747638725680,0.325583025,-0.187251785,0.9362894150000001,-0.56377385,-0.1499629985,-0.02748813
506,1747638725690,0.2915414,-0.17455287,0.84379923,-0.5662554,-0.021685077,0.06658235
507,1747638725700,0.27272934,-0.17089412,0.7740086,-0.67406994,-0.038177952,0.14232741
508,1747638725710,0.32020161999999996,-0.199813495,0.7876679,-0.786198585,-0.123085721,0.1951657
509,1747638725720,0.3676739,-0.22873287,0.8013272,-0.89832723,-0.20799349,0.24800399
510,1747638725730,0.40598404,-0.24423682000000002,0.83683235,-0.879963635,-0.268772785,0.19486028
511,1747638725740,0.44429418,-0.25974077,0.8723375,-0.86160004,-0.32955208,0.14171657
512,1747638725750,0.43575716,-0.27437577,0.8044982,-0.829836,0.02535016,0.086129464
513,1747638725760,0.428683565,-0.272912265,0.79583915,-0.8419765800000001,0.14480898,0.089183699
514,1747638725770,0.42160997,-0.27144876,0.7871801,-0.85411716,0.2642678,0.092237934
515,1747638725780,0.44429418,-0.23412952,0.83940876,-1.0024004,0.35833827,0.10323319
516,1747638725790,0.44563575,-0.22947986,0.86186433,-1.02110755,0.23521437,0.084602345
517,1747638725800,0.44697732,-0.2248302,0.8843199,-1.0398147,0.11209047,0.0659715
518,1747638725810,0.4665211,-0.25681376,0.93996334,-1.1270132,-0.2678565,-0.012827792
519,1747638725820,0.443333785,-0.28780642,1.01841307,-1.14946185,-0.23609245,-0.102622341
520,1747638725830,0.42014647,-0.31879908,1.0968628,-1.1719105,-0.2043284,-0.19241689
521,1747638725840,0.37425965,-0.32660443,1.1168944,-1.1163998,-0.03634541,-0.23212196
522,1747638725850,0.332900525,-0.336361095,1.0779592,-1.0503519,0.17687846000000002,-0.202495865
523,1747638725860,0.2915414,-0.34611776,1.039024,-0.984304,0.39010233,-0.17286977
524,1747638725870,0.26102132,-0.34441036,0.98780155,-0.9394831,0.5141043,-0.080020994
525,1747638725880,0.29237986,-0.356499465,1.008534475,-0.91581275,0.25751028545,0.006108469999999991
526,1747638725890,0.3237384,-0.36858857,1.0292674,-0.8921424,0.0009162709,0.092237934
527,1747638725900,0.363755975,-0.379564825,1.0533084,-0.8500703199999999,-0.20707721455000003,0.0925433595
528,1747638725910,0.40377355,-0.39054108,1.0773494,-0.80799824,-0.4150707,0.092848785
529,1747638725920,0.4094141,-0.38907757,1.0951554,-0.38491014,-0.8768712,0.027488127
530,1747638725930,0.39878849,-0.38822387,1.0547719,-0.30828698,-0.83075225,0.0403159185
531,1747638725940,0.38816288,-0.38737017,1.0143884,-0.23166382,-0.7846333,0.05314371
532,1747638725950,0.36352733,-0.37102777,0.9082237,-0.28091338,-0.24281178,0.14110571
533,1747638725960,0.39317844999999996,-0.35881668499999997,0.9533788,-0.3245126,-0.1719535,0.14446536999999998
534,1747638725970,0.42282957,-0.3466056,0.9985339,-0.36811182,-0.10109522,0.14782503
535,1747638725980,0.43014705,-0.34758124,1.0590557,-0.42728767,-0.09804098,0.0219905
536,1747638725990,0.433561875,-0.339288085,1.08626765,-0.38804072,-0.18905722,-0.022906773000000002
537,1747638726000,0.4369767,-0.33099493,1.1134796,-0.34879377,-0.28007346,-0.067804046
538,1747638726010,0.46871638,-0.34026375,1.1107966,-0.12759072,-0.3771982,-0.26877278
539,1747638726020,0.44680199,-0.35173546499999997,1.119943425,-0.10392039,-0.23364908499999998,-0.31523535999999996
540,1747638726030,0.4248876,-0.36320717999999996,1.12909025,-0.08025006,-0.09009997,-0.36169794
541,1747638726040,0.3547463,-0.3910289,1.229645,-0.07711947,0.46523654,-0.37330404
542,1747638726050,0.299834565,-0.40970378500000004,1.34007825,0.05310553500000001,0.66528902,-0.28102792
543,1747638726060,0.24492283,-0.42837867,1.4505115,0.18333054,0.8653415,-0.1887518
544,1747638726070,0.2710219,-0.44862375,1.5266439,0.42629504,0.8537354,-0.102011494
545,1747638726080,0.3066566125,-0.434598535,1.53304675,0.64919702,0.813419485,-0.07192726599999999
546,1747638726090,0.34229132500000004,-0.42057332000000003,1.5394496,0.872099,0.77310357,-0.041843038
547,1747638726100,0.35961702250000005,-0.415085195,1.5085179,1.0364360000000001,0.7727981349999999,-0.039857784
548,1747638726110,0.37694272,-0.40959707,1.4775862,1.200773,0.7724927,-0.03787253
549,1747638726120,0.28638867,-0.38761407,1.2757757,1.5098617,1.7058673,0.13438639
550,1747638726130,0.28920895,-0.36993012000000003,1.28821545,1.5727790000000001,1.75168085,0.16370706000000002
551,1747638726140,0.29202923,-0.35224617,1.3006552,1.6356963,1.7974944,0.19302773
552,1747638726150,0.28029075,-0.31587207,1.2289132,1.8052064,1.4926816,0.17775655
553,1747638726160,0.285534945,-0.30709108500000004,1.1804652500000001,1.760347275,1.3240877500000001,0.17714570500000001
554,1747638726170,0.29077914,-0.2983101,1.1320173,1.71548815,1.1554939000000002,0.17653486000000002
555,1747638726180,0.27175367,-0.324897,1.1642448,1.5721681,1.0638669,0.19424942
556,1747638726190,0.243566045,-0.32904358499999997,1.2577106,1.574974225,1.133656175,0.2502946625
557,1747638726200,0.21537842,-0.33319017,1.3511764,1.57778035,1.20344545,0.30633990499999997
558,1747638726210,0.22367159,-0.32221392,1.432675,1.7416782,1.2367367,0.41965207
559,1747638726220,0.22556194000000002,-0.3068395475,1.3956453999999998,1.90273195,1.1976424250000002,0.44255883500000004
560,1747638726230,0.22745229,-0.291465175,1.3586158,2.0637857,1.15854815,0.46546560000000003
561,1747638726240,0.2061096,-0.23117203,1.1952221,2.2145505,1.0944092,0.49295375
562,1747638726250,0.216354095,-0.19237403,1.1548387,2.14728095,0.8867211500000001,0.503338145
563,1747638726260,0.22659859,-0.15357603,1.1144553,2.0800114,0.6790331,0.51372254
564,1747638726270,0.2371175,-0.14186803,1.1222606,2.0170176,0.5104392,0.45019442
565,1747638726280,0.237849245,-0.14491699000000002,1.13457835,1.98212295,0.5968741,0.43889374999999997
566,1747638726290,0.23858099,-0.14796595,1.1468961,1.9472283,0.683309,0.42759308
567,1747638726300,0.22697970499999998,-0.14735616,1.1981491499999999,1.9494425999999998,0.8296069,0.43919918
568,1747638726310,0.21537842,-0.14674637,1.2494022,1.9516569,0.9759048,0.45080528
569,1747638726320,0.21440275,-0.13162352,1.3343462,2.125443,1.3442458,0.5308263
570,1747638726330,0.211109875,-0.11197299,1.3038261,2.1783959,1.39189185,0.5415161
571,1747638726340,0.207817,-0.09232246,1.273306,2.2313488,1.4395379,0.5522059
572,1747638726350,0.15388094,-0.015214303,1.1510427,2.275635,1.3778423,0.6029062
573,1747638726360,0.15607618499999998,0.006997359,1.162766,2.2936932,1.24223425,0.5946598
574,1747638726370,0.15827143,0.029209021,1.1744893,2.3117514,1.1066262,0.5864134
575,1747638726380,0.1577836,0.029452939,1.1132356,2.3653533,0.587406,0.5815266
576,1747638726390,0.20879267499999998,0.028233355,1.0739345500000002,2.3279770500000003,0.86076015,0.5525113500000001
577,1747638726400,0.25980175,0.027013771,1.0346335,2.2906008,1.1341143,0.5234961
578,1747638726410,0.28590083,0.05631426,1.0834473,2.283118,1.4694694,0.43309072
579,1747638726420,0.26041154,0.072290805,1.0773494000000001,2.2824689,1.5268890499999999,0.37719819
580,1747638726430,0.23492225,0.08826735,1.0712515,2.2818198,1.5843087,0.32130566
581,1747638726440,0.097017854,0.11878742,1.0563726,2.1809537,1.587363,0.29259583
582,1747638726450,0.0683424005,0.122080295,1.0652756,2.2407403500000003,1.4502278,0.350931745
583,1747638726460,0.039666947,0.12537317,1.0741786,2.300527,1.3130926,0.40926766
584,1747638726470,0.03003224,0.137325085,1.0526986,2.3332456,1.21291365,0.42637137999999997
585,1747638726480,0.020397533,0.149277,1.0312186,2.3659642,1.1127347,0.4434751
586,1747638726490,0.03234945,0.166839,0.91578513,2.3834496,0.95391434,0.4990622
587,1747638726500,0.046496615000000005,0.16622921,0.909199385,2.3684839,0.9560523,0.49967305
588,1747638726510,0.06064378,0.16561942,0.90261364,2.3535182,0.95819026,0.5002839
589,1747638726520,0.045764867,0.17930925,0.82843244,2.3254955,1.1408336,0.48623443
590,1747638726530,0.0025763715000000006,0.195773625,0.771081535,2.29621305,1.1209810999999998,0.5137225400000001
591,1747638726540,-0.040612124,0.212238,0.71373063,2.2669306,1.1011286,0.54121065
592,1747638726550,-0.056009363,0.20638399,0.66369724,2.2537973,0.96918553,0.6139015
593,1747638726560,-0.038310160499999996,0.20077391,0.6588189,2.24665815,0.7929560849999999,0.6526903
594,1747638726570,-0.020610958,0.19516383,0.65394056,2.239519,0.61672664,0.6914791
595,1747638726580,0.011967161000000004,0.230181105,0.6788353300000001,2.2488343,0.55350396,0.69575505
596,1747638726590,0.04454528,0.26519838,0.7037301,2.2581496,0.49028128,0.700031
597,1747638726600,0.09823744,0.26836932,0.6510136,2.185306,0.049173206,0.54793
598,1747638726610,0.14449014,0.273247645,0.63465595,2.1622465,0.119764238,0.488372385
599,1747638726620,0.19074284,0.27812597,0.6182983,2.139187,0.19035527,0.42881477
600,1747638726630,0.2326965,0.34819105,0.49188846,1.9254669,0.8238039,-0.039094225
601,1747638726640,0.128620307,0.411030095,0.45222153,1.6693692,1.23918005,-0.2226920125
602,1747638726650,0.024544114,0.47386914,0.4125546,1.4132715,1.6545562,-0.4062898
603,1747638726660,-0.07503487,0.48826018,0.42136607,1.2113864,1.7003697,-0.44843826
604,1747638726670,-0.181809385,0.505715475,0.48469291999999997,1.1204084,1.342718625,-0.35035908
605,1747638726680,-0.2885839,0.52317077,0.54801977,1.0294304,0.98506755,-0.2522799
606,1747638726690,-0.3515449,0.5602461,0.5711919,1.0843302,0.5263213,-0.117893524
607,1747638726700,-0.33494333,0.548782015,0.5441019,1.11765955,0.23338184499999998,0.020157958000000004
608,1747638726710,-0.31834176,0.53731793,0.5170119,1.1509889,-0.05955761,0.15820944
609,1747638726720,-0.16580236,0.5739359,0.43892804,1.182753,-0.16828842,0.43614495
610,1747638726730,-0.050246835000000004,0.6397019500000001,0.48345806999999996,1.0880334999999999,0.01622562999999999,0.37933615
611,1747638726740,0.06530869,0.705468,0.5279881,0.993314,0.20073968,0.32252735
612,1747638726750,0.0403987,0.74989134,0.52115846,0.9079481,0.25999185,0.131943
613,1747638726760,-0.006829666999999998,0.755989255,0.54544343,0.84098397,0.24410983000000003,0.06810946550000001
614,1747638726770,-0.054058034,0.76208717,0.5697284,0.77401984,0.22822781,0.004275931
615,1747638726780,-0.077839909,0.767209415,0.603404115,0.79146717,0.168326598,0.043981003500000004
616,1747638726790,-0.101621784,0.77233166,0.63707983,0.8089145,0.108425386,0.083686076
617,1747638726800,-0.099441775,0.78221025,0.640631885,0.86683045,-0.153933505,0.183254185
618,1747638726810,-0.07197828249999999,0.782271245,0.6297089925,0.880211825,-0.2154763675,0.2171562025
619,1747638726820,-0.04451479,0.78233224,0.6187861,0.8935932,-0.27701923,0.25105822
620,1747638726830,0.12509876,0.77281946,0.52506113,0.91046786,0.23189288,0.17348062
621,1747638726840,0.12802576,0.7841616,0.5011573,0.921043155,0.299086075,0.093154206
622,1747638726850,0.13095276,0.79550374,0.47725347,0.93161845,0.36627927,0.012827792
623,1747638726860,0.03234945,0.7962355,0.3108108,0.8780166,0.68025476,-0.17042638
624,1747638726870,0.0047716205000000005,0.75792533,0.22197940500000002,0.802653315,0.7666896599999999,-0.15698774
625,1747638726880,-0.022806209,0.71961516,0.13314801,0.72729003,0.85312456,-0.1435491
626,1747638726890,-0.05110054,0.7320549,0.08726119,0.6830036,0.75599986,-0.060473878
627,1747638726900,-0.056969785,0.7302255,0.0657812775,0.64501652,0.69735853,-0.0274881265
628,1747638726910,-0.06283903,0.7283961,0.044301365,0.60702944,0.6387172,0.005497625
629,1747638726920,-0.12677568,0.708395,0.123604774,0.3035911,0.54342496,0.31092125
630,1747638726930,-0.107978857,0.6880127149999999,0.153743727,0.28457847000000003,0.54342496,0.359789025
631,1747638726940,-0.089182034,0.66763043,0.18388268,0.26556584,0.54342496,0.4086568
632,1747638726950,-0.06454645,0.66714257,0.1433925,0.42881477,0.27648473,0.37017342
633,1747638726960,-0.07844970000000001,0.69167146,-0.01683024999999999,0.33661501,0.041575785000000004,0.26694024
634,1747638726970,-0.09235295,0.71620035,-0.177053,0.24441525,-0.19333316,0.16370706
635,1747638726980,-0.1047927,0.7027849,-0.2900474,-0.1518719,-0.29106873,0.06658235
636,1747638726990,-0.10332920000000001,0.68691507,-0.24074575,-0.45282870000000003,-0.325581595,0.019241688
637,1747638727000,-0.1018657,0.67104524,-0.1914441,-0.7537855,-0.36009446,-0.028098974
638,1747638727010,-0.115784195,0.65580042,-0.131654025,-0.8917988,-0.36681378,-0.037567107
639,1747638727020,-0.12970269,0.6405556,-0.07186395,-1.0298121,-0.3735331,-0.04703524
640,1747638727030,-0.1299466,0.57710683,0.09043211,-1.1593881,-0.48776153,0.036650836
641,1747638727040,-0.128727025,0.579302115,0.096286108,-1.1374548500000001,-0.550220655,0.0723854005
642,1747638727050,-0.12750745,0.5814974,0.102140106,-1.1155216000000001,-0.61267978,0.10811996499999998
643,1747638727060,-0.1211656,0.63470167,0.17632127,-1.1961917,-1.3960915,0.10934166
644,1747638727070,-0.11860448,0.634335785,0.19353264,-1.2307809,-1.56896125,0.10201149
645,1747638727080,-0.11604336,0.6339699,0.21074401,-1.2653701,-1.741831,0.09468132
646,1747638727090,-0.10089003,0.57613117,0.3854798,-1.4229687,-2.1840844,0.14232741
647,1747638727100,-0.0634335775,0.5457482849999999,0.39316317,-1.4787466999999999,-1.8184923,0.22448637
648,1747638727110,-0.025977125,0.5153654,0.40084654,-1.5345247,-1.4529002,0.30664533
649,1747638727120,-0.010854292,0.5351227,0.42112213,-1.6311148,-0.8029587,0.38300124
650,1747638727130,0.031983574,0.5516023,0.49310803,-1.69746815,-0.630699785,0.37841987
651,1747638727140,0.07482144,0.5680819,0.56509393,-1.7638215,-0.45844087,0.3738385
652,1747638727150,0.08445615000000001,0.611636275,0.642827115,-1.7354553,-0.561368635,0.19852534800000002
653,1747638727160,0.09409086,0.65519065,0.7205603,-1.7070891,-0.6642964,0.023212196
654,1747638727170,-0.030367626,0.61515784,0.78425306,-1.7494665,-1.6660858,-0.2443389
655,1747638727180,-0.044773954000000005,0.5867263199999999,0.85759573,-1.7273615,-1.8774389,-0.22479179
656,1747638727190,-0.059180282,0.5582948,0.9309384,-1.7052565,-2.088792,-0.20524468
657,1747638727200,0.035764284,0.47313735,1.046128,-1.2827792,-2.646572,0.0012216945
658,1747638727210,0.07212311199999999,0.462145865,0.99207003,-1.2098974999999998,-2.4305994,0.05192201725000001
659,1747638727220,0.10848194,0.45115438,0.93801206,-1.1370158,-2.2146268,0.10262234
660,1747638727230,0.27882725,0.485821,0.80718124,-1.0728005,-0.8524374,0.03115321
661,1747638727240,0.2573549475,0.5102279275,0.7722325475,-1.12342445,-0.6239804925,-0.07269082749999999
662,1747638727250,0.235882645,0.534634855,0.737283855,-1.1740484,-0.39552358499999996,-0.17653486499999999
663,1747638727260,0.15680793,0.5412206,0.6946747,-1.2965233,-0.38697174,-0.36841726
664,1747638727270,0.126425058,0.5379277,0.6939429500000001,-1.337641,-0.53785102,-0.40140301
665,1747638727280,0.096042186,0.5346348,0.6932112,-1.3787587,-0.6887303,-0.43438876
666,1747638727290,0.014055698,0.46362463,0.6976017,-1.512076,-1.1847383,-0.36169794
667,1747638727300,0.0160070315,0.415054715,0.747391175,-1.6656659,-1.1621369000000001,-0.09685747
668,1747638727310,0.017958365,0.3664848,0.79718065,-1.8192558,-1.1395355,0.167983
669,1747638727320,0.103115775,0.33916613,0.9621598,-1.8385739,-0.9849912,0.31886226
670,1747638727330,0.1337425575,0.33780935,1.0024213,-1.65165465,-0.992321375,0.327108695
671,1747638727340,0.16436934,0.33645257,1.0426828,-1.4647354,-0.99965155,0.33535513
672,1747638727350,0.17523887500000002,0.35098084500000004,0.99217682,-1.3345104,-1.033248125,0.31092125000000004
673,1747638727360,0.18610841,0.36550912,0.94167084,-1.2042854,-1.0668447,0.28648737
674,1747638727370,0.16144235,0.39846838,0.57704586,-1.0647068,-1.1389247,0.19119519
675,1747638727380,0.212207515,0.390159965,0.587061705,-1.52360575,-1.03049933,0.1951657
676,1747638727390,0.26297268,0.38185155,0.59707755,-1.9825047,-0.92207396,0.19913621
677,1747638727400,0.28809607,0.3359647,0.84038436,-2.3937576,-0.84205294,0.15454435
678,1747638727410,0.281876185,0.31303654000000003,1.00890033,-2.47255695,-0.810899735,0.15149012
679,1747638727420,0.2756563,0.29010838,1.1774163,-2.5513563,-0.77974653,0.14843589
680,1747638727430,0.26589966,0.2273913,1.6335404,-2.1756852,-0.845718,0.21623993
681,1747638727440,0.276631995,0.24495331999999997,1.51127715,-1.5946549175000002,-0.910315125,0.2298312825
682,1747638727450,0.28736433,0.26251534,1.3890139,-1.013624635,-0.97491225,0.243422635
683,1747638727460,0.24516673,0.27349156,0.9502079,-0.39613444,-0.96116817,0.24922568
684,1747638727470,0.23941945,0.29070293,0.8121967999999999,-0.5397599200000001,-0.7168292549999999,0.28282229000000003
685,1747638727480,0.23367217,0.3079143,0.6741857,-0.6833854,-0.47249034,0.3164189
686,1747638727490,0.40697494,0.31571963,0.5218902,-1.5962203,-0.25258535,0.16126367
687,1747638727500,0.43173249,0.2878979,0.6649016,-1.8199049499999997,-0.26480229,0.0421484575
688,1747638727510,0.45649004,0.26007617,0.807913,-2.0435896,-0.27701923,-0.076966755
689,1747638727520,0.34373957,0.17662616,1.2662324,-2.079095,-0.42850935,-0.37086064
690,1747638727530,0.29774603499999996,0.167586,1.3985114,-1.5971365,-0.54212695,-0.29782622000000003
691,1747638727540,0.2517525,0.15854584,1.5307904,-1.115178,-0.65574455,-0.2247918
692,1747638727550,0.22746755,0.17319608,1.46465855,-0.8578586,-0.779441125,-0.164317915
693,1747638727560,0.2031826,0.18784632,1.3985267,-0.6005392,-0.9031377,-0.10384403
694,1747638727570,0.187328,0.20833533,1.084667,-0.15874393,-1.2647593,0.16004199
695,1747638727580,0.241927225,0.20040803499999998,0.9941281575,-0.217308915,-1.284001,0.244033485
696,1747638727590,0.29652645,0.19248073999999998,0.903589315,-0.2758739,-1.3032427,0.32802498
697,1747638727600,0.4267322,0.16025324,0.9956069,-0.65849334,-1.397924,0.3787253
698,1747638727610,0.4675425225,0.13952032874999998,1.01451045,-0.6830799700000001,-1.35088875,0.357040215
699,1747638727620,0.508352845,0.11878741749999999,1.033414,-0.7076666,-1.3038535,0.33535513
700,1747638727630,0.46234405,0.12195834,0.95313495,-0.65849334,-0.434007,0.19608197
701,1747638727640,0.43746455,0.122202252,0.9147028,-0.6684577700000001,-0.255945015,0.217767045
702,1747638727650,0.41258505,0.122446164,0.87627065,-0.6784222,-0.07788303,0.23945212
703,1747638727660,0.36889347,0.1094881,0.8367256,-0.7394306,0.18607935,0.32374904
704,1747638727670,0.395617585,0.101194935,0.87247465,-0.772454525,-0.004237750000000012,0.34665582
705,1747638727680,0.4223417,0.09290177,0.9082237,-0.80547845,-0.19455485,0.3695626
706,1747638727690,0.41990253,0.073632345,0.88992995,-0.8048676,-0.55800897,0.34085277
707,1747638727700,0.42063428999999997,0.0420298912,0.8654010999999999,-0.84117485,-0.73546011,0.341616335
708,1747638727710,0.42136605,0.0104274374,0.84087225,-0.8774821,-0.9129112500000001,0.34237989999999996
709,1747638727720,0.40279788,-0.03765464,0.75422084,-1.0285904,-0.8090672,0.3994941
710,1747638727730,0.406959715,-0.04265493,0.79547322,-1.1245316,-0.68017845,0.42301173000000003
711,1747638727740,0.41112155,-0.04765522,0.8367256,-1.2204728,-0.5512897,0.44652936
712,1747638727750,0.45087993,-0.049606554,0.8999306,-1.2379583,-0.5763344,0.44164258
713,1747638727760,0.457846815,-0.010442681999999995,0.92580098,-1.2407453,-0.707666565,0.39857784
714,1747638727770,0.4648137,0.02872119,0.95167136,-1.2435323,-0.83899873,0.3555131
715,1747638727780,0.47749737,0.04530752,0.9970704,-1.2959125,-0.9061919,0.3206948
716,1747638727790,0.47621680749999995,0.0399413535,1.009517775,-1.35991785,-0.89214241,0.289236175
717,1747638727800,0.474936245,0.034575187,1.02196515,-1.4239232,-0.87809292,0.25777755
718,1747638727810,0.4719482725,0.024696562,1.067478425,-1.45864605,-0.81364854,0.23120569000000002
719,1747638727820,0.4689603,0.014817937,1.1129917,-1.4933689,-0.74920416,0.20463383
720,1747638727830,0.38816288,-0.006433302,1.1879046,-1.3363811,-0.26174805,0.31947312
721,1747638727840,0.38108929999999996,0.0002896513499999996,1.2030427499999998,-1.2668972,-0.26052636,0.35887277
722,1747638727850,0.37401572,0.0070126047,1.2181809,-1.1974133,-0.25930467,0.39827242
723,1747638727860,0.38767505,-0.021068303,1.169611,-0.9207759,-0.52624494,0.50700325
724,1747638727870,0.44941647500000004,-0.048890049500000005,1.1116502499999998,-0.8078455099999999,-0.757145195,0.5163186575000001
725,1747638727880,0.5111579,-0.076711796,1.0536895,-0.69491512,-0.98804545,0.525634065
726,1747638727890,0.54899544,-0.11890938,0.9694773,-0.5662554,-1.121821,0.5167768
727,1747638727900,0.5665727,-0.14197475,0.90749195,-0.561903125,-0.97674478,0.5137225700000001
728,1747638727910,0.58414996,-0.16504012,0.8455066,-0.55755085,-0.83166856,0.51066834
729,1747638727920,0.5580204,-0.17455287,0.84233576,-0.64971244,-0.633754,0.5436541
730,1747638727930,0.5586301499999999,-0.17382112,0.8702794300000001,-0.66563262,-0.62886723,0.563812025
731,1747638727940,0.5592399,-0.17308937,0.8982231,-0.6815528,-0.62398046,0.58396995
732,1747638727950,0.58474447,-0.17406503499999998,0.922752,-0.635128425,-0.75958858,0.58763504
733,1747638727960,0.61024904,-0.1750407,0.9472809,-0.58870405,-0.8951967,0.59130013
734,1747638727970,0.6942173,-0.17333329,0.8630686,-0.43790114,-1.3221788,0.44836187
735,1747638727980,0.704827685,-0.17981233000000002,0.85050695,-0.45660832,-1.3182083,0.405297145
736,1747638727990,0.71543807,-0.18629137,0.8379453,-0.4753155,-1.3142378,0.36223242
737,1747638728000,0.70568144,-0.21434177,0.85306805,-0.6204681,-0.9147438,0.25289077
738,1747638728010,0.68005492,-0.210439105,0.907126075,-0.620773535,-0.54151611,0.245255175
739,1747638728020,0.6544284,-0.20653644,0.9611841,-0.62107897,-0.16828842,0.23761958
740,1747638728030,0.61024904,-0.16308878,1.1583602,-0.45844087,-0.11209047,0.26144263
741,1747638728040,0.61781047,-0.15369799,1.1658149,-0.38804072,-0.12766708,0.258082965
742,1747638728050,0.6253719,-0.1443072,1.1732696,-0.31764057,-0.14324369,0.2547233
743,1747638728060,0.65345275,-0.14040454,0.9814292,-0.022906773,-0.15423894,0.114228435
744,1747638728070,0.6589408750000001,-0.141136285,0.9536074999999999,-0.031000499,-0.109647088,0.06810946749999999
745,1747638728080,0.664429,-0.14186803,0.9257858,-0.039094225,-0.065055236,0.0219905
746,1747638728090,0.67930794,-0.18360828,0.9287127,-0.13568445,0.10659285,-0.13072132
747,1747638728100,0.658209145,-0.20592665,0.9670381,-0.09395594500000001,0.22299743500000002,-0.17714571
748,1747638728110,0.63711035,-0.22824502,1.0053635,-0.05222744,0.33940202,-0.2235701
749,1747638728120,0.5870769,-0.21434177,1.0414633,0.070552856,0.46157146,-0.18691926
750,1747638728130,0.5943944,-0.211658685,1.06013815,0.15591876300000002,0.49761142999999997,-0.16156910000000002
751,1747638728140,0.6017119,-0.2089756,1.078813,0.24128467,0.5336514,-0.13621894
752,1747638728150,0.60695615,-0.20080439,1.1021222499999999,0.294848335,0.55625277,-0.144159955
753,1747638728160,0.6122004,-0.19263318,1.1254315,0.348412,0.57885414,-0.15210097
754,1747638728170,0.62000567,-0.1618692,1.2137598,0.4976878,0.52815385,-0.22601348
755,1747638728180,0.603297385,-0.15430778499999998,1.20790585,0.624782215,0.5128826424999999,-0.2727623875
756,1747638728190,0.5865891,-0.14674637,1.2020519,0.7518766299999999,0.49761143499999994,-0.319511295
757,1747638728200,0.56509393,-0.14625853,1.1581163,0.9322293,0.60267717,-0.33909658
758,1747638728210,0.562898695,-0.145160905,1.1196842,0.9752558499999999,0.697663935,-0.32351997499999996
759,1747638728220,0.56070346,-0.14406328,1.0812521,1.0182824,0.7926507,-0.30794337
760,1747638728230,0.56777704,-0.13650186,1.0602753,1.1023502,0.995452,-0.28526568
761,1747638728240,0.57925637,-0.12087595300000001,1.020364425,1.1659165,0.963077075,-0.30088046
762,1747638728250,0.5907357,-0.105250046,0.98045355,1.2294828,0.93070215,-0.31649524
763,1747638728260,0.6061024,-0.086712375,0.95581794,1.2500225,0.683309,-0.3714715
764,1747638728270,0.6158591,-0.0825657925,0.95886692,1.25345855,0.37296042,-0.42797487
765,1747638728280,0.6256158,-0.07841921,0.9619159,1.2568946,0.06261184,-0.48447824
766,1747638728290,0.6270793,-0.09500554,0.9721604,1.2594143,-0.13285927,-0.5223508
767,1747638728300,0.6445345849999999,-0.109533825,0.9749654249999999,1.251626,-0.03573456,-0.5302918
768,1747638728310,0.66198987,-0.12406211,0.97777045,1.2438377,0.06139015,-0.5382328
769,1747638728320,0.6366225,-0.11817763,1.0104858,1.2132953,1.1414444,-0.5309026
770,1747638728330,0.6006143150000001,-0.0812090075,1.04611285,1.22417605,1.3827291,-0.50799585
771,1747638728340,0.56460613,-0.044240385,1.0817399,1.2350568,1.6240138,-0.4850891
772,1747638728350,0.5568007850000001,-0.0325323855,1.0965121500000001,1.27930505,1.48657315,-0.489975875
773,1747638728360,0.54899544,-0.020824386,1.1112844,1.3235533,1.3491325,-0.49486265
774,1747638728370,0.52618925,-0.0039788906999999995,1.06966605,1.5329212,0.807311,-0.50524706
775,1747638728380,0.523445175,-0.006669596349999999,1.057409225,1.5525446500000002,0.7642462999999999,-0.503414515
776,1747638728390,0.5207011,-0.009360302,1.0451524,1.5721681,0.7211816,-0.50158197
777,1747638728400,0.5207011,-0.015702136,1.0329262,1.6786846,0.8238039,-0.5186857
778,1747638728410,0.503977575,-0.002515390499999999,1.0396491,1.6802499,0.9282587874999999,-0.513951625
779,1747638728420,0.48725405,0.010671355,1.046372,1.6818152,1.0327136749999999,-0.50921755
780,1747638728430,0.4416111,0.05116152,1.0414633,1.6855567,1.1139563,-0.49913856
781,1747638728440,0.41525287499999997,0.08070593000000001,1.04647875,1.7217112,1.01774785,-0.48356196
782,1747638728450,0.38889465,0.11025034,1.0514942,1.7578657,0.9215394,-0.46798536
783,1747638728460,0.38889465,0.11025034,1.0514942,1.7578657,0.9215394,-0.46798536
784,1747638728470,0.396090175,0.12427555,1.05210405,1.7824523,0.82258217,-0.416368765
785,1747638728480,0.4032857,0.13830076,1.0527139,1.8070389,0.72362494,-0.36475217
786,1747638728490,0.41087765,0.149277,1.0810082,1.8656039,0.7260683,-0.3445942
787,1747638728500,0.406349925,0.159170875,1.0700319500000002,1.89209935,0.75416728,-0.34123455
788,1747638728510,0.4018222,0.16906475,1.0590557,1.9185948,0.78226626,-0.3378749
789,1747638728520,0.3825528,0.21175015,0.9831366,1.9434869,0.81708455,-0.349481
790,1747638728530,0.37755251,0.23005915500000002,0.90663827,1.88557095,0.861981825,-0.37727455
791,1747638728540,0.37255222,0.24836816,0.83013994,1.827655,0.9068791,-0.4050681
792,1747638728550,0.37060088,0.26593015,0.80669343,1.7609963,0.9844567,-0.45088163
793,1747638728560,0.31764047,0.286312435,0.804010315,1.6799827,0.9841513,-0.451187065
794,1747638728570,0.26468006,0.30669472,0.8013272,1.5989691,0.9838459,-0.4514925
795,1747638728580,0.24783458,0.30510926,0.8359786,1.5634635499999998,0.941086565,-0.39621081
796,1747638728590,0.2309891,0.3035238,0.87063,1.527958,0.89832723,-0.34092912
797,1747638728600,0.2551673,0.2991333,0.91749257,1.5702592,0.79387236,-0.26449686
798,1747638728610,0.27260735,0.3137683,0.874304055,1.6319548,0.7059103550000001,-0.26694025
799,1747638728620,0.2900474,0.3284033,0.83111554,1.6936504,0.61794835,-0.26938364
800,1747638728630,0.26907057,0.36038688,0.8076691,1.6157674,0.50494164,-0.2858765
801,1747638728640,0.258948035,0.36111863,0.79693675,1.6030159,0.516853155,-0.26877279
802,1747638728650,0.2488255,0.36185038,0.7862044,1.5902644,0.52876467,-0.25166908
803,1747638728660,0.26028958,0.37941238,0.77108157,1.52666,0.683309,-0.19547112
804,1747638728670,0.26675336000000005,0.40003858999999997,0.771691385,1.5017298000000001,0.6604022300000001,-0.228456875
805,1747638728680,0.27321714,0.4206648,0.7723012,1.4767996,0.63749546,-0.26144263
806,1747638728690,0.24370325,0.44042203,0.7666911,1.4649644,0.5605287,-0.2907633
807,1747638728700,0.22710167,0.441763565,0.76534955,1.449559625,0.5333460075,-0.292443125
808,1747638728710,0.21050009,0.4431051,0.764008,1.43415485,0.506163315,-0.29412295
809,1747638728720,0.17903483,0.4633807,0.84672624,1.4438138,0.3962108,-0.2699945
810,1747638728730,0.192694165,0.45580405,0.8494093199999999,1.458436,0.37727453499999997,-0.25808297
811,1747638728740,0.2063535,0.4482274,0.8520924,1.4730582,0.35833827,-0.24617144
812,1747638728750,0.21537842,0.5075296,0.8545315,1.585225,0.28564745,-0.3109976
813,1747638728760,0.24844436999999997,0.5382936,0.7846189299999999,1.55189565,0.31496812500000004,-0.393767415
814,1747638728770,0.28151032,0.5690576,0.71470636,1.5185663,0.3442888,-0.47653723
815,1747638728780,0.27711982999999996,0.56818865,0.702373295,1.4805792,0.36872267999999997,-0.518991115
816,1747638728790,0.27272934,0.5673197,0.69004023,1.4425921,0.39315656,-0.561445
817,1747638728800,0.187328,0.58027774,0.7115354,1.2294828,0.7340093,-0.6903338
818,1747638728810,0.16901901,0.57160347,0.7320244,1.2064233,0.7782957500000001,-0.69552598
819,1747638728820,0.15071002,0.5629292,0.7525134,1.1833638,0.8225822,-0.70071816
820,1747638728830,0.06774786,0.6039377,0.90480894,1.3366102,0.6118399,-0.5938199
821,1747638728840,0.074577525,0.612352825,0.910175085,1.39956565,0.533346015,-0.576716175
822,1747638728850,0.08140719,0.62076795,0.91554123,1.4625211,0.45485213,-0.55961245
823,1747638728860,0.09994486,0.62567675,0.74080545,1.7460306,0.45485213,-0.5877114
824,1747638728870,0.080416279,0.6372627900000001,0.6074439899999999,1.7404184,0.598095815,-0.6164212250000001
825,1747638728880,0.060887698,0.64884883,0.47408253,1.7348062,0.7413395,-0.64513105
826,1747638728890,0.011616532,0.6498245,0.3647469,1.5733898,0.8421293,-0.6341358
827,1747638728900,-0.007546172499999998,0.66494733,0.43014704,1.3980003,0.8085327,-0.5877114
828,1747638728910,-0.026708877,0.68007016,0.49554718,1.2226108,0.7749361,-0.541287
829,1747638728920,-0.0491644535,0.69411063,0.58620796,1.22012925,0.678727665,-0.51288262
830,1747638728930,-0.07162003,0.7081511,0.67686874,1.2176477,0.58251923,-0.48447824
831,1747638728940,0.005991204000000002,0.68972012,0.834042535,1.3310362,0.24869118499999998,-0.38949148
832,1747638728950,0.046138364,0.67208953,0.8129285175000001,1.4802738500000001,0.28457846249999996,-0.382008605
833,1747638728960,0.086285524,0.65445894,0.7918145,1.6295115,0.32046574,-0.37452573
834,1747638728970,0.014543531,0.69034517,0.3061764,1.7709225,0.66864866,-0.3714715
835,1747638728980,0.0022104945,0.711200035,0.23868771,1.6307331,0.72759543,-0.36169795000000005
836,1747638728990,-0.010122542,0.7320549,0.17119902,1.4905437,0.7865422,-0.3519244
837,1747638729000,-0.013537374,0.73964685,0.23245259,1.0780691,0.675368,-0.36841726
838,1747638729010,-0.059652871999999996,0.7718590750000001,0.401578295,0.9642033249999999,0.42642865674999997,-0.40262470250000004
839,1747638729020,-0.10576837,0.8040713,0.570704,0.85033755,0.1774893135,-0.436832145
840,1747638729030,-0.2441606,0.8496837,0.78352135,0.94597334,-0.60321164,-0.44110808
841,1747638729040,-0.24891697000000002,0.7923328000000001,0.88797864,1.26063602,-1.43060422,-0.351275355
842,1747638729050,-0.25367334,0.7349819,0.99243593,1.5752987,-2.2579968,-0.26144263
843,1747638729060,-0.14628904,0.67958236,0.7701059,1.9316517,-2.43331,-0.13133216
844,1747638729070,-0.07625445750000001,0.6787286299999999,0.58706169,2.008313,-2.11811285,-0.10781454
845,1747638729080,-0.006219875,0.6778749,0.40401748,2.0849743,-1.8029157,-0.08429692
846,1747638729090,0.12290351,0.7437934,-0.05625328,1.6207305,-0.11514471,-0.12216945
847,1747638729100,0.0642110625,0.7971044350000001,-0.10590557,1.20638515,0.36898992500000005,-0.229411325
848,1747638729110,0.005518615,0.85041547,-0.15555786,0.7920398,0.85312456,-0.3366532
849,1747638729120,-0.0082779225,0.829194735,-0.16337844,0.63940435,0.67994933,-0.36414133
850,1747638729130,-0.02207446,0.807974,-0.17119902,0.4867689,0.5067741,-0.39162946
851,1747638729140,-0.047929626,0.73839676,0.024056282,0.5415925,-0.3362714,-0.3011477
852,1747638729150,-0.0353679175,0.722420215,-0.011829959000000001,0.611076365,-0.34940463,-0.26388602
853,1747638729160,-0.022806209,0.70644367,-0.0477162,0.68056023,-0.36253786,-0.22662434
854,1747638729170,0.076041025,0.7178010349999999,-0.35518839999999996,0.7141568,0.038216138000000004,-0.16584503
855,1747638729180,0.045780112,0.7686195375,-0.43146573,0.59267455,0.135665364,-0.189209935
856,1747638729190,0.015519199,0.81943804,-0.50774306,0.4711923,0.23311459,-0.21257484
857,1747638729200,-0.10235353,0.8370001,-0.28443733,-0.31206658,0.06810947,-0.15698774
858,1747638729210,-0.095767782,0.82480425,-0.17876043,-0.386208175,0.06383354,-0.13591351299999999
859,1747638729220,-0.089182034,0.8126084,-0.07308353,-0.46034977,0.05955761,-0.114839286
860,1747638729230,-0.0638147,0.76062363,0.09750569,-0.44164258,-0.060779303,-0.11911522
861,1747638729240,-0.120189945,0.763184765,0.02306537,-0.41110020999999997,0.0434083335,-0.082464383
862,1747638729250,-0.17656519,0.7657459,-0.05137495,-0.38055784,0.14759597,-0.045813546
863,1747638729260,-0.22022626,0.768429,-0.067717366,-0.5176167,0.16958646,0.0891837
864,1747638729270,-0.22053878,0.7542132175,-0.044286121,-0.5707604,0.10372949575,0.15240639
865,1747638729280,-0.2208513,0.739997435,-0.020854876,-0.6239041,0.0378725315,0.21562908000000003
866,1747638729290,-0.2148601,0.72351784,0.039179116,-0.7151494,-0.27213246,0.3854446
867,1747638729300,-0.16128989999999999,0.72120062,0.058585738,-0.71889085,-0.40193748,0.39949409
868,1747638729310,-0.1077197,0.7188834,0.07799236,-0.7226323,-0.5317425,0.41354358
869,1747638729320,-0.10650012,0.69717485,0.022836698,-0.72637373,-0.61970454,0.40132666
870,1747638729330,-0.10564641,0.706931505,-0.004985046000000003,-0.8042567650000001,-0.73637637,0.42362257999999997
871,1747638729340,-0.1047927,0.71668816,-0.03280679,-0.8821398,-0.8530482,0.4459185
872,1747638729350,-0.0989387,0.70827303,-0.0191474575,-0.98464765,-1.0558495,0.461189685
873,1747638729360,-0.0930847,0.6998579,-0.005488125,-1.0871555,-1.2586508,0.47646087
874,1747638729370,-0.061131615,0.64470226,0.11872645,-1.3426423,-1.0876136,0.70125264
875,1747638729380,-0.050993827500000005,0.63041788,0.15008498,-1.41117175,-0.72141064,0.84358007
876,1747638729390,-0.04085604,0.6161335,0.18144351,-1.4797012,-0.35520768,0.9859075
877,1747638729400,0.18513274,0.63421386,0.5143288,-1.3924264,-0.28801447,0.8826743
878,1747638729410,0.1652383,0.6710605000000001,0.50652347,-1.2830846999999999,-0.44805646,0.75653435
879,1747638729420,0.14534386,0.70790714,0.49871814,-1.173743,-0.60809845,0.6303944
880,1747638729430,-0.07381528,0.7215665,0.291267,-1.0765419,-1.4510677,0.5351022
881,1747638729440,-0.07369332,0.6989889499999999,0.285047125,-1.1547304,-1.6783029,0.68537063
882,1747638729450,-0.07357136,0.6764114,0.27882725,-1.2329189,-1.9055381,0.83563906
883,1747638729460,0.0067381975,0.66689867,0.22001283,-1.3805912,-1.7864228,1.0030112
884,1747638729470,0.11605859375000001,0.6182220350000001,0.325323865,-1.7631724,-1.2864442999999999,1.0995251000000001
885,1747638729480,0.22537899,0.5695454,0.4306349,-2.1457536,-0.7864658,1.196039
886,1747638729490,0.3913338,0.5812534,0.7947415,-2.2236366,-0.581832,1.0897515
887,1747638729500,0.41878966,0.60198635,0.90054035,-2.0815764999999997,-0.7290462,0.9254336
888,1747638729510,0.44624552,0.6227193,1.0063392,-1.9395164,-0.8762604,0.7611157
889,1747638729520,0.1770835,0.64811707,0.8733436,-1.2940036,-1.454122,0.41720867
890,1747638729530,0.14558776,0.632857055,0.69420207,-1.1868381000000001,-1.477945,0.619704535
891,1747638729540,0.11409202,0.61759704,0.51506054,-1.0796726,-1.501768,0.8222004
892,1747638729550,0.14008439,0.63566212,0.453563045,-1.154425,-1.34355855,0.9443698500000001
893,1747638729560,0.16607676,0.6537272,0.39206555,-1.2291774,-1.1853491,1.0665393
894,1747638729570,0.41356072,0.57564336,0.5450928,-1.8397956,-0.13408098,1.2339115
895,1747638729580,0.435879095,0.5614809300000001,0.6879822200000001,-1.85445595,-0.09956810799999999,1.0750912000000001
896,1747638729590,0.45819747,0.5473185,0.83087164,-1.8691163,-0.065055236,0.9162709
897,1747638729600,0.40352964,0.56219745,0.9223709,-1.7208331,-0.32100025,0.78432786
898,1747638729610,0.36900018,0.551830975,0.8782067499999999,-1.5859122,-0.591911005,0.73973603
899,1747638729620,0.33447072,0.5414645,0.8340426,-1.4509913,-0.86282176,0.6951442
900,1747638729630,0.32081142,0.5348788,0.7042179,-1.2971342,-0.9507837,0.8179245
901,1747638729640,0.35186506,0.5298785025,0.64399335,-1.3136269999999999,-0.91566,0.866181435
902,1747638729650,0.3829187,0.524878205,0.5837688000000001,-1.3301198,-0.8805363,0.91443837
903,1747638729660,0.48847362,0.5031391,0.5458245,-1.6423392,-0.40163207,1.0152282
904,1747638729670,0.50849004,0.4782596,0.694446,-1.8024575500000002,-0.162790795,0.90771905
905,1747638729680,0.52850646,0.4533801,0.8430675,-1.9625759,0.07605048,0.8002099
906,1747638729690,0.5394827,0.40895677,1.055153,-1.8659856,0.0503949,0.7379035
907,1747638729700,0.503855625,0.41749385,1.0904142000000001,-1.5659833,-0.41110019999999997,0.6230642
908,1747638729710,0.46822855,0.42603093,1.1256754,-1.265981,-0.8725953,0.5082249
909,1747638729720,0.429903135,0.428470115,0.976322185,-1.09555458,-1.03966205,0.61298522
910,1747638729730,0.39157772,0.4309093,0.82696897,-0.92512816,-1.2067288,0.71774554
911,1747638729740,0.4045053,0.42773837,0.6746735,-0.92512816,-1.2067288,0.71774554
912,1747638729750,0.48248242500000005,0.411883785,0.5895008500000001,-1.15816638,-0.825865515,0.79685027
913,1747638729760,0.56045955,0.3960292,0.5043282,-1.3912046,-0.44500223,0.875955
914,1747638729770,0.63025016,0.3838029,0.59000397,-2.0897086,0.5843518,0.59679776
915,1747638729780,0.6300062550000001,0.36085947500000004,0.678591435,-2.2080984499999996,0.74531002,0.526244905
916,1747638729790,0.62976235,0.33791605,0.7671789,-2.3264883,0.90626824,0.45569205
917,1747638729800,0.5658257,0.3091339,1.1644887,-2.1731656,0.34795386,0.080020994
918,1747638729810,0.445757715,0.291800565,1.088219,-1.82612795,-0.10899807,0.10903623700000001
919,1747638729820,0.32568973,0.27446723,1.0119493,-1.4790903,-0.56595,0.13805148
920,1747638729830,0.3720644,0.27324766,0.7586113,-1.5252093,-0.34971005,0.3915531
921,1747638729840,0.4626032,0.26995478,0.7072516,-1.8367414000000002,0.27858452499999997,0.4874561
922,1747638729850,0.553142,0.2666619,0.6558919,-2.1482735,0.9068791,0.5833591
923,1747638729860,0.60963922,0.23786448999999998,0.708974275,-2.42178035,1.47832675,0.48531813
924,1747638729870,0.66613644,0.20906708,0.76205665,-2.6952872,2.0497744,0.38727716
925,1747638729880,0.38157713,0.09095043,1.1105527,-2.9016008,3.41204,-0.10567658
926,1747638729890,0.2937214,0.097902055,1.1473992499999999,-2.74426945,3.2501655,-0.151795545
927,1747638729900,0.20586567,0.10485368,1.1842458,-2.5869381,3.088291,-0.19791451
928,1747638729910,-0.06405862,0.14488651,0.91749257,-1.5756805,0.3534515,0.047646087
929,1747638729920,-0.036724705999999996,0.12890996500000002,0.860141665,-1.54823055,-0.22872411500000006,0.1609582535
930,1747638729930,-0.009390792,0.11293342,0.80279076,-1.5207806,-0.81089973,0.27427042
931,1747638729940,0.28321773,-0.021556135,0.9504518,-1.8971388,-1.621494,0.5619795
932,1747638729950,0.38840681499999996,-0.0841512525,1.1497164500000001,-1.8578919,-1.2345223,0.56595
933,1747638729960,0.4935959,-0.14674637,1.3489811,-1.818645,-0.8475506,0.5699205
934,1747638729970,0.47286296,-0.14772204,1.4214549,-1.5986637,-0.44866732,0.49722967
935,1747638729980,0.43356188,-0.1328278725,1.3936331000000002,-1.4380871499999999,-0.2913741425,0.5105156025
936,1747638729990,0.3942608,-0.117933705,1.3658113,-1.2775105999999998,-0.134080965,0.523801535
937,1747638730000,0.38377237,-0.08232188,1.2452556,-0.9862129,-0.02779355,0.62367505
938,1747638730010,0.414033275,-0.057793007,1.0419663,-0.8653415,-0.16737215,0.6578824750000001
939,1747638730020,0.44429418,-0.033264134,0.838677,-0.7444701,-0.30695075,0.6920899
940,1747638730030,0.4555144,-0.030093221,0.76449585,-0.88275063,-0.39796698,0.68720317
941,1747638730040,0.5062795499999999,-0.047060675499999996,0.833310825,-1.134496115,-0.428509355,0.5738909999999999
942,1747638730050,0.5570447,-0.06402813,0.9021258,-1.3862416,-0.45905173,0.46057883
943,1747638730060,0.5417999,-0.07793138,0.9504518,-1.3825001499999998,-0.36314870499999996,0.387277155
944,1747638730070,0.5265551,-0.09183463,0.9987778,-1.3787587,-0.26724568,0.31397548
945,1747638730080,0.44575772,-0.10671354,1.0936918,-1.1569448,-0.34054735,0.2522799
946,1747638730090,0.45577354999999997,-0.117948955,1.0607478000000001,-1.0756257,-0.50914119,0.27640837
947,1747638730100,0.46578938,-0.12918437,1.0278038,-0.9943066,-0.67773503,0.30053684
948,1747638730110,0.49627897,-0.14357546,0.93776816,-1.0030112,-0.60809845,0.29931515
949,1747638730120,0.48761992,-0.149551415,0.9204348,-1.0045765,-0.48653983999999995,0.30756159
950,1747638730130,0.47896087,-0.15552737,0.90310144,-1.0061418,-0.36498123,0.31580803
951,1747638730140,0.4867662,-0.18775485,0.89456433,-0.9388722,-0.31855685,0.33046836
952,1747638730150,0.46479846999999996,-0.182998485,0.904077115,-0.972507,-0.559841525,0.33474429
953,1747638730160,0.44283074,-0.17824212,0.9135899,-1.0061418,-0.8011262,0.33902022
954,1747638730170,0.4935959,-0.19531627,0.95776933,-1.0952492,-0.96788746,0.34512872
955,1747638730180,0.519832165,-0.21068302,0.999250365,-1.0659667000000002,-0.77944108,0.32405448000000003
956,1747638730190,0.54606843,-0.22604977,1.0407314,-1.0366842,-0.5909947,0.30298024
957,1747638730200,0.5327597150000001,-0.232650775,1.03158455,-1.00679085,-0.4950917,0.29962058
958,1747638730210,0.519451,-0.23925178,1.0224377,-0.9768975,-0.3991887,0.29626092
959,1747638730220,0.44405028,-0.24656928,0.9506957,-0.8634326,-0.16645588,0.31764057
960,1747638730230,0.38779701,-0.24461794,0.87076727,-0.8213986799999999,-0.091321666,0.381168685
961,1747638730240,0.33154374,-0.2426666,0.79083884,-0.77936476,-0.016187452,0.4446968
962,1747638730250,0.2534599,-0.21580528,0.5958579,-0.8198334,-0.12125318,0.6603259
963,1747638730260,0.27481785000000003,-0.21300023,0.5852323,-0.8958456800000001,-0.32100024,0.709193685
964,1747638730270,0.2961758,-0.21019518,0.5746067,-0.97185796,-0.5207473,0.75806147
965,1747638730280,0.48993713,-0.30245668,0.7264143,-1.3974658,-1.7015151,0.71041536
966,1747638730290,0.551556565,-0.36066129,0.88479245,-1.4965376,-1.8001669,0.62795098
967,1747638730300,0.613176,-0.4188659,1.0431706,-1.5956094,-1.8988187,0.5454866
968,1747638730310,0.598541,-0.43228132,1.1551894,-1.5501013,-1.4956595,0.6529957
969,1747638730320,0.6384366349999999,-0.46559118,1.21083285,-1.36986315,-1.14350605,0.6007682674999999
970,1747638730330,0.67833227,-0.49890104,1.2664763,-1.189625,-0.7913526,0.548540835
971,1747638730340,0.62317663,-0.39419982,1.1771723,-0.54136336,-0.19821994,0.52227443
972,1747638730350,0.6333677600000001,-0.35595064249999997,1.072905575,-0.46596192,-0.20463383000000002,0.502116455
973,1747638730360,0.64355889,-0.317701465,0.9686388499999999,-0.39056048,-0.21104772,0.48195848
974,1747638730370,0.6902842,-0.33416584,0.9131021,-0.5581617,-0.6227588,0.31397548
975,1747638730380,0.65746215,-0.35308464,0.9920548499999999,-0.6098546499999999,-0.6511632,0.20066331999999998
976,1747638730390,0.6246401,-0.37200344,1.0710076,-0.6615476,-0.6795676,0.08735116
977,1747638730400,0.610736875,-0.39555662,1.09248755,-0.53258246,-0.53693475,0.089794547
978,1747638730410,0.59683365,-0.4191098,1.1139675,-0.40361732,-0.3943019,0.092237934
979,1747638730420,0.53558004,-0.36444202,1.0717393,-0.10766183,-0.18844637,0.2327328
980,1747638730430,0.55888932,-0.342596235,1.0218279,-0.0618482855,-0.15087927,0.26052636
981,1747638730440,0.5821986,-0.32075045,0.9719165,-0.016034741,-0.11331217,0.28831992
982,1747638730450,0.6649168,-0.3275801,0.9699651,-0.031000499,-0.11392301,0.03115321
983,1747638730460,0.6594896875,-0.34667420000000004,0.982900325,-0.026190076375000003,-0.1464506275,-0.0896418375
984,1747638730470,0.654062575,-0.36576830000000005,0.99583555,-0.02137965375,-0.178978245,-0.210436885
985,1747638730480,0.5663135,-0.43081784,0.98630756,0.123467505,0.17997088,-0.37391487
986,1747638730490,0.5438732,-0.43301308,0.97484348,0.15931660250000002,0.26090814,-0.35681114999999997
987,1747638730500,0.5214329,-0.43520832,0.9633794,0.1951657,0.3418454,-0.33970743
988,1747638730510,0.4589292,-0.402493,0.9841123,0.35719293,0.66192937,-0.1643179
989,1747638730520,0.50176708,-0.38273575,1.063187,0.477758915,0.44660570499999996,-0.139578593
990,1747638730530,0.54460496,-0.3629785,1.1422617,0.5983249,0.23128204,-0.114839286
991,1747638730540,0.59829706,-0.36346635,1.2042471,0.73034424,0.067498624,-0.18325418
992,1747638730550,0.615805715,-0.37541826,1.24769475,0.81088065,0.0775966935,-0.2423727425
993,1747638730560,0.63331437,-0.38737017,1.2911424,0.89141706,0.087694763,-0.301491305
994,1747638730570,0.64759874,-0.46475273,1.2965086,1.1808441,0.7346202,-0.37452573
995,1747638730580,0.65784327,-0.471826315,1.3117534,1.2568564,0.8861103,-0.37330402500000004
996,1747638730590,0.6680878,-0.4788999,1.3269982,1.3328687,1.0376004,-0.37208232
997,1747638730600,0.6905281,-0.38858974,1.1488476,1.8133001,1.2465101,-0.49608433
998,1747638730610,0.703227015,-0.36759767,1.1107813000000002,1.8597245,1.16648915,-0.5550310900000001
999,1747638730620,0.71592593,-0.3466056,1.072715,1.9061489,1.0864682,-0.61397785
