id,timestamp,acc_x,acc_y,acc_z,gyro_x,gyro_y,gyro_z
0,1747638503270,0.33056808,0.86703235,0.82599336,0.74347746,-1.5836215,-0.40751147
1,1747638503280,0.3025888033333333,0.88753148,0.79824784,0.78313164,-1.5007499,-0.39122221333333335
2,1747638503290,0.27460952666666666,0.90803061,0.77050232,0.82278582,-1.4178783000000001,-0.37493295666666665
3,1747638503300,0.24663025,0.92852974,0.7427568,0.86244,-1.3350067,-0.3586437
4,1747638503310,0.25711864,0.86483705,0.6212253,0.82754534,-0.9049702,-0.22723518
5,1747638503320,0.26407027,0.83567375,0.5985258,0.8316303700000001,-0.8112051499999999,-0.20799349
6,1747638503330,0.2710219,0.80651045,0.5758263,0.8357154,-0.7174401,-0.1887518
7,1747638503340,0.23784924,0.62567675,0.4484408,1.0487484,-0.41812494,-0.18447587
8,1747638503350,0.246142405,0.56026134,0.41647247,1.22726855,-0.448056455,-0.23364907499999998
9,1747638503360,0.25443557,0.49484593,0.38450414,1.4057887,-0.47798797,-0.28282228
10,1747638503370,0.24906941,0.117811754,0.37377182,2.4874463,-1.4461809,-0.69644225
11,1747638503380,0.15743296499999998,-0.04948458800000001,0.33569032,2.6927674,-1.6819679500000002,-0.730649675
12,1747638503390,0.06579652,-0.21678093,0.29760882,2.8980885,-1.917755,-0.7648571
13,1747638503400,-0.177053,-0.387858,-0.45039213,2.675053,-2.430256,-0.064138964
14,1747638503410,-0.188395135,-0.44008665,-0.5935254649999999,2.33171855,-2.2802929,0.14660333800000003
15,1747638503420,-0.19973727,-0.4923153,-0.7366588,1.9883841,-2.1303298,0.35734564
16,1747638503430,0.09750569,-0.8017541,-0.6048524,-0.06345176,-1.3111837,1.4116681
17,1747638503440,0.09750569,-0.8017541,-0.6048524,-0.06345176,-1.3111837,1.4116681
18,1747638503450,0.5575325,-1.1724769,-0.015488708,-0.7537855,-0.89641833,1.8081079
19,1747638503460,0.6108587999999999,-1.1855265,0.032227491,-0.6145505,-0.9910996650000001,1.84659125
20,1747638503470,0.6641851,-1.1985761,0.07994369,-0.4753155,-1.085781,1.8850746
21,1747638503480,0.7527878,-1.2215346,-0.08259629,-0.19799086,-1.3918154,1.9620414
22,1747638503490,0.75473912,-1.19907905,-0.13665432,-0.041613965,-1.92722305,2.25803505
23,1747638503500,0.75669044,-1.1766235,-0.19071235,0.11476293,-2.4626307,2.5540287
24,1747638503510,0.8650505,-1.0841181,-0.40889582,-0.2622062,-3.0876038,3.2827694
25,1747638503520,1.17436735,-1.0422712,-0.39180641000000005,-0.8712591000000001,-3.2610844,4.0335007
26,1747638503530,1.4836842,-1.0004243,-0.374717,-1.480312,-3.434565,4.784232
27,1747638503540,2.73394,-0.75589776,-0.1167751,-2.8547947,-2.7717957,5.633386
28,1747638503550,3.14137225,-0.53222618,0.125327435,-3.11493935,-2.63278985,5.559473499999999
29,1747638503560,3.5488045,-0.3085546,0.36742997,-3.375084,-2.493784,5.485561
30,1747638503570,3.8416877,0.32011014,0.97947794,-3.5096993,-2.4473596,5.21801
31,1747638503580,3.77175975,0.46263370000000004,1.14189592,-3.2321074,-2.44888665,4.77174785
32,1747638503590,3.7018318,0.60515726,1.3043139,-2.9545155,-2.4504137,4.3254857
33,1747638503600,3.121493,1.3504751,1.2872398,-1.1750411,-3.0277407,3.896671
34,1747638503610,3.0301005,1.45346895,1.13043185,-0.90306135,-3.07691395,3.9043066
35,1747638503620,2.938708,1.5564628,0.9736239,-0.6310816,-3.1260872,3.9119422
36,1747638503630,2.686102,1.790013,0.48993713,-0.6771242,-2.8408215,3.7555654
37,1747638503640,2.686102,1.790013,0.48993713,-0.6771242,-2.8408215,3.7555654
38,1747638503650,2.4208426,1.8148925,0.59488225,-0.8921424,-2.6966615,3.44892
39,1747638503660,2.2802702999999998,1.80464805,0.67993295,-0.97159075,-2.58331125,3.0857713
40,1747638503670,2.139698,1.7944036,0.76498365,-1.0510391,-2.469961,2.7226226
41,1747638503680,1.4636829,1.7648591,0.9565497,-0.8292252,-2.3239684,2.0707722
42,1747638503690,1.17436725,1.81623405,0.929947525,-0.81425942,-2.1978284,1.87407935
43,1747638503700,0.8850516,1.867609,0.90334535,-0.79929364,-2.0716884,1.6773865
44,1747638503710,0.50530387,2.05870245,1.00414395,-0.8279271,-1.5927843,1.0976925
45,1747638503720,0.345828105,2.165469225,1.133602725,-0.7843279000000001,-1.56529615,0.8677085
46,1747638503730,0.18635234,2.272236,1.2630615,-0.7407287,-1.537808,0.6377245
47,1747638503740,0.058936365,2.4640768,1.5349371,-0.057190575,-1.3466128,-0.6237514
48,1747638503750,0.1260591825,2.4810289,1.49772455,0.033138465,-1.2595671,-0.81280865
49,1747638503760,0.193182,2.497981,1.460512,0.123467505,-1.1725214,-1.0018659
50,1747638503770,0.5594838,2.5685036,1.1979053,0.23563433,-0.9318475,-1.5296379
51,1747638503780,0.7829115,2.54362405,1.08588655,0.006986565,-0.63008895,-2.2486052
52,1747638503790,1.0063392,2.5187445,0.9738678,-0.2216612,-0.3283304,-2.9675725
53,1747638503800,1.2628176,2.3952312,0.9218831,-0.6640673,0.18730104,-3.9676056
54,1747638503810,1.32994045,2.3244648999999997,0.9577693,-0.77997558,0.55197687,-4.47766305
55,1747638503820,1.3970633,2.2536986,0.9936555,-0.89588386,0.9166527,-4.9877205
56,1747638503830,2.41011,2.234917,0.9843562,-0.60550237,1.6075209,-5.9168954
57,1747638503840,2.41011,2.234917,0.9843562,-0.60550237,1.6075209,-5.9168954
58,1747638503850,2.9116027,2.1365576,0.86380047,-0.32947573,1.8970625,-6.402519
59,1747638503860,3.1241760000000003,1.81039525,0.6917477350000001,-0.032565785000000014,2.21592475,-6.90249765
60,1747638503870,3.3367493,1.4842329,0.519695,0.26434416,2.534787,-7.4024763
61,1747638503880,3.2213159,0.52048767,0.04454528,1.0120212,3.4108183,-8.123276
62,1747638503890,3.1379726000000003,0.3182960025,-0.030504830000000004,1.1606098,3.4847308,-8.19108
63,1747638503900,3.0546293,0.116104335,-0.10555494,1.3091984,3.5586433,-8.258884
64,1747638503910,2.796901,-0.27413183,-0.19705418,1.6905198000000001,3.6704285,-8.1113645
65,1747638503920,2.3718914,-0.6763199150000001,-0.25745404,2.0989475,3.6921134999999996,-7.33329775
66,1747638503930,1.9468818,-1.078508,-0.3178539,2.5073752,3.7137985,-6.555231
67,1747638503940,1.9468818,-1.078508,-0.3178539,2.5073752,3.7137985,-6.555231
68,1747638503950,1.8318141,-1.1872338500000001,-0.30980466500000003,2.74820185,3.2192795,-5.98741025
69,1747638503960,1.7167464,-1.2959597,-0.30175543,2.9890285,2.7247605,-5.4195895
70,1747638503970,1.3458103,-1.3511155,-0.55311155,3.2900233,1.4028871,-4.398864
71,1747638503980,1.3458103,-1.3511155,-0.55311155,3.2900233,1.4028871,-4.398864
72,1747638503990,1.0002413,-1.3782207,-0.99386895,3.2900233,1.4028871,-4.398864
73,1747638504000,0.795122635,-1.4159210500000001,-1.165433825,2.25757695,1.19245022,-3.42513525
74,1747638504010,0.59000397,-1.4536214,-1.3369987,1.2251306,0.98201334,-2.4514065
75,1747638504020,0.3312998,-1.6000324,-1.0375606,-1.1506835,0.7883747,-0.32993388
76,1747638504030,0.3225188,-1.59210515,-0.9366400349999999,-1.4675223499999999,0.608174775,0.052494689999999955
77,1747638504040,0.3137378,-1.5841779,-0.83571947,-1.7843612,0.42797485,0.43492326
78,1747638504050,0.3620638,-1.6422606,-0.58021677,-2.078484,0.08460235,1.0017895
79,1747638504060,0.445041225,-1.64640715,-0.413896095,-2.043284,-0.37933615000000004,1.6991099
80,1747638504070,0.52801865,-1.6505537,-0.24757542,-2.008084,-0.84327465,2.3964303
81,1747638504080,0.77132547,-1.6720488,-0.3354464,-1.7108305,-1.5316995,3.1813688
82,1747638504090,0.9134831349999999,-1.6909523499999999,-0.48089695,-1.5996180999999998,-2.0298454,3.7638119000000003
83,1747638504100,1.0556408,-1.7098559,-0.6263475,-1.4884057,-2.5279913,4.346255
84,1747638504110,1.3992585,-1.5373154,-1.0136262,-2.3445082,-3.2965136,6.0579247
85,1747638504120,1.51432615,-1.48973635,-0.94907975,-2.6629122499999998,-3.3163660999999998,6.46658155
86,1747638504130,1.6293938,-1.4421573,-0.8845333,-2.9813163,-3.3362186,6.8752384
87,1747638504140,2.406177,-1.309863,-0.18315093,-3.4872506,-3.5726166,7.839232
88,1747638504150,2.406177,-1.309863,-0.18315093,-3.4872506,-3.5726166,7.839232
89,1747638504160,2.977003,-0.6882719,0.48188788,-2.3233576,-3.9220212,7.602758
90,1747638504170,2.961689575,-0.5918790700000001,0.49201041,-2.3233576,-3.9220212,7.602758
91,1747638504180,2.94637615,-0.49548624,0.50213294,-2.3233576,-3.9220212,7.602758
92,1747638504190,2.7168658,0.2373919,0.53582394,-1.0784508,-4.031363,7.346202
93,1747638504200,2.70979225,0.56574947,0.5352141699999999,-0.74790609,-3.7635064,7.443021
94,1747638504210,2.7027187,0.89410704,0.5346044,-0.41736138,-3.4956498,7.53984
95,1747638504220,2.8105907,1.6282048,0.5148166,-0.22853324,-2.9874249,7.2582397
96,1747638504230,2.72773535,2.1979332,0.687845,-0.34070006,-2.5494092000000004,6.7310786
97,1747638504240,2.64488,2.7676616,0.8608734,-0.45286688,-2.1113935,6.2039175
98,1747638504250,2.0386555,4.205337,1.7858053,0.27304873,-1.6117204,4.17705
99,1747638504260,2.0408507499999997,4.3501775,1.75652015,0.469016165,-1.50298965,3.8071819000000002
100,1747638504270,2.043046,4.495018,1.727235,0.6649836,-1.3942589,3.4373138
101,1747638504280,2.0135322,4.7407646,1.4527067,0.9272661,-1.0033166,2.2802927
102,1747638504290,1.800227,4.7554148000000005,1.23659655,0.66838141,-0.5668662449999999,1.1703832889999999
103,1747638504300,1.5869218,4.770065,1.0204864,0.40949672,-0.13041589,0.060473878
104,1747638504310,0.9475248,4.316136,1.5063989,-0.68964654,0.88916457,-2.329237
105,1747638504320,1.0752761499999999,4.25805335,1.5886293,-0.66223477,1.006141785,-2.5683837
106,1747638504330,1.2030275,4.1999707,1.6708597,-0.634823,1.123119,-2.8075304
107,1747638504340,1.73712875,4.0448853499999995,1.76421875,-0.229182245,1.57361885,-3.6096110500000003
108,1747638504350,2.27123,3.8898,1.8575778,0.17645851,2.0241187,-4.4116917
109,1747638504360,4.0156918,2.976576,1.3228517,1.7117467,2.4724805,-7.0170317
110,1747638504370,4.150028750000001,2.64125165,1.1211478,1.9164187,2.6789851000000002,-7.64345535
111,1747638504380,4.2843657,2.3059273,0.9194439,2.1210907,2.8854897,-8.269879
112,1747638504390,3.9185517,1.3331571,0.4735947,2.56846,2.960624,-9.896642
113,1747638504400,3.51587585,0.950375575,0.12544939,2.4681664999999997,2.9096182500000003,-9.9641405
114,1747638504410,3.1132,0.56759405,-0.22269592,2.367873,2.8586125,-10.031639
115,1747638504420,2.7749486,0.272272,-0.36008197,1.911112,2.9056478,-9.62848
116,1747638504430,2.5211380500000002,0.05873819000000002,-0.272104285,1.5176500499999999,2.8573908,-8.966894
117,1747638504440,2.2673275,-0.15479562,-0.1841266,1.1241881,2.8091338,-8.305308
118,1747638504450,2.4911208,-0.910358,0.3693813,0.9035958,1.9978523,-6.9919868
119,1747638504460,2.4163147,-1.0389783000000001,0.4399037,1.0413036999999998,1.8921757,-6.9617499
120,1747638504470,2.3415086,-1.1675986,0.5104261,1.1790116,1.7864991,-6.931513
121,1747638504480,1.6989406,-1.5568591,0.33934906,1.6656277,1.1066262,-6.1453524
122,1747638504490,1.6989406,-1.5568591,0.33934906,1.6656277,1.1066262,-6.1453524
123,1747638504500,1.4583168,-1.7125388,-0.12043386,0.9322293,0.7144622,-4.7849193
124,1747638504510,1.42586065,-1.8968027,-0.073937243,0.17645852000000006,0.9991170500000001,-3.9718816500000003
125,1747638504520,1.3934045,-2.0810666,-0.027440626,-0.57931226,1.2837719,-3.158844
126,1747638504530,1.3199246,-2.2330875,0.20830485,-1.0260707,1.4535874,-2.3793263
127,1747638504540,1.2880782499999999,-2.3626835,0.29664841000000003,-0.868433915,1.01347195,-1.5522391999999998
128,1747638504550,1.2562319,-2.4922795,0.38499197,-0.71079713,0.5733565,-0.7251521
129,1747638504560,1.3143145,-2.4669123,0.10799411,-0.54815906,0.13782242,-0.17348062
130,1747638504570,1.23208405,-2.41614715,-0.063082955,-0.662807465,-0.08150994,0.15820945
131,1747638504580,1.1498536,-2.365382,-0.23416002,-0.77745587,-0.3008423,0.48989952
132,1747638504590,0.40206614,-2.1960123,-0.4808817,-1.6853275,-0.5274666,1.9431051
133,1747638504600,0.30408787000000004,-2.1564672,-0.439278665,-1.84701125,-0.6108472650000001,2.4186879
134,1747638504610,0.2061096,-2.1169221,-0.39767563,-2.008695,-0.69422793,2.8942707
135,1747638504620,0.27798878,-2.0078458,-0.19865487999999998,-1.896528,-1.3741009,4.5960913
136,1747638504630,0.51892509,-1.92268075,-0.17430131999999998,-1.6790664,-1.6444008,5.1083248
137,1747638504640,0.7598614,-1.8375157,-0.14994776,-1.4616048,-1.9147007,5.6205583
138,1747638504650,2.1133244,-1.3852942,-0.59729093,-0.4166742,-2.9464982,7.0798726
139,1747638504660,2.26598585,-1.2570397999999998,-0.66904819,-0.3300866,-3.0772195,7.2292247
140,1747638504670,2.4186473,-1.1287854,-0.74080545,-0.243499,-3.2079408,7.3785768
141,1747638504680,2.9382203,-0.012775135,-1.1344564,-0.28213507,-3.2213793,9.156219
142,1747638504690,3.32514835,0.3330377325,-1.07820315,-0.40144118500000003,-3.10959425,9.7285825
143,1747638504700,3.7120764,0.6788506,-1.0219499,-0.5207473,-2.9978092,10.300946
144,1747638504710,5.0739851,1.4845835,-0.71943225,-0.36498123,-3.1566296,10.355311
145,1747638504720,5.331149549999999,2.4602273,-0.655922425,-0.105791105,-3.3035383,8.52273135
146,1747638504730,5.588314,3.4358711,-0.5924126,0.15339902,-3.450447,6.6901517
147,1747638504740,5.588314,3.4358711,-0.5924126,0.15339902,-3.450447,6.6901517
148,1747638504750,5.588314,3.4358711,-0.5924126,0.15339902,-3.450447,6.6901517
149,1747638504760,3.4916975,3.8553774,-0.19681026,-0.65414107,-2.9208424,5.253439
150,1747638504770,3.1247859,3.8771012000000002,0.030885954999999993,-1.1756518850000002,-2.76629805,5.2913115
151,1747638504780,2.7578743,3.898825,0.25858217,-1.6971627,-2.6117537,5.329184
152,1747638504790,3.0150845,3.7236013,1.1947343,-1.6902907,-2.277544,4.9735947
153,1747638504800,2.5864161,3.5283613000000003,1.4496425,-1.1999331,-1.64470625,3.85788215
154,1747638504810,2.1577477,3.3331213,1.7045507,-0.7095755,-1.0118685,2.7421696
155,1747638504820,0.47213122,2.8330617,1.498807,0.97834826,-0.4456131,1.0207257
156,1747638504830,0.28957483,2.7409373500000003,1.30516765,1.1973751799999999,-0.393080225,0.81273225
157,1747638504840,0.10701844,2.648813,1.1115283,1.4164021,-0.34054735,0.6047388
158,1747638504850,-0.0195133345,2.4558904,0.458700525,1.175881,0.19768545,-0.25899923
159,1747638504860,-0.05349397725,2.3872507,0.3047052725,0.90825355,0.411787405,-0.576372565
160,1747638504870,-0.08747462,2.318611,0.15071002,0.6406261,0.62588936,-0.8937459
161,1747638504880,-0.36008197,2.0491743,0.49505937,-0.23662695,1.099296,-2.2058458
162,1747638504890,-0.316634325,2.02490465,0.565337865,-0.273697745,1.16587835,-2.31885255
163,1747638504900,-0.27318668,2.000635,0.63561636,-0.31076854,1.2324607,-2.4318593
164,1747638504910,0.32471406,1.901056,0.764008,0.0742943,1.4816864,-3.4233408
165,1747638504920,0.591086295,1.8999584,0.73703995,0.22070675,1.42915355,-3.7269319
166,1747638504930,0.85745853,1.8988608,0.7100719,0.3671192,1.3766207,-4.030523
167,1747638504940,1.223775665,1.83003055,0.435269295,0.34654129,1.44595185,-4.811185699999999
168,1747638504950,1.5900928,1.7612003,0.16046669,0.32596338,1.515283,-5.5918484
169,1747638504960,1.646712,1.699215,0.022836698,-0.13820419,1.9398218,-6.351819
170,1747638504970,1.6265736,1.7189875,0.140709434,-0.5933617950000001,2.30113795,-6.6309762
171,1747638504980,1.6064352,1.73876,0.25858217,-1.0485194,2.6624541,-6.9101334
172,1747638504990,2.188268,1.8727312,0.38987032,-1.226734,2.8305135,-6.8844776
173,1747638505000,2.71271935,1.8455192500000002,0.45917315999999997,-1.17626275,2.89404155,-7.1016338
174,1747638505010,3.2371707,1.8183073,0.528476,-1.1257915,2.9575696,-7.31879
175,1747638505020,3.791166,1.4168509,0.47014937,-0.6310816,3.232451,-8.486806
176,1747638505030,3.64961825,1.03175225,0.478579735,-0.1335465,3.60690035,-9.1972215
177,1747638505040,3.5080705,0.6466536,0.4870101,0.3639886,3.9813497,-9.907637
178,1747638505050,2.8798938,0.218092,0.27468067,1.4257175,3.6111763,-10.067679
179,1747638505060,2.4717145,-0.056451465000000034,0.09640806700000001,1.58148355,3.53726375,-9.651386500000001
180,1747638505070,2.0635352,-0.33099493,-0.081864536,1.7372496,3.4633512,-9.235094
181,1747638505080,1.2901667,-0.6748565,-0.29199874,1.740991,3.1450999,-8.247278
182,1747638505090,1.2901667,-0.6748565,-0.29199874,1.6793718,2.7821803,-7.410417
183,1747638505100,1.1432374,-0.8701117,-0.49258974,1.4157913,2.203708,-6.2088804
184,1747638505110,1.1229924,-1.2766904,-0.43328747,-0.16683766,2.119411,-4.5112596
185,1747638505120,1.1229924,-1.2766904,-0.43328747,-0.16683766,2.119411,-4.5112596
186,1747638505130,1.0319505,-1.5170703,0.061375532,-0.46714544,1.9624232,-3.9688272
187,1747638505140,0.9414117,-1.75025465,0.297989966,-0.1758858325,1.37906405,-3.3298429
188,1747638505150,0.8508729,-1.983439,0.5346044,0.115373775,0.7957049,-2.6908586
189,1747638505160,0.6361347,-2.071066,0.556313,1.3647091,-0.8640435,0.28526568
190,1747638505170,0.7941469350000001,-2.01993495,0.225622948,1.4251448500000001,-1.08150505,1.21894574
191,1747638505180,0.95215917,-1.9688039,-0.105067104,1.4855806,-1.2989666,2.1526258
192,1747638505190,1.2738243,-1.9031597,-0.36422858,0.27052897,-1.221389,3.9760811
193,1747638505200,1.4493452,-1.733790125,-0.4007779675,0.018516299999999986,-1.17954605,4.0753436999999995
194,1747638505210,1.6248661,-1.56442055,-0.437327355,-0.23349637,-1.1377031,4.1746063
195,1747638505220,1.5346932,-1.50024,-0.32886064,-0.6839962,-1.2794195,4.4873605
196,1747638505230,1.461487725,-1.408169075,-0.20976071125,-0.7142331500000001,-1.7232001,4.98646075
197,1747638505240,1.38828225,-1.3160981500000002,-0.09066078250000001,-0.7444701,-2.1669807,5.485561
198,1747638505250,1.8051053,-1.1363467,-0.27785155,-0.37185326,-3.2207685,7.0914783
199,1747638505260,1.9633615500000001,-1.07301985,-0.324210985,-0.34940463,-3.40127385,7.26709695
200,1747638505270,2.1216178,-1.009693,-0.37057042,-0.326956,-3.5817792,7.4427156
201,1747638505280,2.5428617,-0.76906925,-0.46649066,-0.33756948,-3.8322268,7.5801563
202,1747638505290,2.5428617,-0.76906925,-0.46649066,-0.33756948,-3.8322268,7.5801563
203,1747638505300,2.5145369,-0.43228132,-0.49795586,-0.22731154,-3.9232428,8.132439
204,1747638505310,2.507707,-0.23336728,-0.4952728,-0.22731154,-3.9232428,8.132439
205,1747638505320,2.507707,-0.23336728,-0.4952728,-0.22731154,-3.9232428,8.132439
206,1747638505330,2.8774545,0.023111105,-0.49332145,-0.05971032,-4.094891,9.129952
207,1747638505340,4.186037,0.66836214,-0.6631789,0.27052897,-4.301968,9.439041
208,1747638505350,4.186037,0.66836214,-0.6631789,0.27052897,-4.301968,9.439041
209,1747638505360,4.4615407,1.0241756,-0.6495196,0.37086064,-4.359388,8.899663
210,1747638505370,4.2485104,2.3935237,-0.9194439,0.38208497,-4.2915835,8.433586
211,1747638505380,4.2485104,2.3935237,-0.9194439,0.109188944,-3.6966186,8.007215
212,1747638505390,4.061304,2.8767533,-0.8113278,-0.20982604,-3.2763557,7.864277
213,1747638505400,4.0425224,3.8363519,-0.13823977,-1.4728291,-2.9086256,6.745128
214,1747638505410,4.0425224,3.8363519,-0.13823977,-1.4728291,-2.9086256,6.745128
215,1747638505420,3.9966357,4.0381627,0.37279615,-1.7257962,-2.6758928,5.761664
216,1747638505430,3.5805443500000003,4.02096655,0.861742375,-1.4099118000000002,-2.2699466,4.44677715
217,1747638505440,3.164453,4.0037704,1.3506886,-1.0940274,-1.8640004,3.1318903
218,1747638505450,1.7394612,3.934437,1.769219,-0.13629529,-1.3307308,1.8050536
219,1747638505460,1.23940155,3.8042464000000002,1.56239295,0.347495755,-1.06043085,1.2720894
220,1747638505470,0.7393419,3.6740558,1.3555669,0.8312868,-0.7901309,0.7391252
221,1747638505480,0.455895485,3.4393927,0.988640025,0.8790092,0.010728005000000013,-0.41755232500000006
222,1747638505490,0.2741394625,3.33415035,0.8382425125,0.735841875,0.33388528250000005,-1.1513516625000002
223,1747638505500,0.09238344,3.228908,0.687845,0.59267455,0.65704256,-1.885151
224,1747638505510,0.011372615,3.0527086,0.60463893,0.21631628,1.0198859,-2.5925121
225,1747638505520,0.3549902075,2.8358667,0.763017085,-0.28152424,1.3085111999999999,-3.11299215
226,1747638505530,0.6986078,2.6190248,0.92139524,-0.77936476,1.5971365,-3.6334722
227,1747638505540,1.1168944,2.566796,1.0705198,-1.3856306,2.2574625,-4.5118704
228,1747638505550,1.1168944,2.566796,1.0705198,-1.3856306,2.2574625,-4.5118704
229,1747638505560,1.8112032,2.558015,1.1437253,-1.2865207,2.5213485,-4.9357986
230,1747638505570,2.33394715,2.56559165,1.05708915,-1.053787875,2.8197855,-5.7253568
231,1747638505580,2.8566911,2.5731683,0.970453,-0.82105505,3.1182225,-6.514915
232,1747638505590,3.3748007,2.3835232,0.2549234,-0.79929364,4.06076,-8.492915
233,1747638505600,3.47316005,2.1942744000000003,0.16034471500000003,-0.85255187,4.298074,-8.7650475
234,1747638505610,3.5715194,2.0050256,0.06576603,-0.9058101,4.535388,-9.03718
235,1747638505620,3.5824957,1.2028446,-0.0086590415,-0.656889885,4.969089650000001,-9.693535
236,1747638505630,3.5197785,0.9547660849999999,-0.06735148575,-0.14362546749999994,4.961453975,-9.935583000000001
237,1747638505640,3.4570613,0.70668757,-0.12604393,0.36963895,4.9538183,-10.177631
238,1747638505650,3.3730931,0.48265013,-0.23172083,0.78020465,4.8194323,-10.1648035
239,1747638505660,3.24729305,0.37575364,-0.477101015,0.878665595,4.6432028,-9.93237625
240,1747638505670,3.121493,0.26885715,-0.7224812,0.97712654,4.4669733,-9.699949
241,1747638505680,2.767631,-0.110860124,-0.18656576,0.26243526,4.344193,-8.290037
242,1747638505690,2.767631,-0.110860124,-0.18656576,0.26243526,4.344193,-8.290037
243,1747638505700,2.8196156,-0.37932092,0.30715206,0.63383037,3.5177166,-7.9583473
244,1747638505710,2.367882,-0.616042,0.35081315,1.6656277,1.9086686,-7.4055305
245,1747638505720,2.367882,-0.616042,0.35081315,1.6656277,1.9086686,-7.4055305
246,1747638505730,1.3326387,-0.85325104,-0.11336028,1.6506621,1.4584742,-5.433639
247,1747638505740,1.29627225,-0.8839997799999999,-0.1246490475,1.5659261,1.487489425,-5.2143448249999995
248,1747638505750,1.2599057999999999,-0.91474852,-0.135937815,1.4811901,1.51650465,-4.99505065
249,1747638505760,1.2977282,-1.5246316,-0.061131615,0.82388026,1.7516809,-3.414789
250,1747638505770,1.445252,-1.7369458500000001,0.0324561575,0.60920562,1.5720918,-2.3268318
251,1747638505780,1.5927758,-1.9492601,0.12604393,0.39453098,1.3925027,-1.2388746
252,1747638505790,1.5442059,-2.0163982,0.057716787,0.59145284,0.7340093,-0.5767162
253,1747638505800,1.3870474,-1.99735745,-0.055521526499999994,0.67773502,0.411443787,0.12335296499999993
254,1747638505810,1.2298889,-1.9783167,-0.16875984,0.7640172,0.088878274,0.82342213
255,1747638505820,0.9021258,-1.9321859,-0.5750945,0.24563695,-0.66673976,3.0176618
256,1747638505830,0.8403844,-1.89485145,-0.6396409750000001,-0.03913240999999998,-0.78952008,3.46327485
257,1747638505840,0.778643,-1.857517,-0.70418745,-0.32390177,-0.9123004,3.9088879
258,1747638505850,0.8103826,-1.7935802,-0.63025016,-1.2186403,-1.4266337,5.255272
259,1747638505860,0.8103826,-1.7935802,-0.63025016,-1.2186403,-1.4266337,5.255272
260,1747638505870,0.9997535,-1.7389123,-0.48722354,-1.766952,-1.9153116,6.2643914
261,1747638505880,1.2397675000000001,-1.7020657,-0.345065855,-1.8497982,-2.5359705999999997,6.992254
262,1747638505890,1.4797815,-1.6652191,-0.20290817,-1.9326444,-3.1566296,7.7201166
263,1747638505900,2.2707423,-1.2770562,-0.0417249965,-1.7317138,-3.7265501,8.172449
264,1747638505910,2.4209493,-0.99060657,-0.04177835325,-1.5876493,-3.7464025999999997,8.5629335
265,1747638505920,2.5711563,-0.70415694,-0.04183171,-1.4435848,-3.7662551,8.953418
266,1747638505930,2.7778754,-0.5025598,0.059668116,-1.246052,-3.7955759,9.310763
267,1747638505940,3.2624311500000003,-0.2860990075,-0.0032928719999999953,-0.73855249,-4.1223792,9.4869925
268,1747638505950,3.7469869,-0.069638215,-0.06625386,-0.23105298,-4.4491825,9.663222
269,1747638505960,4.189696,0.97905105,-0.5724114,0.20073968,-4.2818103,9.118346
270,1747638505970,4.2032333,1.2293095250000001,-0.664901575,0.116633649,-4.217366,9.020916
271,1747638505980,4.2167706,1.479568,-0.75739175,0.032527618,-4.1529217,8.923486
272,1747638505990,4.092556,2.2187881,-0.5843634,-0.61107635,-3.7912998,8.502612
273,1747638506000,4.0306926,2.3912065499999997,-0.45415762,-0.6709012050000001,-3.7500677,8.403044
274,1747638506010,3.9688292,2.563625,-0.32395184,-0.73072606,-3.7088356,8.303476
275,1747638506020,3.7560117,2.8879733,0.026739366,-0.6890357,-3.8413894,6.96992
276,1747638506030,3.48438,3.3428779,0.1753456,-0.6890357,-3.8413894,6.96992
277,1747638506040,3.1790879,3.6924716,0.27638808,-1.0728005,-3.6049914,5.9516377
278,1747638506050,2.70636215,3.9531728,0.83012464,-1.3161086000000002,-3.2009159,5.37068365
279,1747638506060,2.2336364,4.213874,1.3838612,-1.5594167,-2.7968404,4.7897296
280,1747638506070,2.2336364,4.213874,1.3838612,-1.6273735,-2.06558,3.8881192
281,1747638506080,2.2336364,4.213874,1.3838612,-1.6273735,-2.06558,3.8881192
282,1747638506090,1.457829,4.078927,2.313702,-0.6946097,-0.8102889,2.0390081
283,1747638506100,0.85965383,3.814369,1.7843419,1.7141901,0.15736952,-0.47165045
284,1747638506110,0.85965383,3.814369,1.7843419,1.7141901,0.15736952,-0.47165045
285,1747638506120,0.9074919,3.6225588,1.3509325,1.9615833,0.4737884,-1.2938509
286,1747638506130,0.79742455,3.38791105,0.9565497000000001,1.7416401000000001,0.8082272500000001,-2.3127823000000003
287,1747638506140,0.6873572,3.1532633,0.5621669,1.5216969,1.1426661,-3.3317137
288,1747638506150,0.872368,2.7342145,0.06015595,-0.029778805,2.0283947,-4.365878
289,1747638506160,1.0241604,2.6852939,0.112262645,-0.44507860250000003,2.34237015,-4.521338650000001
290,1747638506170,1.1759528,2.6363733,0.16436934,-0.8603784,2.6563456,-4.6767993
291,1747638506180,1.7065021,2.4882245,0.68247885,-1.5918679,3.6795912,-5.199074
292,1747638506190,2.1542111,2.4461336,0.797302605,-1.4012072500000001,3.7312077500000003,-5.5362998
293,1747638506200,2.6019201,2.4040427,0.91212636,-1.2105466,3.7828243,-5.8735256
294,1747638506210,3.1080778,2.3242211,0.7891314,-0.8198334,3.8249729,-6.6774006
295,1747638506220,3.36201025,2.1320299499999997,0.611102715,-0.6076785,4.03693695,-7.4449303
296,1747638506230,3.6159427,1.9398388,0.43307403,-0.3955236,4.248901,-8.21246
297,1747638506240,3.6928067,1.1083878,0.13485542,0.28740364,4.8536396,-9.749428
298,1747638506250,3.6928067,1.1083878,0.13485542,0.28740364,4.8536396,-9.749428
299,1747638506260,3.5854225,0.57710683,-0.0769862,0.67804044,4.8866253,-10.120823
300,1747638506270,3.1497874,-0.06305246,-0.3810588,1.0207257,4.7235293,-10.348058
301,1747638506280,2.9773688,-0.139794735,-0.4220673,1.01480815,4.59983265,-10.254904
302,1747638506290,2.8049502,-0.21653701,-0.4630758,1.0088906,4.476136,-10.16175
303,1747638506300,2.3571498,-0.5313725,-0.3954804,0.5808394,3.8109233,-9.067111
304,1747638506310,2.2535461000000003,-0.5809028199999999,-0.220256758,0.64845255,3.5287119,-8.7861215
305,1747638506320,2.1499424,-0.63043314,-0.045033116,0.7160657,3.2465005,-8.505132
306,1747638506330,1.8974734500000001,-0.42763166999999996,0.005122247999999996,1.1491182,2.3085063,-7.6288335
307,1747638506340,1.6450045,-0.2248302,0.055277612,1.5821707,1.3705121,-6.752535
308,1747638506350,1.6572002,-0.013994719,-0.31419516,0.6431458,1.64295,-4.7598743
309,1747638506360,1.66012725,-0.08183404450000001,-0.25550270999999997,0.394225545,1.9291319999999998,-4.53844235
310,1747638506370,1.6630543,-0.14967337,-0.19681026,0.14530529,2.215314,-4.3170104
311,1747638506380,1.5744821,-0.9599036,0.52997,0.008246438,2.1188002,-3.3763056
312,1747638506390,1.55958795,-1.21773875,0.466140035,0.255906819,1.55132305,-3.1493376499999997
313,1747638506400,1.5446938,-1.4755739,0.40231007,0.5035672,0.9838459,-2.9223697
314,1747638506410,1.0124371,-1.9177948,0.055277612,0.5920637,0.40354097,-1.7751985
315,1747638506420,1.0124371,-1.9177948,0.055277612,0.5920637,0.40354097,-1.7751985
316,1747638506430,0.19806033,-1.6127465,0.23050125,0.8170082,0.163478,0.9431482
317,1747638506440,0.2866326,-1.5434133,0.14705126,1.13106,-0.30389652,2.223484
318,1747638506450,0.2866326,-1.5434133,0.14705126,1.13106,-0.30389652,2.223484
319,1747638506460,0.5465563,-1.520973,-0.16558893,1.2681189,-0.7345438,3.1312795
320,1747638506470,0.7414305,-1.5234120999999998,-0.35410601500000005,1.01950405,-0.92451735,3.6056022500000005
321,1747638506480,0.9363047,-1.5258512,-0.5426231,0.7708892,-1.1144909,4.079925
322,1747638506490,1.0231694,-1.4826474,-0.5787533,0.070552856,-1.3624948,4.6150274
323,1747638506500,1.000973015,-1.3834496,-0.43732736000000005,-0.33443887200000005,-1.55827135,5.1492514499999995
324,1747638506510,0.97877663,-1.2842518,-0.29590142,-0.7394306,-1.7540479,5.6834755
325,1747638506520,1.4021854,-1.212022,-0.0828402,-1.1874871,-2.2787657,7.2484665
326,1747638506530,1.5769212000000001,-1.17845295,-0.052091455,-1.1946264,-2.41899335,7.42103075
327,1747638506540,1.751657,-1.1448839,-0.02134271,-1.2017657,-2.559221,7.593595
328,1747638506550,2.1611626,-0.970392,-0.046496615,-1.1195303,-2.9855924,7.855725
329,1747638506560,2.1611626,-0.970392,-0.046496615,-1.1076951,-3.1102052,7.9235287
330,1747638506570,2.56018,-0.63851285,-0.23537959,-1.1108258,-3.0381253,7.943687
331,1747638506580,2.873064,-0.08085837,-0.25074634,-0.49898586,-3.447393,8.252165
332,1747638506590,2.873064,-0.08085837,-0.25074634,-0.49898586,-3.447393,8.252165
333,1747638506600,2.9884975,0.094853096,-0.3488618,-0.19989976,-3.6697412,8.398157
334,1747638506610,3.1487049999999996,0.473853883,-0.55263895,0.01630198999999999,-3.8661285999999997,8.6003475
335,1747638506620,3.3089125,0.85285467,-0.7564161,0.23250374,-4.062516,8.802538
336,1747638506630,3.7962885,1.3106862,-1.0195106,-0.034741938,-3.5542912,9.071921
337,1747638506640,4.102312250000001,1.97206635,-0.88906095,-0.33430526149999995,-3.3406473,8.85675025
338,1747638506650,4.408336,2.6334465,-0.7586113,-0.633868585,-3.1270034,8.641579499999999
339,1747638506660,4.2863173,3.3074796,-0.6583006,-1.6466914,-3.0173564,7.1763864
340,1747638506670,3.9643014500000002,3.4678242,-0.29125175000000003,-1.9189766,-2.8689205500000003,6.45344855
341,1747638506680,3.6422856,3.6281688,0.0757971,-2.1912618,-2.7204847,5.7305107
342,1747638506690,2.68537,3.893703,0.60195583,-2.176296,-2.4210932,5.0402536
343,1747638506700,2.3855659,3.96032265,0.904686965,-2.00651865,-2.2130997,4.7210476
344,1747638506710,2.0857618,4.0269423,1.2074181,-1.8367413,-2.0051062,4.4018416
345,1747638506720,1.6391505,3.93151,1.9051721,-0.1861557,-0.762032,2.0102983
346,1747638506730,1.3854619499999998,3.9093134999999997,1.9652061499999998,0.40858045,-0.598935765,1.3967022500000001
347,1747638506740,1.1317734,3.887117,2.0252402,1.0033166,-0.43583953,0.7831062
348,1747638506750,0.33690992,3.616705,1.1679035,2.56846,-0.40224293,-0.8821398
349,1747638506760,0.255030135,3.5364107000000002,0.86527915,2.5528834,-0.236397893,-1.2269630999999999
350,1747638506770,0.17315035,3.4561164,0.5626548,2.5373068,-0.070552856,-1.5717864
351,1747638506780,0.19488941,3.1188405,0.09555435,2.5373068,-0.070552856,-1.5717864
352,1747638506790,0.28809607,2.8735824,0.21928109,0.519182,1.507342,-3.2214556500000002
353,1747638506800,0.517499715,2.7234974000000003,0.35814589500000005,0.24439617400000002,1.631344,-3.531307975
354,1747638506810,0.74690336,2.5734124,0.4970107,-0.030389652,1.755346,-3.8411603
355,1747638506820,1.6235398,2.2256176,0.67906404,-0.404839,2.5158508,-5.1331024
356,1747638506830,1.8098616500000002,2.1792582,0.71395937,-0.38086326000000004,2.64871,-5.455056900000001
357,1747638506840,1.9961835,2.1328988,0.7488547,-0.35688752,2.7815692,-5.7770114
358,1747638506850,2.547496,2.035515,0.69174767,-0.0839915,3.0534728,-6.7482586
359,1747638506860,2.7125972000000003,1.840153,0.513475085,0.10728004999999999,3.1875538,-7.3545245999999995
360,1747638506870,2.8776984,1.644791,0.3352025,0.2985516,3.3216348,-7.9607906
361,1747638506880,2.924073,1.4891113,0.1724186,0.58396995,3.5238252,-8.788565
362,1747638506890,2.924073,1.4891113,0.1724186,0.58396995,3.5238252,-8.788565
363,1747638506900,3.0519462,1.0207608,-0.030123709,0.69919103,3.6130087,-8.99381
364,1747638506910,3.0240026,0.8171056349999999,-0.10236877949999999,0.804180415,3.5775796,-9.193557
365,1747638506920,2.996059,0.61345047,-0.17461385,0.9091698,3.5421505,-9.393304
366,1747638506930,2.8837962,0.36282605,-0.23903833,0.79517043,3.41662135,-9.372535
367,1747638506940,2.784827,0.232254405,-0.22672054,0.728511715,3.261008075,-9.270828999999999
368,1747638506950,2.6858578,0.10168276,-0.21440275,0.661853,3.1053948,-9.169123
369,1747638506960,2.2648883,-0.26291168,-0.076742284,0.84251106,1.8414754,-8.54728
370,1747638506970,2.08015185,-0.25693573000000003,-0.05757957899999999,0.87618403,1.5928605999999998,-8.3737615
371,1747638506980,1.8954154,-0.25095978,-0.038416874,0.909857,1.3442458,-8.200243
372,1747638506990,1.2650433,-0.064272046,-0.08064495,0.5471664,0.8848886,-6.7122188
373,1747638507000,1.1692451,-0.09085895799999999,-0.021098792500000005,0.355284025,1.0837194,-6.03200225
374,1747638507010,1.0734469,-0.11744587,0.038447365,0.16340165,1.2825502,-5.3517857
375,1747638507020,1.2755318,-0.85178757,0.27638808,0.339402015,1.52444565,-3.3829866500000003
376,1747638507030,1.42586065,-0.993579335,0.1464414725,0.3906368275,1.198253245,-2.855500975
377,1747638507040,1.5761895,-1.1353711,0.016494865,0.44187164,0.87206084,-2.3280153
378,1747638507050,1.6359795,-1.8684931,-0.35691106,-1.2036746,0.7639409,-1.7110596
379,1747638507060,1.6359795,-1.8684931,-0.35691106,-1.2036746,0.7639409,-1.7110596
380,1747638507070,1.2179369,-1.9102335,0.03137378,-1.825517,1.0027821,-1.1979479
381,1747638507080,0.75827594,-1.8055322,0.406227965,-1.5245602,0.9520818,-0.5840081925
382,1747638507090,0.29861498,-1.7008309,0.78108215,-1.2236034,0.9013815,0.029931515
383,1747638507100,0.058204614,-1.6095756,0.43600106,1.3758571,-0.62336963,2.877167
384,1747638507110,0.211475757,-1.6466661500000002,0.201353217,1.6129422,-0.818840765,3.3508791
385,1747638507120,0.3647469,-1.6837567,-0.033294626,1.8500273,-1.0143119,3.8245912
386,1747638507130,0.9697212,-1.6444557,-0.7005287,1.8413227,-1.1981769,4.388403
387,1747638507140,1.11738225,-1.568811,-0.8116937,1.129456585,-1.34752905,4.8542123
388,1747638507150,1.2650433,-1.4931663,-0.9228587,0.41759047,-1.4968812,5.3200216
389,1747638507160,1.3345901,-1.3477006,-0.91822433,-0.71079713,-1.393648,5.5564194
390,1747638507170,1.229401,-1.25021015,-0.728960245,-1.179660565,-1.43854525,5.8248867
391,1747638507180,1.1242119,-1.1527197,-0.53969616,-1.648524,-1.4834425,6.093354
392,1747638507190,1.1149431,-1.0811912,-0.26147866,-1.8005487,-1.893932,6.6803784
393,1747638507200,1.50016375,-0.9703919999999999,-0.1756962225,-1.4086519499999999,-2.4327373999999997,7.32669305
394,1747638507210,1.8853844,-0.8595928,-0.089913785,-1.0167552,-2.9715428,7.9730077
395,1747638507220,2.5428617,-0.29221216,-0.22976951,-0.09269607,-3.9446225,8.451912
396,1747638507230,2.8928212,0.230790895,-0.6250060049999999,0.03409290999999999,-4.0924475,8.5322385
397,1747638507240,3.2427807,0.75379395,-1.0202425,0.16088189,-4.2402725,8.612565
398,1747638507250,3.3584583,1.1852521,-0.9919176,-0.57931226,-3.6312578,9.396281
399,1747638507260,3.3584583,1.1852521,-0.9919176,-0.57931226,-3.6312578,9.396281
400,1747638507270,3.6576526,1.7299789,-0.856239,-0.8273163,-3.4956498,9.72675
401,1747638507280,4.597738,2.5575273,-0.7163833,-1.3482163,-3.2409265,9.502569
402,1747638507290,4.597738,2.5575273,-0.7163833,-1.3482163,-3.2409265,9.502569
403,1747638507300,4.8242145,3.2064676,-0.33617815,-1.8105513,-2.6624541,8.067689
404,1747638507310,4.3193984,3.5105401,0.23489175999999995,-1.70151505,-2.30842995,7.0191315
405,1747638507320,3.8145823,3.8146126,0.80596167,-1.5924788,-1.9544058,5.970574
406,1747638507330,2.5850897,3.876354,1.4902699,-1.0821923,-1.8829367,5.3468986
407,1747638507340,2.3174827000000002,3.8860041,1.5261561499999998,0.08017364999999987,-1.6163018999999998,4.43547645
408,1747638507350,2.0498757,3.8956542,1.5620424,1.2425396,-1.3496671,3.5240543
409,1747638507360,1.6071974,3.9039474,1.2628176,2.144761,-1.2476555,2.6175568
410,1747638507370,1.2060917,3.9899735499999998,0.80449817,2.274986,-1.0521844,1.8099786
411,1747638507380,0.804986,4.0759997,0.34617874,2.405211,-0.8567133,1.0024004
412,1747638507390,0.250289,4.145547,0.054789785,1.2282611,-0.054059982,-0.009162709
413,1747638507400,0.24112688499999999,3.9272415,0.3151860925,0.50016936,0.40228110899999997,-0.6469254045000001
414,1747638507410,0.23196477,3.708936,0.5755824,-0.22792238,0.8586222,-1.2846881
415,1747638507420,0.64759874,3.1332316,0.9631355,-0.30328566,1.2086377,-2.7666037
416,1747638507430,0.75961747,2.98900065,1.00266525,-0.05875586999999999,1.35310305,-3.33992195
417,1747638507440,0.8716362,2.8447697,1.042195,0.18577392,1.4975684,-3.9132402
418,1747638507450,1.1676596,2.7249455,0.8216028,0.940323,1.7339664,-5.493502
419,1747638507460,1.1676596,2.7249455,0.8216028,0.940323,1.7339664,-5.493502
420,1747638507470,1.5449377,2.6675947,0.27468067,0.8767949,1.9697534,-5.974315
421,1747638507480,1.9668983500000001,2.66539945,0.11079915500000001,0.39922687,2.2238658,-6.514304
422,1747638507490,2.388859,2.6632042,-0.05308236,-0.07834116,2.4779782,-7.054293
423,1747638507500,2.8806252,2.4389226,-0.062107284,-0.34818295,2.655124,-7.5050983
424,1747638507510,3.2324140999999997,2.1430212500000003,-0.014513042000000004,-0.26094632,2.6771145,-8.126368150000001
425,1747638507520,3.584203,1.8471199,0.0330812,-0.17370969,2.699105,-8.747638
426,1747638507530,3.776257,1.0031987,-0.22659859,0.4088859,2.7076569,-10.156863
427,1747638507540,3.7136619,0.79698245,-0.273323865,0.452485115,2.7962679,-10.3566095
428,1747638507550,3.6510668,0.5907662,-0.32004914,0.49608433,2.8848789,-10.556356
429,1747638507560,3.0870705,0.12512925,-0.36788732,0.43786295,2.9978857000000003,-10.722202500000002
430,1747638507570,2.7860467499999997,-0.057427124999999996,-0.300047995,0.311513015,3.0739361,-10.392802750000001
431,1747638507580,2.485023,-0.2399835,-0.23220867,0.18516308,3.1499865,-10.063403
432,1747638507590,2.1103976,-0.5113408,0.0389352,0.23937577,2.9948313,-9.382919
433,1747638507600,1.9848415000000001,-0.60114785,0.14973434,0.38082509999999997,2.80176545,-9.0665005
434,1747638507610,1.8592854,-0.6909549,0.26053348,0.52227443,2.6086996,-8.750082
435,1747638507620,1.3477615,-1.0257916,-0.51823145,0.9055047,0.71873814,-5.71104
436,1747638507630,1.3528837500000002,-1.1197605,-0.613282725,0.3020258,0.9371160700000001,-5.2125505
437,1747638507640,1.358006,-1.2137294,-0.708334,-0.3014531,1.155494,-4.714061
438,1747638507650,1.237938,-1.6344552,-0.320537,-2.2161539,1.8243717,-3.7092173
439,1747638507660,1.237938,-1.6344552,-0.320537,-2.2161539,1.8243717,-3.7092173
440,1747638507670,1.0507625,-2.1071656,0.56826484,-2.6435943,2.0173993,-2.4459088
441,1747638507680,1.0507625,-2.1071656,0.56826484,-2.1588488000000003,1.7745875500000001,-1.43098607
442,1747638507690,1.0507625,-2.1071656,0.56826484,-1.6741033,1.5317758,-0.41606334
443,1747638507700,1.2354989,-2.1257339,0.6939429,-1.06967,1.271555,0.20402299
444,1747638507710,1.26612575,-2.02566705,0.50152315,-0.22009594999999993,0.663418338,0.6646017949999999
445,1747638507720,1.2967526,-1.9256002,0.3091034,0.6294781,0.055281676,1.1251806
446,1747638507730,1.0085344,-1.7284241,-0.013293459,1.0605836,-0.38025242,1.4379344
447,1747638507740,0.7414304300000001,-1.54098935,-0.2163388495,1.1157507500000001,-0.6478035099999999,1.8884343000000001
448,1747638507750,0.47432646,-1.3535546,-0.41938424,1.1709179,-0.9153546,2.3389342
449,1747638507760,0.4882297,-1.009693,-0.67321,0.03000787,-1.3392826,4.968097
450,1747638507770,0.63624138,-0.985408085,-0.64953485,-0.24071201500000006,-1.3823473,5.4412365000000005
451,1747638507780,0.78425306,-0.96112317,-0.6258597,-0.5114319,-1.425412,5.914376
452,1747638507790,1.4392914,-0.823981,-0.40670058,-1.0784508,-1.7558805,6.9570923
453,1747638507800,1.4392914,-0.823981,-0.40670058,-1.0784508,-1.7558805,6.9570923
454,1747638507810,1.8265699,-0.3893215,-0.22318375,-0.906421,-2.7638547,7.982781
455,1747638507820,2.0542662,-0.03521547,-0.33739772,-0.8971056,-3.1932805,8.879505
456,1747638507830,2.0542662,-0.03521547,-0.33739772,-0.8971056,-3.1932805,8.879505
457,1747638507840,2.6189942,0.17077217,-0.46063665,-1.1027321,-3.53902,9.839757
458,1747638507850,3.2875697500000003,0.393574785,-0.467588265,-1.6416902000000002,-3.4321216999999997,10.081347000000001
459,1747638507860,3.9561453,0.6163774,-0.47453988,-2.1806483,-3.3252234,10.322937
460,1747638507870,4.218234,1.0986313,-0.051862784,-2.5146291,-3.2604735,9.9900255
461,1747638507880,4.22177075,1.4644605,0.346666558,-2.3797464,-3.23359635,9.67727125
462,1747638507890,4.2253075,1.8302897,0.7451959,-2.2448637,-3.2067192,9.364517
463,1747638507900,3.997855,2.660765,1.3333704,-0.268391,-3.5500152,7.5728264
464,1747638507910,3.842404,2.7747349999999997,1.2257422500000001,0.20543558,-3.5946071,7.13943005
465,1747638507920,3.686953,2.888705,1.1181141,0.67926216,-3.639199,6.7060337
466,1747638507930,2.829845,3.17972815,0.587061675,1.1322818,-3.3502681,5.8575673
467,1747638507940,2.116747,3.446649275,0.4851731225,0.75218206,-2.90614405,5.24973615
468,1747638507950,1.403649,3.7135704,0.38328457,0.37208232,-2.46202,4.641905
469,1747638507960,0.91432166,3.9046793,0.4411233,-0.5282302,-2.2103508,4.6174707
470,1747638507970,0.87296253,3.9429893500000004,0.7316585499999999,-1.4656516000000002,-1.8200194,4.284559
471,1747638507980,0.8316034,3.9812994,1.0221938,-2.403073,-1.429688,3.9516473
472,1747638507990,0.9250692,3.9003954,1.4753910000000001,-2.59373375,-1.0085088,3.2308475
473,1747638508000,0.98681825,3.7670871999999997,2.08513695,-1.983764625,-0.400219475,1.80661894
474,1747638508010,1.0485673,3.633779,2.6948829,-1.3737955,0.20806985,0.38239038
475,1747638508020,1.0485673,3.633779,2.6948829,-1.3737955,0.20806985,0.38239038
476,1747638508030,0.67613703,3.137866,2.1811638,1.9117229,0.7126297,-2.5338707
477,1747638508040,0.5131092,2.9216645,1.6389066,3.408375,1.0840248,-4.528974
478,1747638508050,0.19366984,2.5150857,-0.30638984,2.8139443,1.3527976,-4.798969
479,1747638508060,0.271525005,2.49055685,-0.50162987,2.2251257,1.5623182,-4.7699535
480,1747638508070,0.34938017,2.466028,-0.6968699,1.6363071,1.7718388,-4.740938
481,1747638508080,0.7992692349999999,2.49677685,-0.61499015,0.570225915,2.02411875,-4.73208085
482,1747638508090,1.2491583,2.5275257,-0.5331104,-0.49585527,2.2763987,-4.7232237
483,1747638508100,2.1135685,2.441118,-0.18193135,-1.9382946,2.5445607,-5.807554
484,1747638508110,2.361281,2.3204403,0.08614832499999997,-1.97723615,2.83627845,-6.1804763000000005
485,1747638508120,2.6089935,2.1997626,0.354228,-2.0161777,3.1279962,-6.5533986
486,1747638508130,2.5299342,1.8598037,1.2186687,-0.0839915,3.5714712,-7.8477836
487,1747638508140,2.5569023,1.7665818,1.1316514,0.606075,3.3555367,-7.9760618
488,1747638508150,2.5838704,1.6733599,1.0446341,1.2961415,3.1396022,-8.10434
489,1747638508160,2.6582954,1.5637803,0.55777645,2.2500558,2.763244,-8.254608
490,1747638508170,2.6964836,1.4273546499999998,0.164979135,2.4002479,2.61786225,-8.2497215
491,1747638508180,2.7346718,1.290929,-0.22781818,2.55044,2.4724805,-8.244835
492,1747638508190,2.7103869,1.02919115,-0.47234464,1.8494546,2.24127495,-8.163592000000001
493,1747638508200,2.5596388,0.805222275,-0.58594882,1.2120164,2.206609475,-8.04783635
494,1747638508210,2.4088907,0.5812534,-0.699553,0.5745782,2.171944,-7.9320807
495,1747638508220,2.0792982,0.349654532,-0.56873744,-0.0004963000000000051,2.5262735,-7.40766835
496,1747638508230,1.7727102000000001,0.049103465999999985,-0.29247894900000004,-0.34037553,2.77368575,-6.701070925
497,1747638508240,1.4661222,-0.2514476,-0.016220458,-0.68025476,3.021098,-5.9944735
498,1747638508250,1.301143,-0.5321042,0.279559,-0.3400892,2.5604427,-5.2955875
499,1747638508260,1.1970668,-0.82239555,0.31457627499999996,0.16618862999999995,2.1911855,-4.76415025
500,1747638508270,1.0929906,-1.1126869,0.34959355,0.67246646,1.8219283,-4.232713
501,1747638508280,0.8726119,-1.5429254,0.068693034,1.6133239,0.96246624,-3.1270797
502,1747638508290,0.8726119,-1.5429254,0.068693034,1.6133239,0.96246624,-3.1270797
503,1747638508300,0.8726119,-1.5429254,0.068693034,1.6133239,0.96246624,-3.1270797
504,1747638508310,0.62683535,-1.6966844,-0.64586085,0.74905145,0.32535252,-1.4111335
505,1747638508320,0.572167545,-1.7249940000000001,-0.538964375,0.051196624999999996,0.48814331,-0.659753205
506,1747638508330,0.51749974,-1.7533036,-0.4320679,-0.6466582,0.6509341,0.09162709
507,1747638508340,0.48577532,-1.7504985,-0.368131235,-0.8036459499999999,0.69674765,0.39338564499999995
508,1747638508350,0.4540509,-1.7476934,-0.30419457,-0.9606337,0.7425612,0.6951442
509,1747638508360,0.39621213,-1.7091241,-0.18461442,-1.0453887,0.75477815,1.1105204
510,1747638508370,0.29896561,-1.6024867999999999,-0.07283961,-0.91485828,0.511660935,1.5656016
511,1747638508380,0.20171909,-1.4958495,0.0389352,-0.78432786,0.26854372,2.0206828
512,1747638508390,0.20537783,-1.3262359,0.015519199,-0.37124243,-0.5512897,2.9235914
513,1747638508400,0.415374865,-1.24008755,-0.08174257050000001,-0.29458110000000004,-0.8756496,3.489236
514,1747638508410,0.6253719,-1.1539392,-0.17900434,-0.21791977,-1.2000095,4.0548806
515,1747638508420,0.98170364,-0.8073947,-0.23464784,-0.46348035,-1.6477605,5.0029154
516,1747638508430,1.04137177,-0.73380808,-0.250258505,-0.554114825,-1.68044085,5.2329377
517,1747638508440,1.1010399,-0.66022146,-0.26586917,-0.6447493,-1.7131212,5.46296
518,1747638508450,1.3306874,-0.45886827,-0.25294158,-1.0310339,-1.8236845,6.446424
519,1747638508460,1.44392575,-0.40163931500000005,-0.20902134,-1.1017776499999998,-1.9455485499999998,6.754902
520,1747638508470,1.5571641,-0.34441036,-0.1651011,-1.1725214,-2.0674126,7.06338
521,1747638508480,2.5631068,-0.030581051,-0.016220458,-0.9992698,-2.7901213,8.495282
522,1747638508490,2.8658532,0.10560067950000002,-0.056116079000000006,-0.9120331500000001,-2.85853615,8.661738
523,1747638508500,3.1685996,0.24178241,-0.0960117,-0.8247965,-2.926951,8.828194
524,1747638508510,3.8055575,1.435663,-0.0886942,-0.7170583,-2.7821803,9.045655
525,1747638508520,3.8055575,1.435663,-0.0886942,-0.7170583,-2.7821803,9.045655
526,1747638508530,4.012033,1.8678528,0.03088595,-0.61107635,-2.6807795,8.969911
527,1747638508540,4.1596637,2.4616375,0.35691106,-0.27648473,-2.6123648,8.576525
528,1747638508550,4.1596637,2.4616375,0.35691106,0.13224843,-2.6117537,8.130606
529,1747638508560,3.9693172,2.7100666,0.4057249,0.7715001,-2.6771145,7.4439373
530,1747638508570,3.002157,2.9777958,0.019909699,1.5397933,-2.3068647,5.841685
531,1747638508580,3.002157,2.9777958,0.019909699,1.5397933,-2.3068647,5.841685
532,1747638508590,2.3483381,3.0868876,-0.16217409,1.1565629,-2.0191555,5.2522173
533,1747638508600,1.7819178999999998,3.2633307,-0.04503310999999999,0.40140299999999995,-1.8059699,5.039299
534,1747638508610,1.2154977,3.4397738,0.07210787,-0.3537569,-1.5927843,4.8263807
535,1747638508620,0.9968264,3.4014482,1.0341457,-1.7307594,-1.2421579,3.9595883
536,1747638508630,0.9956068499999999,3.4300017,1.22206825,-1.71800795,-1.1312891,3.4932064
537,1747638508640,0.9943873,3.4585552,1.4099908,-1.7052565,-1.0204203,3.0268245
538,1747638508650,0.66589254,3.5439873,1.6572002,-1.1750411,-0.72843534,1.1771027
539,1747638508660,0.47784802,3.50358845,1.5761742,-0.93887225,-0.50761406,0.3264596850000001
540,1747638508670,0.2898035,3.4631896,1.4951482,-0.7027034,-0.28679278,-0.52418333
541,1747638508680,0.193182,3.2050042,1.3775194,-0.48585263,0.09743014,-1.5754515
542,1747638508690,0.193182,3.2050042,1.3775194,-0.2391467,0.47012332,-2.5638022
543,1747638508700,0.322031,2.546551,1.0170716,-0.032909397,0.7285117,-3.2174852
544,1747638508710,0.6490623,2.2961707,0.6153712,0.46806172,1.2324607,-4.7360516
545,1747638508720,0.6490623,2.2961707,0.6153712,0.46806172,1.2324607,-4.7360516
546,1747638508730,0.96435505,2.2734559,0.27638808,0.2973299,1.4554199,-5.0512486
547,1747638508740,1.403405075,2.47015945,0.099944855,-0.16374525,1.72694155,-5.1517329499999995
548,1747638508750,1.8424551,2.666863,-0.07649837,-0.6248204,1.9984632,-5.2522173
549,1747638508760,3.735279,2.6529596,-0.110189356,-1.7906224,2.6459613,-6.431229
550,1747638508770,3.9125759999999996,2.4784677999999998,-0.028553497999999997,-1.8046337000000001,2.831697,-6.8600437
551,1747638508780,4.089873,2.303976,0.05308236,-1.818645,3.0174327,-7.2888584
552,1747638508790,3.829705,1.4236807,0.5245733,-0.6790331,3.4737356,-9.321835
553,1747638508800,3.514885,1.0722577150000001,0.46270992,0.13098854999999998,3.29261935,-9.6367265
554,1747638508810,3.200065,0.72083473,0.40084654,0.9410102,3.1115031,-9.951618
555,1747638508820,2.6185064,0.13537374,-0.45136783,1.75378065,2.8035981000000003,-9.6813185
556,1747638508830,2.5605456999999996,0.04105421849999999,-0.53006144,1.712185775,2.7492135500000003,-9.401703
557,1747638508840,2.502585,-0.053265303,-0.60875505,1.6705909,2.694829,-9.1220875
558,1747638508850,2.0213375,-0.56161815,-0.62049353,0.70232165,2.4877517,-7.2375474
559,1747638508860,1.9863202,-0.698531625,-0.51774363,0.5328497,2.4889735,-6.77971745
560,1747638508870,1.9513029,-0.8354451,-0.41499373,0.36337775,2.4901953,-6.3218875
561,1747638508880,1.9898417,-1.2930328,0.068693034,0.36085802,2.21959,-5.3242974
562,1747638508890,1.6086456999999998,-1.53524205,0.235135667,0.85808771,2.04946895,-4.83195445
563,1747638508900,1.2274497,-1.7774513,0.4015783,1.3553174,1.8793479,-4.3396115
564,1747638508910,0.8213589,-2.0012448,0.26541182,2.0755827,1.3118708,-3.5363474
565,1747638508920,0.8213589,-2.0012448,0.26541182,2.0755827,1.3118708,-3.5363474
566,1747638508930,0.54631233,-2.0354235,-0.07649837,2.42514,0.8854995,-2.717125
567,1747638508940,0.40732557999999996,-2.0068701,-0.5702009849999999,1.96719545,0.6906392100000001,-1.492032635
568,1747638508950,0.26833883,-1.9783167,-1.0639036,1.5092509,0.49577892,-0.26694027
569,1747638508960,0.13070884,-1.8587364,-1.2069302,0.14782503,0.73156595,1.0024004
570,1747638508970,-0.004009380000000007,-1.7439127,-0.9959422499999999,-0.641962285,0.5440358350000001,1.94253255
571,1747638508980,-0.1387276,-1.629089,-0.7849543,-1.4317496,0.35650572,2.8826647
572,1747638508990,0.026495447,-1.5983249,-0.5238415,-1.6928104,-0.7980719,5.0181866
573,1747638509000,0.27933032350000003,-1.63530875,-0.45110861999999996,-1.5423129,-1.1212100999999999,5.6776345
574,1747638509010,0.5321652,-1.6722926,-0.37837574,-1.3918154,-1.4443483,6.3370824
575,1747638509020,1.3306874,-1.604179,-0.41426197,-0.723854,-2.4705718,7.8887105
576,1747638509030,1.59120565,-1.5385349499999998,-0.4977272,-0.6029826,-2.684101,8.12297025
577,1747638509040,1.8517239,-1.4728909,-0.58119243,-0.4821112,-2.8976302,8.35723
578,1747638509050,2.389362,-0.929398725,-1.0343744,-0.40548805,-3.47335385,9.071615999999999
579,1747638509060,2.5046659,-0.7039053925,-1.10966075,-0.768732225,-3.402342925,9.349093499999999
580,1747638509070,2.6199698,-0.47841206,-1.1849471,-1.1319764,-3.331332,9.626571
581,1747638509080,3.024841,-0.28559595,-0.82645065,-1.8529288,-3.3356078,9.963758
582,1747638509090,3.024841,-0.28559595,-0.82645065,-1.8529288,-3.3356078,9.963758
583,1747638509100,3.428005,0.50045604,-0.36105764,-2.125825,-3.2299314,9.875796
584,1747638509110,3.8328762,1.3741655,-0.0799132,-2.256088,-2.9336703,9.231964
585,1747638509120,3.8328762,1.3741655,-0.0799132,-2.256088,-2.9336703,9.231964
586,1747638509130,3.8961115,1.778305,0.18095568,-2.3894055,-2.7333124,8.412818
587,1747638509140,3.3439451499999997,2.1491344999999997,0.7049344399999999,-2.14017975,-2.5817842,7.182533299999999
588,1747638509150,2.7917788,2.519964,1.2289132,-1.890954,-2.430256,5.9522486
589,1747638509160,2.0747857,2.7761986,1.6281743,-1.1887088,-2.3673387,5.234503
590,1747638509170,1.6424585999999999,2.9758291,1.6358576999999999,-0.5185711599999999,-2.31999795,4.847493
591,1747638509180,1.2101315,3.1754596,1.6435411,0.15156648,-2.2726572,4.460483
592,1747638509190,1.4495358,3.6838126,1.0346335,-0.5045598,-0.4950917,3.1337228
593,1747638509200,1.4727231,3.6973499,1.1864411499999998,-0.64352755,-0.16886109,2.6889879
594,1747638509210,1.4959104,3.7108872,1.3382488,-0.7824953,0.15736952,2.244253
595,1747638509220,1.2096285500000001,3.65195095,1.9560439500000002,0.053067356,0.99361944,-0.07818845
596,1747638509230,1.04429115,3.451893475,2.039196725,1.2048580279999999,1.01958042,-1.067799225
597,1747638509240,0.87895375,3.251836,2.1223495,2.3566487,1.0455414,-2.05741
598,1747638509250,0.8003516,3.0141394,1.5446938,3.11555,0.98873264,-2.7617168
599,1747638509260,0.87686523,2.93861665,0.9400700999999999,3.210575,1.0449306200000001,-3.3930656499999996
600,1747638509270,0.95337886,2.8630939,0.3354464,3.3056,1.1011286,-4.0244145
601,1747638509280,1.9078553,3.2220783,-0.23537959,0.68552333,1.8091005,-4.8960934
602,1747638509290,1.9078553,3.2220783,-0.23537959,0.68552333,1.8091005,-4.8960934
603,1747638509300,2.770802,3.2159803,0.021129282,-0.31076854,2.091312,-5.414703
604,1747638509310,3.6061556,2.8272078,0.46575886,-0.94070476,2.4633179,-6.8655415
605,1747638509320,3.6061556,2.8272078,0.46575886,-0.94070476,2.4633179,-6.8655415
606,1747638509330,3.6454568,2.3408377,0.94874436,-0.4708869,2.7491944,-8.192302
607,1747638509340,3.5772513999999997,2.0900762,0.8477019100000001,0.08378151499999997,2.5864035999999997,-8.470428250000001
608,1747638509350,3.509046,1.8393147,0.74665946,0.6384499299999999,2.4236128,-8.748554500000001
609,1747638509360,3.5827394,1.5430473,0.47847307,1.3671526,1.9386002,-8.901571
610,1747638509370,3.43424,1.185389275,0.07102550499999999,1.0107613500000001,1.6872365,-8.815136500000001
611,1747638509380,3.2857406,0.82773125,-0.33642206,0.6543701,1.4358728,-8.728702
612,1747638509390,3.0048401,0.485821,-0.43889758,-0.35940725,1.903171,-8.29248
613,1747638509400,2.73198865,0.134763945,-0.2519659325,-1.1924501749999998,2.58063875,-7.743634
614,1747638509410,2.4591372,-0.21629311,-0.065034285,-2.0254931,3.2581065,-7.194788
615,1747638509420,1.9903295,-1.0675318,0.9392316,-1.7949747,4.5976944,-5.4189787
616,1747638509430,1.9814266,-1.1924781,1.1652204,-1.1285785000000002,4.4046667,-5.1648662000000005
617,1747638509440,1.9725237,-1.3174244,1.3912092,-0.4621823,4.211639,-4.9107537
618,1747638509450,2.0218253,-1.9419426,0.92993236,2.7005558,2.6166406,-4.4239087
619,1747638509460,1.9018793,-2.1967288,0.4230582475,3.3080815,2.06412925,-4.37045955
620,1747638509470,1.7819333,-2.451515,-0.083815865,3.9156072,1.5116179,-4.3170104
621,1747638509480,1.2413529,-2.454442,-0.5553068,3.7990882,1.2819394,-3.9523344
622,1747638509490,1.2413529,-2.454442,-0.5553068,3.7990882,1.2819394,-3.9523344
623,1747638509500,0.58390605,-2.3863587,-1.0704893,2.3497767,0.7364527,-2.2253928
624,1747638509510,0.664429,-2.565729,-1.0339018,-0.8485432,0.40231928,0.35978904
625,1747638509520,0.664429,-2.565729,-1.0339018,-0.8485432,0.40231928,0.35978904
626,1747638509530,0.74153715,-2.5376787,-0.6263475,-2.1027653,0.12743801,1.199704
627,1747638509540,0.572167515,-2.32412955,-0.263811113,-2.1653771500000003,-0.262626145,1.5103198500000001
628,1747638509550,0.40279788,-2.1105804,0.098725274,-2.227989,-0.6526903,1.8209357
629,1747638509560,0.09287128,-1.4455721,0.2754124,-0.28648737,-2.4180388,2.841127
630,1747638509570,0.11483902,-1.36247275,0.148880633,0.13847144,-2.7103674,3.13463905
631,1747638509580,0.13680676,-1.2793734,0.022348866,0.56343025,-3.002696,3.4281511
632,1747638509590,0.30201457,-1.1738032,-0.396699995,1.1141855,-3.5298572,4.691994
633,1747638509600,0.41330918499999997,-1.12969245,-0.6186489325,1.002362215,-3.4953443,5.0139488
634,1747638509610,0.5246038,-1.0855817,-0.84059787,0.89053893,-3.4608314,5.3359036
635,1747638509620,0.8884665,-0.82544446,-1.0841792,-0.367501,-2.9019063,7.0047383
636,1747638509630,1.355201,-0.684140505,-0.860629515,-0.61611583,-2.99231165,7.57561315
637,1747638509640,1.8219355,-0.54283655,-0.63707983,-0.86473066,-3.082717,8.146488
638,1747638509650,2.8498614,-0.10378654,-0.83767086,0.117893524,-4.4430737,8.443971
639,1747638509660,2.8498614,-0.10378654,-0.83767086,0.117893524,-4.4430737,8.443971
640,1747638509670,3.164697,0.30279207,-1.3165097,0.18890451,-4.381989,8.4641285
641,1747638509680,3.093656,1.2211384,-1.2835505,-0.6466582,-3.6153758,8.936314
642,1747638509690,3.093656,1.2211384,-1.2835505,-0.6466582,-3.6153758,8.936314
643,1747638509700,3.1768928,1.5920746,-1.0558543,-1.2971342,-3.318504,9.828151
644,1747638509710,3.9612524000000002,2.0920123,-0.470759185,-1.0852846999999999,-3.36095795,9.5465505
645,1747638509720,4.745612,2.59195,0.11433593,-0.8734352,-3.4034119,9.26495
646,1747638509730,5.1029196,3.0827105,0.242941,-0.3319955,-3.2855184,7.9333024
647,1747638509740,4.47327935,3.4124247,0.49650763500000006,-0.07372164000000003,-2.6324845,6.3028747
648,1747638509750,3.8436391,3.7421389,0.75007427,0.18455222,-1.9794506,4.672447
649,1747638509760,2.1628702,3.7553108,1.312607,1.1035719,-0.9086353,3.4257078
650,1747638509770,2.0225419000000002,3.73163545,1.3117533,1.37337555,-0.84449633,3.2971245
651,1747638509780,1.8822136,3.7079601,1.3108996,1.6431792,-0.78035736,3.1685412
652,1747638509790,1.4746592,3.5488656,0.43917197,2.2563171,-0.12858334,1.6743324
653,1747638509800,1.3662992,3.5015153000000003,0.29713624,2.07875145,0.110296115,1.1734376
654,1747638509810,1.2579392,3.454165,0.15510051,1.9011858,0.34917557,0.6725428
655,1747638509820,0.5726553,3.1393294,0.17339426,1.3877686,0.77432525,-0.3702498
656,1747638509830,0.5726553,3.1393294,0.17339426,1.0680665,1.0021713,-1.0635614
657,1747638509840,0.17805916,2.90895,0.253216,0.78333527,1.1487746,-1.789248
658,1747638509850,0.11653119,2.4394107,0.33861732,0.43942824,1.3344722,-2.9150395
659,1747638509860,0.11653119,2.4394107,0.33861732,0.43942824,1.3344722,-2.9150395
660,1747638509870,0.41478032,2.318367,0.3383734,0.4107184,1.4767996,-3.3537042
661,1747638509880,0.76791066,2.16315975,0.33447074,0.45714279999999996,1.5748406,-3.9150728
662,1747638509890,1.121041,2.0079525,0.33056808,0.5035672,1.6728816,-4.4764414
663,1747638509900,1.427065,1.810746,0.23586741,0.67804044,1.7278578,-5.5161033
664,1747638509910,1.5792385,1.70299575,0.10616472599999999,0.7263355549999999,1.7660358,-6.133402650000001
665,1747638509920,1.731412,1.5952455,-0.023537958,0.77463067,1.8042138,-6.750702
666,1747638509930,2.165553,1.4632256,-0.25074634,0.7446992,1.8439188,-7.0445194
667,1747638509940,2.35213405,1.4910473,-0.31224383499999997,0.611381765,1.86163335,-7.4079737
668,1747638509950,2.5387151,1.518869,-0.37374133,0.47806433,1.8793479,-7.771428
669,1747638509960,2.8901381,1.4571277,-0.40670058,0.2474695,1.9135554,-7.9974413
670,1747638509970,3.08562215,1.3019205,-0.39302599,0.06959841,1.9413489,-8.2268529
671,1747638509980,3.2811062,1.1467133,-0.3793514,-0.10827268,1.9691424,-8.4562645
672,1747638509990,3.2500982,0.3723388,0.24565458,-0.1681357,2.21959,-9.446447
673,1747638510000,3.1699258,0.228717615,0.29494099,0.09762102500000003,1.9721968,-9.494399
674,1747638510010,3.0897534,0.08509643,0.3442274,0.36337775,1.7248036,-9.542351
675,1747638510020,2.6177747,-0.37712565,0.22976951,1.0556204,1.2562838,-9.26075
676,1747638510030,2.6177747,-0.37712565,0.22976951,1.0556204,1.2562838,-9.26075
677,1747638510040,1.5593593,-0.89986956,0.23830658,1.14908,1.2758309,-8.869807
678,1747638510050,1.5593593,-0.89986956,0.23830658,1.2307045,1.3222553,-7.1483636
679,1747638510060,1.1342125,-1.0235963,0.273705,1.2307045,1.3222553,-7.1483636
680,1747638510070,0.92971885,-1.144152,0.22659859,1.2986612,1.0602018,-6.4843726
681,1747638510080,0.75303173,-1.5792994,-0.38398582,0.40392274,0.3265742,-4.4275737
682,1747638510090,0.75303173,-1.5792994,-0.38398582,0.40392274,0.3265742,-4.4275737
683,1747638510100,0.6541845,-1.8035808,-0.40913972,-0.75317466,0.37055522,-3.6035407
684,1747638510110,0.41049651,-1.92364875,-0.10590557,-1.60587923,0.6365792100000001,-2.76267125
685,1747638510120,0.16680852,-2.0437167,0.19732858,-2.4585838,0.9026032,-1.9218018
686,1747638510130,-0.18071176,-1.9419426,1.3341023,-1.3724974,0.37238777,1.5185663
687,1747638510140,-0.04965228499999999,-1.9099742499999999,1.2488077,-0.790245445,0.03149681000000004,2.13800355
688,1747638510150,0.08140719,-1.8780059,1.1635131,-0.20799349,-0.30939415,2.7574408
689,1747638510160,0.64028126,-1.812118,0.40962756,1.0556204,-1.0399674,4.0988617
690,1747638510170,0.72435628,-1.7652554999999999,0.1935326345,1.06684475,-1.21497515,4.443073999999999
691,1747638510180,0.8084313,-1.718393,-0.022562291,1.0780691,-1.3899829,4.7872863
692,1747638510190,1.0173155,-1.5927149,-0.44158065,0.59389627,-1.673416,5.3517857
693,1747638510200,1.1491067,-1.5235340499999999,-0.560688195,-0.20425206500000004,-1.7809251499999998,5.97454435
694,1747638510210,1.2808979,-1.4543532,-0.67979574,-1.0024004,-1.8884343,6.597303
695,1747638510220,1.6025326,-1.3718483,-0.20754258,-2.0510724,-2.1443794,8.337072
696,1747638510230,1.72603065,-1.3044968,-0.15447546750000002,-1.9373402999999998,-2.3881456,8.706329
697,1747638510240,1.8495287,-1.2371453,-0.101408355,-1.8236082,-2.6319118,9.075586
698,1747638510250,2.899163,-1.0006682,-0.23245259,-0.92512816,-3.5854445,10.038282
699,1747638510260,2.899163,-1.0006682,-0.23245259,-0.92512816,-3.5854445,10.038282
700,1747638510270,3.7601585,-0.19190145,-0.8723375,-0.24410984,-4.1669707,9.399946
701,1747638510280,3.7601585,-0.19190145,-0.8723375,-0.24410984,-4.1669707,9.399946
702,1747638510290,3.686465,0.29840153,-1.0014304,-0.24410984,-4.1669707,9.399946
703,1747638510300,3.5854225,0.7086389,-0.7576357,-0.8522846,-3.6257603,8.993733
704,1747638510310,3.6520424,1.6589688,-0.32248834,-1.1015103,-3.0485096,8.845298
705,1747638510320,3.6520424,1.6589688,-0.32248834,-1.1015103,-3.0485096,8.845298
706,1747638510330,3.8709574,1.9615779,-0.18876101,-1.168169,-2.7656872,8.408542
707,1747638510340,3.8254365999999997,2.3430178,-0.03379770500000001,-1.1528977999999999,-2.5509363499999997,7.513307
708,1747638510350,3.7799158,2.7244577,0.1211656,-1.1376266,-2.3361855,6.618072
709,1747638510360,2.112593,3.6677139,0.97996575,-0.80990714,-2.1028416,4.4977446
710,1747638510370,1.8587823,3.8816136,1.024632975,-0.75412914,-2.1202508,4.37649155
711,1747638510380,1.6049716,4.0955133,1.0693002,-0.69835114,-2.13766,4.2552385
712,1747638510390,1.6596396,4.3251605,1.1429935,-0.76875126,-1.8328472,3.9821897
713,1747638510400,1.9082058499999999,4.39411275,1.2950450500000001,-0.86751765,-1.18076775,3.2717743500000003
714,1747638510410,2.1567721,4.463065,1.4470966,-0.96628404,-0.5286883,2.561359
715,1747638510420,1.9671575,4.079415,1.8770913,0.8282325,0.6008446,-1.1154834
716,1747638510430,1.8101055499999998,4.00265725,1.7176003,1.3519195000000002,0.6411605499999999,-1.7654249
717,1747638510440,1.6530536,3.9258995,1.5581093,1.8756065,0.6814765,-2.4153664
718,1747638510450,1.3265408,3.5520363,-0.065034285,2.1727836,1.0650885,-3.8973582
719,1747638510460,1.4427061,3.52043405,-0.24037987749999998,1.7301102999999998,1.2559783000000002,-4.08305585
720,1747638510470,1.5588714,3.4888318,-0.41572547,1.287437,1.4468681,-4.2687535
721,1747638510480,2.388859,3.0470986,-0.36861908,-0.46096063,2.386351,-5.1080575
722,1747638510490,2.388859,3.0470986,-0.36861908,-0.46096063,2.386351,-5.1080575
723,1747638510500,3.2086017,2.2512593,0.15729576,-0.9071082,2.6337442,-5.5637493
724,1747638510510,3.2652209,1.7685179,0.4057249,-0.8796964,3.4657946,-7.451955
725,1747638510520,3.2652209,1.7685179,0.4057249,-0.8796964,3.4657946,-7.451955
726,1747638510530,3.1234443,1.4029477,0.56924057,-0.16248538,3.5287118,-8.14038
727,1747638510540,2.98482345,1.06140338,0.434522335,0.5817938100000001,3.2920084999999997,-8.508148250000001
728,1747638510550,2.8462026,0.71985906,0.2998041,1.326073,3.0553052,-8.8759165
729,1747638510560,2.6878092,0.3723388,-0.014269125,1.9684553,2.6612325,-9.130029
730,1747638510570,2.4275349,0.099502755,-0.2980966625,1.8943137,2.4721752500000003,-9.085436999999999
731,1747638510580,2.1672606,-0.17333329,-0.5819242,1.8201721,2.283118,-9.040845
732,1747638510590,1.6825981,-0.42959824,-0.62390834,0.9322293,2.3716908,-8.282096
733,1747638510600,1.5190825000000001,-0.499144985,-0.524085445,0.537851025,2.5714379000000003,-7.828542
734,1747638510610,1.3555669,-0.56869173,-0.42426255,0.14347275,2.771185,-7.374988
735,1747638510620,1.292362,-0.60433406,-0.15555786,-0.19241689,2.8066905,-6.7445936
736,1747638510630,1.2966305500000002,-0.701580555,0.028202859999999996,-0.20955879500000002,2.7217445500000004,-6.4339778
737,1747638510640,1.3008991,-0.79882705,0.21196358,-0.2267007,2.6367986,-6.123362
738,1747638510650,1.0934784,-1.1749161,0.6549163,1.215128,1.9489845,-5.3884363
739,1747638510660,1.0695592999999999,-1.1913957499999999,0.57267063,1.6512729,1.5620128,-5.11386065
740,1747638510670,1.0456402,-1.2078754,0.49042496,2.0874178,1.1750411,-4.839285
741,1747638510680,1.1088451,-1.1924781,-0.21586627,2.3342001,0.42492062,-3.8417711
742,1747638510690,1.1088451,-1.1924781,-0.21586627,2.3342001,0.42492062,-3.8417711
743,1747638510700,1.1125039,-1.2005273,-0.4367023,1.8824786,0.56724805,-3.4288385
744,1747638510710,0.9481345800000001,-1.2345842,-0.307975285,1.0304039075,1.0279795999999999,-2.7641984749999997
745,1747638510720,0.78376526,-1.2686411,-0.17924827,0.17832921499999999,1.4887111499999999,-2.09955845
746,1747638510730,0.72763395,-1.3364804,0.008902958,-0.2839676,1.5366626,-1.1997803
747,1747638510740,0.796586155,-1.3704001,0.049545574,-0.227922375,1.0867736000000001,-0.582786425
748,1747638510750,0.86553836,-1.4043198,0.09018819,-0.17187715,0.6368846,0.03420745
749,1747638510760,0.86651397,-1.3389196,-0.08210845,-0.23601611,0.1866902,0.6810947
750,1747638510770,0.723014735,-1.2882764,-0.078083823,-0.368417255,0.040964948,1.09158405
751,1747638510780,0.5795155,-1.2376332,-0.074059196,-0.5008184,-0.104760304,1.5020734
752,1747638510790,0.18684018,-1.1185409,-0.025733208,-0.6036698,-0.8090672,3.3548496
753,1747638510800,0.220515925,-1.1040126,-0.033172666,-0.6145505200000001,-1.00576,3.8496357999999997
754,1747638510810,0.25419167,-1.0894843,-0.040612124,-0.62543124,-1.2024528,4.344422
755,1747638510820,0.51385622,-1.0653366000000002,-0.11067719,-0.8217423,-1.8908777,5.9608
756,1747638510830,0.69591711,-1.0438567,-0.119702105,-0.8666013800000001,-2.03564845,6.250341799999999
757,1747638510840,0.877978,-1.0223768,-0.12872702,-0.91146046,-2.1804192,6.5398836
758,1747638510850,1.6994286,-0.7141575,-0.24147749,-1.2397909,-2.8817482,8.130606
759,1747638510860,1.8725789,-0.60896845,-0.290657195,-1.3690996,-2.99292245,8.4106795
760,1747638510870,2.0457292,-0.5037794,-0.3398369,-1.4984083,-3.1040967,8.690753
761,1747638510880,2.7144268,-0.2924561,-0.273705,-2.1551454,-3.2818532,9.399336
762,1747638510890,3.1106389,-0.07951683999999998,-0.09724653249999998,-2.2744514999999996,-3.3847810000000003,9.437514
763,1747638510900,3.506851,0.13342242,0.079211935,-2.3937576,-3.4877088,9.475692
764,1747638510910,3.9312356,0.82895076,0.37596706,-2.1077285,-3.8206205,8.784823
765,1747638510920,3.7634513,1.23040713,0.43783042,-1.9989976999999999,-3.79588125,8.56614
766,1747638510930,3.595667,1.6318635,0.49969378,-1.8902669,-3.771142,8.347457
767,1747638510940,3.1690874,2.0196605,0.63683593,-1.2559783,-3.2647495,6.9790826
768,1747638510950,3.0444917,2.1568179499999998,0.713593465,-1.1581664,-3.23817765,6.8498883
769,1747638510960,2.919896,2.2939754,0.790351,-1.0603545,-3.2116058,6.720694
770,1747638510970,2.7290616,2.805743,0.77839905,-0.8092199,-2.8255503,6.065866
771,1747638510980,2.7290616,2.805743,0.77839905,-0.8092199,-2.8255503,6.065866
772,1747638510990,2.4403558,3.3104067,0.932402,-0.98186064,-2.2030206,4.949772
773,1747638511000,2.10344595,3.5227361999999998,1.0305022,-1.14262802,-1.6764703,4.1587246
774,1747638511010,1.7665361,3.7350657,1.1286024,-1.3033954,-1.14992,3.3676772
775,1747638511020,0.89871097,3.8910198,1.628906,-1.1532032,-0.1279725,1.6089717
776,1747638511030,0.666746215,3.8660030499999998,1.76777075,-0.68960834,0.22910590000000003,1.05768203
777,1747638511040,0.43478146,3.8409863,1.9066355,-0.22601348,0.5861843,0.50639236
778,1747638511050,0.43819633,3.7675064,1.940784,0.77463067,0.95819026,-0.19486028
779,1747638511060,0.5293449299999999,3.6809922,1.6303543,1.7220166350000001,1.14236073,-0.9184470400000001
780,1747638511070,0.62049353,3.594478,1.3199246,2.6694026,1.3265312,-1.6420338
781,1747638511080,1.1874168,3.6218271,-0.14824036,3.1573167,1.3766207,-3.5033617
782,1747638511090,1.4007219499999999,3.6797878500000003,-0.369228855,2.7563337,1.2889640999999998,-3.8292486500000003
783,1747638511100,1.6140271,3.7377486,-0.59021735,2.3553507,1.2013075,-4.1551356
784,1747638511110,2.5955782,3.5876484,-0.8279142,1.4382398,1.2135245,-4.589448
785,1747638511120,2.73444295,3.3855787,-0.69100068,0.16279074999999987,1.5317759,-5.4061889999999995
786,1747638511130,2.8733077,3.183509,-0.55408716,-1.1126583,1.8500273,-6.22293
787,1747638511140,2.7332084,2.6468618,0.059668116,-1.8959172,2.4462142,-7.1208754
788,1747638511150,2.6430354,2.2895696,0.5138409580000001,-1.6105369999999999,2.7263258500000003,-7.34749985
789,1747638511160,2.5528624,1.9322774,0.9680138,-1.3251568,3.0064375,-7.5741243
790,1747638511170,2.7890956,1.1759832,1.1132356,1.7590874,2.7064352,-7.663308
791,1747638511180,2.8671948,1.033947475,0.901637915,2.2329522,2.5280678500000002,-7.708816000000001
792,1747638511190,2.945294,0.89191175,0.69004023,2.706817,2.3497005,-7.754324
793,1747638511200,2.8174205,0.42212826,0.025519783,3.2700944,2.0894794,-7.9895005
794,1747638511210,2.8174205,0.42212826,0.025519783,3.2700944,2.0894794,-7.9895005
795,1747638511220,2.39764,-0.008872469,-0.45283127,2.6694026,1.8243717,-7.5545774
796,1747638511230,2.3204099,-0.1120949545,-0.49833700000000003,2.6694026,1.8243717,-7.5545774
797,1747638511240,2.2431798,-0.21531744,-0.54384273,2.6694026,1.8243717,-7.5545774
798,1747638511250,2.2431798,-0.21531744,-0.54384273,2.0712304,2.0491636,-7.0805597
799,1747638511260,2.1744715,-0.60591952,-0.4724666,1.31763575,2.13162795,-6.5091121
800,1747638511270,2.1057632,-0.9965216,-0.40109047,0.5640411,2.2140923,-5.9376645
801,1747638511280,1.8346193,-1.47533,-0.1987616,0.08926006,1.7565676,-5.4250875
802,1747638511290,1.6163291,-1.7158471,-0.131532067,-0.030695070000000005,1.4951249999999998,-4.92205455
803,1747638511300,1.3980389,-1.9563642,-0.064302534,-0.1506502,1.2336824,-4.4190216
804,1747638511310,1.1698549,-2.5379224,-0.05454587,0.008246438,0.86839575,-2.820358
805,1747638511320,1.12421195,-2.6077131,-0.08078215500000001,0.077386714,0.631081585,-2.4352188999999997
806,1747638511330,1.078569,-2.6775038,-0.10701844,0.14652699,0.39376742,-2.0500798
807,1747638511340,0.9595986999999999,-2.7679359000000003,-0.33129981,0.09639933,-0.411405615,-0.882139825
808,1747638511350,0.878023825,-2.6787996,-0.422204505,-0.09099715,-0.6691831575,-0.17138086250000006
809,1747638511360,0.79644895,-2.5896633,-0.5131092,-0.27839363,-0.9269607,0.5393781
810,1747638511370,0.5665574,-2.257266,-0.5350617,-0.71392775,-1.5714046,2.4440763
811,1747638511380,0.5345891,-2.17002,-0.52701245,-0.750998525,-1.7488557,2.7491944999999998
812,1747638511390,0.5026208,-2.082774,-0.5189632,-0.7880693,-1.9263068,3.0543127
813,1747638511400,0.4911567,-1.7681825,-0.5043282,-0.8603784,-2.794397,4.743916
814,1747638511410,0.4911567,-1.7681825,-0.5043282,-0.8603784,-2.794397,4.743916
815,1747638511420,0.7259265,-1.106345,-0.6246401,-1.044167,-3.0802736,6.8477507
816,1747638511430,0.8805391499999999,-0.92856025,-0.56924055,-1.1002504000000002,-3.2140492,7.309284
817,1747638511440,1.0351518,-0.7507755,-0.513841,-1.1563338,-3.3478248,7.7708173
818,1747638511450,2.0569491,0.04994194,-0.4721007,-1.297745,-4.1284876,9.166603
819,1747638511460,2.3895905500000003,0.266783855,-0.508947385,-1.40399425,-4.13795565,9.249067499999999
820,1747638511470,2.722232,0.48362577,-0.54579407,-1.5102435,-4.1474237,9.331532
821,1747638511480,3.0524342,0.6764114,-0.45039213,-1.9862462,-3.7418213,9.149499
822,1747638511490,3.1450463500000003,0.9863533,-0.15130456000000003,-2.1488843500000003,-3.6245385499999996,8.9595255
823,1747638511500,3.2376585,1.2962952,0.14778301,-2.3115225,-3.5072558,8.769552
824,1747638511510,3.4741356,2.2773585,0.9594767,-1.5463598,-3.9195778,7.762265
825,1747638511520,3.34662815,2.3588724,1.0655195,-1.2024146500000001,-3.8169554,7.3841125000000005
826,1747638511530,3.2191207,2.4403863,1.1715623,-0.8584695,-3.714333,7.00596
827,1747638511540,2.2575707,2.8850465,1.2447678,0.22815146,-3.3991358,6.2472878
828,1747638511550,1.9826462,3.0533185,1.040015,0.19856353999999998,-2.9990309,6.26958375
829,1747638511560,1.7077217,3.2215905,0.8352622,0.16897562,-2.598926,6.2918797
830,1747638511570,1.7865677,3.4968808,0.84355533,-0.4852418,-1.8676655,6.2197995
831,1747638511580,2.0742978499999998,3.6799099,1.268077065,-0.8217041,-1.002400355,5.0197519
832,1747638511590,2.362028,3.862939,1.6925988,-1.1581664,-0.13713521,3.8197043
833,1747638511600,2.1465278,4.350071,3.1227126,0.19760908,0.89588386,1.8789662
834,1747638511610,2.1465278,4.350071,3.1227126,0.19760908,0.89588386,1.8789662
835,1747638511620,2.0571933,4.2485404,3.3565068,1.9298192,1.5244457,0.39888325
836,1747638511630,1.9344421499999997,4.04476335,2.9857991999999998,3.5516949,1.7574839,-0.9398266749999998
837,1747638511640,1.811691,3.8409863,2.6150916,5.1735706,1.9905221,-2.2785366
838,1747638511650,1.5869218,2.9021206,-0.18241918,6.476432,1.9477628,-5.147152
839,1747638511660,1.5824094,2.8097523,-0.47356420499999996,6.2184635,1.8491110000000002,-5.421155000000001
840,1747638511670,1.577897,2.717384,-0.76470923,5.960495,1.7504592,-5.695158
841,1747638511680,1.8073007,2.178542,-1.5944833,3.5682259,1.29873765,-6.4351994999999995
842,1747638511690,1.84695235,2.1087360000000004,-1.5584751,2.5680209,1.191992125,-6.59569975
843,1747638511700,1.886604,2.03893,-1.5224669,1.5678159,1.0852466,-6.7562
844,1747638511710,2.060608,1.6770186,-1.0936918,-0.10582929,0.967353,-6.903414
845,1747638511720,2.1833743500000002,1.4012403,-0.72274031,-0.7640935449999999,0.8946621800000001,-6.940675499999999
846,1747638511730,2.3061407,1.125462,-0.35178882,-1.4223578,0.82197136,-6.977937
847,1747638511740,2.3129702,0.47484478,0.62244487,-1.474738,0.99300855,-6.971218
848,1747638511750,2.2777090500000003,0.408103075,0.727877855,-1.2092867,1.009806825,-6.9043302
849,1747638511760,2.2424479,0.34136137,0.83331084,-0.9438354,1.0266051,-6.8374424
850,1747638511770,2.1848530999999998,0.227879145,0.90505282,-0.32634515,0.95055465,-6.6257839
851,1747638511780,2.1272583,0.11439692,0.9767948,0.2911451,0.8745042,-6.4141254
852,1747638511790,2.5374956,-0.39444375,0.522378,1.1902359,0.38888064,-5.7947264
853,1747638511800,2.58105005,-0.548690555,0.38804091500000004,1.13289265,0.39712707,-5.7195922
854,1747638511810,2.6246045,-0.70293736,0.25370383,1.0755494,0.4053735,-5.644458
855,1747638511820,2.5638387,-1.3674577,0.011829958,0.07673769,0.88672113,-5.2436657
856,1747638511830,2.3204097499999996,-1.5882024000000001,0.141669864,-0.38120687499999995,1.4923762150000002,-4.92602515
857,1747638511840,2.0769808,-1.8089471,0.27150977,-0.83915144,2.0980313,-4.6083846
858,1747638511850,1.7379978,-2.0451803,0.6153712,-0.8403731,2.6038127,-3.982266
859,1747638511860,1.5652133,-2.20003685,0.6705269,-0.33321717500000003,2.3845186500000004,-3.27731
860,1747638511870,1.3924288,-2.3548934,0.7256826,0.17393875,2.1652246,-2.572354
861,1747638511880,1.3259158,-2.46092095,0.200484265,0.85155925,1.150607175,-1.56903755
862,1747638511890,1.179421,-2.413273425,-0.1702157025,0.674127225,0.8366316874999999,-1.14251345
863,1747638511900,1.0329262,-2.3656259,-0.54091567,0.4966952,0.5226562,-0.71598935
864,1747638511910,0.39011422,-2.117654,-0.6871133,-0.5562528,0.37788537,0.24372806
865,1747638511920,0.39011422,-2.117654,-0.6871133,-0.5562528,0.37788537,0.24372806
866,1747638511930,-0.24855109,-1.760865,-0.38130274,-0.9681165,0.14026581,1.0891407
867,1747638511940,-0.202542305,-1.6876595,-0.373497395,-0.8064329,-0.48192029500000005,2.2177192000000003
868,1747638511950,-0.15653352,-1.614454,-0.36569205,-0.6447493,-1.1041064,3.3462977
869,1747638511960,-0.0015854583,-1.4997522,-0.4674663,-0.1369825,-1.7870337,4.177661
870,1747638511970,0.16058865085,-1.36881465,-0.74531785,0.110105215,-2.24062595,4.80839875
871,1747638511980,0.32276276,-1.2378771,-1.0231694,0.35719293,-2.6942182,5.4391365
872,1747638511990,0.65857506,-0.94234157,-1.3160219,0.09483404,-3.1407475,6.653501
873,1747638512000,0.95472033,-0.564804295,-1.3948527,-0.23788683,-3.29437565,7.490705
874,1747638512010,1.2508656,-0.18726702,-1.4736835,-0.5706077,-3.4480038,8.327909
875,1747638512020,3.1117365,0.92877364,-1.4182839,-1.6142403,-3.3374403,9.832426
876,1747638512030,3.57664175,1.31997032,-1.25964665,-1.7314084,-3.3050654,9.644285
877,1747638512040,4.041547,1.711167,-1.1010094,-1.8485765,-3.2726905,9.456144
878,1747638512050,4.375652,2.0679865,-0.85501945,-1.60927715,-3.2442862,8.32516115
879,1747638512060,4.214453499999999,2.42941,-0.52786619,-1.3285927750000002,-3.3162134500000002,7.698546275
880,1747638512070,4.053255,2.7908335,-0.20071293,-1.0479084,-3.3881407,7.0719314
881,1747638512080,3.0131333,3.6062164,0.061375532,-0.025426516,-3.4608314,6.1562715
882,1747638512090,2.9983762499999997,3.6694212999999998,0.08395307099999999,-0.091168953,-3.2195468,6.02555025
883,1747638512100,2.9836192,3.7326262,0.10653061,-0.15691139,-2.9782622,5.894829
884,1747638512110,2.9150328500000002,3.6287788,0.251127455,-0.504254395,-2.36096285,5.35663425
885,1747638512120,2.8464465,3.5249314,0.3957243,-0.8515974,-1.7436635,4.8184395
886,1747638512130,2.2746449,3.2872345,1.1171383,-0.9213867,-1.0082034,3.6431694
887,1747638512140,1.98398765,3.1038395999999997,1.29175215,-0.68647777,-0.64749809,2.99410605
888,1747638512150,1.6933304,2.9204447,1.466366,-0.45156884,-0.28679278,2.3450427
889,1747638512160,1.2272058,2.666863,1.6420776,0.38330665,0.1311031,1.1709942
890,1747638512170,0.7897564699999999,2.49481025,1.490773,0.9001597750000001,0.35161895,0.58580252363
891,1747638512180,0.35230714,2.3227575,1.3394684,1.4170129,0.5721348,0.00061084726
892,1747638512190,-0.08552328,2.1199713,0.79742455,1.840101,0.80242425,-0.50463617
893,1747638512200,-0.08552328,2.1199713,0.79742455,2.0114436,0.9221503,-0.8583168
894,1747638512210,-0.21754318,1.9996594,0.1724186,1.7372496,1.2074159,-1.6377579
895,1747638512220,-0.14067894,1.99941545,0.0900509875,1.29766863,1.3854779000000002,-1.9666992
896,1747638512230,-0.0638147,1.9991715,0.007683375,0.85808766,1.5635399,-2.2956405
897,1747638512240,0.07165052,2.003562,0.0023172083,0.47806433,1.7333554,-2.6016748
898,1747638512250,0.32081141,2.01466025,0.08627028414999999,0.19390582499999998,1.8976733000000001,-2.9981529
899,1747638512260,0.5699723,2.0257585,0.17022336,-0.09025268,2.0619912,-3.394631
900,1747638512270,1.3980389,2.0738404,0.22245201,-0.20860434,1.9856354,-4.9638977
901,1747638512280,1.56765245,2.1261912,0.197313345,-0.27556847,2.1523966999999997,-5.19571435
902,1747638512290,1.737266,2.178542,0.17217468,-0.3425326,2.319158,-5.427531
903,1747638512300,2.34469475,2.1259319999999997,0.19658159,-0.5463265,2.8573909,-6.371366
904,1747638512310,2.734801375,1.97798885,0.145214265,-0.5833973,3.0149894,-6.7827715
905,1747638512320,3.124908,1.8300457,0.09384694,-0.6204681,3.1725879,-7.194177
906,1747638512330,3.4058087,1.3270591,0.117506854,-0.6216898,3.7657206,-8.1135025
907,1747638512340,3.410321,0.9552539,0.27321715199999996,-0.3095468496,3.90835345,-8.5814495
908,1747638512350,3.4148333,0.5834487,0.42892745,0.0025961008,4.0509863,-9.0493965
909,1747638512360,2.9050171,-0.63336015,0.29736492,2.022668,2.9264164,-9.649249
910,1747638512370,2.7655424999999996,-0.8289660249999999,0.1621741015,2.2644108000000003,2.5659783999999997,-9.5435725
911,1747638512380,2.6260679,-1.0245719,0.026983283,2.5061536,2.2055404,-9.437896
912,1747638512390,2.32943475,-1.1915024,-0.1976639685,2.3519528000000003,1.99663065,-8.98342525
913,1747638512400,2.0328016,-1.3584329,-0.42231122,2.197752,1.7877209,-8.5289545
914,1747638512410,1.3838917,-1.5663719,-0.40865192,1.4438138,2.0564938,-7.4220233
915,1747638512420,1.025136025,-1.5700307,-0.323967085,0.7506167215,1.98044325,-6.2097586499999995
916,1747638512430,0.66638035,-1.5736895,-0.23928225,0.057419643,1.9043927,-4.997494
917,1747638512440,0.46798465,-1.7013187,0.058692448,-1.1581664,2.059548,-3.0366745
918,1747638512450,0.252606215,-1.76318215,0.300794974,-1.3238969,2.01648325,-2.36256635
919,1747638512460,0.03722778,-1.8250456,0.5428975,-1.4896274,1.9734185,-1.6884582
920,1747638512470,-0.19802985,-1.8028492,0.6568676,-1.2074159,1.358906,-0.71965444
921,1747638512480,-0.353237075,-1.7611089,0.5255642,-0.8469397,0.6625019885,0.27667562999999995
922,1747638512490,-0.5084443,-1.7193686,0.3942608,-0.4864635,-0.033902023,1.2730057
923,1747638512500,-0.28297383,-1.4582559,-0.07283961,-0.22601348,-1.2519314,4.524011
924,1747638512510,-0.12994660749999998,-1.451914,-0.14532858999999998,-0.29580279,-1.4287717,5.043574749999999
925,1747638512520,0.023080615,-1.4455721,-0.21781757,-0.3655921,-1.605612,5.5631385
926,1747638512530,0.9726482,-1.4326141,-0.36642382,-0.7046123,-1.9544058,6.737187
927,1747638512540,0.9726482,-1.4326141,-0.36642382,-0.7046123,-1.9544058,6.737187
928,1747638512550,1.7540963,-1.1734526,-0.3298363,-0.112624966,-2.8939652,6.872795
929,1747638512560,1.7764909,-1.1245854375,-0.34856453500000006,0.189248117,-3.1343335999999997,6.78300065
930,1747638512570,1.7988855,-1.075718275,-0.36729277000000005,0.4911212,-3.374702,6.6932063
931,1747638512580,1.8422111,-0.7861435,-0.5423792,0.95964104,-3.7155547,6.569815
932,1747638512590,1.7483642000000001,-0.5407633000000001,-0.9413963999999999,1.16809272,-3.78458045,6.58508625
933,1747638512600,1.6545173,-0.2953831,-1.3404136,1.3765444,-3.8536062,6.6003575
934,1747638512610,1.595459,0.035306938,-1.5910685,1.3765444,-3.8536062,6.6003575
935,1747638512620,1.8459767,0.134154159,-1.4791717,0.2475077000000001,-3.4269294500000003,7.0533006
936,1747638512630,2.0964944,0.23300138,-1.3672749,-0.881529,-3.0002527,7.5062437
937,1747638512640,2.5631068,1.0790873,-0.77666116,-1.3089694,-3.3417163,6.637008
938,1747638512650,2.5754398,1.2809284,-0.65269053,-1.22639045,-3.41471255,6.427792999999999
939,1747638512660,2.5877728,1.4827695,-0.5287199,-1.1438115,-3.4877088,6.218578
940,1747638512670,2.533593,1.7756219,-0.35837457,-0.8734352,-3.4437277,5.6730914
941,1747638512680,2.3492072000000004,1.9119103,-0.252331805,-0.7681404000000001,-3.2183251000000004,5.2818055
942,1747638512690,2.1648214,2.0481987,-0.14628904,-0.6628456,-2.9929225,4.8905196
943,1747638512700,1.7653164,2.444289,0.3676739,-0.51021016,-2.5194395,4.463537
944,1747638512710,1.7653164,2.444289,0.3676739,-0.36498123,-2.345959,4.4818625
945,1747638512720,1.571555,3.2684531,0.7637641,-0.14813046,-2.0832946,4.5539427
946,1747638512730,2.0188983,3.6833248000000003,0.75289453,-0.07555417019999999,-1.7406093,4.24790825
947,1747638512740,2.4662416,4.0981965,0.74202496,-0.0029778804,-1.397924,3.9418738
948,1747638512750,3.4345908,4.3686085,0.80230296,-0.2727433,-0.47982052,2.4703426
949,1747638512760,3.2830422,4.27611825,1.0645286299999999,-0.07181272500000002,-0.0033214849999999574,0.8264763149999999
950,1747638512770,3.1314936,4.183628,1.3267543,0.12911785,0.47317755,-0.81738997
951,1747638512780,1.5847266,3.5742328,1.0539334,1.663108,1.0931876,-3.4917557
952,1747638512790,1.490773,3.43561185,0.83282295,1.7441216000000002,1.1646567,-3.64385665
953,1747638512800,1.3968194,3.2969909,0.6117125,1.8251352,1.2361258,-3.7959576
954,1747638512810,1.8038857,2.8823633,-0.34837398,1.00576,1.6001908,-4.2351565
955,1747638512820,1.9409212,2.80719125,-0.42659502000000005,0.69048647,1.709227,-4.366183250000001
956,1747638512830,2.0779567,2.7320192,-0.50481606,0.37521294,1.8182632,-4.49721
957,1747638512840,2.644636,2.0481987,-0.52530503,-1.4709965,2.4541552,-6.011577
958,1747638512850,2.644636,2.0481987,-0.52530503,-1.4709965,2.4541552,-6.011577
959,1747638512860,2.6099694,1.8031846,-0.4018222,-1.8267387,2.7846236,-6.435505
960,1747638512870,2.4911210500000003,1.4149148999999999,-0.21072874600000002,-1.90305645,3.1349827,-6.7830770000000005
961,1747638512880,2.3722727,1.0266452,-0.019635292,-1.9793742,3.4853418,-7.130649
962,1747638512890,2.2497654,0.5290248,0.13509935,-1.3027081,3.8872793,-7.475167
963,1747638512900,2.1930243,0.19894455,0.156198145,-0.70579581,3.798401,-7.5878683
964,1747638512910,2.1362832,-0.1311357,0.17729694,-0.10888352,3.7095227,-7.7005696
965,1747638512920,2.03755785,-0.5795612649999999,-0.046969204,1.0226346,3.5708604,-7.871607
966,1747638512930,1.943299375,-0.7483744475,-0.121645817,1.25315315,3.4526614,-7.872828500000001
967,1747638512940,1.8490409,-0.91718763,-0.19632243,1.4836717,3.3344624,-7.87405
968,1747638512950,1.7084533,-1.067044,-0.36983865,1.63882685,3.13532625,-7.727447
969,1747638512960,1.5969224,-1.1590463,-0.42767740499999995,1.541320325,3.135326325,-7.511818
970,1747638512970,1.4853915,-1.2510486,-0.48551616,1.4438138,3.1353264,-7.296189
971,1747638512980,1.1317734,-1.5085331,-0.34008083,0.9820897,2.639242,-6.2724085
972,1747638512990,1.0937071,-1.541843,-0.24844438000000002,0.87618405,2.4489631,-6.00455225
973,1747638513000,1.0556408,-1.5751529,-0.15680793,0.7702784,2.2586842,-5.736696
974,1747638513010,0.7266582,-1.629089,-0.012073875,0.3733804,1.9080578,-4.96573
975,1747638513020,0.46260318500000003,-1.5904129999999999,0.1286203125,0.280837035,1.95478755,-4.47735765
976,1747638513030,0.19854817,-1.551737,0.2693145,0.18829367,2.0015173,-3.9889853
977,1747638513040,-0.25538075,-1.5109723,0.4672224,0.38208497,1.8940083,-3.0806553
978,1747638513050,-0.25538075,-1.5109723,0.4672224,0.6543701,1.6203487,-2.284645
979,1747638513060,-0.29029134,-1.5275586,0.31251824,0.9746068,1.09502,-1.1020448
980,1747638513070,-0.120433862,-1.50193215,0.011235419999999996,0.6910973149999999,0.78287709,0.25743395
981,1747638513080,0.049423616,-1.4763057,-0.2900474,0.40758783,0.47073418,1.6169127
982,1747638513090,0.18391317,-1.4841111,-0.34227607,-0.060932014,0.37605286,2.29984
983,1747638513100,0.31446957499999995,-1.55599025,-0.314942155,-0.5537712570000001,0.16343982699999998,2.9727263500000003
984,1747638513110,0.44502598,-1.6278694,-0.28760824,-1.0466105,-0.049173206,3.6456127
985,1747638513120,0.33934906,-1.5285343,0.027958948,-1.487184,-1.33745,5.842296
986,1747638513130,0.4467334,-1.5268269,0.007454703,-1.45072405,-1.5995035,6.4629168
987,1747638513140,0.55411774,-1.5251195,-0.013049542,-1.4142641,-1.861557,7.0835376
988,1747638513150,0.99339635,-1.52414385,-0.031114620000000003,-1.2522368,-2.1834736,9.339473
989,1747638513160,1.6769779000000002,-1.494945,-0.07593939,-0.9899288333333334,-2.636136866666667,10.036271666666668
990,1747638513170,2.3605594500000002,-1.46574615,-0.12076415999999998,-0.7276208666666667,-3.0888001333333333,10.733070333333334
991,1747638513180,3.044141,-1.4365473,-0.16558893,-0.4653129,-3.5414634,11.429869000000002
992,1747638513190,3.6707324999999997,-1.2062747,-0.545443395,-0.4762318,-3.66149485,11.1079525
993,1747638513200,4.297324,-0.9760021,-0.92529786,-0.4871507,-3.7815263,10.786036
994,1747638513210,4.0457087,-0.27815649,-0.89503698,-1.06505035,-3.5820846499999996,10.206609
995,1747638513220,3.7940934,0.41968912,-0.8647761,-1.64295,-3.382643,9.627182
996,1747638513230,3.760128083333333,0.8050774599999999,-0.7376649983333333,-2.27713675,-3.0028869,9.849224833333333
997,1747638513240,3.7261627666666666,1.1904658,-0.6105538966666666,-2.9113235,-2.6231308,10.071267666666666
998,1747638513250,4.069825883333333,1.3780986999999998,-0.1703757833333333,-3.05753225,-2.3300005,9.384675333333334
999,1747638513260,4.413489,1.5657316,0.26980233,-3.203741,-2.0368702,8.698083
1000,1747638513270,4.1087914,1.9743834999999998,0.906394365,-2.1522821,-2.1214725999999997,7.0655555
1001,1747638513280,3.8040938,2.3830354,1.5429864,-1.1008232,-2.206075,5.433028
