id,timestamp,acc_x,acc_y,acc_z,gyro_x,gyro_y,gyro_z
0,1747638666370,0.041130446,0.53585446,0.8948083,-0.15752223,-0.30023143,0.05314371
1,1747638666380,-0.005488126999999995,0.51876503,0.82573415,-0.110162481,-0.530826265,0.0667350635
2,1747638666390,-0.0521067,0.5016756,0.75666,-0.062802732,-0.7614211,0.08032641700000001
3,1747638666400,0.056009363,0.48947978,0.7581235,-0.01733279,-0.97155255,0.16309622
4,1747638666410,0.1311814315,0.485821025,0.74373245,0.0044668204999999996,-0.904359375,0.07513421399999999
5,1747638666420,0.2063535,0.48216227,0.7293414,0.026266431,-0.8371662,-0.012827792
6,1747638666430,0.14656343,0.45777062,0.7730329,0.060550235,-0.7345438,-0.32810134
7,1747638666440,0.14656343,0.45777062,0.7730329,0.060550235,-0.7345438,-0.32810134
8,1747638666450,0.026739366,0.471186,0.69272333,0.092314295,-0.8842014,-0.47409382
9,1747638666460,-0.011586042,0.49704117,0.61585915,0.18768282,-1.3521104,-0.6903338
10,1747638666470,-0.011586042,0.49704117,0.61585915,0.18768282,-1.3521104,-0.6903338
11,1747638666480,-0.013049542,0.50118774,0.44673342,-0.088954635,-1.3105727,-0.09590302
12,1747638666490,-0.050856624,0.54341584,0.36084422,-0.2578539,-0.9422319,0.46851984
13,1747638666500,-0.050856624,0.54341584,0.36084422,-0.2578539,-0.9422319,0.46851984
14,1747638666510,-0.0071955416,0.45655105,0.51213354,-0.4298074,-0.8176191,0.9535326
15,1747638666520,0.030763989199999994,0.387720795,0.53544282,-0.603020775,-1.1230427,1.08914065
16,1747638666530,0.06872352,0.31889054,0.5587521,-0.77623415,-1.4284663,1.2247487
17,1747638666540,0.48554665,0.42432353,0.6690634,-0.89275324,-2.7895103,0.6810947
18,1747638666550,0.531799345,0.401746005,0.64660782,-0.9048938449999999,-2.9058767999999997,0.5931327
19,1747638666560,0.57805204,0.37916848,0.62415224,-0.91703445,-3.0222433,0.5051707
20,1747638666570,0.6175665,0.32693982,0.5714358,-0.9943066,-1.8249062,0.3268033
21,1747638666580,0.58474447,0.34866364,0.6091514,-0.95240631,-1.59690745,0.09529218500000003
22,1747638666590,0.55192244,0.37038746,0.646867,-0.9105060199999999,-1.3689087,-0.13621893
23,1747638666600,0.32325056,0.38453463,0.46161228,-0.9600228,-2.049087,-0.44599485
24,1747638666610,0.266875325,0.38258329,0.37265894,-1.13823745,-2.4739695,-0.38857521
25,1747638666620,0.21050009,0.38063195,0.2837056,-1.3164521,-2.898852,-0.33115557
26,1747638666630,0.20147517,0.29498672,0.19123067,-1.7700826,-3.2830749,0.015882028
27,1747638666640,0.22002808000000001,0.250441445,0.182434425,-1.9071414999999998,-3.2815478000000002,0.126445384
28,1747638666650,0.23858099,0.20589617,0.17363818,-2.0442004,-3.2800207,0.23700874
29,1747638666660,0.3971878,0.08290118,0.25077683,-2.3482497,-3.0973773,0.41904122
30,1747638666670,0.3971878,0.08290118,0.25077683,-2.3482497,-3.0973773,0.41904122
31,1747638666680,0.43161055,-0.13089179,0.33764166,-2.2348611,-2.8121116,-0.03970507
32,1747638666690,0.418667725,-0.176763365,0.35546282,-2.1432721499999996,-2.7385045000000003,-0.120031485
33,1747638666700,0.4057249,-0.22263494,0.37328398,-2.0516832,-2.6648974,-0.2003579
34,1747638666710,0.21342708,-0.37614998,0.44819686,-1.9756328,-2.6038127,-0.46676368
35,1747638666720,-0.014025204999999985,-0.40409368,0.573631005,-1.8427735,-2.884649725,-0.37221597250000005
36,1747638666730,-0.24147749,-0.43203738,0.69906515,-1.7099142,-3.16548675,-0.277668265
37,1747638666740,-0.24147749,-0.43203738,0.69906515,-1.2965233,-3.5603995,0.4379775
38,1747638666750,-0.26332327499999997,-0.49194942,0.655876675,-1.1504163,-3.54146325,0.7589777500000001
39,1747638666760,-0.28516906,-0.55186146,0.6126882,-1.0043093,-3.522527,1.079978
40,1747638666770,0.21245141,-0.63360405,0.42819571,-1.0721897,-3.2103841,2.2973967
41,1747638666780,0.34302305499999997,-0.638619575,0.369381305,-1.2697224,-3.0958502,2.43487535
42,1747638666790,0.4735947,-0.6436351,0.3105669,-1.4672551,-2.9813163,2.572354
43,1747638666800,0.86358696,-0.55137366,0.304469,-2.4940894,-2.2567751,2.8392944
44,1747638666810,1.13410583,-0.39823971,0.36340534999999996,-3.2321074000000003,-1.5930895999999999,2.83959985
45,1747638666820,1.4046247,-0.24510576,0.4223417,-3.9701254,-0.9294041,2.8399053
46,1747638666830,1.6804029,-0.10842097,0.55777645,-3.9701254,-0.9294041,2.8399053
47,1747638666840,1.7637462,0.06021692499999998,0.806708625,-4.4823209,0.08952735,2.3117896499999997
48,1747638666850,1.8470895,0.22885482,1.0556408,-4.9945164,1.1084588,1.783674
49,1747638666860,2.05842805,0.38296441000000003,1.3103051,-4.8290913,0.8885537299999999,1.2381874
50,1747638666870,2.2697666,0.537074,1.5649694,-4.6636662,0.66864866,0.6927008
51,1747638666880,2.4147444,0.8235847,1.9988667,-4.3564863,0.006413896,-0.026266431
52,1747638666890,2.4881938999999997,1.07811935,2.19374085,-3.78603135,-0.655133702,-0.7529074655
53,1747638666900,2.5616434,1.332654,2.388615,-3.2155764,-1.3166813,-1.4795485
54,1747638666910,2.6980844,1.4134362,2.120398,-2.475382,1.6142403,-2.588236
55,1747638666920,2.6335227,1.4097774,2.13614595,-2.5975134000000004,2.40104965,-2.8213125000000003
56,1747638666930,2.568961,1.4061186,2.1518939,-2.7196448,3.187859,-3.054389
57,1747638666940,2.2224164,1.396362,2.8042185,-2.8043997,4.0143356,-3.8008444
58,1747638666950,2.3733703000000004,1.17537345,3.45289955,-1.649173035,2.69669985,-4.0870262
59,1747638666960,2.5243242,0.9543849,4.1015806,-0.49394637,1.3790641,-4.373208
60,1747638666970,2.6043591,0.87191063,4.1935983,-0.11392301,1.007058,-4.490491
61,1747638666980,2.71503635,0.641897215,4.16650845,1.214516995,0.018974400000000058,-4.977947
62,1747638666990,2.8257136,0.4118838,4.1394186,2.542957,-0.9691092,-5.465403
63,1747638667000,2.9760275,0.12025091,3.5942037,3.9511127,-0.40774053,-5.963931
64,1747638667010,2.9760275,0.12025091,3.5942037,3.9511127,-0.40774053,-5.963931
65,1747638667020,3.3760202,-0.2399835,3.5336819,4.775451,1.3356938,-6.33105
66,1747638667030,3.39054845,-0.34418165,3.49329845,5.00661865,1.42365585,-6.4501653
67,1747638667040,3.4050767,-0.4483798,3.452915,5.2377863,1.5116179,-6.5692806
68,1747638667050,3.1497874,-0.6875401,2.647807,5.921935,1.4010545,-6.7824664
69,1747638667060,3.10196445,-0.65362045,2.4879499999999997,5.842181500000001,1.2758308,-6.727795349999999
70,1747638667070,3.0541415,-0.6197008,2.328093,5.762428,1.1506071,-6.6731243
71,1747638667080,3.0971014,-0.67046595,1.9507846,4.9580183,1.1188431,-6.8215604
72,1747638667090,2.9889854,-0.777972225,1.66866445,4.6545799,1.36379285,-6.9538087
73,1747638667100,2.8808694,-0.8854785,1.3865443,4.3511415,1.6087426,-7.086057
74,1747638667110,1.5561883,-0.8525193,1.358006,3.2862818,1.4047196,-6.8844776
75,1747638667120,1.3638753000000001,-0.84995815,1.3591037,3.28719815,1.20222375,-6.63067055
76,1747638667130,1.1715623,-0.847397,1.3602014,3.2881145,0.9997279,-6.3768635
77,1747638667140,0.712755,-0.8698678,0.95508623,3.8127558,0.5721348,-5.2992525
78,1747638667150,0.66369725,-0.8719410999999999,0.819514265,3.9146527000000004,0.51532601,-5.12119055
79,1747638667160,0.6146395,-0.8740144,0.6839423,4.0165496,0.45851722,-4.9431286
80,1747638667170,0.6866255,-0.8200783,0.015763115,3.8265,0.079715565,-4.5405803
81,1747638667180,0.6866255,-0.8200783,0.015763115,3.8265,0.079715565,-4.5405803
82,1747638667190,0.77791125,-0.69659555,-0.39182165,2.359092,0.5605287,-4.654809
83,1747638667200,0.745455075,-0.684384425,-0.364975575,2.09367895,0.75661065,-4.6884055
84,1747638667210,0.7129989,-0.6721733,-0.3381295,1.8282659,0.9526926,-4.722002
85,1747638667220,0.44746515,-0.5972604,-0.043081783,1.0101123,1.7779473,-4.6517544
86,1747638667230,0.41525289499999996,-0.5805369,-0.012683667499999999,0.9442362400000001,1.8283421999999998,-4.5329447
87,1747638667240,0.38304064,-0.5638134,0.017714448,0.87836018,1.8787371,-4.414135
88,1747638667250,0.33886123,-0.50060844,0.28590083,0.94162107,1.4725237,-4.1392536
89,1747638667260,0.39999284,-0.46485942,0.24100492,0.9762102850000001,1.24437225,-4.0476266
90,1747638667270,0.46112445,-0.4291104,0.19610901,1.0107995,1.0162208,-3.9559996
91,1747638667280,0.6270793,-0.3924924,0.16388151,0.78333527,1.1286167,-3.6725664
92,1747638667290,0.66699014,-0.39730976,0.2488102375,0.7718055349999999,1.3644037500000001,-3.49236645
93,1747638667300,0.70690098,-0.40212712,0.333738965,0.7602758,1.6001908,-3.3121665
94,1747638667310,0.70592535,-0.4247199,0.5560691,0.95719767,1.6050775,-3.1899972
95,1747638667320,0.666990125,-0.45644430999999996,0.6503886,1.405826835,1.4398433499999999,-3.0552671
96,1747638667330,0.6280549,-0.48816872,0.7447081,1.854456,1.2746092,-2.920537
97,1747638667340,0.5716797,-0.5335677,0.65979457,2.8127224,0.6008446,-2.7470565
98,1747638667350,0.5716797,-0.5335677,0.65979457,2.8127224,0.6008446,-2.7470565
99,1747638667360,0.56094736,-0.57896674,0.45380697,3.3385856,0.32474166,-2.6444342
100,1747638667370,0.49176648,-0.57553667,0.161930185,3.43830645,0.44080263,-2.5219593
101,1747638667380,0.4225856,-0.5721066,-0.1299466,3.5380273,0.5568636,-2.3994844
102,1747638667390,0.038203448,-0.5333238,-0.5631426,2.4662957,1.9532604,-1.5662887
103,1747638667400,-0.11127174100000001,-0.5252593,-0.6699018800000001,2.13918705,2.3435918,-1.27583083
104,1747638667410,-0.26074693,-0.5171948,-0.77666116,1.8120784,2.7339232,-0.98537296
105,1747638667420,-0.94285995,-0.393712,-0.89307034,0.44187164,4.8456984,0.44652936
106,1747638667430,-1.4367531,-0.3861505825,-0.9527994799999999,-0.11545012999999993,6.040248399999999,1.27147853
107,1747638667440,-1.9306462500000001,-0.378589165,-1.0125286199999999,-0.6727719,7.2347984,2.0964277
108,1747638667450,-2.1894572,-0.5867721,-0.9131021,-1.9376838,9.614125,5.1086683
109,1747638667460,-2.0557145500000003,-0.6464402,-0.8877195,-2.1139896,9.565562499999999,5.56802565
110,1747638667470,-1.9219719,-0.7061083,-0.8623369,-2.2902954,9.517,6.027383
111,1747638667480,-0.046953958,-0.63116485,-0.66122764,-2.176296,9.210966,5.814197
112,1747638667490,0.16755550600000002,-0.410923355,-0.65134897,-1.6092770499999998,8.570149,4.9189622
113,1747638667500,0.38206497,-0.19068186,-0.6414703,-1.0422581,7.929332,4.0237274
114,1747638667510,0.35279498,0.056558177,-1.4509689,0.8543463,5.376525,1.5729316
115,1747638667520,0.35279498,0.056558177,-1.4509689,0.8543463,5.376525,1.5729316
116,1747638667530,-0.6046084,0.16955258,-2.9865158,1.6145457,3.4187593,0.9620844
117,1747638667540,-0.5318907500000001,0.121470505,-3.2519124,1.4325895499999999,3.20954415,1.3148487
118,1747638667550,-0.4591731,0.07338843,-3.517309,1.2506334,3.000329,1.667613
119,1747638667560,0.5001817,-0.091102876,-3.718906,-0.45531029,2.3881838,2.3212197
120,1747638667570,0.8575958,-0.164567533,-3.50243,-1.1136127450000002,2.1334604500000003,2.1327733
121,1747638667580,1.2150099,-0.23803219,-3.285954,-1.7719152,1.8787371,1.9443269
122,1747638667590,1.543962,-0.313189,-2.7358913,-2.599995,1.5684267,1.2021474
123,1747638667600,1.5141889499999999,-0.28561117,-2.2375391000000002,-2.7520195999999997,1.18664715,0.8829797
124,1747638667610,1.4844159,-0.25803334,-1.7391869,-2.9040442,0.8048676,0.563812
125,1747638667620,1.4400231,-0.3588319,-1.7355281,-3.1271563,-1.4559544,0.1368298
126,1747638667630,1.5181068999999998,-0.500013925,-1.77665855,-3.55551295,-1.7012095999999999,-0.13656254
127,1747638667640,1.5961907,-0.64119595,-1.817789,-3.9838696,-1.9464648,-0.40995488
128,1747638667650,1.4544141,-1.2476337,-1.4045942,-6.2082696,-1.7522154,-1.7660358
129,1747638667660,1.1049425149999998,-1.60163305,-0.641592335,-7.2478938,-1.2882769,-2.3084681
130,1747638667670,0.75547093,-1.9556324,0.12140953,-8.287518,-0.8243384,-2.8509004
131,1747638667680,0.69641256,-2.2401917,0.60634637,-8.248881,-0.74553907,-2.8985467
132,1747638667690,0.63930558,-2.283746,0.8291642850000001,-7.792769250000001,-1.073869485,-2.8423486999999996
133,1747638667700,0.5821986,-2.3273003,1.0519822,-7.3366575,-1.4021999,-2.7861507
134,1747638667710,0.35279498,-2.2013786,1.0529578,-6.1067166,-2.1669807,-2.300527
135,1747638667720,0.35279498,-2.2013786,1.0529578,-6.1067166,-2.1669807,-2.300527
136,1747638667730,0.3559659,-2.0634742,0.84184796,-5.452499,-2.6325226,-1.8149036
137,1747638667740,0.44479729999999995,-2.0958236,0.616834805,-5.224424000000001,-2.9761242,-1.5833925
138,1747638667750,0.5336287,-2.128173,0.39182165,-4.996349,-3.3197258,-1.3518814
139,1747638667760,0.4745704,-2.3090067,0.041618284,-6.1160316,-4.155365,-0.95483065
140,1747638667770,0.476765635,-2.35024395,0.08799294199999999,-6.36464665,-4.24821375,-0.84335101
141,1747638667780,0.47896087,-2.3914812,0.1343676,-6.6132617,-4.3410625,-0.73187137
142,1747638667790,0.35986856,-2.4249282,0.61000514,-7.008327,-4.6605353,-0.28037888
143,1747638667800,0.352535815,-2.3896669,0.80780632,-6.5677915,-4.8963224499999995,0.23181653000000002
144,1747638667810,0.34520307,-2.3544056,1.0056075,-6.127256,-5.1321096,0.74401194
145,1747638667820,0.5189632,-2.4500515,0.9245661,-5.80198,-5.449216,1.2070342
146,1747638667830,0.58132965,-2.4949626499999997,0.9123703,-5.8287809,-5.67095335,1.3881504
147,1747638667840,0.6436961,-2.5398738,0.9001745,-5.8555818,-5.8926907,1.5692666
148,1747638667850,1.1059182,-2.7951326,1.3057774,-6.0755634,-6.443064,2.075659
149,1747638667860,1.1655863000000002,-2.7745217,1.5251804500000001,-6.04410455,-6.56279,2.3417211499999997
150,1747638667870,1.2252544,-2.7539108,1.7445835,-6.0126457,-6.682516,2.6077833
151,1747638667880,1.4495358,-2.4498076,2.049388,-4.9471755,-6.2103314,3.9143856
152,1747638667890,1.4495358,-2.4498076,2.049388,-4.9471755,-6.2103314,3.9143856
153,1747638667900,2.027923,-1.7838235,2.1562843,-4.8337107,-5.75525,5.4281416
154,1747638667910,2.32565385,-1.7562457,2.2584244,-4.88013505,-5.717072,5.5567248
155,1747638667920,2.6233847,-1.7286679,2.3605645,-4.9265594,-5.678894,5.685308
156,1747638667930,3.4228826,-1.4104177,2.8789182,-5.9951606,-5.372249,5.1043925
157,1747638667940,3.5973744500000002,-0.981261535,3.7721257500000003,-6.235681550000001,-4.1074515,4.5362663
158,1747638667950,3.7718663,-0.55210537,4.6653333,-6.4762025,-2.842654,3.9681401
159,1747638667960,4.074262,-0.5467392,5.285217,-5.894218,-2.1382709,3.7225795
160,1747638667970,4.467349125,-0.48188023999999996,5.72864225,-5.1468463,-2.0939844,3.4877087500000004
161,1747638667980,4.86043625,-0.41702128,6.1720675,-4.3994746,-2.0496979,3.252838
162,1747638667990,5.5399876,0.140496,6.008064,-2.0934498,-1.6557015,1.5466653
163,1747638668000,5.5969728,0.2476364,5.94424925,-1.909623,-1.19878775,1.03691325
164,1747638668010,5.653958,0.3547768,5.8804345,-1.7257962,-0.741874,0.5271612
165,1747638668020,5.4904423,0.38794947,6.1025205,-1.2622395,0.54403585,-1.2205492
166,1747638668030,4.7217084499999995,0.30962173000000004,6.218076249999999,0.019432600000000022,1.115788925,-2.13655285
167,1747638668040,3.9529746,0.23129399,6.333632,1.3011047,1.687542,-3.0525565
168,1747638668050,3.64131,0.07851068,5.9314437,3.0538545,2.2318068,-3.2425299
169,1747638668060,3.519839475,-0.1312500375,5.3265759500000005,3.9478295,2.29411325,-3.44487305
170,1747638668070,3.39836895,-0.341010755,4.7217082,4.8418045,2.3564197,-3.6472162
171,1747638668080,3.22156,-0.9813987,3.2105532,6.136877,1.6331764,-4.5637927
172,1747638668090,3.22156,-0.9813987,3.2105532,6.136877,1.6331764,-4.5637927
173,1747638668100,2.8081212,-1.2244617,2.439868,6.125653,0.51715857,-5.602233
174,1747638668110,2.6561,-1.2242178,2.0230448,6.058383,0.75905406,-5.8399286
175,1747638668120,2.6561,-1.2242178,2.0230448,6.058383,0.75905406,-5.8399286
176,1747638668130,2.385932,-1.2451947,1.1273829,5.2358775,2.2171464,-6.034789
177,1747638668140,2.247677,-1.21639725,1.06161685,4.9128155499999995,2.73945905,-5.9810345
178,1747638668150,2.109422,-1.1875998,0.9958508,4.5897536,3.2617717,-5.92728
179,1747638668160,2.0618277,-1.2622688,1.1381152,4.5317993,4.261729,-5.630332
180,1747638668170,2.1539671499999997,-1.37514125,1.1264072,5.1499004500000005,4.00456215,-5.8511915000000005
181,1747638668180,2.2461066,-1.4880137,1.1146992,5.7680016,3.7473953,-6.072051
182,1747638668190,2.1577477,-1.6125026,0.8603856,6.368006,3.321024,-6.551566
183,1747638668200,2.091128,-1.6734436750000001,0.645144375,6.5580560000000006,3.0545227500000003,-6.836068
184,1747638668210,2.0245083,-1.73438475,0.42990315,6.748106,2.7880215,-7.12057
185,1747638668220,1.8536752,-1.8126059,0.0123177925,6.3748784,2.3558087,-7.60711
186,1747638668230,1.6872326000000002,-1.743303,-0.10226207375000002,5.8430976999999995,2.306941,-7.5396113499999995
187,1747638668240,1.52079,-1.6740001,-0.21684194,5.311317,2.2580733,-7.4721127
188,1747638668250,1.481001,-1.5985688,-0.18339485,4.4988136,2.2806747,-7.2338824
189,1747638668260,1.4363489999999999,-1.50424935,-0.034285542,3.8557824,2.39948435,-6.9568632
190,1747638668270,1.391697,-1.4099299,0.114823766,3.2127512,2.518294,-6.679844
191,1747638668280,1.4116982,-1.3763760999999999,0.313600603,3.0585504,2.50424465,-6.50269825
192,1747638668290,1.4316994,-1.3428223,0.51237744,2.9043496,2.4901953,-6.3255525
193,1747638668300,1.4668539,-1.192722,0.8233102,3.324918,2.0607696,-6.0421195
194,1747638668310,1.4390931249999999,-1.1461720249999998,0.7960982674999999,3.540508925,1.874003025,-5.906950325
195,1747638668320,1.41133235,-1.0996220499999998,0.7688863349999999,3.75609985,1.6872364499999999,-5.77178115
196,1747638668330,1.4434378,-1.0287185,0.64342165,3.9330165,1.2385691,-5.4165354
197,1747638668340,1.4148844,-1.00615625,0.656852325,3.92179215,1.0479848,-5.3218542
198,1747638668350,1.386331,-0.983594,0.670283,3.9105678,0.8574005,-5.227173
199,1747638668360,1.037591,-0.9503909,0.7998637,4.1610913,0.0723854,-4.5564623
200,1747638668370,0.87066055,-1.00371715,0.49408367999999997,4.658283,0.032069481000000004,-4.11054385
201,1747638668380,0.7037301,-1.0570434,0.18830366,5.1554747,-0.008246438,-3.6646254
202,1747638668390,0.7037301,-1.0570434,0.18830366,5.1554747,-0.008246438,-3.6646254
203,1747638668400,0.22319900250000002,-1.095292575,-0.21834352999999998,5.044415025,0.484134656,-3.598959325
204,1747638668410,-0.257332095,-1.13354175,-0.62499072,4.93335535,0.97651575,-3.53329325
205,1747638668420,-1.0585374,-1.2242178,-1.28477,4.113751,1.9618124,-3.2046573
206,1747638668430,-1.27062295,-1.3453834,-1.4176589,3.8373806999999998,2.1890475499999997,-3.10631095
207,1747638668440,-1.4827085,-1.466549,-1.5505478,3.5610104,2.4162827,-3.0079646
208,1747638668450,-2.5035303,-1.9153557,-1.59863,2.2008827,2.8305135,-2.5027175
209,1747638668460,-2.8569198,-2.2228584500000004,-1.7941139000000002,2.36565875,2.7018918999999997,-1.89278655
210,1747638668470,-3.2103093,-2.5303612,-1.9895978,2.5304348,2.5732703,-1.2828556
211,1747638668480,-3.3811426,-2.5408494,-2.3058662,2.5983915,2.343592,-0.58710057
212,1747638668490,-3.3811426,-2.5408494,-2.3058662,2.5983915,2.343592,-0.58710057
213,1747638668500,-3.2364082,-2.704609,-2.934287,2.3055665,2.2770095,0.907719
214,1747638668510,-2.928189,-2.673113,-3.0990222,1.3578371,1.9715859,2.1660643
215,1747638668520,-2.928189,-2.673113,-3.0990222,1.3578371,1.9715859,2.1660643
216,1747638668530,-2.4498382,-2.6128354,-2.9911501,0.4381302,1.7681737,3.1893098
217,1747638668540,-1.81312415,-2.50581695,-2.71049345,-0.40239565,1.51742095,4.0249489
218,1747638668550,-1.1764101,-2.3987985,-2.4298368,-1.2429215,1.2666682,4.860588
219,1747638668560,0.41526812,-1.9966103,-1.4914895,-2.9103055,-0.22021043,5.5307636
220,1747638668570,1.0578362,-1.8780059,-1.0680501,-3.5196257,-0.98438036,5.4666247
221,1747638668580,1.0578362,-1.8780059,-1.0680501,-3.5196257,-0.98438036,5.4666247
222,1747638668590,1.4258454,-1.6107953,-0.6531784,-4.148951,-1.2391037,4.737197
223,1747638668600,1.6699146,-1.4245648,-0.21168917,-4.325333,-0.9660549,4.408561
224,1747638668610,1.6699146,-1.4245648,-0.21168917,-4.325333,-0.9660549,4.408561
225,1747638668620,1.3970633,-1.4948739,0.23781876,-4.6287713,0.12499462,3.6865396
226,1747638668630,1.1657083,-1.5131675,0.31471348,-4.671149,0.34245625,3.7476244
227,1747638668640,1.1657083,-1.5131675,0.31471348,-4.671149,0.34245625,3.7476244
228,1747638668650,0.96508676,-1.5585666,0.24318492,-5.3776703,0.055281676,4.10497
229,1747638668660,1.00133888,-1.56771345,0.304209825,-5.54466065,0.038177953,4.100388499999999
230,1747638668670,1.037591,-1.5768603,0.36523473,-5.711651,0.02107423,4.095807
231,1747638668680,1.046372,-1.5595422,0.5936627,-6.058078,0.073607095,3.841084
232,1747638668690,0.9500325500000001,-1.5091429250000001,0.8286688099999999,-5.9851962,0.042453885,3.8074873499999997
233,1747638668700,0.8536931000000001,-1.4587436500000002,1.06367492,-5.9123144,0.011300675,3.7738907
234,1747638668710,0.74665946,-1.3926117,1.1361638,-4.972068,-0.769973,3.8911734
235,1747638668720,0.764968455,-1.394685,1.11431805,-4.8368415,-0.93032035,3.9363761
236,1747638668730,0.78327745,-1.3967583,1.0924723,-4.701615,-1.0906677,3.9815788
237,1747638668740,0.8355061,-1.3830991,0.9745995,-4.3683214,-2.0362594,3.9901307
238,1747638668750,0.8071965000000001,-1.4149454499999998,1.00120165,-4.367061700000001,-2.21737565,4.05121535
239,1747638668760,0.7788869,-1.4467918,1.0278038,-4.365802,-2.3984919,4.1123
240,1747638668770,0.7369028,-1.4611828,1.0953993,-4.318461,-2.5561666,4.3132687
241,1747638668780,0.8226852499999999,-1.47203705,1.0995610999999998,-4.1782715,-2.52466985,4.9553075
242,1747638668790,0.9084677,-1.4828913,1.1037229,-4.038082,-2.4931731,5.5973463
243,1747638668800,1.1879046,-1.4187108,1.0571043,-4.021895,-2.3086972,6.086024
244,1747638668810,1.34532235,-1.3725953,1.0533236000000001,-4.0396475,-2.1840844,6.2045285
245,1747638668820,1.5027401,-1.3264798,1.0495429,-4.0574,-2.0594716,6.323033
246,1747638668830,1.8673345,-1.2271448,1.1556772,-4.03743315,-2.6856282,5.85909415
247,1747638668840,1.95567805,-1.17491615,1.22243415,-4.049287325,-3.222582,5.664386575
248,1747638668850,2.0440216,-1.1226875,1.2891911,-4.0611415,-3.7595358,5.469679
249,1747638668860,2.0558668000000004,-1.10657375,1.3378676999999999,-4.08511725,-3.8490249,5.5750502
250,1747638668870,2.067712,-1.09046,1.3865443,-4.109093,-3.938514,5.6804214
251,1747638668880,2.2094886,-0.8942595,1.560091,-3.968293,-2.858536,6.478799
252,1747638668890,2.5784887999999997,-0.8437382499999999,1.60205995,-3.8823161500000003,-2.4779401,6.63853535
253,1747638668900,2.947489,-0.793217,1.6440289,-3.7963393,-2.0973442,6.7982717
254,1747638668910,2.947489,-0.793217,1.6440289,-3.7041013,-1.7711517,6.737187
255,1747638668920,3.36053905,-0.6756491725,1.6932086,-4.0458514,-1.98342105,6.200099574999999
256,1747638668930,3.7735890999999997,-0.558081345,1.7423883,-4.3876015,-2.1956904,5.66301215
257,1747638668940,3.9336748,-0.005945469,2.220465,-5.555274,-2.5102768,4.9748163
258,1747638668950,3.96491135,0.12767513549999998,2.442673,-5.7179122,-2.00449525,4.9567964
259,1747638668960,3.9961479,0.26129574,2.664881,-5.8805504,-1.4987137,4.9387765
260,1747638668970,4.2379913,0.59930325,3.8072648,-5.6325464,1.01561,4.6376286
261,1747638668980,4.638609150000001,0.866651175,4.4544674,-4.4820155,0.599928405,3.56284285
262,1747638668990,5.039227,1.1339991,5.10167,-3.3314846,0.18424681,2.4880571
263,1747638669000,5.322048,1.4376144,5.193931,-2.1800375,-0.49387002,1.1832111
264,1747638669010,5.322048,1.4376144,5.193931,-2.1800375,-0.49387002,1.1832111
265,1747638669020,5.458977,1.5886598,5.0641065,-1.4809228,-0.44927815,0.22051586
266,1747638669030,5.1380434,1.2057716,5.031391,0.08674031,1.5146722,-1.8778208
267,1747638669040,4.7552622,0.531585905,4.8176135,1.682158855,1.7901642999999998,-2.9917388999999996
268,1747638669050,4.372481,-0.14259979,4.603836,3.2775774,2.0656564,-4.105657
269,1747638669060,4.17919225,-0.48310747,4.2187219,4.097849725,0.9885608499999998,-4.688729824999999
270,1747638669070,3.9859035,-0.82361515,3.8336078000000002,4.91812205,-0.08853470000000008,-5.27180265
271,1747638669080,3.691831,-1.250073,2.4435267,5.5331306,-3.2262661,-6.8148413
272,1747638669090,3.6636435,-1.183941,1.7494618000000002,4.64583695,-2.7977186,-7.24090715
273,1747638669100,3.635456,-1.117809,1.0553969,3.7585433,-2.3691711,-7.666973
274,1747638669110,3.4053206,-1.03922215,1.2015792,3.16006565,-1.43976698,-7.705151
275,1747638669120,3.1751852,-0.9606353,1.3477615,2.561588,-0.51036286,-7.743329
276,1747638669130,2.938952,-0.9120654,1.7924216,2.4986708,2.1640027,-7.294967
277,1747638669140,2.9790915,-0.9678308499999999,1.7134688,3.0117824000000004,2.3741342000000003,-7.2848880000000005
278,1747638669150,3.019231,-1.0235963,1.634516,3.524894,2.5842657,-7.274809
279,1747638669160,3.0578003,-1.2281204,0.80986434,4.8296638,2.427278,-8.063413
280,1747638669170,2.6850195,-1.25886915,0.31579587,4.8679564,2.4724806499999996,-8.622376
281,1747638669180,2.3122387,-1.2896179,-0.1782726,4.906249,2.5176833,-9.181339
282,1747638669190,1.8419673,-1.2215346,-0.36130157,4.5666943,2.4761457,-9.255863
283,1747638669200,1.4923584,-1.1211019,-0.454401505,4.1529597,2.39001635,-8.9476905
284,1747638669210,1.1427495,-1.0206692,-0.54750144,3.7392251,2.303887,-8.639518
285,1747638669220,0.86431867,-0.83422554,-0.6173226,2.9379463,2.415061,-7.613829
286,1747638669230,0.86431867,-0.83422554,-0.6173226,2.9379463,2.415061,-7.613829
287,1747638669240,1.1996127,-0.7146453,-0.9440795,1.7852775,3.1793072,-6.299286
288,1747638669250,1.3056554500000002,-0.73258845,-0.98423425,1.4921090000000001,3.4175377,-6.22170835
289,1747638669260,1.4116982,-0.7505316,-1.024389,1.1989405,3.6557682,-6.1441307
290,1747638669270,1.5005448,-0.86401385,-0.32712275,-0.06215371,4.216526,-6.5961576
291,1747638669280,1.4402669,-0.87547791,-0.13445906800000001,0.08582403499999999,3.9361471,-6.738179799999999
292,1747638669290,1.379989,-0.88694197,0.058204614,0.23380178,3.6557682,-6.880202
293,1747638669300,1.1774163,-0.94087803,0.36084422,1.4332004,2.4046767,-7.115378
294,1747638669310,1.0816332499999999,-0.930130465,0.164994381,1.90051765,1.84269715,-7.1596645
295,1747638669320,0.9858502,-0.9193829,-0.030855458,2.3678349,1.2807176,-7.203951
296,1747638669330,0.9338655,-0.7541904,-0.25855166,2.4469779,0.69186085,-6.8979163
297,1747638669340,0.93910965,-0.700986035,-0.29773079,2.29617495,0.66131851,-6.7400124
298,1747638669350,0.9443538,-0.64778167,-0.33690992,2.145372,0.63077617,-6.5821085
299,1747638669360,1.1081134,-0.466948,-0.1797361,1.2917893,0.88366693,-5.742193
300,1747638669370,1.09870735,-0.48463195000000003,-0.0035367950000000092,1.2061179499999999,0.951470965,-5.60654675
301,1747638669380,1.0893013,-0.5023159,0.17266251,1.1204466,1.019275,-5.4709005
302,1747638669390,0.7981563,-0.80910206,0.8018151,2.3890235,0.5446467,-5.3151345
303,1747638669400,0.5395894,-0.97199268,0.7288535,3.63675555,-0.2088715499999999,-5.16181205
304,1747638669410,0.2810225,-1.1348833,0.6558919,4.8844876,-0.9623898,-5.0084896
305,1747638669420,0.055033702,-1.3093752,0.12945877,5.8552,-1.897597,-4.6572523
306,1747638669430,-0.10877921150000003,-1.3028580500000002,-0.19261794000000004,5.764870999999999,-2.290696275,-4.407873925
307,1747638669440,-0.272592125,-1.2963409000000001,-0.51469465,5.674542,-2.68379555,-4.15849555
308,1747638669450,-0.6475683,-1.0926857,-1.0529273,4.3037243,-2.5420408,-3.3769164
309,1747638669460,-0.83744215,-1.10366195,-1.22766315,2.2245147949999997,-0.7601612000000002,-2.481987
310,1747638669470,-1.027316,-1.1146382,-1.402399,0.14530529,1.0217184,-1.5870576
311,1747638669480,-1.16567775,-1.20529895,-1.21034505,-0.809868905,1.8744611,-1.24681565
312,1747638669490,-1.3040395,-1.2959597,-1.0182911,-1.7650431,2.7272038,-0.9065737
313,1747638669500,-1.8902627,-1.7411077,0.46673456,-2.6522987,3.7351782,-0.28465483
314,1747638669510,-2.0881781999999998,-1.802483225,0.8215189549999999,-0.7179745499999999,2.4102124,-0.255028735
315,1747638669520,-2.2860937,-1.86385875,1.17630335,1.2163496,1.0852466,-0.22540264
316,1747638669530,-2.595304,-1.956852,0.8520924,3.0152185,-0.12980504,-0.4869216
317,1747638669540,-2.8381916,-2.029142825,0.17364582500000003,4.29627975,-1.49875202,-0.63047072
318,1747638669550,-3.0810792,-2.1014336499999997,-0.50480075,5.577341,-2.867699,-0.77401984
319,1747638669560,-3.400168,-1.971487,-1.7562611,4.9486265,-3.167014,-0.0659715
320,1747638669570,-3.2325057,-1.8050443999999999,-1.9544280499999998,3.85326275,-2.6355577500000003,0.779288375
321,1747638669580,-3.0648434,-1.6386018,-2.152595,2.757899,-2.1041015,1.62454825
322,1747638669590,-2.7654052,-1.5756407,-1.9861524,0.84503084,-0.30206397,3.1593783
323,1747638669600,-2.1862861000000002,-1.41822305,-1.6324123,-0.3450523299999999,1.124302615,4.13249615
324,1747638669610,-1.607167,-1.2608054,-1.2786722,-1.5351355,2.5506692,5.105614
325,1747638669620,-1.1193031,-1.0897282,-0.9953324,-1.9339424,2.787067,5.5118275
326,1747638669630,-1.1193031,-1.0897282,-0.9953324,-1.9339424,2.787067,5.5118275
327,1747638669640,-0.21925059,-1.0548481,-0.7708072,-2.2641816,2.8384545,5.693249
328,1747638669650,0.07823628000000002,-1.06692205,-0.675877865,-2.4623061250000005,2.86622895,5.3758948
329,1747638669660,0.37572315,-1.078996,-0.58094853,-2.6604306500000003,2.8940034,5.058540600000001
330,1747638669670,0.5153045,-1.1085403,-0.4045053,-2.7494998,2.7937863,4.8850217
331,1747638669680,0.5547884825,-1.084621225,-0.2459975825,-2.7756708000000003,1.9885369075,4.666491275
332,1747638669690,0.594272465,-1.06070215,-0.087489865,-2.8018418,1.183287515,4.44796085
333,1747638669700,0.48871753,-1.0177423,0.08335852,-2.4734733,0.12743801,4.4659805
334,1747638669710,0.413545465,-1.00786365,0.08262677,-2.3787919000000004,0.0516547715,4.562189099999999
335,1747638669720,0.3383734,-0.997985,0.08189502,-2.2841105,-0.024128467,4.6583977
336,1747638669730,0.29029134,-1.0084735,0.07701669,-2.0909302,-0.14263284,5.5038867
337,1747638669740,0.54446777,-1.07350775,-0.004741127999999997,-2.2713210999999998,0.03577274,6.11137415
338,1747638669750,0.7986442,-1.138542,-0.086498946,-2.451712,0.21417832,6.7188616
339,1747638669760,1.0392985,-1.2913253,-0.068693034,-2.8379965,0.6515449,7.045054
340,1747638669770,1.0976784,-1.3741807750000001,0.036496029,-2.9937625,0.77585235,7.1067495
341,1747638669780,1.1560583000000002,-1.45703625,0.14168509199999998,-3.1495285,0.9001598,7.168445
342,1747638669790,1.1315295,-1.7040019,0.6202496,-3.5700967,0.12499462,7.3571973
343,1747638669800,1.13909085,-1.73072595,0.6924946750000001,-3.4545321500000004,-0.21925599,7.38926665
344,1747638669810,1.1466522,-1.75745,0.76473975,-3.3389676,-0.5635066,7.421336
345,1747638669820,1.2413529,-1.8160206,0.73519534,-2.7788205,-0.845718,7.5074654
346,1747638669830,1.2413529,-1.8160206,0.73519534,-2.7788205,-0.845718,7.5074654
347,1747638669840,1.0968933,-1.8667858,0.598785,-2.5327253,-0.16584504,7.7903643
348,1747638669850,1.1410575,-1.9248683999999998,0.54497085,-2.6180913500000003,-0.063222695,7.8783261499999995
349,1747638669860,1.1852217,-1.982951,0.4911567,-2.7034574,0.03939965,7.966288
350,1747638669870,1.3633722,-2.0949697,0.6080538,-3.0461426,0.098651834,7.972397
351,1747638669880,1.454033,-2.13645075,0.6801616500000001,-3.26045455,-0.551442383,7.7807244749999995
352,1747638669890,1.5446938,-2.1779318,0.7522695,-3.4747665,-1.2015366,7.58905195
353,1747638669900,1.818033,-2.1323197,1.3941362,-3.1489177,-2.285485,7.2405252
354,1747638669910,1.83689075,-2.050439775,1.4022464499999998,-2.8946906500000003,-2.3007562,7.210899100000001
355,1747638669920,1.8557485,-1.9685598499999999,1.4103567,-2.6404636,-2.3160274,7.181273
356,1747638669930,2.1316488,-1.7764757,1.123968,-1.2547566,-1.9525733,7.12141
357,1747638669940,2.2152358999999997,-1.7256038500000002,0.94801265,-1.2089431,-1.7201459,7.1550066999999995
358,1747638669950,2.298823,-1.674732,0.7720573,-1.1631296,-1.4877185,7.1886034
359,1747638669960,2.6211896,-1.3655065,0.39450473,-2.1401796,0.102316916,7.5758805
360,1747638669970,2.6211896,-1.3655065,0.39450473,-2.1401796,0.102316916,7.5758805
361,1747638669980,2.919896,-1.1419569,0.46185625,-3.6243095,0.54709005,7.2802305
362,1747638669990,3.0765819,-1.1605098,0.512743355,-3.9043829,0.344288775,7.069793450000001
363,1747638670000,3.2332678,-1.1790627,0.56363046,-4.1844563,0.1414875,6.8593564
364,1747638670010,3.4053206,-1.0541164,1.2125403,-4.781407,-0.9037485,5.9950075
365,1747638670020,3.428317325,-0.97443185,1.3619621,-4.8540024,-0.833348365,6.08526025
366,1747638670030,3.4513140499999997,-0.8947473,1.5113839,-4.9265978,-0.7629482299999999,6.1755130000000005
367,1747638670040,3.8111675,-0.69781506,1.6032643,-5.443107,0.91787434,7.0047383
368,1747638670050,4.04008325,-0.70647413,1.65073655,-5.8627593000000005,1.91909117,7.26282115
369,1747638670060,4.268999,-0.7151332,1.6982088,-6.2824116,2.920308,7.520904
370,1747638670070,5.0782533,-1.0599704,3.5122173,-8.4040365,6.305089,7.0902567
371,1747638670080,5.13060415,-0.9854081000000001,4.2985283,-8.31023325,6.56653165,6.5673715999999995
372,1747638670090,5.182955,-0.9108458,5.0848393,-8.21643,6.8279743,6.0444865
373,1747638670100,5.6749654,-0.79175353,7.845732,-3.6368318,2.9313033,2.331604
374,1747638670110,5.3622184,-0.6906043150000001,7.061859999999999,-0.05566339999999981,1.35188135,0.30935599999999974
375,1747638670120,5.0494714,-0.5894551,6.277988,3.525505,-0.2275406,-1.712892
376,1747638670130,4.6836267,-0.9730751,4.984285,4.8963227,0.9685747,-2.5705216
377,1747638670140,4.6836267,-0.9730751,4.984285,4.8963227,0.9685747,-2.5705216
378,1747638670150,4.0544744,-1.7018065,3.924162,5.163645,2.7620223,-2.896714
379,1747638670160,3.94330945,-1.971243,3.9381873,5.046171299999999,3.84326015,-3.03694165
380,1747638670170,3.8321445,-2.2406795,3.9522126,4.9286976,4.924498,-3.1771693
381,1747638670180,3.6661894,-3.378886,4.4600773,6.349299,3.427922,-4.558295
382,1747638670190,3.58639835,-3.4503993,4.39857985,6.8409166500000005,3.1249418,-4.794692850000001
383,1747638670200,3.5066073,-3.5219126,4.3370824,7.3325343,2.8219616,-5.0310907
384,1747638670210,3.4736476,-3.8647988,2.9633436,9.64482,2.0680997,-6.0525036
385,1747638670220,3.45596375,-3.8920107,2.6324097,9.7678675,1.9896058499999998,-6.335631299999999
386,1747638670230,3.4382799,-3.9192226,2.3014758,9.890915,1.911112,-6.618759
387,1747638670240,2.9802043,-3.7137227,1.2696472,9.340771,1.7303013,-7.5961146
388,1747638670250,2.758110575,-3.567121175,1.04134884,8.9309305,1.8750719999999998,-7.723628925
389,1747638670260,2.53601685,-3.42051965,0.81305048,8.521090000000001,2.0198427,-7.85114325
390,1747638670270,2.037436,-3.0250242,0.42624438,7.5400696,2.3723016,-7.8416753
391,1747638670280,1.828650925,-2.8437636,0.33880787,7.2892785,2.4074254,-7.7677629
392,1747638670290,1.61986585,-2.662503,0.25137136,7.0384874,2.4425492,-7.6938505
393,1747638670300,1.4077955,-2.4566374,0.20586567,6.468949,2.1383471,-7.4788322
394,1747638670310,1.27563845,-2.28104785,0.18377596499999999,6.3518189,1.5418547999999999,-7.4516494
395,1747638670320,1.1434814,-2.1054583,0.16168626,6.2346888,0.9453625,-7.4244666
396,1747638670330,1.11236675,-2.04542425,0.11567748,6.19761805,0.6378009,-7.447067949999999
397,1747638670340,1.0812521,-1.9853902,0.0696687,6.1605473,0.3302393,-7.4696693
398,1747638670350,1.0221938,-1.7823601,-0.17998001,5.594139,-0.38636088,-7.6498694
399,1747638670360,1.0342829,-1.7149933499999999,-0.25367333,5.2477123,-0.37719817499999997,-7.6605592
400,1747638670370,1.046372,-1.6476266,-0.32736665,4.9012856,-0.36803547,-7.671249
401,1747638670380,0.8572146,-1.42115,-0.15214302,3.7666368,-0.018630842,-7.486773
402,1747638670390,0.80548905,-1.319513,0.006722955000000003,3.59842475,0.03817795399999999,-7.35727335
403,1747638670400,0.7537635,-1.217876,0.16558893,3.4302127,0.09498675,-7.2277737
404,1747638670410,0.7849848,-1.1463474,0.1651011,3.3324008,-0.24220094,-6.5705023
405,1747638670420,0.807196485,-1.11389125,0.12898619,3.31648065,-0.35154259,-6.48040215
406,1747638670430,0.82940817,-1.0814351,0.09287128,3.3005605,-0.46088424,-6.390302
407,1747638670440,0.9333776,-1.0746055,-0.050155364,3.1143284,-0.6875086,-6.315168
408,1747638670450,0.87639255,-1.08876785,0.0003658754999999944,2.9183609500000003,-0.8643489,-6.2543885
409,1747638670460,0.8194075,-1.1029302,0.050887115,2.7223935,-1.0411892,-6.193609
410,1747638670470,0.6976322,-1.1346394,0.17436993,2.829521,-1.141979,-5.8087754
411,1747638670480,0.6976322,-1.1346394,0.17436993,2.829521,-1.141979,-5.8087754
412,1747638670490,0.42648828,-0.9535617,0.25077683,3.3223982,-1.0906677,-5.033534
413,1747638670500,0.3682227,-0.8866294625,0.12051008125000001,3.6783312749999997,-0.8984035725,-4.4121496
414,1747638670510,0.30995712,-0.819697225,-0.009756667499999996,4.03426435,-0.706139445,-3.7907652
415,1747638670520,0.304469,-0.8359329,-0.10848194,4.1479583,-0.62336963,-3.5204654
416,1747638670530,0.220881798,-0.8799827375,-0.30895858,3.905910075,-0.8414421,-3.2223338
417,1747638670540,0.137294596,-0.924032575,-0.50943522,3.66386185,-1.05951457,-2.9242022
418,1747638670550,-0.2885839,-1.0956126,-0.5074991,2.9572642,-1.2940799,-2.7617168
419,1747638670560,-0.5652006700000001,-1.19603005,-0.395968215,2.84666275,-1.4357965,-2.7381992
420,1747638670570,-0.84181744,-1.2964475,-0.28443733,2.7360613,-1.5775131,-2.7146816
421,1747638670580,-1.7457726,-1.8889822,0.12384869,3.2046573,-2.3532891,-3.0293443
422,1747638670590,-2.3308830499999997,-2.3443746,0.220744585,4.27417465,-3.26440605,-3.55589465
423,1747638670600,-2.9159935,-2.799767,0.31764048,5.343692,-4.175523,-4.082445
424,1747638670610,-3.4235837,-2.9545016,0.055277612,6.128783,-5.1889186,-3.670734
425,1747638670620,-3.5422035000000003,-2.82772585,-0.33751969400000004,6.181125,-5.263479950000001,-2.6328663
426,1747638670630,-3.6608233,-2.7009501,-0.730317,6.233467,-5.3380413,-1.5949986
427,1747638670640,-3.3328164,-2.3763583,-1.2664763,4.9604616,-3.7448754,0.6456655
428,1747638670650,-3.3328164,-2.3763583,-1.2664763,4.9604616,-3.7448754,0.6456655
429,1747638670660,-3.1622272,-2.1754928,-1.3377305,3.6195755,-2.9300053,2.0322888
430,1747638670670,-2.456942,-1.4853306,-1.3060213,1.2905675,-1.6984608,4.2662334
431,1747638670680,-2.456942,-1.4853306,-1.3060213,1.2905675,-1.6984608,4.2662334
432,1747638670690,-1.3680067,-1.012864,-0.99313724,-1.6342455,0.9019923,5.8807793
433,1747638670700,-1.11078128,-1.0084735,-0.89747617,-2.16476635,1.56476165,6.08205345
434,1747638670710,-0.85355586,-1.004083,-0.8018151,-2.6952872,2.227531,6.2833276
435,1747638670720,-0.242941,-1.0126201,-0.43450707,-4.254933,3.7858787,6.1593256
436,1747638670730,-0.18571206,-1.0770445999999998,-0.08991378500000002,-4.675043175000001,4.0882480249999995,5.7960242
437,1747638670740,-0.12848312,-1.1414691,0.2546795,-5.09515335,4.390617349999999,5.4327228000000005
438,1747638670750,-0.12848312,-1.1414691,0.2546795,-4.7975945,3.8451307,4.4140587
439,1747638670760,-0.243184925,-1.21456785,0.49664485,-4.55554625,3.49022855,4.11413265
440,1747638670770,-0.35788673,-1.2876666,0.7386102,-4.313498,3.1353264,3.8142066
441,1747638670780,-0.52432936,-1.2349502,0.9348411,-1.7856592,-0.25686127,2.9119852
442,1747638670790,-0.45915788,-1.2184705,0.82355413,-1.1974515000000001,-0.991405085,2.9339757000000004
443,1747638670800,-0.3939864,-1.2019908,0.71226716,-0.6092438,-1.7259489,2.9559662
444,1747638670810,-0.02134271,-1.1549149,0.10726235,0.53785104,-2.7510269,3.4715214
445,1747638670820,0.12691289499999997,-1.1087842,-0.026236284999999998,0.603898885,-2.58972505,3.7143332
446,1747638670830,0.2751685,-1.0626535,-0.15973492,0.66994673,-2.4284232,3.957145
447,1747638670840,0.32081142,-1.0294503,-0.047228362,0.5571691,-1.6233265,5.544813
448,1747638670850,0.45650531000000005,-1.0309137499999999,-0.07931865099999999,0.6244768,-1.5710991,5.836798
449,1747638670860,0.5921992,-1.0323772,-0.11140894,0.6917845,-1.5188717,6.128783
450,1747638670870,1.1859534,-1.09046,-0.4257261,0.39888325,-1.0760075,7.4463806
451,1747638670880,1.48345555,-1.13549305,-0.44037632,-0.25006562500000007,-0.6731537,7.8795093000000005
452,1747638670890,1.7809577,-1.1805261,-0.45502654,-0.8990145,-0.2702999,8.312638
453,1747638670900,1.8478212,-1.2388527,-0.3605698,-1.4367127,-0.0503949,8.553312
454,1747638670910,1.8478212,-1.2388527,-0.3605698,-1.4367127,-0.0503949,8.553312
455,1747638670920,2.1648214,-1.5927149,0.17436993,-2.1601086,-0.00335966,8.759779
456,1747638670930,2.2809867500000003,-1.5899708000000001,0.5905984900000001,-1.762561585,-0.42224818,8.522312249999999
457,1747638670940,2.3971521,-1.5872267,1.00682705,-1.36501457,-0.8411367,8.2848455
458,1747638670950,2.4618204,-1.5756407,1.129822,-0.96437514,-1.0644014,8.137937
459,1747638670960,2.5261382,-1.4373857,0.9273864,0.88897363,-1.8637332,7.009358150000001
460,1747638670970,2.590456,-1.2991307,0.7249508,2.7423224,-2.663065,5.8807793
461,1747638670980,2.2651322,-1.1434203,0.29029134,3.1323483,-2.6331334,5.5240445
462,1747638670990,2.0941771,-1.06521455,0.11116503,3.04201925,-2.36890385,5.58848875
463,1747638671000,1.923222,-0.9870088,-0.06796128,2.9516902,-2.1046743,5.652933
464,1747638671010,1.5915563,-0.8366647,-0.40279788,1.5609438,-0.2959555,6.649225
465,1747638671020,1.63268675,-0.9434392,-0.2323306235,0.3590254500000001,0.77062195,7.3859449999999995
466,1747638671030,1.6738172,-1.0502137,-0.061863367,-0.8428929,1.8371994,8.122665
467,1747638671040,1.7721461,-1.0724101,0.10457927,-1.3556992,1.8017703,8.321191
468,1747638671050,1.7721461,-1.0724101,0.10457927,-1.3556992,1.8017703,8.321191
469,1747638671060,2.293457,-0.9625866,0.35962465,-1.910883,1.1212865,8.437862
470,1747638671070,2.4536645000000004,-0.92281295,0.308859475,-1.9940727,0.9801808000000001,8.285455500000001
471,1747638671080,2.613872,-0.8830393,0.2580943,-2.0772624,0.8390751,8.133049
472,1747638671090,2.9980104,-0.8617881,0.1475391,-2.4660668,0.7694385,7.5868754
473,1747638671100,2.9878725,-0.8267708149999999,0.32325057,-2.90499875,0.6387171700000001,6.9262442
474,1747638671110,2.9777346,-0.79175353,0.49896204,-3.3439307,0.50799584,6.265613
475,1747638671120,2.5645704,-0.8681604,1.273306,-3.4006631,0.024128467,5.3493423
476,1747638671130,2.5394318,-0.8115412500000001,1.3422581500000001,-3.28040255,-0.1258345415,5.4046239499999995
477,1747638671140,2.5142932,-0.7549221,1.4112103,-3.160142,-0.27579755,5.4599056
478,1747638671150,3.024841,-0.6748565,1.3252907,-2.6990287,-0.266024,5.824581
479,1747638671160,3.620318,-0.506706425,1.2991764,-3.1747641499999997,0.23918488499999996,5.83191125
480,1747638671170,4.215795,-0.33855635,1.2730621,-3.6504996,0.74439377,5.8392415
481,1747638671180,4.557705,-0.13942887,1.7050385,-4.422534,0.8964947,5.2723756
482,1747638671190,4.526773375,0.11590615000000001,2.25500195,-4.418143499999999,0.9618553999999999,4.6883672999999995
483,1747638671200,4.49584175,0.37124117,2.8049654,-4.413753,1.0272161,4.104359
484,1747638671210,4.3017144,1.0625011,4.133046,-3.603159,1.1499963,3.9876873
485,1747638671220,4.34319545,1.1802518499999999,4.2702033,-2.7333506499999998,1.4120498000000001,4.0011259
486,1747638671230,4.3846765,1.2980026,4.4073606,-1.8635423,1.6741033,4.0145645
487,1747638671240,4.577218,0.6910769,3.965902,-0.9126822,3.652714,4.159335
488,1747638671250,4.577218,0.6910769,3.965902,-0.9126822,3.652714,4.159335
489,1747638671260,5.0592284,-1.2127537,5.236647,-0.51021016,7.893903,3.2766612
490,1747638671270,5.0035847,-1.61067325,5.767806,0.33531697000000005,7.70851075,2.3649334
491,1747638671280,4.947941,-2.0085928,6.298965,1.1808441,7.5231185,1.4532056
492,1747638671290,4.0600843,-3.0047789,6.0568776,6.4870453,2.071765,-2.009153
493,1747638671300,3.7686953499999998,-3.1436439,5.16671895,7.74691765,0.3964781500000001,-2.8286428
494,1747638671310,3.4773064,-3.2825089,4.2765603,9.00679,-1.2788087,-3.6481326
495,1747638671320,3.4262977,-3.397942,2.1277156,8.873473,-0.44683477,-5.0188737
496,1747638671330,3.38993885,-3.3936735000000002,2.0102087500000003,8.5650335,0.14816864000000002,-5.11844185
497,1747638671340,3.35358,-3.389405,1.8927019,8.256594,0.74317205,-5.21801
498,1747638671350,2.9040415,-3.3593729,2.0179226,7.395528,2.9465744,-5.437304
499,1747638671360,2.86585325,-3.37414515,1.9800849999999999,7.533503,2.92794355,-5.546684
500,1747638671370,2.827665,-3.3889174,1.9422474,7.671478,2.9093127,-5.656064
501,1747638671380,2.4781933,-3.2922652,1.5757017,8.3363085,1.8793479,-6.444057
502,1747638671390,2.22755365,-3.190369,1.32152525,8.59523175,0.67044302,-7.065594
503,1747638671400,1.976914,-3.0884728,1.0673488,8.854155,-0.53846186,-7.687131
504,1747638671410,1.7438518,-2.9435256,0.8010833,8.853467,-1.5756805,-8.308363
505,1747638671420,1.7438518,-2.9435256,0.8010833,8.853467,-1.5756805,-8.308363
506,1747638671430,1.4981058,-2.7683017,0.5011573,8.615466,-2.2592187,-8.8759165
507,1747638671440,1.2445391300000002,-2.52290635,0.195971805,7.9005075,-2.18041935,-9.16148775
508,1747638671450,0.99097246,-2.277511,-0.10921369,7.185549,-2.10162,-9.447059
509,1747638671460,0.6090294,-1.8152888,-0.2900474,6.336242,-1.4345748,-9.263193
510,1747638671470,0.5537518,-1.7376776,-0.3052922,5.5471038,-0.74248485,-8.828575
511,1747638671480,0.4984742,-1.6600664,-0.320537,4.7579656,-0.0503949,-8.393957
512,1747638671490,0.49920595,-1.427004,-0.33934906,3.447011,0.8280798,-7.508764
513,1747638671500,0.5164173249999999,-1.3886938,-0.3215279,3.0591612,0.96552045,-7.313598000000001
514,1747638671510,0.5336287,-1.3503836,-0.30370674,2.6713114,1.1029611,-7.118432
515,1747638671520,0.7293414,-1.2415359,0.009878625,1.9416543,0.84029675,-6.9015813
516,1747638671530,0.731536635,-1.21322625,0.1970694325,1.83914655,0.308210615,-6.94831115
517,1747638671540,0.73373187,-1.1849166,0.38426024,1.7366388,-0.22387552,-6.995041
518,1747638671550,0.5878087,-1.0675318,0.6009802,1.8955353,-0.5775561,-6.8814235
519,1747638671560,0.5271649,-0.9930915,0.64075385,2.05973865,-0.680178415,-6.71374575
520,1747638671570,0.4665211,-0.9186512,0.6805275,2.223942,-0.78280073,-6.546068
521,1747638671580,0.73129267,-0.8076386,0.44185504,2.9167957,-0.22631891,-5.5747447
522,1747638671590,0.911775785,-0.826420165,0.32129923,2.7494998500000003,-0.05127298999999999,-5.49472385
523,1747638671600,1.0922589,-0.84520173,0.20074342,2.582204,0.12377293,-5.414703
524,1747638671610,1.1383591,-0.87718534,0.267851,2.4114723,0.07605048,-5.4672356
525,1747638671620,0.9837616849999999,-0.88096607,0.49810833,2.6124029,-0.20249586,-5.40004255
526,1747638671630,0.82916427,-0.8847468,0.72836566,2.8133335,-0.4810422,-5.3328495
527,1747638671640,0.6870065625,-0.871628635,0.7295242550000001,3.1809489500000003,-0.6123743500000001,-5.1776941
528,1747638671650,0.544848855,-0.85851047,0.73068285,3.5485644,-0.7437065,-5.0225387
529,1747638671660,0.45234346,-0.8632821,0.6600385,4.924956,-0.961779,-4.169796
530,1747638671670,0.34032472999999996,-0.8813319,0.362292475,4.99505075,-0.89366955,-3.9608862499999997
531,1747638671680,0.228306,-0.8993817,0.06454645,5.0651455,-0.8255601,-3.7519765
532,1747638671690,0.10384752,-1.3096191,-0.5384765,4.3237295,0.88305604,-2.3774939
533,1747638671700,0.017577242999999992,-1.3568475,-0.5982666000000001,3.99379565,1.44014877,-2.1594214000000003
534,1747638671710,-0.068693034,-1.4040759,-0.6580567,3.6638618,1.9972415,-1.9413489
535,1747638671720,-0.771295,-1.566128,-0.69882125,2.022668,4.6264043,-0.7056049
536,1747638671730,-1.4574326000000002,-1.66886265,-0.757025875,1.5065974999999998,4.8759353999999995,-0.355703975
537,1747638671740,-2.1435702,-1.7715973,-0.8152305,0.9905269999999999,5.1254665,-0.005803050000000004
538,1747638671750,-2.691468,-1.75184,-0.7847104,0.7671478,3.9935668,0.49417543
539,1747638671760,-2.81482885,-1.7435468,-0.77397808,1.030862,3.037418975,0.8189934649999999
540,1747638671770,-2.9381897,-1.7352536,-0.76324576,1.2945762,2.08127115,1.1438115
541,1747638671780,-2.8481236,-1.6112831,-1.243792,2.3111405,0.2294495,1.8465912
542,1747638671790,-2.8616763,-1.5091429500000002,-1.51845745,2.4142592,0.207153575,1.905538
543,1747638671800,-2.875229,-1.4070028,-1.7931229,2.5173779,0.18485765,1.9644848
544,1747638671810,-3.1329267,-1.094637,-2.5264888,1.2450594,0.9300913,2.4556823
545,1747638671820,-3.03409485,-1.0099522,-2.4178849,-0.1394259,1.4212125,3.0579776499999998
546,1747638671830,-2.935263,-0.9252674,-2.309281,-1.5239112,1.9123337,3.660273
547,1747638671840,-2.6106706,-0.8845028,-1.9659075,-2.2896845,2.1078048,4.1575027
548,1747638671850,-2.6106706,-0.8845028,-1.9659075,-2.2896845,2.1078048,4.1575027
549,1747638671860,-1.8043432,-0.8698678,-1.5080757,-2.8978593,2.0045717,4.6266336
550,1747638671870,-1.45657895,-0.831854925,-1.3975205,-2.9847523999999996,1.8598009,4.67061445
551,1747638671880,-1.1088147,-0.7938420500000001,-1.2869652999999999,-3.0716455,1.7150301,4.7145953
552,1747638671890,-0.822548,-0.763947,-1.2315657,-3.3327062,1.4664152,4.8306565
553,1747638671900,-0.358862405,-0.8050622000000001,-1.0886763,-3.6408405,1.4389271,4.713373900000001
554,1747638671910,0.10482319,-0.8461774,-0.9457869,-3.9489748,1.411439,4.5960913
555,1747638671920,0.8013272,-0.96551365,-0.60558414,-4.7782764,1.554988,4.204538
556,1747638671930,0.8677182999999999,-0.9787004,-0.533842145,-4.9876442,1.6643297000000001,4.110162000000001
557,1747638671940,0.9341094,-0.99188715,-0.46210015,-5.197012,1.7736714,4.015786
558,1747638671950,0.9709408,-1.0123762,-0.15409435,-5.769605,2.2373044,3.8215368
559,1747638671960,1.01133955,-1.0384905,-0.030001744999999996,-5.926325500000001,2.3655823,3.7528164
560,1747638671970,1.0517383,-1.0646048,0.09409086,-6.083046,2.4938602,3.684096
561,1747638671980,1.0532017,-1.1012228,0.21050009,-6.40145,2.2244766,3.3408
562,1747638671990,1.033917,-1.13892315,0.29445316,-6.4282128,2.1160512000000002,3.2647495
563,1747638672000,1.0146323,-1.1766235,0.37840623,-6.4549756,2.0076258,3.188699
564,1747638672010,0.95093966,-1.1832093,0.4545387,-6.284931,1.231239,2.7775989
565,1747638672020,0.8384330799999999,-1.2506827,0.545565365,-5.9979855,0.5626285,2.63557685
566,1747638672030,0.7259265,-1.3181561,0.63659203,-5.71104,-0.105982,2.4935548
567,1747638672040,0.657233465,-1.3181561,0.67150259,-5.544049749999999,-0.45721918,2.5283731
568,1747638672050,0.58854043,-1.3181561,0.70641315,-5.3770595,-0.80845636,2.5631914
569,1747638672060,0.37572315,-1.2813247,0.70885235,-4.580133,-1.8426207,3.0891309
570,1747638672070,0.35668240500000004,-1.3280500000000002,0.6333143999999999,-4.22217635,-2.1187237,3.51825105
571,1747638672080,0.33764166,-1.3747753,0.55777645,-3.8642197,-2.3948267,3.9473712
572,1747638672090,0.43356186,-1.4013927,0.5167679,-3.719067,-2.4901187,4.181326
573,1747638672100,0.562654765,-1.44104445,0.5084747999999999,-3.69413695,-2.58300575,4.36946685
574,1747638672110,0.69174767,-1.4806962,0.5001817,-3.6692069,-2.6758928,4.5576077
575,1747638672120,0.7805943,-1.5197533,0.57997286,-3.6642437,-2.5702162,4.629688
576,1747638672130,0.82306633,-1.54659945,0.632933255,-3.63026525,-2.5265025,4.65625965
577,1747638672140,0.86553836,-1.5734456,0.68589365,-3.5962868,-2.4827888,4.6828313
578,1747638672150,0.9392316,-1.6764392,0.9482565,-3.0810373,-2.707046,4.788508
579,1747638672160,0.9708341,-1.65361775,1.0002412999999999,-2.52802965,-3.0457608499999997,4.937593
580,1747638672170,1.0024366,-1.6307963,1.0522261,-1.975022,-3.3844757,5.086678
581,1747638672180,1.0712515,-1.6222593,0.949964,-1.64295,-3.47427,5.2925334
582,1747638672190,1.2725895,-1.6226251999999999,0.7947415,-1.54261835,-3.41410165,5.5991786999999995
583,1747638672200,1.4739275,-1.6229911,0.639519,-1.4422867,-3.3539333,5.905824
584,1747638672210,1.8036419,-1.4528896,0.67199045,-1.8292584,-2.8493733,6.447035
585,1747638672220,1.9436043,-1.3868797000000002,0.75094324,-1.9597889,-2.6217945499999997,6.535913
586,1747638672230,2.0835667,-1.3208698,0.82989603,-2.0903194,-2.3942158,6.624791
587,1747638672240,2.36812605,-1.03582265,0.970956065,-2.1021545,-1.84506415,6.60493865
588,1747638672250,2.6526854,-0.7507755,1.1120161,-2.1139896,-1.2959125,6.5850863
589,1747638672260,2.945294,-0.7700449,0.9109068,-2.4803452,-0.5671717,6.309594
590,1747638672270,3.03436915,-0.778582,0.9121264,-2.88442075,-0.562590335,6.17581835
591,1747638672280,3.1234443,-0.7871191,0.913346,-3.2884963,-0.55800897,6.0420427
592,1747638672290,3.598838,-0.6758321,1.3643479,-4.545849,-0.2831277,5.4605165
593,1747638672300,3.8534489499999998,-0.4763235175,1.931027275,-4.91502985,0.14480900000000002,5.0380774
594,1747638672310,4.1080599,-0.276814935,2.49770665,-5.2842107,0.5727457,4.6156383
595,1747638672320,4.3458633,0.0070126047,3.1688435,-5.009482,2.3301532,3.3469086
596,1747638672330,4.413047049999999,0.032692456849999996,3.324599525,-4.95011525,2.7247987499999997,2.9730509
597,1747638672340,4.480230799999999,0.058372309,3.48035555,-4.8907485,3.1194443,2.5991932
598,1747638672350,4.267048,0.20662792,4.273877,-4.6897798,4.287384,1.6065283
599,1747638672360,4.1208046,0.13939075875,4.774783075,-4.2679516500000005,4.4132187,1.34264225
600,1747638672370,3.9745612,0.0721535975,5.27568915,-3.8461235,4.5390534,1.0787562
601,1747638672380,3.999075,-0.15845437,5.9997706,-1.7538189,3.4071534,0.527772
602,1747638672390,3.999075,-0.15845437,5.9997706,-1.7538189,3.4071534,0.527772
603,1747638672400,4.232625,-0.6885158,5.798448,2.9753606,-0.56045234,-1.3793695
604,1747638672410,4.0398393,-0.9855453,5.1117005,4.452695,-1.7528262,-2.2962513
605,1747638672420,4.0098224,-1.1871272,4.4503206,5.0801113,-1.9718149999999999,-2.9789113
606,1747638672430,3.9798055,-1.3887091,3.7889407,5.7075276,-2.1908038,-3.6615713
607,1747638672440,3.855278325,-1.5028011000000001,3.207931125,5.723104299999999,-1.5387243,-4.02838515
608,1747638672450,3.73075115,-1.6168931,2.6269215499999996,5.738681,-0.8866448,-4.395199
609,1747638672460,3.7513773,-1.8416623,2.3986156,5.3543053,0.3626142,-4.594946
610,1747638672470,3.55955215,-1.92218535,2.2353438,4.96515755,1.4908491000000001,-4.84356075
611,1747638672480,3.367727,-2.0027084,2.072072,4.5760098,2.619084,-5.0921755
612,1747638672490,2.990205,-2.2636077,1.7826346,4.971686,3.1096706,-5.8374853
613,1747638672500,2.88989435,-2.3283979500000003,1.6769728499999998,5.23587735,2.9929987999999996,-6.103204
614,1747638672510,2.7895837,-2.3931882,1.5713111,5.5000687,2.876327,-6.3689227
615,1747638672520,2.2904994,-2.5357273,1.1454327,6.3468556,1.615462,-7.423856
616,1747638672530,1.94541835,-2.49715795,0.8862559999999999,6.658082374999999,0.668018775,-7.9353067500000005
617,1747638672540,1.6003373,-2.4585886,0.6270793,6.96930915,-0.27942445,-8.4467575
618,1747638672550,1.2481827,-2.3299835,0.29541358,7.0683427,-1.7607672,-9.128196
619,1747638672560,1.1206675750000001,-2.23785925,0.13453528875,6.8601011,-1.947839175,-9.24395175
620,1747638672570,0.99315245,-2.145735,-0.02634300249999999,6.6518595,-2.1349111499999998,-9.359707499999999
621,1747638672580,0.7315366,-1.9109651,-0.2739489,5.830919,-1.8212411,-9.2919035
622,1747638672590,0.7315366,-1.9109651,-0.2739489,5.830919,-1.8212411,-9.2919035
623,1747638672600,0.5746067,-1.743303,-0.3634968,5.0495687,-1.2446012,-8.962656
624,1747638672610,0.47091162,-1.5329249,-0.42743346,3.9984534,-0.40163207,-8.243002
625,1747638672620,0.47091162,-1.5329249,-0.42743346,3.9984534,-0.40163207,-8.243002
626,1747638672630,0.48359528,-1.328675,-0.39962697,2.614579,0.68880665,-7.2851934
627,1747638672640,0.47261906,-1.2447067,-0.2998041,1.9011858,1.1170106,-6.8374424
628,1747638672650,0.47261906,-1.2447067,-0.2998041,1.9011858,1.1170106,-6.8374424
629,1747638672660,0.5033525,-1.2229983,-0.20949392,1.5378844,1.283161,-6.578443
630,1747638672670,0.5322718799999999,-1.184307,-0.0540427825,1.24441045,1.3567681,-6.3698387
631,1747638672680,0.56119126,-1.1456157,0.101408355,0.9509365,1.4303752,-6.1612344
632,1747638672690,0.77815515,-1.0619217,0.62073743,1.2681189,0.9197069,-5.582686
633,1747638672700,0.887002975,-1.06350715,0.64953485,1.4587796,0.75630525,-5.493502149999999
634,1747638672710,0.9958508,-1.0650926,0.67833227,1.6494403,0.5929036,-5.4043183
635,1747638672720,1.3538595,-1.0848498,0.62098134,2.2195134,0.21173494,-5.3316274
636,1747638672730,1.434275775,-1.0855282499999999,0.57991952,2.4606645,0.23311459,-5.388283525
637,1747638672740,1.5146920499999998,-1.0862067,0.5388577,2.7018155999999998,0.25449424,-5.44493965
638,1747638672750,1.5129846,-1.0804594,0.519695,2.8551002,0.28931254,-5.4825068
639,1747638672760,1.2801662,-1.0525156500000001,0.39804154,3.4099404,-0.24063563000000004,-5.5280149000000005
640,1747638672770,1.0473478,-1.0245719,0.27638808,3.9647806,-0.7705838,-5.573523
641,1747638672780,0.81452924,-0.95282996,0.07262619,4.2177477,-1.1462549,-5.4037075
642,1747638672790,0.715682,-0.93220378,-0.09992962500000001,4.206867000000001,-1.09586,-5.263518100000001
643,1747638672800,0.61683476,-0.9115776,-0.27248544,4.1959863,-1.0454651,-5.1233287
644,1747638672810,0.29227313,-0.99627763,-0.9340789,3.2744467,0.17874917,-4.2913547
645,1747638672820,-0.201444685,-1.061799715,-1.1732392,1.9671954,1.5223459350000001,-3.5567727500000004
646,1747638672830,-0.6951625,-1.1273218,-1.4123995,0.6599441,2.8659427,-2.8221908
647,1747638672840,-1.0921064,-1.26728425,-1.4194883,0.16118731000000003,3.37935985,-2.65206985
648,1747638672850,-1.4890503,-1.4072467,-1.4265771,-0.33756948,3.892777,-2.4819489
649,1747638672860,-2.9418485,-1.6242106,-0.9919176,-0.91581273,3.9697437,-2.1105537
650,1747638672870,-3.51267475,-1.7423273,-0.82388952,-0.2646877449999999,3.0170892499999997,-1.79474565
651,1747638672880,-4.083501,-1.860444,-0.65586144,0.38643724,2.0644348,-1.4789376
652,1747638672890,-4.369523,-1.8072395,-1.5849401,2.2182918,-1.3569971,0.26083177
653,1747638672900,-4.2955705,-1.7944339500000002,-1.8144808500000003,2.2422674999999996,-1.3912045499999999,0.583053705
654,1747638672910,-4.221618,-1.7816284,-2.0440216,2.2662432,-1.425412,0.90527564
655,1747638672920,-3.7752812,-1.4611828,-2.3900785,0.23128204,0.30030778,3.1777039
656,1747638672930,-3.4499573999999997,-1.37698585,-2.25499435,-0.25346342999999993,0.5067741400000001,3.57933595
657,1747638672940,-3.1246336,-1.2927889,-2.1199102,-0.7382089,0.7132405,3.980968
658,1747638672950,-2.0037448,-1.078752,-1.6061913,-2.0093057,1.603245,4.692605
659,1747638672960,-1.5473768,-1.00274145,-1.3449412500000002,-2.26540335,1.98349735,4.52004075
660,1747638672970,-1.0910088,-0.9267309,-1.0836912,-2.521501,2.3637497,4.3474765
661,1747638672980,-1.0133823,-0.9269748,-1.0151201,-2.5320382,2.4034548,4.1544485
662,1747638672990,-0.8494474425,-0.908665835,-0.9848516125000001,-2.541086425,2.1441502,3.819856925
663,1747638673000,-0.685512585,-0.89035687,-0.9545831250000001,-2.55013465,1.8848456,3.48526535
664,1747638673010,-0.40548098,-0.9013331,-1.0046012,-2.8766325,0.9807916,3.2241282
665,1747638673020,-0.293706165,-0.8730235,-1.01986125,-3.06168105,0.7941777999999999,3.16212725
666,1747638673030,-0.18193135,-0.8447139,-1.0351213,-3.2467296,0.607564,3.1001263
667,1747638673040,-0.29443792,-0.8449578,-0.9467625,-4.10161,0.33756948,2.9077094
668,1747638673050,-0.37436636,-0.9178127,-0.765319,-4.3359083,0.002176155000000013,3.2974299499999997
669,1747638673060,-0.4542948,-0.9906676,-0.5838755,-4.5702066,-0.33321717,3.6871505
670,1747638673070,-0.336772695,-1.0457013,-0.547638665,-4.5639453,-0.6432221650000001,4.02036775
671,1747638673080,-0.21925059,-1.100735,-0.51140183,-4.557684,-0.95322716,4.353585
672,1747638673090,0.6263475,-1.3672138,-0.54018396,-4.662979,-1.3814311,5.0090237
673,1747638673100,0.943553525,-1.427499375,-0.42780698,-5.1865513750000005,-1.36951955,5.4879662
674,1747638673110,1.26075955,-1.48778495,-0.31543,-5.71012375,-1.357608,5.966908699999999
675,1747638673120,1.6106123,-1.5590544,0.10360361,-6.3652577,-0.8127323,6.0634227
676,1747638673130,1.63819015,-1.55379495,0.27150974,-6.40920035,-0.6630746999999999,5.962327500000001
677,1747638673140,1.665768,-1.5485355,0.43941587,-6.453143,-0.5134171,5.8612323
678,1747638673150,1.5569202,-1.4274918,0.9736239,-5.398897,-0.43583953,4.9900875
679,1747638673160,1.51957035,-1.4111494,0.979112,-5.0107037000000005,-0.5952706649999999,4.75979805
680,1747638673170,1.4822205,-1.394807,0.9846001,-4.6225104,-0.7547018,4.5295086
681,1747638673180,1.1761967,-1.2996185,0.6890646,-3.3557658,-1.901873,3.6755443
682,1747638673190,1.1761967,-1.2996185,0.6890646,-3.3557658,-1.901873,3.6755443
683,1747638673200,0.85550725,-1.2315353,0.2956575,-2.760724,-2.8292155,3.4709105
684,1747638673210,0.84733605,-1.24862465,0.2015818875,-2.7950079,-2.8832755,3.52955185
685,1747638673220,0.83916485,-1.265714,0.107506275,-2.8292918,-2.9373355,3.5881932
686,1747638673230,0.9243527,-1.3316021,0.04235003,-3.2784936,-2.9519958,3.8465815
687,1747638673240,1.0890726499999999,-1.40407585,0.534589115,-3.7838168,-2.9263402000000003,4.0973344
688,1747638673250,1.2537926,-1.4765496,1.0268282,-4.28914,-2.9006846,4.3480873
689,1747638673260,1.2223275,-1.3884652,1.4138935,-3.7153258,-2.5555558,4.3993983
690,1747638673270,1.18497775,-1.3357487,1.4982123999999999,-3.2205776999999998,-2.4180770000000003,4.376796949999999
691,1747638673280,1.147628,-1.2830322,1.5825313,-2.7258296,-2.2805982,4.3541956
692,1747638673290,1.0912527,-1.1493049,1.3001673,-1.0547805,-2.488897,4.2106466
693,1747638673300,1.22621485,-1.0752913999999998,0.9187807325,-0.885747615,-2.8888874749999998,4.2792143
694,1747638673310,1.361177,-1.0012778999999998,0.537394165,-0.7167147300000001,-3.28887795,4.3477820000000005
695,1747638673320,1.7309242,-1.0045708,0.20732918,-1.4136533,-3.7717528,4.6021996
696,1747638673330,1.86526125,-0.96516303,0.44307464,-2.2208497,-3.1715953,4.8074443
697,1747638673340,1.9995983,-0.92575526,0.6788201,-3.0280461,-2.5714378,5.012689
698,1747638673350,1.9149288,-0.91840726,1.009998,-3.1302104,-1.4614521,5.233281
699,1747638673360,1.86026095,-0.90913841,1.10883,-3.04266835,-1.079977975,5.32612985
700,1747638673370,1.8055931,-0.89986956,1.207662,-2.9551263,-0.69850385,5.4189787
701,1747638673380,1.9998423,-0.86718476,1.0978384,-2.5825095,-0.6252022,5.6364403
702,1747638673390,1.9998423,-0.86718476,1.0978384,-2.5825095,-0.6252022,5.6364403
703,1747638673400,2.6629298,-0.9620988,0.7359271,-3.094094,-1.8578919,4.8917413
704,1747638673410,2.70331325,-0.9658795,0.796692815,-3.4526614,-2.13735455,4.6260226499999995
705,1747638673420,2.7436967,-0.9696602,0.85745853,-3.8112288,-2.4168172,4.360304
706,1747638673430,2.599969,-0.5216158,1.7140634,-4.684817,-1.6996825,4.1856017
707,1747638673440,3.0488975,-0.27609842549999997,2.05926645,-4.61380585,-0.978577315,4.41069885
708,1747638673450,3.497826,-0.030581051,2.4044695,-4.5427947,-0.25747213,4.635796
709,1747638673460,4.7473197,-0.16113745,2.8488858,-4.6268625,1.4499223,4.191099
710,1747638673470,4.98893435,-0.131730245,3.7073201000000005,-4.23618755,1.1188431,1.761072435
711,1747638673480,5.230549,-0.10232304,4.5657544,-3.8455126,0.7877639,-0.66895413
712,1747638673490,4.0522795,0.14269125,5.6893563,-1.8728577,-0.9550597,-2.368942
713,1747638673500,3.6770592,0.316329425,5.8227176499999995,-0.88683569,-1.343864,-2.304803
714,1747638673510,3.3018389,0.4899676,5.956079,0.09918632,-1.7326683,-2.240664
715,1747638673520,3.7555242,0.62418276,4.407117,2.1423178,-0.15362808,-1.4593904
716,1747638673530,4.2365431000000005,0.28838572799999995,4.0982726000000005,2.1345295,1.0849029099999998,-1.9123337
717,1747638673540,4.717562,-0.047411304,3.7894282,2.1267412,2.3234339,-2.365277
718,1747638673550,4.7829619999999995,-0.180422117,3.78479385,2.2014936,2.33381835,-2.73426685
719,1747638673560,4.848362,-0.31343293,3.7801595,2.276246,2.3442028,-3.1032567
720,1747638673570,4.4242215,-0.67656386,3.5903008,3.1840413,2.37841,-5.106225
721,1747638673580,4.319520325,-0.86716953,3.346315575,3.7052658000000003,2.69074385,-5.5708126
722,1747638673590,4.21481915,-1.0577752,3.10233035,4.2264903,3.0030777,-6.0354002
723,1747638673600,4.23604,-1.1863803,2.942123,5.0844636,3.47679,-6.8777585
724,1747638673610,4.207311225,-1.481618525,2.5056417,5.4407210500000005,3.383483,-7.26473015
725,1747638673620,4.17858245,-1.7768567499999999,2.0691604,5.7969785,3.2901759999999998,-7.6517018
726,1747638673630,3.9902937,-1.989049,1.2233031,6.044639,2.7485836,-8.472757
727,1747638673640,3.89987685,-1.9813656499999999,1.0651536,5.90975635,2.80512515,-8.623636
728,1747638673650,3.80946,-1.9736823,0.9070041,5.7748737,2.8616667,-8.774515
729,1747638673660,3.2259505,-1.7733047,0.55216634,5.2682524,3.419981,-8.872862
730,1747638673670,2.8794058500000004,-1.6542123499999999,0.355462805,4.9495809,3.45602105,-8.6966325
731,1747638673680,2.5328612,-1.53512,0.15875927,4.6309094,3.4920611,-8.520403
732,1747638673690,2.2255871,-1.4094421,0.034788612,4.4146695,3.2342834,-8.425111
733,1747638673700,1.998142425,-1.33231865,-0.041412479,4.24271605,3.05011305,-8.3499385
734,1747638673710,1.77069775,-1.2551952000000002,-0.11761357,4.0707626,2.8659427,-8.274766
735,1747638673720,1.2765074,-1.1195166,-0.20412776,3.357293,2.0424442,-7.7329445
736,1747638673730,1.1138454800000002,-1.0798649,-0.19534676,3.09436135,1.8320072499999998,-7.38415075
737,1747638673740,0.95118356,-1.0402132,-0.18656576,2.8314297,1.6215703,-7.035357
738,1747638673750,0.8625808,-1.0211571,-0.1694916,2.7086494,1.5678159,-6.7763577
739,1747638673760,0.9271425,-1.00725385,-0.154597435,2.59869695,1.52719455,-6.47826435
740,1747638673770,0.9917042,-0.9933506,-0.13970327,2.4887445,1.4865732,-6.180171
741,1747638673780,1.0588118,-1.0004243,-0.18583402,2.4020805,1.4957359,-6.032346
742,1747638673790,1.0588118,-1.0004243,-0.18583402,2.4020805,1.4957359,-6.032346
743,1747638673800,1.0673488,-0.98871624,-0.14848427,2.19088,1.1420553,-5.9181175
744,1747638673810,0.9821761875,-0.9724805350000001,-0.0952265905,2.2011499,0.9006179249999999,-5.895363400000001
745,1747638673820,0.897003575,-0.95624483,-0.041968911,2.2114198,0.65918055,-5.872609300000001
746,1747638673830,0.7740086,-0.9757581,-0.0071955416,2.3186235,0.089489125,-5.806943
747,1747638673840,0.735332535,-0.99370125,-0.015122833799999999,2.3631771500000003,0.004886780000000007,-5.79045015
748,1747638673850,0.69665647,-1.0116444,-0.023050126,2.4077308,-0.079715565,-5.7739573
749,1747638673860,0.687845,-0.9857892,-0.14848427,2.4282706,-0.016798299,-5.560695
750,1747638673870,0.6599013,-0.95026885,-0.23146166499999998,2.2958695000000002,0.3072943505,-5.395766500000001
751,1747638673880,0.6319576,-0.9147485,-0.31443906,2.1634684,0.631387,-5.230838
752,1747638673890,0.41575596,-0.7122062,-0.28321773,1.5310123,1.6930395,-4.3133454
753,1747638673900,0.28067186,-0.6907263,-0.14240159415,1.6042376,1.83445065,-3.70066545
754,1747638673910,0.14558776,-0.6692464,-0.0015854583,1.6774629,1.9758618,-3.0879855
755,1747638673920,-0.019635292,-0.7092792,0.10799411,2.157207,1.6759359,-2.6297739
756,1747638673930,-0.16215884849999998,-0.8217857749999999,0.059485178750000006,2.5650239,1.4841298,-2.4223912
757,1747638673940,-0.304682405,-0.93429235,0.010976247500000001,2.9728408,1.2923237,-2.2150085
758,1747638673950,-0.65512973,-1.1558907,-0.68003964,4.220878,0.3717769,-1.6683003
759,1747638673960,-1.105765715,-1.15296365,-1.1240747199999999,3.15571315,0.23765775500000003,-1.06569945
760,1747638673970,-1.5564017,-1.1500366,-1.5681098,2.0905483,0.10353861,-0.4630986
761,1747638673980,-1.6901291,-1.13806945,-1.51173455,1.6033213499999999,0.18054354500000003,-0.07944833500000004
762,1747638673990,-1.8238565,-1.1261023,-1.4553593,1.1160944,0.25754848,0.30420193
763,1747638674000,-1.5371019,-1.1932099,-1.0353652,-0.5120427,1.2080268,1.8349851
764,1747638674010,-1.40807,-1.174237725,-0.72213049,-0.67886125,1.629206,1.810093075
765,1747638674020,-1.2790381000000002,-1.15526555,-0.40889578,-0.8456798000000001,2.0503852,1.78520105
766,1747638674030,-1.4517006,-1.0668001,-0.27980292,-0.6765133,2.0180104,1.5998089
767,1747638674040,-1.499165225,-1.024091775,-0.36601221500000003,-0.009678085000000003,1.0213939425,1.2140589
768,1747638674050,-1.54662985,-0.98138345,-0.45222151,0.65715713,0.024777485000000016,0.8283089
769,1747638674060,-1.6650057,-0.8730387,-0.8579464,1.3795985,-2.005717,0.40132666
770,1747638674070,-1.7152678,-0.8553394999999999,-0.92883468,1.42262505,-2.3566869500000003,0.29442839
771,1747638674080,-1.7655299,-0.8376403,-0.99972296,1.4656516,-2.7076569,0.18753012
772,1747638674090,-1.8658404,-0.77150846,-1.0214621,1.4519076,-2.9202316,0.15576605
773,1747638674100,-2.0683447,-0.692738605,-0.950375595,1.3076712750000001,-2.948635975,0.3321482
774,1747638674110,-2.270849,-0.61396875,-0.8792890900000001,1.16343495,-2.9770403500000002,0.50853035
775,1747638674120,-2.3832183,-0.6055536,-0.6971138,0.76966757,-2.501725,0.66704524
776,1747638674130,-2.447406525,-0.6308675825000001,-0.5448869475,0.71201885,-2.2810563750000004,0.69147912
777,1747638674140,-2.51159475,-0.656181565,-0.392660095,0.65437013,-2.0603877500000003,0.715913
778,1747638674150,-2.4779113749999997,-0.6919991825,-0.2777829675,0.820100635,-1.8946954750000002,0.93062585
779,1747638674160,-2.444228,-0.7278168,-0.16290584,0.98583114,-1.7290032,1.1453387
780,1747638674170,-2.086707,-0.7563856,-0.33642206,1.2014602,-1.2122264,1.879577
781,1747638674180,-1.6729329000000002,-0.70671805,-0.6059652150000001,0.9893053250000001,-0.5045216650000001,2.48038345
782,1747638674190,-1.2591588,-0.6570505,-0.87550837,0.77715045,0.20318307,3.0811899
783,1747638674200,-0.30419457,-0.7737037,-1.1320173,-0.8971056,2.2568517,4.305328
784,1747638674210,-0.1399471855,-0.802745015,-1.07527615,-1.3345104,2.48988985,4.478503
785,1747638674220,0.024300199,-0.83178633,-1.018535,-1.7719152,2.722928,4.651678
786,1747638674230,0.44453815,-0.9188951,-0.7002848,-3.0355291,3.0424774,4.9662647
787,1747638674240,0.523003075,-0.95465935,-0.620600235,-3.5171822,3.1096707,5.161773849999999
788,1747638674250,0.601468,-0.9904236,-0.54091567,-3.9988353,3.176864,5.357283
789,1747638674260,1.2491583,-1.4370351,0.0059759584,-4.2829556,3.2031302,5.624223
790,1747638674270,1.359782125,-1.480162625,0.2374604942,-4.41503215,3.1513609750000002,5.561916824999999
791,1747638674280,1.47040595,-1.52329015,0.46894503,-4.5471087,3.09959175,5.499610649999999
792,1747638674290,1.3016309,-1.352335,1.0849109,-3.9527164,2.7491944,4.8508143
793,1747638674300,1.1891243,-1.31841535,1.11029345,-3.5891477,2.6004532,4.74452685
794,1747638674310,1.0766177,-1.2844957,1.135676,-3.225579,2.451712,4.6382394
795,1747638674320,0.8937107,-1.2631377499999998,1.0550158,-2.7511034,2.0238134,4.65839745
796,1747638674330,0.7108037,-1.2417798,0.9743556,-2.2766278,1.5959148,4.6785555
797,1747638674340,0.37523532,-1.3091313,0.64268994,-2.1146004,0.35955995,5.1312695
798,1747638674350,0.33142178,-1.33524565,0.64892507,-2.17599055,0.160385575,5.3777462499999995
799,1747638674360,0.28760824,-1.36136,0.6551602,-2.2373807,-0.0387888,5.624223
800,1747638674370,0.3954804,-1.4934102,0.6436656,-2.2654035,-0.7156076,6.2741647
801,1747638674380,0.48517314,-1.54794845,0.620798425,-2.25604985,-0.82250585,6.3581562
802,1747638674390,0.5748658799999999,-1.6024867,0.59793125,-2.2466962,-0.9294041,6.4421477
803,1747638674400,0.6378421,-1.6261619,0.63659203,-2.2454746,-1.8737739,6.770173
804,1747638674410,0.6362566249999999,-1.5934618500000002,0.652461865,-2.14327215,-1.9629576499999999,6.949762
805,1747638674420,0.63467115,-1.5607618,0.6683317,-2.0410697,-2.0521414,7.129351
806,1747638674430,0.7237313,-1.5510051,0.6573554,-1.4815336,-1.9989977,7.8569465
807,1747638674440,1.09663415,-1.55161495,0.318006345,-1.5482304999999998,-1.6331001500000002,8.23445025
808,1747638674450,1.469537,-1.5522248,-0.02134271,-1.6149274,-1.2672026,8.611954
809,1747638674460,1.769707,-1.4958495,-0.18046784,-2.3170965,-1.0509627,8.703581
810,1747638674470,2.1141782,-1.4859556,-0.00036586999999999037,-3.15204825,-1.13128915,8.576219
811,1747638674480,2.4586494,-1.4760617,0.1797361,-3.987,-1.2116156,8.448857
812,1747638674490,2.7241833,-1.532437,0.68589365,-4.226223,-1.197566,8.062802
813,1747638674500,2.7241833,-1.532437,0.68589365,-4.226223,-1.197566,8.062802
814,1747638674510,2.7573864,-1.6564076,1.1578724,-4.065494,-1.2519314,7.6198616
815,1747638674520,2.6709941500000003,-1.6500658000000001,1.34994155,-3.5633012,-1.3847907,7.5352593
816,1747638674530,2.5846019,-1.643724,1.5420107,-3.0611084,-1.51765,7.450657
817,1747638674540,3.3628488,-1.6225033,0.7083645,-2.4410985,-1.6141639,8.142823
818,1747638674550,3.7563777,-1.67412215,0.62465535,-2.8881622499999997,-1.4819155,8.0939555
819,1747638674560,4.1499066,-1.725741,0.5409462,-3.335226,-1.3496671,8.045088
820,1747638674570,4.4600773,-1.5568591,2.316873,-5.5371776,-0.6252022,6.58081
821,1747638674580,4.28351215,-1.4433769,2.8160637,-4.3268602,-0.348182955,6.1797888
822,1747638674590,4.106947,-1.3298947,3.3152544,-3.1165428,-0.07116371,5.7787676
823,1747638674600,3.8777874,-1.0397253,3.6654577,-1.4609939,-0.13530266,5.7567773
824,1747638674610,4.1634442,-0.85094905,3.12001435,-1.1781334650000002,-0.119115215,5.73814665
825,1747638674620,4.449101,-0.6621728,2.574571,-0.89527303,-0.10292777,5.719516
826,1747638674630,5.8177176,-0.259009,1.9617912,-3.0529382,2.2611275,4.317545
827,1747638674640,5.70655255,-0.15235644199999998,2.5158937999999997,-3.5495571,2.9193536,3.7375454
828,1747638674650,5.5953875,-0.045703884,3.0699964,-4.046176,3.5775797,3.1575458
829,1747638674660,4.788084,0.2795895,4.8247023,-2.1326969,3.8170319,1.8594191
830,1747638674670,4.788084,0.2795895,4.8247023,-2.1326969,3.8170319,1.8594191
831,1747638674680,5.319853,0.19443208,3.7711346,1.3615786,1.8158199,0.11728267
832,1747638674690,5.33474715,0.1070641755,3.6254401,1.4989428500000002,1.82864765,-0.37632011500000007
833,1747638674700,5.3496413,0.019696271,3.4797456,1.6363071,1.8414754,-0.8699229
834,1747638674710,5.0875225,-0.5948213,3.6159122,1.9347824,2.0968096,-2.3518384
835,1747638674720,4.9484822500000005,-1.196998225,3.823660725,2.43666975,2.0699322999999996,-3.1013861
836,1747638674730,4.809442000000001,-1.79917515,4.031409249999999,2.9385571,2.043055,-3.8509338
837,1747638674740,4.610909,-2.1171663,4.074476,4.776673,1.3839508,-5.2595477
838,1747638674750,4.243067625,-2.374460225,3.4893197249999997,6.175188674999999,0.58706238325,-6.267789275
839,1747638674760,3.87522625,-2.63175415,2.90416345,7.57370435,-0.2098260335,-7.27603085
840,1747638674770,3.3433354,-2.7494895,1.6459801,8.078989,-1.009425,-8.461151
841,1747638674780,3.2409513,-2.73265945,1.4548866500000002,7.894246,-1.0967761999999999,-8.7015195
842,1747638674790,3.1385672,-2.7158294,1.2637932,7.709503,-1.1841274,-8.941888
843,1747638674800,2.7124753,-2.6055179,0.8935887,7.0484138,-1.0876136,-9.735378
844,1747638674810,2.4135097500000002,-2.60307875,0.67540524,6.8041894,-1.1590827,-10.1730505
845,1747638674820,2.1145442,-2.6006396,0.45722178,6.559965,-1.2305518,-10.610723
846,1747638674830,2.1145442,-2.6006396,0.45722178,6.559965,-1.2305518,-10.610723
847,1747638674840,1.83120445,-2.5348735,0.24588324,6.027688,-1.684716725,-10.824557500000001
848,1747638674850,1.5478647,-2.4691074,0.0345447,5.495411000000001,-2.13888165,-11.038392
849,1747638674860,1.3531277,-2.3016894,-0.08845028,4.3748116,-2.6569564,-10.982118
850,1747638674870,1.3531277,-2.3016894,-0.08845028,4.3748116,-2.6569564,-10.982118
851,1747638674880,1.2581831,-2.1901584,-0.15116736,3.6370609,-2.6215274,-10.792144
852,1747638674890,1.17851385,-2.12510885,-0.14945994,2.9834543499999997,-2.3267554,-10.5300905
853,1747638674900,1.0988446,-2.0600593,-0.14775252,2.3298478,-2.0319834,-10.268037
854,1747638674910,0.75254387,-1.8182158,0.12945877,0.9914815,-1.3014101,-9.125142
855,1747638674920,0.710437785,-1.7263355,0.153987635,0.800820775,-1.1621369000000001,-8.760466000000001
856,1747638674930,0.6683317,-1.6344552,0.1785165,0.61016005,-1.0228637,-8.39579
857,1747638674940,0.790351,-1.2949841,0.15973492,-0.007941014,-0.23181653,-6.991376
858,1747638674950,0.92653275,-1.2261691,0.2180615,-0.271216187,0.07333985000000001,-6.50575235
859,1747638674960,1.0627145,-1.1573541,0.27638808,-0.53449136,0.37849623,-6.0201287
860,1747638674970,1.5424986,-1.0548481,0.5711919,-0.6478799,0.7425612,-5.1844134
861,1747638674980,1.61388995,-1.04911605,0.64502242,-0.5382328,0.8357154,-5.1370727
862,1747638674990,1.6852813,-1.043384,0.71885294,-0.4285857,0.9288696,-5.089732
863,1747638675000,1.6152467,-1.021645,1.0590557,0.77715045,1.2642248,-5.252828
864,1747638675010,1.55667625,-1.0211571,1.10395165,1.228566575,1.1469421,-5.28367585
865,1747638675020,1.4981058,-1.0206692,1.1488476,1.6799827,1.0296594,-5.3145237
866,1747638675030,1.2535487,-1.0748494,0.89285696,3.5473428,0.13598987,-5.001159
867,1747638675040,1.1904658000000001,-1.1280535999999999,0.63416809,4.17445375,-0.15664414,-4.7418543500000006
868,1747638675050,1.1273829,-1.1812578,0.37547922,4.8015647,-0.44927815,-4.4825497
869,1747638675060,1.027316,-1.2732755,0.36596647,5.051478,-0.6960605,-4.406194
870,1747638675070,1.027316,-1.2732755,0.36596647,5.051478,-0.6960605,-4.406194
871,1747638675080,0.8865151,-1.3430662,0.43819633,5.315669,-1.1432006,-4.558295
872,1747638675090,0.68664065,-1.3771078,0.550824835,5.93218575,-2.057199925,-5.10349525
873,1747638675100,0.4867662,-1.4111494,0.66345334,6.5487025,-2.9711992499999997,-5.6486955000000005
874,1747638675110,-0.1797361,-1.4894772,0.07750452,6.7587194,-3.706392,-6.427564
875,1747638675120,-0.33140653,-1.49876125,-0.17898909,6.4577627,-3.40982565,-6.466658300000001
876,1747638675130,-0.48307696,-1.5080453,-0.4354827,6.156806,-3.1132593,-6.5057526
877,1747638675140,-1.2869654,-1.5963737,-0.901638,3.2806315,-0.95567054,-5.8808556
878,1747638675150,-1.67439655,-1.74586405,-0.38926053000000005,1.5989308500000001,0.18940082999999996,-4.98592615
879,1747638675160,-2.0618277,-1.8953544,0.12311694,-0.0827698,1.3344722,-4.0909967
880,1747638675170,-2.118203,-2.1730537,0.5858269,0.0898709,1.4334295,-3.6890593
881,1747638675180,-2.22801115,-2.17073655,0.64073862,0.3671192,1.4126606499999999,-3.6362210499999996
882,1747638675190,-2.3378193,-2.1684194,0.69565034,0.6443675,1.3918918,-3.5833828
883,1747638675200,-2.9813933,-2.365138,-0.1299466,2.2363882,1.2972105,-3.182667
884,1747638675210,-3.16539815,-2.3962526,-0.41731092999999997,1.9541195,1.41021725,-2.8849935
885,1747638675220,-3.349403,-2.4273672,-0.70467526,1.6718508,1.523224,-2.58732
886,1747638675230,-3.8973007,-2.6240554,-1.1539698,0.47615543,1.6307331,-1.6224867
887,1747638675240,-3.8973007,-2.6240554,-1.1539698,0.47615543,1.6307331,-1.6224867
888,1747638675250,-3.6127415,-2.590151,-0.4337753,-1.2092485,0.9801808,1.2070342
889,1747638675260,-3.3832157499999997,-2.5543868,-0.30785332499999996,-1.0391656999999999,0.7636354249999999,1.6996825000000002
890,1747638675270,-3.15369,-2.5186226,-0.18193135,-0.8690829,0.54709005,2.1923308
891,1747638675280,-2.1699436,-2.3748946,-0.34764224,-0.12949961,0.10720369,3.497177
892,1747638675290,-1.797155125,-2.2742866250000002,-0.5470288674999999,-0.269994485,0.3714333025,3.9267553250000002
893,1747638675300,-1.42436665,-2.1736786500000003,-0.7464154949999999,-0.41048936,0.6356629149999999,4.35633365
894,1747638675310,-0.87721586,-1.9734383,-1.0849109,-0.6372664,0.94658417,4.5960913
895,1747638675320,-0.629381255,-1.8709323,-1.00644593,-1.8620915499999997,2.43403541,5.021737225000001
896,1747638675330,-0.38154665,-1.7684263,-0.92798096,-3.0869166999999997,3.92148665,5.44738315
897,1747638675340,-0.297121,-1.7115632,-0.59729093,-4.476747,5.0851507,5.8074775
898,1747638675350,-0.15721954500000002,-1.644943525,-0.3860667255,-4.650246624999999,5.0355193499999995,5.936060875000001
899,1747638675360,-0.017318089999999994,-1.5783238499999999,-0.174842521,-4.82374625,4.985888,6.064644250000001
900,1747638675370,0.48140004,-1.409686,-0.045764867,-4.683595,4.823708,6.173986
901,1747638675380,0.48140004,-1.409686,-0.045764867,-4.683595,4.823708,6.173986
902,1747638675390,2.028655,-1.2066557,-0.52579284,-5.608265,5.860392,5.9559135
903,1747638675400,2.0939332,-1.2060307,-0.41962812000000005,-6.246295,5.98011825,5.559168250000001
904,1747638675410,2.1592114,-1.2054057,-0.3134634,-6.884325,6.0998445,5.162423
905,1747638675420,1.7553158,-1.2571466,0.82379806,-8.211467,5.1975465,3.517335
906,1747638675430,1.33787531,-1.15691204,1.3778395049999999,-7.3125098500000005,3.740962175,3.18824095
907,1747638675440,0.92043482,-1.05667748,1.93188095,-6.4135527,2.2843778500000003,2.8591469
908,1747638675450,0.5560691,-0.98310614,1.7648286,-3.9427137,0.15736952,3.2058027
909,1747638675460,0.53666245,-1.01861127,1.259646675,-3.32119565,-0.45763915749999995,3.4745755249999997
910,1747638675470,0.5172558,-1.0541164,0.75446475,-2.6996776000000002,-1.072647835,3.7433483499999998
911,1747638675480,0.60390717,-1.1409812,0.076528855,-2.6504662,-1.5549117,4.28517
912,1747638675490,0.610614885,-1.1773552999999999,-0.0097414225,-3.1249418,-1.38356905,4.4580397000000005
913,1747638675500,0.6173226,-1.2137294,-0.0960117,-3.5994174,-1.2122264,4.6309094
914,1747638675510,0.46871638,-1.443133,0.059668116,-5.0375047,-0.69789296,5.1526494
915,1747638675520,0.385738965,-1.5672256500000001,0.432692943,-5.234999200000001,-1.18107318,5.5890997
916,1747638675530,0.30276155,-1.6913183,0.80571777,-5.4324937,-1.6642534,6.02555
917,1747638675540,0.340339975,-1.7192619,0.914565535,-5.16895135,-2.1612157,6.320284
918,1747638675550,0.3779184,-1.7472055,1.0234133,-4.905409,-2.658178,6.615018
919,1747638675560,1.3033382,-1.7928486,0.8723375,-3.9296567,-4.294638,7.734166
920,1747638675570,1.8502451999999998,-1.66227685,0.5808265850000001,-3.8838431499999997,-4.29311075,7.825487799999999
921,1747638675580,2.3971522,-1.5317051,0.28931567,-3.8380296,-4.2915835,7.9168096
922,1747638675590,2.4420633,-1.4582559,0.38328457,-4.852418,-1.9996085,7.333985
923,1747638675600,2.3450606499999997,-1.43079995,0.57718307,-5.053043150000001,-1.62118865,7.1492035000000005
924,1747638675610,2.248058,-1.403344,0.77108157,-5.2536683,-1.2427688,6.964422
925,1747638675620,2.3039453,-1.4382546,1.6545173,-4.188885,-3.0417902,7.1354594
926,1747638675630,2.50394175,-1.41323795,1.7307869999999999,-3.7751505,-3.9950174,7.3290979499999995
927,1747638675640,2.7039382,-1.3882213,1.8070567,-3.361416,-4.9482446,7.5227365
928,1747638675650,3.9222105,-1.0106688,1.7397052,-1.5719391,-6.41863,7.5722156
929,1747638675660,3.9222105,-1.0106688,1.7397052,-1.5719391,-6.41863,7.5722156
930,1747638675670,3.9617555,-0.25071585,1.4736835,-0.19860171,-4.8877707,6.5185037
931,1747638675680,3.93954385,-0.17273874,1.54091305,-0.03974324499999998,-4.84531685,6.35662915
932,1747638675690,3.9173322,-0.09476163,1.6081426,0.11911522,-4.802863,6.1947546
933,1747638675700,4.112069,0.07997418,1.8016906,1.2506334,-5.487088,5.3847713
934,1747638675710,4.141179,0.298035695,1.7016847,1.8483474,-5.291139725,5.136881775
935,1747638675720,4.170289,0.51609721,1.6016788000000002,2.4460614,-5.09519145,4.88899225
936,1747638675730,4.324887,1.1491524,0.790351,3.4949627,-2.7644656,4.7200933
937,1747638675740,4.429588000000001,1.28166015,0.49018104,3.46755085,-2.0726429499999997,4.614416650000001
938,1747638675750,4.534289,1.4141679,0.19001108,3.440139,-1.3808203,4.50874
939,1747638675760,4.455443,2.3242211,-0.16412543,1.7060964,0.19035527,2.6334388
940,1747638675770,4.39614085,2.7672957,-0.31408846,1.33382317,-0.07265265499999998,1.9785724
941,1747638675780,4.3368387,3.2103703,-0.46405149,0.96154994,-0.33566058,1.323706
942,1747638675790,4.4122696,3.4580677,-0.77983207,0.51670045,0.08765658,0.54854083
943,1747638675800,4.4122696,3.4580677,-0.77983207,0.51670045,0.08765658,0.54854083
944,1747638675810,4.548924,3.171557,-0.9616719,-1.3818892,1.7229711,-1.3390535
945,1747638675820,4.585786,2.8735824,-0.56924057,-2.0996346,2.107194,-2.1435394
946,1747638675830,4.585786,2.8735824,-0.56924057,-2.0996346,2.107194,-2.1435394
947,1747638675840,4.7182937,2.469199,-0.11726294,-2.274108,2.3008325,-2.986585
948,1747638675850,4.867281,2.1184925000000003,0.17853176000000004,-2.0495071,2.08520345,-3.7751888499999997
949,1747638675860,5.0162683,1.767786,0.47432646,-1.8249062,1.8695744,-4.5637927
950,1747638675870,5.1302385,0.8069983,1.3397123,-0.41980478,0.827469,-7.003593
951,1747638675880,5.0459194,0.636165165,1.39425815,0.024739310000000014,0.79478865,-7.4134715
952,1747638675890,4.9616003,0.46533203,1.448804,0.4692834,0.7621083,-7.82335
953,1747638675900,4.8229947,-0.21385394,1.3284616,2.465685,0.77921206,-8.868586
954,1747638675910,4.76027785,-0.40141061999999994,1.126757775,3.135478975,0.5828246475,-9.414072749999999
955,1747638675920,4.697561,-0.5889673,0.92505395,3.80527295,0.386437235,-9.9595595
956,1747638675930,3.9590724,-0.98993576,0.111896776,4.2233977,-0.2715216,-10.761601
957,1747638675940,3.6487646500000004,-1.0337340799999999,-0.10224681199999999,4.174148349999999,-0.43400697499999996,-10.8706375
958,1747638675950,3.3384569,-1.0775324,-0.3163904,4.124899,-0.59649235,-10.979674
959,1747638675960,2.9884975,-1.0763128,-0.48283303,3.2058792,-1.2366602,-10.932639
960,1747638675970,2.6985035,-1.0134127975,-0.539574145,2.6915457,-1.3334795000000002,-10.72098
961,1747638675980,2.4085095,-0.950512795,-0.59631526,2.1772122,-1.4302988,-10.509321
962,1747638675990,2.1919267,-0.8871859,-0.56070346,1.0986089,-1.4119735,-9.851439
963,1747638676000,2.1919267,-0.8871859,-0.56070346,1.0986089,-1.4119735,-9.851439
964,1747638676010,1.9341983,-0.94965905,-0.45966098,-0.27961534,-0.9544488,-8.980982
965,1747638676020,1.8905219,-0.9640654049999999,-0.41731094,-0.491770235,-0.88664477,-8.8676695
966,1747638676030,1.8468455,-0.97847176,-0.3749609,-0.70392513,-0.81884074,-8.754357
967,1747638676040,1.655249,-0.9996925,-0.07357136,-1.0341644,-0.81578654,-8.529566
968,1747638676050,1.60779195,-0.9867572775,-0.028789786750000004,-0.9675057,-0.89489127,-8.4577915
969,1747638676060,1.5603349,-0.973822055,0.0159917865,-0.900847,-0.973996,-8.386017
970,1747638676070,1.3762999,-0.9374633,0.051618867,-0.69522053,-1.2317735,-8.151375
971,1747638676080,1.2971184,-0.92549608,0.07090352850000001,-0.65814975,-1.2965233500000002,-8.04081165
972,1747638676090,1.2179369,-0.91352886,0.09018819,-0.62107897,-1.3612732,-7.9302483
973,1747638676100,1.1166505,-0.82495666,0.06796128,-0.29206136,-1.5194826,-7.190512
974,1747638676110,1.1070158,-0.8286154,0.0166015775,-0.2680856,-1.40342155,-7.0866679999999995
975,1747638676120,1.0973811,-0.83227414,-0.034758125,-0.24410984,-1.2873605,-6.982824
976,1747638676130,1.0036561,-0.8347134,0.036008198,-0.4883724,-0.9025268,-6.67007
977,1747638676140,0.82172478,-0.795915365,0.23368740899999998,-0.34757209499999997,-0.9019159699999999,-6.346321
978,1747638676150,0.63979346,-0.75711733,0.43136662,-0.20677179,-0.90130514,-6.022572
979,1747638676160,0.5246038,-0.6594897,0.54777586,0.38208497,-1.0796726,-5.450132
980,1747638676170,0.5246038,-0.6594897,0.54777586,0.38208497,-1.0796726,-5.450132
981,1747638676180,0.4735947,-0.5023159,0.63878727,1.377766,-1.2959125,-4.541191
982,1747638676190,0.80254686,-0.48085123,0.16778417,2.222644,-1.0570712,-3.874146
983,1747638676200,0.80254686,-0.48085123,0.16778417,2.222644,-1.0570712,-3.874146
984,1747638676210,0.7129989,-0.66314846,0.0345447,2.2650216,-0.8915316,-3.7971792
985,1747638676220,0.661867875,-0.70866943,0.012454996,2.3089644,-0.8258654999999999,-3.76816405
986,1747638676230,0.61073685,-0.7541904,-0.009634708,2.3529072,-0.7601994,-3.7391489
987,1747638676240,-0.23830658,-0.9638063,-0.09088945,2.5971699,-0.015576605,-3.2852893
988,1747638676250,-0.45732854,-0.9987016,-0.080522995,2.5688037,0.1283160975,-2.97982755
989,1747638676260,-0.6763505,-1.0335969,-0.07015654,2.5404375,0.2722088,-2.6743658
990,1747638676270,-1.0539029,-1.5697868,-0.09137728,2.0057933,-0.21349111,-0.9762103
991,1747638676280,-1.0402436,-1.78027165,-0.121150355,1.567472225,-0.1780619725,-0.818306275
992,1747638676290,-1.0265843,-1.9907565,-0.15092343,1.12915115,-0.142632835,-0.66040225
993,1747638676300,-1.2001005,-2.1042387,0.02625153,0.32787228,0.4774535,-1.1185377
994,1747638676310,-1.3749582500000002,-2.16902895,0.114107265,0.278966315,0.54128702,-1.3925027
995,1747638676320,-1.549816,-2.2338192,0.201963,0.23006035,0.60512054,-1.6664677
996,1747638676330,-2.2629066,-2.5977125,0.30568856,0.5640411,-0.60321164,-2.2467725
997,1747638676340,-2.384316,-2.61724115,0.23795596,0.5814884,-0.8527427200000001,-2.17744135
998,1747638676350,-2.5057254,-2.6367698,0.17022336,0.5989357,-1.1022738,-2.1081102
999,1747638676360,-2.7446725,-2.5762174,-0.21586627,0.0038941512,-1.5701829,-1.0867736
