id,timestamp,acc_x,acc_y,acc_z,gyro_x,gyro_y,gyro_z
0,1747638514890,0.058936365,0.69693094,0.5941505,0.85251373,-1.2989666,0.08063184
1,1747638514900,0.036130156499999996,0.637872605,0.41427721,1.046305015,-1.65478515,0.0739125175
2,1747638514910,0.013323948,0.57881427,0.23440392,1.2400963,-2.0106037,0.067193195
3,1747638514920,0.058204614,0.272272,-0.21464668,0.6368846,-1.9079814,0.28037888
4,1747638514930,0.075903817,0.195651665,-0.201703845,0.49047215,-1.7787872,0.32680328999999997
5,1747638514940,0.09360302,0.11903133,-0.18876101,0.3440597,-1.649593,0.3732277
6,1747638514950,0.23551679000000003,-0.290367535,-0.018659619999999988,0.3801951425,-1.717397025,0.433090725
7,1747638514960,0.37743056,-0.6997664,0.15144177,0.41633058500000003,-1.78520105,0.49295374999999997
8,1747638514970,0.37743056,-0.6997664,0.15144177,0.58519167,-1.9434105,0.49967307
9,1747638514980,0.369259345,-0.8254445,-0.06991261499999998,0.7113698150000001,-2.1776704,0.47218493500000003
10,1747638514990,0.36108813,-0.9511226,-0.291267,0.83754796,-2.4119303,0.4446968
11,1747638515000,0.22733033,-0.9943263,-0.45380697,0.39201123,-3.042401,0.9315421
12,1747638515010,0.283461665,-0.968821765,-0.4534411,0.1783292225,-3.5213055,1.3554701
13,1747638515020,0.339593,-0.94331723,-0.45307523,-0.035352785,-4.00021,1.7793981
14,1747638515030,0.81184614,-0.9230721,-0.47624728,-0.28526568,-4.810193,2.788594
15,1747638515040,0.81184614,-0.9230721,-0.47624728,-0.28526568,-4.810193,2.788594
16,1747638515050,1.4256015,-0.70001036,-0.56411827,-0.9394831,-4.314796,3.8038223
17,1747638515060,1.4256015,-0.70001036,-0.56411827,-0.9394831,-4.314796,3.8038223
18,1747638515070,1.4256015,-0.70001036,-0.56411827,-0.9394831,-4.314796,3.8038223
19,1747638515080,2.003257,-0.27437577,-0.29809666,-1.3625711,-3.9971554,4.6669493
20,1747638515090,2.3273613500000003,-0.038020515000000005,-0.1510606425,-1.176262725,-4.25248945,4.8303509
21,1747638515100,2.6514657,0.19833474,-0.004024625,-0.98995435,-4.5078235,4.9937525
22,1747638515110,2.927244,0.7203469,0.13046493,-0.30023143,-4.9012094,4.924116
23,1747638515120,2.9234481,1.09764025,0.0042837900000000095,-0.12201674000000001,-4.695964699999999,4.916786
24,1747638515130,2.9196522,1.4749336,-0.12189735,0.05619795,-4.49072,4.909456
25,1747638515140,3.1620138,2.2095191,0.07162003,-1.0024004,-2.5885415,5.179527
26,1747638515150,3.2148521,2.2217302,0.269299245,-1.12796765,-2.2946858499999996,4.993791
27,1747638515160,3.2676904,2.2339413,0.46697846,-1.2535349,-2.0008302,4.808055
28,1747638515170,3.164697,2.2617478,0.89017385,-0.5706077,-1.6361544,3.568646
29,1747638515180,2.743894925,2.332399775,0.97193169,-0.031038700000000086,-1.9818938999999998,3.0744705000000003
30,1747638515190,2.32309285,2.40305175,1.05368953,0.5085303,-2.3276334,2.580295
31,1747638515200,1.800471,2.3281236,0.6897963,0.4201102,-2.2671597,2.212489
32,1747638515210,1.6402481999999998,2.2903012,0.6462419500000001,0.174931383,-2.06038785,2.0133527
33,1747638515220,1.4800254,2.2524788,0.6026876,-0.070247434,-1.853616,1.8142164
34,1747638515230,0.92849934,2.1946402,0.69808954,-1.1563338,-0.8878665,1.3353121
35,1747638515240,0.67895733,2.1667575,1.1085783949999999,-1.44511185,-0.25254716,0.936123415
36,1747638515250,0.42941532,2.1388748,1.51906725,-1.7338899,0.38277218,0.53693473
37,1747638515260,0.31581112,2.1530829000000002,1.800707225,-1.3089693,0.42003386,0.30542362300000003
38,1747638515270,0.20220692,2.167291,2.0823472,-0.8840487,0.45729554,0.073912516
39,1747638515280,0.18391317,2.2000065,2.112105,-0.02351762,0.39315656,-0.3354315
40,1747638515290,0.310322985,2.246747,1.6463461000000001,1.0204585899999998,0.331766415,-1.17443025
41,1747638515300,0.4367328,2.2934875,1.1805872,2.0644348,0.27037627,-2.013429
42,1747638515310,0.5428975,2.3749862,0.7171455,2.0164068,0.6222243,-2.6004531
43,1747638515320,0.7460649,2.3393591000000002,0.5244665749999999,1.6167218,1.06447775,-3.00823185
44,1747638515330,0.9492323,2.303732,0.33178765,1.2170368,1.5067312,-3.4160106
45,1747638515340,1.4268211,2.2829685,0.29102308,0.60702944,1.9263831,-4.070228
46,1747638515350,1.9090595499999998,2.2362432500000002,0.23025733999999998,0.33504971,2.21042705,-4.478885
47,1747638515360,2.391298,2.189518,0.1694916,0.06306998,2.494471,-4.887542
48,1747638515370,3.256928,1.6931171,0.3310559,-0.042224817,3.168312,-6.1380224
49,1747638515380,3.196894,1.16342155,0.48028717499999996,0.28331859150000005,3.238254,-6.739706999999999
50,1747638515390,3.13686,0.633726,0.62951845,0.608862,3.308196,-7.3413916
51,1747638515400,2.9694414,0.27495506,0.54192185,1.9815122,2.751638,-7.922918
52,1747638515410,2.9217405000000003,0.18990437,0.456139415,2.3139276,2.4749241,-7.9183367
53,1747638515420,2.8740396,0.10485368,0.37035698,2.646343,2.1982102,-7.9137554
54,1747638515430,2.7720215,-0.6143346,-0.31468302,2.821427,1.5604857,-7.648037
55,1747638515440,2.6067983999999997,-0.7212310799999999,-0.3673995,2.58873245,1.63531445,-7.56374
56,1747638515450,2.4415753,-0.82812756,-0.42011598,2.3560379,1.7101432,-7.479443
57,1747638515460,1.614271,-0.96770895,-0.19534676,1.4189218,1.8915648,-6.6590753
58,1747638515470,1.3151834500000001,-1.130126875,0.05027733000000001,1.228547425,1.745114225,-5.9556655
59,1747638515480,1.0160959,-1.2925448,0.29590142,1.03817305,1.59866365,-5.2522557
60,1747638515490,0.973029325,-1.3595305,0.30738075,1.148144625,1.299195775,-4.70369565
61,1747638515500,0.92996275,-1.4265162,0.31886008,1.2581162,0.9997279,-4.1551356
62,1747638515510,0.7508365,-1.560274,0.22757424,1.3846381,0.72729003,-3.7446463
63,1747638515520,0.483595295,-1.5963888499999999,0.051252990000000026,1.2173422500000002,0.520823655,-3.16766295
64,1747638515530,0.21635409,-1.6325037,-0.12506826,1.0500464,0.31435728,-2.5906796
65,1747638515540,-0.1504356,-1.5873487,-0.16997942,0.47058147,0.34489962,-1.5962203
66,1747638515550,-0.3090729,-1.5679421,-0.14837755,0.144999875,0.29389388,-0.7654298199999999
67,1747638515560,-0.4677102,-1.5485355,-0.12677568,-0.18058172,0.24288814,0.06536066
68,1747638515570,-0.3161465,-1.5592983,-0.17412601,-0.71950173,-0.2947338,2.3004508
69,1747638515580,-0.26245434,-1.5451358499999999,-0.17985805,-0.780281035,-0.46607645,2.66760815
70,1747638515590,-0.20876218,-1.5309734,-0.18559009,-0.84106034,-0.6374191,3.0347655
71,1747638515600,0.11433593,-1.4685003,-0.16973552,-0.913293,-1.321568,4.1953754
72,1747638515610,0.223427665,-1.4560605500000001,-0.17815064,-0.87030465,-1.4831371,4.370383
73,1747638515620,0.3325194,-1.4436208,-0.18656576,-0.8273163,-1.6447062,4.5453906
74,1747638515630,0.8194075,-1.3325777,-0.3857237,-0.17867282,-2.488897,5.241833
75,1747638515640,0.8324570499999999,-1.3039556500000002,-0.468754475,-0.03880789100000001,-2.7108255249999997,5.453797
76,1747638515650,0.8455066,-1.2753336000000002,-0.55178525,0.101057038,-2.93275405,5.665761
77,1747638515660,0.9431343,-1.2568492500000001,-0.678141725,0.106993714,-3.174191525,5.962633
78,1747638515670,1.040762,-1.2383649,-0.8044982,0.11293039,-3.415629,6.259505
79,1747638515680,1.5210339,-1.2078754,-1.0292674,-0.3475721,-3.6159868,6.866687
80,1747638515690,1.77179545,-1.09610055,-1.0346335500000001,-0.66815237,-3.5869714999999998,7.03405915
81,1747638515700,2.022557,-0.9843257,-1.0399997,-0.98873264,-3.5579562,7.2014313
82,1747638515710,2.3617842,-0.55259323,-0.9426159,-1.5830871,-3.4980931,7.457987
83,1747638515720,2.5433496,-0.17993428500000003,-0.7244477,-1.6965138,-3.42479145,7.54442175
84,1747638515730,2.724915,0.19272466,-0.5062795,-1.8099405,-3.3514898,7.6308565
85,1747638515740,2.9391959,0.46557596,-0.37276566,-1.708387,-3.3569875,7.6620097
86,1747638515750,3.14748545,1.26251268,-0.206566935,-1.587038425,-3.257877575,7.470203724999999
87,1747638515760,3.355775,2.0594494,-0.04036821,-1.46568985,-3.15876765,7.27839775
88,1747638515770,3.355775,2.0594494,-0.04036821,-1.467866,-2.999642,7.1672235
89,1747638515780,3.4521678,2.3947587,0.19867011499999998,-1.43606375,-2.6337062500000004,6.8679085
90,1747638515790,3.5485606,2.730068,0.43770844,-1.4042615,-2.2677705,6.5685935
91,1747638515800,3.6520424,3.1161575,1.1774163,-0.3986542,-1.1810732,4.5826526
92,1747638515810,3.5331939500000002,3.26319345,1.24184075,-0.03073326000000004,-0.9715526,3.99318495
93,1747638515820,3.4143455,3.4102294,1.3062652,0.33718768,-0.762032,3.4037173
94,1747638515830,2.8864794,3.65625,1.018535,1.2020711,-0.30023143,1.2204728
95,1747638515840,2.8864794,3.65625,1.018535,1.2020711,-0.30023143,1.2204728
96,1747638515850,2.6463435,3.6067042,0.8328229,1.2307045,-0.114533864,0.3994941
97,1747638515860,1.7177222,3.120792,0.49896204,0.6244386,0.8164737,-1.7202222
98,1747638515870,1.7177222,3.120792,0.49896204,0.6244386,0.8164737,-1.7202222
99,1747638515880,1.5046915,2.8150117,0.4974985,0.44500223,1.1542722,-2.3298478
100,1747638515890,1.4499017,2.6500326,0.46967676999999997,0.412283715,1.26330845,-2.72174455
101,1747638515900,1.3951119,2.4850535,0.44185504,0.3795652,1.3723447,-3.1136413
102,1747638515910,1.817301,2.2258615,0.19830425,0.08299887,1.6136293,-3.9682164
103,1747638515920,1.9365154500000001,2.18023395,0.1901178,-0.025731944999999992,1.7779473000000001,-4.1786532
104,1747638515930,2.0557299,2.1346064,0.18193135,-0.13446276,1.9422653,-4.38909
105,1747638515940,2.4723394,1.8141607,0.3088595,-0.2391467,2.2189791,-4.7171154
106,1747638515950,2.6358398000000003,1.59135805,0.31544525,-0.048486,2.5088642500000002,-5.407716199999999
107,1747638515960,2.7993402,1.3685554,0.322031,0.1421747,2.7987494,-6.098317
108,1747638515970,2.893309,1.0171021,0.23342825,0.5047889,2.9276383,-6.7647514
109,1747638515980,2.8534134,0.7584132,0.13886480750000002,0.82975965,3.00827005,-7.23724195
110,1747638515990,2.8135178,0.4997243,0.044301365,1.1547304,3.0889018,-7.7097325
111,1747638516000,2.592895,-0.21458568,-0.32126877,1.7267125,2.6905532,-8.418391
112,1747638516010,2.5640366500000003,-0.2734000975,-0.361964735,1.6889927,2.64137995,-8.4926095
113,1747638516020,2.5351783,-0.332214515,-0.4026607,1.6512729,2.5922067,-8.566828
114,1747638516030,2.250985,-0.71074265,-0.5702162,1.2450594,2.7076569,-8.479476
115,1747638516040,2.2032688,-0.755272725,-0.5239635,1.0399101874999999,2.742646975,-8.25510435
116,1747638516050,2.1555526,-0.7998028,-0.4777108,0.834760975,2.77763705,-8.0307327
117,1747638516060,2.1877801,-1.0353348,-0.2519659,0.7391252,2.55128,-7.7414966
118,1747638516070,2.0386631499999996,-1.173460275,-0.11658453600000002,0.78833658,2.4755349000000004,-7.719200649999999
119,1747638516080,1.8895461999999998,-1.3115857499999999,0.018796827999999998,0.83754796,2.3997898,-7.6969047
120,1747638516090,1.4136496,-1.4741104,0.12945877,1.4282372,1.8872889,-7.21067
121,1747638516100,1.4136496,-1.4741104,0.12945877,1.4282372,1.8872889,-7.21067
122,1747638516110,0.9375242,-1.5297539,0.09653002,1.6762413,1.5238348,-6.775136
123,1747638516120,0.5858573499999999,-1.56086855,0.012333034999999992,1.71640445,1.2376529,-6.0863675
124,1747638516130,0.2341905,-1.5919832,-0.07186395,1.7565676,0.951471,-5.397599
125,1747638516140,-0.35398406,-1.5788116,-0.3986513,0.5241069,0.32718506,-2.3884892
126,1747638516150,-0.37643963,-1.6039503000000002,-0.429765925,0.07020924000000006,0.321687445,-1.73915855
127,1747638516160,-0.3988952,-1.629089,-0.46088055,-0.38368842,0.31618983,-1.0898279
128,1747638516170,-0.35374016,-1.7279363,-0.40255398,-1.0310339,0.39376742,-0.28404397
129,1747638516180,-0.45330390500000006,-1.78370175,-0.20085013582,-1.4344985000000001,0.31924405,0.46577106499999993
130,1747638516190,-0.55286765,-1.8394672,0.00085370836,-1.8379631,0.24472068,1.2155861
131,1747638516200,-0.75397694,-1.7586696,0.25126466,-1.5164284,-0.7846333,2.6780307
132,1747638516210,-0.64147037,-1.73645795,0.13240101699999998,-1.1273186499999999,-1.4696985000000002,3.8930441
133,1747638516220,-0.5289638,-1.7142463,0.013537374,-0.7382089,-2.1547637,5.1080575
134,1747638516230,0.40084654,-1.7603772,-0.297121,-0.7911999,-2.545706,7.711565
135,1747638516240,0.8735723200000001,-1.73182365,-0.32579645,-0.87996365,-2.6752437000000002,8.0444765
136,1747638516250,1.3462981,-1.7032701,-0.3544719,-0.9687274,-2.8047814,8.377388
137,1747638516260,2.2853773,-1.4745982,-0.3413004,-1.0734113,-3.2091625,8.459853
138,1747638516270,2.455844525,-1.1863801999999999,-0.33336548499999996,-1.0840248,-3.08607675,8.063069500000001
139,1747638516280,2.62631175,-0.8981622,-0.32543057,-1.0946383,-2.962991,7.666286
140,1747638516290,2.268547,-0.5543006,-0.05332628,-0.67216104,-3.0564506,7.70538
141,1747638516300,2.187521,-0.5125756100000001,-0.0640586175,-0.3463122115,-3.2574192999999996,7.8837855
142,1747638516310,2.106495,-0.47085062,-0.074790955,-0.020463383,-3.458388,8.062191
143,1747638516320,2.30258875,-0.45071226,-0.3033408775,0.3549404285,-3.8105415000000002,8.3437915
144,1747638516330,2.4986825,-0.4305739,-0.5318908,0.73034424,-4.162695,8.625392
145,1747638516340,2.895992,-0.030093221,-1.1790932,0.32787228,-4.066181,8.558199
146,1747638516350,3.0234996,0.10218583949999999,-1.03010587,-0.26312244000000007,-3.5436012000000003,8.45069
147,1747638516360,3.1510072,0.2344649,-0.88111854,-0.85411716,-3.0210214,8.343181
148,1747638516370,2.9772468,1.1044852,-0.42743346,-1.2410126,-2.7974515,7.862444
149,1747638516380,3.0860946499999997,1.30496945,-0.35154488,-1.3267221,-2.74278055,7.838010000000001
150,1747638516390,3.1949425,1.5054537,-0.2756563,-1.4124316,-2.6881096,7.813576
151,1747638516400,3.6454568,1.7929399,0.23367217,-1.5793456,-2.3850532,7.357808
152,1747638516410,3.35004305,2.1227609999999997,0.673453885,-0.85594973,-1.8380394,5.8132425
153,1747638516420,3.0546293,2.4525821,1.1132356,-0.13255386,-1.2910256,4.268677
154,1747638516430,2.88647935,2.6711315,1.06527555,0.21043689000000002,-1.18015685,3.9207995
155,1747638516440,2.7183294,2.8896809,1.0173155,0.55342764,-1.0692881,3.572922
156,1747638516450,2.6971087,3.1605809,0.8003516,0.85999656,-0.9513946,2.9706266
157,1747638516460,2.7371261999999996,3.333853,0.5192071300000001,0.64627638,-0.669794015,2.4015842000000003
158,1747638516470,2.7771437,3.5071251,0.23806266,0.4325562,-0.38819343,1.8325418
159,1747638516480,2.6673203,3.6145096,0.579485,-0.44103172,0.7224032,-0.49364093
160,1747638516490,2.6335225500000004,3.53823995,0.6146395,-0.35658209,0.8647306,-0.991786865
161,1747638516500,2.5997248,3.4619703,0.649794,-0.27213246,1.007058,-1.4899328
162,1747638516510,2.4725833,3.3140957,0.57094795,0.19760908,1.3747882,-2.8765562
163,1747638516520,2.6174239999999998,3.2780875,0.429278095,0.310386755,1.4044142499999999,-3.4846926
164,1747638516530,2.7622647,3.2420793,0.28760824,0.42316443,1.4340403,-4.092829
165,1747638516540,3.1244202,2.9489832,0.08433419,0.31168482,1.5812545,-4.9083104
166,1747638516550,3.1707947499999998,2.56961645,0.047472283000000004,0.24998924499999997,1.81184935,-5.5750885
167,1747638516560,3.2171693,2.1902497,0.010610376,0.18829367,2.0424442,-6.2418666
168,1747638516570,2.8859916,1.447371,-0.074059196,0.530979,2.3643606,-7.502655
169,1747638516580,2.89830935,1.24481345,-0.136044523,0.5789687,2.3606955000000003,-7.6089424999999995
170,1747638516590,2.9106271,1.0422559,-0.19802985,0.6269584,2.3570304,-7.71523
171,1747638516600,2.8471782,0.38477856,-0.32565925,0.6873559,2.3619173,-8.069521
172,1747638516610,2.8471782,0.38477856,-0.32565925,0.6873559,2.3619173,-8.069521
173,1747638516620,2.7197928,-0.09476163,-0.37300956,0.69422793,1.843308,-8.155651
174,1747638516630,2.7313789,-0.133315705,-0.39631885,0.69422793,1.843308,-8.155651
175,1747638516640,2.742965,-0.17186978,-0.41962814,0.69422793,1.843308,-8.155651
176,1747638516650,2.784949,-0.5843328,-0.37130213,0.2294495,2.0332816,-8.023707
177,1747638516660,2.6803698000000002,-0.7383204999999999,-0.20914329,0.04405735499999999,2.40162245,-7.98949985
178,1747638516670,2.5757906,-0.8923082,-0.04698445,-0.14133479,2.7699633,-7.9552927
179,1747638516680,2.4208426,-1.1282976,0.16534501,0.09361234,2.9905555,-7.7921968
180,1747638516690,2.28710005,-1.3441638,0.26149392,0.61386332,2.95756975,-7.6119969
181,1747638516700,2.1533575,-1.56003,0.35764283,1.1341143,2.924584,-7.431797
182,1747638516710,1.5132285,-2.0205448,0.027471114,1.8575102,2.6209166,-7.2302175
183,1747638516720,1.37290015,-2.1255966500000003,-0.14238635300000002,2.31079705,2.1160513,-6.7143569
184,1747638516730,1.2325718,-2.2306485,-0.31224382,2.7640839,1.611186,-6.1984963
185,1747638516740,0.69568086,-2.362211,-0.7788564,2.5609772,1.5617074,-5.7599077
186,1747638516750,0.36284892999999996,-2.386488325,-0.84835741,1.8026866,1.5308595999999999,-4.94866435
187,1747638516760,0.030017000000000002,-2.41076565,-0.91785842,1.044396,1.5000118,-4.137421
188,1747638516770,-0.168272,-2.4200497,-0.90261364,-0.12575819,1.3442458,-2.812417
189,1747638516780,-0.3112834,-2.4542133,-0.8068153849999999,-0.773752595,1.138084835,-1.8304801
190,1747638516790,-0.4542948,-2.4883769,-0.71101713,-1.421747,0.93192387,-0.8485432
191,1747638516800,-0.6043645,-2.4093175,-0.3132195,-2.158887,-0.17073181,1.5234531
192,1747638516810,-0.6299910200000001,-2.3776997499999997,-0.268201625,-2.1196019,-0.395218175,1.8490346999999998
193,1747638516820,-0.65561754,-2.346082,-0.22318375,-2.0803168,-0.61970454,2.1746163
194,1747638516830,-0.43328747,-2.1267095,-0.21708584,-1.5937005,-1.7253381,4.0548806
195,1747638516840,-0.26685245875,-1.9908936750000001,-0.27205094,-1.5123815,-1.97120405,5.077171549999999
196,1747638516850,-0.1004174475,-1.85507785,-0.32701604,-1.4310625,-2.21707,6.0994625
197,1747638516860,0.052838445,-1.6837567,-0.37057042,-1.4310625,-2.21707,6.0994625
198,1747638516870,0.5575935325,-1.391628425,-0.336589775,-1.52998155,-2.3775893000000003,6.9897916
199,1747638516880,1.0623486199999999,-1.09950015,-0.30260913,-1.6289006000000001,-2.5381086,7.8801207
200,1747638516890,1.3933435099999998,-0.9361140749999999,-0.26716498,-1.6901380000000001,-2.64304065,8.12020285
201,1747638516900,1.7243384,-0.772728,-0.23172083,-1.7513754,-2.7479727,8.360285
202,1747638516910,2.302482,-0.44618458,-0.0945482,-1.6753249,-2.8359346,8.075019
203,1747638516920,2.2852705,-0.024467889999999992,-0.009009672499999996,-1.56567785,-2.9394733,7.8807315
204,1747638516930,2.268059,0.3972488,0.076528855,-1.4560308,-3.043012,7.686444
205,1747638516940,2.3251662,0.7789174,0.39987087,-1.0553913,-2.5928175,7.7995267
206,1747638516950,2.3585979999999998,0.99685695,0.604623685,-0.6182919299999999,-2.3142330500000003,7.80410815
207,1747638516960,2.3920298,1.2147965,0.8093765,-0.18119256,-2.0356486,7.8086896
208,1747638516970,2.5162444,1.7038494,0.9585011,1.0319501,-1.6489822,7.819685
209,1747638516980,2.7594446,1.8645599499999999,0.7715542,1.32107175,-1.4458755,7.162375
210,1747638516990,3.0026448,2.0252705,0.5846073,1.6101934,-1.2427688,6.505065
211,1747638517000,3.5197787,2.3364167,0.1475391,1.6101934,-1.2427688,6.505065
212,1747638517010,3.5605278499999997,2.66661895,0.25222508,1.35409565,-0.86923568,5.5884507
213,1747638517020,3.601277,2.9968212,0.35691106,1.0979979,-0.49570256,4.6718364
214,1747638517030,3.2088459,3.619632,0.7300731,1.553461,-0.15973656,3.177093
215,1747638517040,3.2649771000000003,3.66464985,0.6324607,1.67902825,-0.006375715000000004,2.6920421
216,1747638517050,3.3211083,3.7096677,0.5348483,1.8045955,0.14698513,2.2069912
217,1747638517060,3.35528715,3.5860629,0.32166512,1.7902406,0.526626685,0.92050867
218,1747638517070,3.389466,3.4624581,0.10848194,1.7758857,0.90626824,-0.36597386
219,1747638517080,3.302327,3.2293959,0.0257637,1.7460306,0.8470161,-1.3989166
220,1747638517090,2.930415,2.8474526,-0.14994776,1.7441217,0.69552594,-2.4343026
221,1747638517100,2.4874623,2.5721927,-0.30199933,1.6936504,0.5177694,-3.6249204
222,1747638517110,1.5437181,2.158266,-0.56387436,1.304846,0.2410556,-4.522866
223,1747638517120,1.466366,2.049662,-0.6807714,0.973996,0.09315421,-4.498432
224,1747638517130,1.6186615,1.9237403,-0.78056383,0.530979,0.0045813546,-4.4593377
225,1747638517140,1.9441988,1.7065326,-0.78937536,-0.32947573,0.06566608,-4.66275
226,1747638517150,2.2461066,1.2792209,-0.49502888,-0.9781192,0.3302393,-5.233892
227,1747638517160,2.1616507,0.80187607,0.0086590415,-1.1756519,0.4737884,-6.098317
228,1747638517170,2.12602345,0.673743585,0.11153089575000001,-1.06348508,0.40293012,-6.28187675
229,1747638517180,2.0903962,0.5456111,0.21440275,-0.95131826,0.33207184,-6.4654365
230,1747638517190,2.006428,0.32742763,0.31788442,-0.4734066,0.09987353,-6.8404965
231,1747638517200,1.9694593500000002,0.12682142000000002,0.31105474,-0.29553553,0.21963777500000004,-6.95014355
232,1747638517210,1.9324907,-0.07378479,0.30422506,-0.11766446,0.33940202,-7.0597906
233,1747638517220,1.7907143,-0.42081723,0.393773,0.36963895,0.7621083,-7.1251516
234,1747638517230,1.7874214,-0.518551565,0.417204235,0.488639625,0.8363262499999999,-7.1059098
235,1747638517240,1.7841285,-0.6162859,0.44063547,0.6076403,0.9105442,-7.086668
236,1747638517250,1.7320218,-0.8131114,0.47248183499999996,0.84629069,0.918485225,-7.054751400000001
237,1747638517260,1.6799151,-1.0099369,0.5043282,1.0849410800000001,0.92642625,-7.0228348
238,1747638517270,1.266019,-1.3054725,0.36060032,1.8245244,0.659486,-6.69878
239,1747638517280,1.14556995,-1.37515645,0.28213537499999997,1.83635955,0.6790331000000001,-6.5720293000000005
240,1747638517290,1.0251209,-1.4448404,0.20367043,1.8481947,0.6985802,-6.4452786
241,1747638517300,0.48286358,-1.6793664,0.048447948,1.4195327,1.1444987,-5.487394
242,1747638517310,0.2485815975,-1.793450775,0.01824801575,1.28587165,1.2064997,-5.140738000000001
243,1747638517320,0.014299615000000002,-1.90753515,-0.011951916499999998,1.1522106,1.2685007,-4.794082
244,1747638517330,-0.42401865,-2.0652118,-0.10896978,0.603288,1.0931876,-2.8380728
245,1747638517340,-0.49565393999999996,-2.1119372,-0.14045027,0.49486262000000003,0.9893435500000001,-2.3249611
246,1747638517350,-0.56728923,-2.1586626,-0.17193076,0.38643724,0.8854995,-1.8118494
247,1747638517360,-0.7849543,-2.091311,-0.23464784,0.13285927,0.3846047,-0.31588438
248,1747638517370,-0.8609800999999999,-2.0069921,-0.304926335,0.011987875000000009,0.138700505,0.53139896
249,1747638517380,-0.9370059,-1.9226732,-0.37520483,-0.10888352,-0.10720369,1.3786823
250,1747638517390,-0.85355586,-1.8316313,-0.5057917,-0.7082774,-0.4883724,3.6950915
251,1747638517400,-0.49162927500000003,-1.7515961500000001,-0.48614117999999995,-0.9073754,-0.57297475,4.2784506
252,1747638517410,-0.12970269,-1.671561,-0.46649066,-1.1064734,-0.6575771,4.8618097
253,1747638517420,0.04527703499999999,-1.60090135,-0.39901719999999996,-1.23013185,-0.89641835,6.07590685
254,1747638517430,0.22025676,-1.5302417,-0.33154374,-1.3537903,-1.1352596,7.290004
255,1747638517440,0.68857676,-1.3794403,-0.25952733,-1.0323318,-1.4425159,8.233229
256,1747638517450,1.24135288,-1.2031038,-0.339943605,-0.63730455,-1.72778155,8.7686365
257,1747638517460,1.794129,-1.0267673,-0.42035988,-0.2422773,-2.0130472,9.304044
258,1747638517470,2.707841,-0.23287943,-1.0060648,-0.24907297,-1.4498459,9.556324
259,1747638517480,2.7174757,-0.04045967,-1.03888685,-0.5157841350000001,-1.21100467,9.52853
260,1747638517490,2.7271104,0.15196009,-1.0717089,-0.7824953,-0.97216344,9.500736
261,1747638517500,2.787632,1.1635435,-0.8352316,-1.5432292,-0.581832,9.588088
262,1747638517510,2.8948945,1.22711425,-0.666959625,-2.5763246000000004,-0.49264831,9.833648
263,1747638517520,3.002157,1.290685,-0.49868765,-3.60942,-0.40346462,10.079208
264,1747638517530,3.541731,1.3705069,0.30251765,-3.7863367,-0.44255883,9.644285
265,1747638517540,3.886934,1.76463045,0.745211125,-2.8788086,-0.7598939650000001,8.4592034
266,1747638517550,4.232137,2.158754,1.1879046,-1.9712805,-1.0772291,7.2741218
267,1747638517560,3.409955,3.4697757,0.5221341,-0.54136336,-0.6801784,4.145286
268,1747638517570,3.27426875,3.5366469250000003,0.5342156,-0.72018893,-0.316113445,3.52222175
269,1747638517580,3.1385825,3.60351815,0.5462971000000001,-0.8990145,0.04795151,2.8991575
270,1747638517590,2.6846385,3.7665308,0.9106629,-0.8341883,0.51715857,1.5295615
271,1747638517600,2.533150925,3.6134578250000002,1.0839962,-0.381989525,0.59672141,0.5338614125000001
272,1747638517610,2.38166335,3.46038485,1.2573295,0.07020925,0.67628425,-0.461838675
273,1747638517620,2.334435,3.2828438,1.1432374,0.3639886,0.7224032,-1.1582427
274,1747638517630,2.1110073,2.9796097,0.9029795,0.5126154,0.98659465,-2.173509
275,1747638517640,1.8875796,2.6763756,0.6627216,0.6612422,1.2507861,-3.1887753
276,1747638517650,1.4043807,2.158266,0.38645548,0.6132143,1.7394639,-4.5711226
277,1747638517660,1.54019655,2.07260565,0.36241444,0.583626385,1.8228445500000001,-4.7287213
278,1747638517670,1.6760124,1.9869453,0.3383734,0.55403847,1.9062252,-4.88632
279,1747638517680,1.9909546000000002,1.8689505999999998,0.3389832,0.531284385,2.0085422,-5.29929085
280,1747638517690,2.3058968,1.7509559,0.339593,0.5085303,2.1108592,-5.7122617
281,1747638517700,2.987278,1.2445544,0.17217468,0.20073968,2.9264164,-6.873482
282,1747638517710,3.0690204999999997,1.030044885,0.21854934999999998,0.17894007,3.1133357,-7.1746298
283,1747638517720,3.150763,0.81553537,0.26492402,0.15714046,3.300255,-7.4757776
284,1747638517730,3.1024678,0.41749385,0.39499256,0.37276953,3.4273112,-8.040812
285,1747638517740,2.88867475,-0.20409732500000005,0.365585355,1.078374465,3.202214,-8.3273375
286,1747638517750,2.6748817,-0.8256885,0.33617815,1.7839794,2.9771168,-8.613863
287,1747638517760,2.6748817,-0.8256885,0.33617815,1.7839794,2.9771168,-8.613863
288,1747638517770,2.2973597,-1.3005941,0.120189935,2.1840081,2.718652,-8.717707
289,1747638517780,1.84428445,-1.42371105,-0.004024622500000005,2.17156205,2.6203056499999997,-8.515783500000001
290,1747638517790,1.3912092,-1.546828,-0.12823918,2.159116,2.5219593,-8.31386
291,1747638517800,0.24858157,-1.4199303,-0.17754084,1.6338637,2.1334605,-6.6499124
292,1747638517810,0.10288709600000001,-1.4040758000000002,-0.18424855,1.563444475,2.0702378,-6.4072533
293,1747638517820,-0.042807378,-1.3882213,-0.19095626,1.49302525,2.0070151,-6.1645942
294,1747638517830,-0.19632243,-1.4235891,-0.17266251,1.1466366,1.6637188,-4.961454
295,1747638517840,-0.36813885749999997,-1.468805175,-0.176984405,0.9179506824999999,1.28514625,-4.1990975
296,1747638517850,-0.539955285,-1.5140212499999999,-0.1813063,0.689264765,0.9065737,-3.436741
297,1747638517860,-0.8305972,-1.5993006,-0.15263085,0.25808296,0.20806985,-2.0476363
298,1747638517870,-0.9595834000000001,-1.5456237000000002,-0.123589525,0.04466819999999999,-0.30141494,-0.81185415
299,1747638517880,-1.0885696,-1.4919468,-0.0945482,-0.16874656,-0.81089973,0.423928
300,1747638517890,-0.7195542,-1.4763057,-0.16485718,-0.66528904,-1.1364813,3.2674983
301,1747638517900,-0.49563867500000003,-1.4825256,-0.18827317500000001,-0.7647044199999999,-1.17099415,3.7079191500000004
302,1747638517910,-0.27172315,-1.4887455,-0.21168917,-0.8641198,-1.205507,4.14834
303,1747638517920,0.2329404,-1.4441086,-0.15433827,-1.0946383,-1.4009782,5.1202745
304,1747638517930,0.37082953500000004,-1.42836075,-0.126897648,-1.0912023,-1.5909517,5.26718325
305,1747638517940,0.50871867,-1.4126129,-0.099457026,-1.0877663,-1.7809252,5.414092
306,1747638517950,0.653193565,-1.3357334,-0.075050113,-0.771232865,-2.1159748499999997,5.4843395
307,1747638517960,0.79766846,-1.2588539,-0.0506432,-0.45469943,-2.4510245,5.554587
308,1747638517970,0.7864483,-1.1817457500000002,-0.11994602,-0.12228399000000001,-2.5042064,5.6740075
309,1747638517980,0.77522814,-1.1046376,-0.18924884,0.21013145,-2.5573883,5.793428
310,1747638517990,0.9135899,-0.8832832,-0.519695,0.7945596,-2.7290366,6.218578
311,1747638518000,0.99437205,-0.82300532,-0.6014528,0.7431720500000001,-2.7119328,6.248203999999999
312,1747638518010,1.0751542,-0.76272744,-0.6832106,0.6917845,-2.694829,6.27783
313,1747638518020,1.2415968,-0.4539899,-0.7154076,0.22692975,-2.4797344,6.1464977
314,1747638518030,1.370026575,-0.08078977500000001,-0.6885615225,0.012293300000000007,-2.47820735,6.15291165
315,1747638518040,1.49845635,0.29241035,-0.661715445,-0.20234315,-2.4766803,6.1593256
316,1747638518050,1.6018008,0.42310396,-0.66464245,-0.49150297,-2.4754586,6.1886463
317,1747638518060,1.8610993999999998,1.19575578,-0.6254785949999999,-1.093683835,-2.3297715,6.2503419000000005
318,1747638518070,2.120398,1.9684076,-0.58631474,-1.6958647,-2.1840844,6.3120375
319,1747638518080,3.6818306,3.4795322,0.44746515,-2.9059532,-0.97643936,6.1727643
320,1747638518090,4.0686368,3.7406754500000003,0.732756175,-2.8047053,-0.8014315999999999,5.62055815
321,1747638518100,4.455443,4.0018187,1.0180472,-2.7034574,-0.62642384,5.068352
322,1747638518110,4.7546678,4.335161,1.3023626,-1.64295,0.20684816,2.1611776
323,1747638518120,4.300670225,4.2202839999999995,1.271369925,-1.38280545,0.47898061,1.3444748
324,1747638518130,3.84667265,4.105407,1.2403772499999999,-1.1226609,0.75111306,0.527772
325,1747638518140,3.427829675,3.9413503499999996,1.220848625,-0.51391343,0.89771638,-0.7409960000000001
326,1747638518150,3.0089867,3.7772937,1.20132,0.09483404,1.0443197,-2.009764
327,1747638518160,2.7258909,3.819735,1.0026805,0.61016005,0.82563645,-2.5069935
328,1747638518170,2.9062366500000003,3.6328034000000002,0.6923727350000001,0.61794835,1.031491975,-3.0653461
329,1747638518180,3.0865824,3.4458718,0.38206497,0.62573665,1.2373475,-3.6236987
330,1747638518190,3.0451167,2.751807,0.23781876,0.3067217,1.9502063,-4.6847405
331,1747638518200,2.76409425,2.2496739999999997,0.35570672999999997,0.40357915,2.09161735,-5.347548
332,1747638518210,2.4830718,1.747541,0.4735947,0.5004366,2.2330284,-6.0103555
333,1747638518220,1.5959468,0.570765,0.3430078,1.76909,1.7131975,-6.825836
334,1747638518230,1.45013035,0.36367974999999997,0.23746811499999998,1.9319953,1.65028025,-6.756199499999999
335,1747638518240,1.3043139,0.1565945,0.13192843,2.0949006,1.587363,-6.686563
336,1747638518250,1.26185715,-0.07183346999999998,-0.010839044999999992,2.13197145,1.6307331500000002,-6.508195649999999
337,1747638518260,1.2194004,-0.30026144,-0.15360652,2.1690423,1.6741033,-6.3298283
338,1747638518270,1.2704096,-0.69440025,-0.34081256,1.4780977,2.4278889,-5.8741364
339,1747638518280,1.2813858,-0.780182675,-0.34191017999999995,1.2718603499999999,2.6490537,-5.7925882
340,1747638518290,1.292362,-0.8659651,-0.3430078,1.065623,2.8702185,-5.71104
341,1747638518300,1.2884593,-1.277666,-0.2280621,0.44935453,3.6478271,-5.424476
342,1747638518310,1.2902887,-1.37198555,-0.14898735999999999,0.418201315,3.65027055,-5.40218035
343,1747638518320,1.2921181,-1.4663051,-0.06991262,0.3870481,3.652714,-5.3798847
344,1747638518330,0.6610142,-2.1535401,0.10092052,1.3821182,2.8580017,-5.5466456
345,1747638518340,0.47394535,-2.18843555,0.06614715,1.5811781,2.5421555,-5.4855608
346,1747638518350,0.2868765,-2.223331,0.03137378,1.780238,2.2263093,-5.424476
347,1747638518360,-0.6339089,-2.4239523,-0.6834545,1.9241688,0.7052995,-4.213166
348,1747638518370,-0.7848476,-2.4316357,-0.78509155,1.60797905,0.59687412,-3.7428137
349,1747638518380,-0.9357863,-2.4393191,-0.8867286,1.2917893,0.48844874,-3.2724614
350,1747638518390,-1.0452439,-2.4882550500000002,-0.8848992,0.55403849,0.376663685,-2.2492541
351,1747638518400,-1.1547015,-2.537191,-0.8830698,-0.18371232,0.26487863,-1.2260468
352,1747638518410,-1.1764101,-2.5454838,-0.7693437,-1.5039823,-0.67895675,1.479472
353,1747638518420,-1.12040075,-2.4673848,-0.5110206899999999,-1.54135855,-1.038440375,2.0005629999999996
354,1747638518430,-1.0643914,-2.3892858,-0.25269768,-1.5787348,-1.397924,2.521654
355,1747638518440,-0.94066465,-2.2431188,-0.21217702,-1.5737716,-1.8023049,3.2943757
356,1747638518450,-0.689415215,-2.07899335,-0.05135971,-1.42922985,-2.31881435,4.4119588499999995
357,1747638518460,-0.43816578,-1.9148679,0.1094576,-1.2846881,-2.8353238,5.529542
358,1747638518470,0.22050068,-1.8077275,0.21562232,-0.69583136,-3.6514158,6.84714
359,1747638518480,0.67503939,-1.61639005,0.07383052000000001,-0.43977184,-3.7470134,7.5563715
360,1747638518490,1.1295781,-1.4250526,-0.06796128,-0.18371232,-3.842611,8.265603
361,1747638518500,2.364711,-1.3369682,0.20220692,-0.0029778804,-2.2885392,10.005297
362,1747638518510,2.6581732999999996,-1.2073722500000001,0.233077635,0.2717888598,-2.3022833,10.154649
363,1747638518520,2.9516356,-1.0777763,0.26394835,0.5465556,-2.3160274,10.304001
364,1747638518530,3.9146492,-0.8398356,-0.2133966,1.4512967,-2.5958717,10.588121
365,1747638518540,4.09182415,-0.553934775,-0.5080327,1.3597078,-2.4614471499999997,10.570101
366,1747638518550,4.2689991,-0.26803394999999997,-0.8026688,1.2681189,-2.3270226,10.552081
367,1747638518560,4.42237685,0.210911705,-0.88753655,0.6468872419999999,-1.68135705,10.739916749999999
368,1747638518570,4.5757546,0.68985736,-0.9724043,0.025655584,-1.0356915,10.9277525
369,1747638518580,4.957698,0.86483705,-0.63659203,-0.6391753,-0.4883724,10.987004
370,1747638518590,5.0364068,1.111070925,0.142401605,-0.15504067,-0.60321168,9.656235
371,1747638518600,5.1151156,1.3573048,0.92139524,0.32909396,-0.71805096,8.325466
372,1747638518610,5.1151156,1.3573048,0.92139524,0.32909396,-0.71805096,8.325466
373,1747638518620,5.1783204,1.9166667,0.7534891,1.5727789,-1.8157434,6.60952
374,1747638518630,4.5417285,2.48554145,0.15888122999999998,1.92325255,-1.737555,4.83588685
375,1747638518640,3.9051366,3.0544162,-0.43572664,2.2737262,-1.6593666,3.0622537
376,1747638518650,2.4010546,3.4546528,-0.96508676,-0.19860171,-0.2043284,1.0842539
377,1747638518660,2.3074668000000003,3.4209769999999997,-0.88808533,-0.8867975050000001,0.05348730999999998,0.77119468
378,1747638518670,2.213879,3.3873012,-0.8110839,-1.5749933,0.31130302,0.45813546
379,1747638518680,2.271962,2.9880402,-0.039880376,-2.644205,0.71629477,-0.33848575
380,1747638518690,2.09966525,2.8972574499999997,0.321299237,-2.5549640250000003,0.5567109225,-1.652742725
381,1747638518700,1.9273685,2.8064747,0.68247885,-2.4657230500000002,0.397127075,-2.9669996999999997
382,1747638518710,1.9273685,2.8064747,0.68247885,-2.0579443,0.15248275,-3.558338
383,1747638518720,2.28171855,2.76778355,0.527393575,-1.6449734249999999,0.0733398515,-4.316399349999999
384,1747638518730,2.6360686,2.7290924,0.3723083,-1.23200255,-0.005803047000000006,-5.0744606999999995
385,1747638518740,3.5309987,2.4245317,0.18510225,-1.3856306,0.5892385,-6.225984
386,1747638518750,3.7506457500000003,2.1691357,0.21109462499999998,-1.4544655,0.95086005,-6.9687745
387,1747638518760,3.9702928,1.9137397,0.237087,-1.5233004,1.3124816,-7.711565
388,1747638518770,3.8435018000000003,1.4811687,0.45331912500000004,-1.1379321150000001,1.65119645,-8.3865895
389,1747638518780,3.7167108,1.0485977,0.66955125,-0.75256383,1.9899113,-9.061614
390,1747638518790,3.547829,-0.35785624,0.5689966,2.0257986,0.8036459,-9.891755
391,1747638518800,3.5330719999999998,-0.551495595,0.42183863499999996,2.302436,0.58557345,-9.977274
392,1747638518810,3.518315,-0.74513495,0.27468067,2.5790734,0.367501,-10.062793
393,1747638518820,3.3911736,-1.0833864,-0.120921694,2.7934046,0.09193251,-10.175188
394,1747638518830,3.116553925,-1.3625185499999999,-0.235806442,2.0586316625,0.5322388425,-9.973761
395,1747638518840,2.84193425,-1.6416507,-0.35069119,1.323858725,0.972545175,-9.772334
396,1747638518850,2.6299706,-1.7567184,-0.2397701,0.77524155,1.3582952,-9.531355
397,1747638518860,2.3261418000000003,-1.9155997,-0.00682967000000001,0.440955375,1.7709226,-9.1172005
398,1747638518870,2.022313,-2.074481,0.22611076,0.1066692,2.18355,-8.703046
399,1747638518880,0.9341094,-2.1435397,0.73812234,0.7191963,2.283118,-7.602834
400,1747638518890,0.4982303,-2.09167695,0.72251167,1.195199,2.1627811,-7.0545987
401,1747638518900,0.0623512,-2.0398142,0.706901,1.6712017,2.0424442,-6.5063634
402,1747638518910,-0.47795472,-1.9629498,0.4589292,2.5784626,1.7003697,-5.0347557
403,1747638518920,-0.9301762599999999,-2.2542168,-0.35825265,2.6840628,1.23184985,-3.3313699999999997
404,1747638518930,-1.3823978,-2.5454838,-1.1754345,2.789663,0.76333,-1.6279843
405,1747638518940,-1.9205085,-2.5306048,-1.8080018,1.7921495,0.30397287,-0.3354315
406,1747638518950,-2.02923425,-2.5079054,-1.924655,1.1129637,0.05073850000000002,0.45473759999999996
407,1747638518960,-2.13796,-2.485206,-2.0413082,0.4337779,-0.20249587,1.2449067
408,1747638518970,-1.9443055,-2.4362703,-2.0697397,-0.6905628500000001,-0.559536085,2.4739696
409,1747638518980,-1.750651,-2.3873346,-2.0981712,-1.8149036,-0.9165763,3.7030325
410,1747638518990,-0.12336086,-2.3094945,-1.1622629,-4.873645,-1.4645063,6.049373
411,1747638519000,0.11116502000000002,-2.28106295,-0.9141844,-5.12565765,-1.54513815,6.1779565000000005
412,1747638519010,0.3456909,-2.2526314,-0.6661059,-5.3776703,-1.62577,6.30654
413,1747638519020,0.70982796,-2.0198128,0.26224092,-4.988866,-2.06558,6.365181
414,1747638519030,0.70519355,-1.9057208,0.45650531,-4.41470775,-2.3019779500000004,6.432985
415,1747638519040,0.70055914,-1.7916288,0.6507697,-3.8405495,-2.5383759,6.500789
416,1747638519050,0.7037301,-1.6093316,0.63244545,-1.9152353,-3.1163137,6.9405994
417,1747638519060,0.8131877000000001,-1.4761989,0.43403448,-1.5737716499999999,-3.1547971,7.078345199999999
418,1747638519070,0.9226453,-1.3430662,0.23562351,-1.232308,-3.1932805,7.216091
419,1747638519080,1.0858865,-0.93307275,-0.021098793,-0.8559497,-2.473626,7.8086896
420,1747638519090,1.152757775,-0.9076291949999999,0.004893577749999999,-0.865608725,-2.4041420999999996,7.88428195
421,1747638519100,1.21962905,-0.88218564,0.030885948499999996,-0.87526775,-2.3346582,7.959874299999999
422,1747638519110,2.188268,-0.60433406,0.1253122,-0.67468077,-2.2726572,7.653458
423,1747638519120,2.19217065,-0.40921596,0.14313336,-0.553160355,-2.05763895,7.2600725
424,1747638519130,2.1960733,-0.21409786,0.16095452,-0.43163994,-1.8426207,6.866687
425,1747638519140,1.8143742,0.105585426,0.50945044,-0.06589515,-1.4168602,6.649836
426,1747638519150,1.72151815,0.352078483,0.656486455,0.6447111249999999,-1.3661599,7.148287249999999
427,1747638519160,1.6286621,0.59857154,0.80352247,1.3553174,-1.3154596,7.6467385
428,1747638519170,3.855103,1.0417681,0.35252056,2.1697295,-1.0808942,8.026152
429,1747638519180,4.019838,1.16012865,0.34605677999999995,2.12143435,-0.840831235,7.5172776500000005
430,1747638519190,4.184573,1.2784892,0.339593,2.0731392,-0.60076827,7.0084033
431,1747638519200,4.286073,1.7451018,0.519695,2.001441,-0.03451287,5.1159983
432,1747638519210,4.3215935000000005,2.06541005,0.65660845,2.12078535,-0.0073301669999999985,4.5909369
433,1747638519220,4.357114,2.3857183,0.7935219,2.2401297,0.019852536,4.0658755
434,1747638519230,4.2958603,2.7652223,0.54119015,2.4962273,0.20257223,2.2094345
435,1747638519240,4.04692815,2.8701675,0.3697472,2.1764105750000002,0.638717165,0.9341190675
436,1747638519250,3.797996,2.9751127,0.19830425,1.8565938499999999,1.0748621,-0.341196365
437,1747638519260,3.3999543,2.814768,0.19781642,1.4649644,1.3656254,-1.5485742
438,1747638519270,3.41788215,2.70311505,0.14924651,1.5116942500000001,1.23215525,-2.10719395
439,1747638519280,3.43581,2.5914621,0.1006766,1.5584241,1.0986851,-2.6658137
440,1747638519290,3.62653775,2.47858965,-0.17693104999999998,1.3702831,0.73706355,-3.26753655
441,1747638519300,3.8172655,2.3657172,-0.4545387,1.1821421,0.375442,-3.8692594
442,1747638519310,4.0903606,1.5640242,-0.52408546,-0.8971056,0.49516806,-5.6034546
443,1747638519320,3.9407633000000004,1.3618325,-0.340324735,-1.2292155999999999,0.65582088,-5.980385549999999
444,1747638519330,3.791166,1.1596408,-0.15656401,-1.5613256,0.8164737,-6.3573165
445,1747638519340,3.0548735,0.5512212,0.5309456,-1.6005726,1.2306281,-7.0781164
446,1747638519350,2.9253994499999996,0.46824378,0.6137858,-1.42705375,1.26300305,-7.1074369
447,1747638519360,2.7959254,0.38526636,0.696626,-1.2535349,1.295378,-7.1367574
448,1747638519370,2.6094816,-0.0005488125,0.74812293,-0.38368842,1.5055094,-7.0854464
449,1747638519380,2.5771474000000003,-0.26083837624999995,0.7275119649999999,0.24311724000000007,1.50214975,-7.2283847
450,1747638519390,2.5448132,-0.52112794,0.706901,0.8699229,1.4987901,-7.371323
451,1747638519400,2.321751,-0.90060127,0.35864896,1.6456989,1.479243,-7.6022234
452,1747638519410,2.2845386999999997,-0.970773085,0.295184895,1.65753405,1.4896274,-7.6126077
453,1747638519420,2.2473264,-1.0409449,0.23172083,1.6693692,1.5000118,-7.622992
454,1747638519430,2.1648214,-1.160769,0.14558776,1.4743562,1.8286476,-7.610775
455,1747638519440,1.9011323,-1.29792635,0.224174655,1.4125079,2.071612125,-7.5402221250000006
456,1747638519450,1.6374432,-1.4350837,0.30276155,1.3506596,2.3145766500000002,-7.469669250000001
457,1747638519460,1.5708233,-1.5317051,0.39304122,1.6145457,2.135293,-7.10255
458,1747638519470,1.56728655,-1.58003115,0.37204915000000005,1.70239315,2.03480855,-7.0457412999999995
459,1747638519480,1.5637498,-1.6283572,0.35105708,1.7902406,1.9343241,-6.9889326
460,1747638519490,1.3001673,-1.8330947,0.282486,2.19088,1.6295115,-6.899749
461,1747638519500,1.0616168,-1.8559162,0.203411263,2.33232935,1.53269215,-6.80170785
462,1747638519510,0.8230663,-1.8787377,0.124336526,2.4737787,1.4358728,-6.7036667
463,1747638519520,0.34229130500000005,-1.8492085500000002,-0.018674866999999984,2.5544487,1.3405806500000002,-6.05918485
464,1747638519530,-0.13848369,-1.8196794,-0.16168626,2.6351187,1.2452885,-5.414703
465,1747638519540,-0.5702162,-1.9048673,-0.4245065,2.4962273,0.91909605,-3.8600965
466,1747638519550,-0.77252985,-2.00869965,-0.5373789,2.36504785,0.685752405,-3.31304455
467,1747638519560,-0.9748435,-2.112532,-0.6502513,2.2338684,0.45240876,-2.7659926
468,1747638519570,-1.191045,-2.238728,-0.8703861,1.8974442,-0.38025242,-1.6267626
469,1747638519580,-1.42680575,-2.19832945,-1.11724505,1.1703069400000001,-0.63222691,-0.65730983
470,1747638519590,-1.6625665,-2.1579309,-1.364104,0.44316968,-0.8842014,0.31214294
471,1747638519600,-1.7130877,-2.0027084,-1.2210773,-1.5575842,-0.9856021,3.5423796
472,1747638519610,-1.5809305999999999,-1.980268,-1.14371,-1.82238645,-1.054017,4.2842538
473,1747638519620,-1.4487735,-1.9578276,-1.0663427,-2.0871887,-1.1224319,5.026128
474,1747638519630,-0.61363333,-1.8106543,-0.70809007,-2.5071461,-1.4981029,7.2832847
475,1747638519640,-0.016578690000000007,-1.816508375,-0.6313401599999999,-2.50901685,-1.8505617499999998,7.895697350000001
476,1747638519650,0.58047595,-1.82236245,-0.55459025,-2.5108876,-2.2030206,8.50811
477,1747638519660,0.9091994,-1.8328509,-0.551648,-2.4255219,-2.4430835,8.827582
478,1747638519670,1.36093305,-1.7354824500000001,-0.435238785,-2.2326849500000003,-2.72899825,9.023359
479,1747638519680,1.8126667,-1.638114,-0.31882957,-2.039848,-3.014913,9.219136
480,1747638519690,2.5274951,-1.3154731,-0.6141212,-1.2404017,-3.6098783,9.448204
481,1747638519700,2.5442034,-1.17906265,-0.70260197,-1.30644955,-3.2717743,9.549604500000001
482,1747638519710,2.5609117,-1.0426522,-0.79108274,-1.3724974,-2.9336703,9.651005
483,1747638519720,2.514781,-0.806419,-0.4923458,-2.1277337,-1.2641484,10.582012
484,1747638519730,2.514781,-0.806419,-0.4923458,-2.1277337,-1.2641484,10.582012
485,1747638519740,3.4419386,-0.8125169,0.23196477,-2.3675675,-0.82372755,11.125667
486,1747638519750,3.6428497,-0.8089724875,0.31055166,-2.07439905,-1.009119675,10.960127
487,1747638519760,3.8437608,-0.805428075,0.38913854999999997,-1.7812306,-1.1945118,10.794587
488,1747638519770,4.8156776,-0.45959997,0.73129267,-0.8584695,-1.8169652,9.411552
489,1747638519780,4.3697978,0.17479678999999998,0.724950855,0.31916765,-2.18534425,8.196539
490,1747638519790,3.923918,0.80919355,0.71860904,1.4968048,-2.5537233,6.981526
491,1747638519800,2.833519,1.3744096,0.23025733,2.2326467,-1.773595,6.7842226
492,1747638519810,2.67732085,1.3927032499999998,0.142157682,2.259104,-1.1877925,6.8431693
493,1747638519820,2.5211227,1.4109969,0.054058034,2.2855613,-0.60199,6.902116
494,1747638519830,3.0746307,1.6577492,0.039423034,1.4905437,-0.033291176,5.414703
495,1747638519840,3.0183773,1.80807805,0.13118143200000001,1.3540957,0.0073301670000000055,4.82855685
496,1747638519850,2.9621239,1.9584069,0.22293983,1.2176477,0.04795151,4.2424107
497,1747638519860,2.5894804,2.4367275,0.4547826,1.4637427,-0.49081576,2.0298455
498,1747638519870,2.392289025,2.46515905,0.24105825449999999,1.4170129,-0.464854765,1.65264725
499,1747638519880,2.19509765,2.4935906,0.027333908999999997,1.3702831,-0.43889377,1.275449
500,1747638519890,2.0938113,2.4977372,-0.010854292,0.0038941512,0.851292,-0.3690281
501,1747638519900,2.11968175,2.3973196999999997,0.164247384,-0.0992244994,0.94291905,-0.561750415
502,1747638519910,2.1455522,2.2969022,0.33934906,-0.20234315,1.0345461,-0.75447273
503,1747638519920,2.5933828,2.038686,0.5846073,-0.11079242,1.091355,-1.8026866
504,1747638519930,2.8430316500000004,2.03990565,0.57887527,0.049020495,0.854651675,-2.27151185
505,1747638519940,3.0926805,2.0411253,0.57314324,0.20883341,0.61794835,-2.7403371
506,1747638519950,3.6428955000000003,2.04039365,0.51969498,0.104493060905,0.5024982250000001,-3.20339755
507,1747638519960,4.1931105,2.039662,0.46624672,0.00015271181,0.3870481,-3.666458
508,1747638519970,5.167832,1.2062594,0.26565573,-0.79738474,1.327142,-6.634641
509,1747638519980,4.8719155,0.9573271999999999,0.36436576499999995,-0.87591677,1.56689955,-7.2519022500000005
510,1747638519990,4.575999,0.708395,0.4630758,-0.9544488,1.8066571,-7.8691635
511,1747638520000,4.155761,0.43993422,0.5135971,-0.8653415,1.8536924,-8.251554
512,1747638520010,4.0749786,0.15866779999999997,0.47479908000000004,-0.6914791,1.7944402,-8.358796
513,1747638520020,3.9941962,-0.12259862,0.43600106,-0.5176167,1.735188,-8.466038
514,1747638520030,3.4983141,-0.6658315,0.25614297,-0.13446276,1.5610965,-8.92173
515,1747638520040,3.3880026,-0.7184260499999999,0.19769445500000002,-0.145038045,1.5384951500000001,-8.915927
516,1747638520050,3.2776911,-0.7710206,0.13924594,-0.15561333,1.5158938,-8.910124
517,1747638520060,3.0331342,-1.1348833,0.13778242,-0.5145625,2.1255193,-8.7024355
518,1747638520070,2.90184605,-1.2020061,0.20171907499999997,-0.5145625,2.33626165,-8.656011249999999
519,1747638520080,2.7705579,-1.2691289,0.26565573,-0.5145625,2.547004,-8.609587
520,1747638520090,2.565546,-1.3816354,0.39182165,-0.32077116,2.9471853,-8.440382
521,1747638520100,2.4424289999999997,-1.50902095,0.457465725,0.25042827000000006,3.0334675,-8.18882735
522,1747638520110,2.319312,-1.6364065,0.5231098,0.8216277000000001,3.1197497,-7.9372727
523,1747638520120,2.2392617,-1.7246280500000002,0.46197816999999997,1.33834725,2.99192985,-7.8732865499999996
524,1747638520130,2.1592114,-1.8128496,0.40084654,1.8550668,2.86411,-7.8093004
525,1747638520140,1.8900189,-1.9866098,0.0682052,2.3018253,2.747362,-7.7964725
526,1747638520150,1.61401195,-2.09862855,-0.06491232500000002,2.3856258500000003,2.7834401499999997,-7.72775225
527,1747638520160,1.338005,-2.2106473,-0.19802985,2.4694264,2.8195183,-7.659032
528,1747638520170,0.23565398,-2.1203372,-0.37179,2.5784626,2.319158,-6.9962626
529,1747638520180,0.10374080300000002,-2.08349045,-0.39814825,2.6398146000000002,1.66341345,-6.285809049999999
530,1747638520190,-0.028172374,-2.0466437,-0.4245065,2.7011666,1.0076689,-5.5753555
531,1747638520200,-0.16680852,-2.000757,-0.45941702,2.7404134,0.6796439,-5.05919
532,1747638520210,-0.4558802599999999,-1.95732465,-0.52164626,2.7874869,0.458211785,-4.2663101
533,1747638520220,-0.744952,-1.9138923,-0.5838755,2.8345604,0.23677967,-3.4734302
534,1747638520230,-0.96286106,-1.8911775,-0.65293443,2.867546,-0.011300675,-2.680474
535,1747638520240,-1.12893783,-1.9748866,-0.876118165,2.7320142499999998,-0.18050536250000002,-1.942876
536,1747638520250,-1.2950146,-2.0585957,-1.0993019,2.5964825,-0.34971005,-1.205278
537,1747638520260,-1.6315585,-2.2877555,-1.3709337,0.9266553,-0.7272137,1.819714
538,1747638520270,-1.6147283,-2.32205625,-1.30271325,0.60794575,-1.01278475,2.4889353
539,1747638520280,-1.5978981,-2.356357,-1.2344928,0.2892362,-1.2983558,3.1581566
540,1747638520290,-1.2757452,-2.3229098,-1.3675189,-0.79929364,-2.3001454,5.605287
541,1747638520300,-0.6910007,-2.3349838,-1.11175698,-1.77252607,-2.20240985,7.362427499999999
542,1747638520310,-0.1062562,-2.3470578,-0.85599506,-2.7457585,-2.1046743,9.119568
543,1747638520320,-0.1062562,-2.3470578,-0.85599506,-2.7457585,-2.1046743,9.119568
544,1747638520330,0.364503,-2.3587961,-0.55286765,-2.8915982,-2.2964802,9.954596
545,1747638520340,1.0986006,-2.4044087,-0.27001578,-2.7121618,-2.7210956,10.806805
546,1747638520350,1.6860131,-2.394408,-0.1592471,-2.3750505,-3.031406,11.188583
547,1747638520360,2.638782,-2.199915,-0.27785155,-1.4591614,-3.0729434,10.9277525
548,1747638520370,3.2034795,-1.9824632,-0.47917432,-1.4591614,-3.0729434,10.9277525
549,1747638520380,3.5424626,-1.6903424,-0.6151273,-1.6211122,-2.8115008,10.37127
550,1747638520390,3.5514877,-1.4531335,-0.67955184,-1.8971388,-2.7143762,9.977808
551,1747638520400,3.4316638,-1.244219,-0.60924286,-2.2261565,-2.6679518,9.767676
552,1747638520410,3.0111816,-0.78175294,-0.35130098,-2.6623015,-2.4901187,10.037671
553,1747638520420,2.8503492,-0.6963516,-0.14116678,-2.8186784,-1.9214201,10.712734
554,1747638520430,3.3571167,-0.72710035,0.49335196,-2.21241245,-1.72350555,11.028542
555,1747638520440,3.8638842,-0.7578491,1.1278707,-1.6061465,-1.525591,11.34435
556,1747638520450,5.062399,0.050917607,0.62659144,1.7372496,-2.5249372,9.065813
557,1747638520460,4.956478150000001,0.43639742349999994,0.47601863499999997,2.1503731999999998,-2.5564339499999997,8.34131
558,1747638520470,4.8505573,0.82187724,0.32544583,2.5634968,-2.5879307,7.616807
559,1747638520480,3.887056,1.8576083,0.03088595,2.8395236,-2.6740603,6.824538
560,1747638520490,3.61117105,1.9358294000000003,0.220744605,2.59369565,-1.94772465,6.00783525
561,1747638520500,3.3352861,2.0140505,0.41060326,2.3478677,-1.221389,5.1911325
562,1747638520510,3.1510072,2.164364,0.54119015,2.0762699,-0.3051182,4.0017366
563,1747638520520,3.1768776,2.2694311999999996,0.559118005,2.03106715,-0.10140064200000001,3.64042055
564,1747638520530,3.202748,2.3744984,0.57704586,1.9858644,0.102316916,3.2791045
565,1747638520540,3.2733006,2.6888459,0.4057249,1.7509936,0.44446772,0.8686248
566,1747638520550,3.2733006,2.6888459,0.4057249,1.7509936,0.44446772,0.8686248
567,1747638520560,3.1990893,2.7720518,0.3561793,1.5995799,0.39254573,-0.24250636
568,1747638520570,3.2679193,2.8461263,0.16754025349999999,1.26529373,0.37696911499999997,-1.06810463
569,1747638520580,3.3367493,2.9202008,-0.021098793,0.93100756,0.3613925,-1.8937029
570,1747638520590,3.6586282,2.6619844,-0.059180282,-0.6360447,1.0119449,-4.0079217
571,1747638520600,3.74331295,2.5556978,0.056619159,-0.9429191,1.18847975,-4.4626975
572,1747638520610,3.8279977,2.4494112,0.1724186,-1.2497935,1.3650146,-4.9174733
573,1747638520620,4.1716156,2.1040862,0.4233174,-1.3893721,1.4908491,-5.4397473
574,1747638520630,4.5415913,1.6598072,0.52617402,-1.20023855,1.50062265,-6.303218149999999
575,1747638520640,4.911567,1.2155282,0.62903064,-1.011105,1.5103962,-7.166689
576,1747638520650,4.8608017,0.5749116,0.56363046,-0.57496,1.4932925,-8.398233
577,1747638520660,4.55282665,0.263140357,0.43258622,-0.36872269,1.3799803499999999,-8.954715
578,1747638520670,4.2448516,-0.048630886,0.30154198,-0.16248538,1.2666682,-9.511197
579,1747638520680,3.6625307,-0.61091983,0.06625386,-0.23662695,1.4596959,-9.770807
580,1747638520690,3.5165923,-0.8187216150000001,0.033187909168,-0.36219424,1.62890055,-9.669101
581,1747638520700,3.3706539,-1.0265234,0.000121958336,-0.48776153,1.7981052,-9.567395
582,1747638520710,3.301595,-1.551249,0.23733091,-0.62604207,2.346646,-9.191724
583,1747638520720,3.2132515,-1.705846425,0.31933265,-0.4022047365,2.454766,-9.132166250000001
584,1747638520730,3.124908,-1.86044385,0.40133439,-0.17836740299999998,2.5628859999999998,-9.072608500000001
585,1747638520740,2.93834225,-1.990634425,0.438074345,0.2289531985,2.62977375,-8.99136625
586,1747638520750,2.7517765,-2.120825,0.4748143,0.6362738,2.6966615,-8.910124
587,1747638520760,2.5257876,-2.1684194,0.41060326,1.0138538,2.663065,-8.774515
588,1747638520770,2.299067,-2.3020399,0.23501373,1.30110465,2.7532031999999997,-8.5347195
589,1747638520780,2.0723464,-2.4356604,0.0594242,1.5883555,2.8433414,-8.294924
590,1747638520790,1.0339018,-2.5860045,-0.20144469,2.061915,2.7809584,-7.331618
591,1747638520800,0.8453847,-2.64725815,-0.223656345,2.1787395,2.5812114499999996,-7.0582638499999995
592,1747638520810,0.6568676,-2.7085118,-0.245868,2.295564,2.3814645,-6.7849097
593,1747638520820,0.25077683,-2.7541544,-0.28443733,2.5934284,1.7241927,-6.194831
594,1747638520830,-0.15947578499999998,-2.7776924000000003,-0.39767565000000005,2.85853615,0.9211958229999999,-5.29868
595,1747638520840,-0.5697284,-2.8012304,-0.51091397,3.1236439,0.118198946,-4.402529
596,1747638520850,-0.82620674,-2.788303,-0.7068705,3.1896918,-0.60199,-3.4355576
597,1747638520860,-1.02437382,-2.7486512999999997,-0.8576872,2.97845315,-0.8716791,-2.49573095
598,1747638520870,-1.2225409,-2.7089996,-1.0085039,2.7672145,-1.1413682,-1.5559043
599,1747638520880,-1.687446,-2.5391421,-1.2113208,1.710525,-1.6166073,1.5668232
600,1747638520890,-1.69061695,-2.53670285,-1.2083937,1.5126869,-1.65783945,2.1095992
601,1747638520900,-1.6937879,-2.5342636,-1.2054666,1.3148488,-1.6990716,2.6523752
602,1747638520910,-1.4595059,-2.3819683,-1.1754345,0.3683409,-2.061915,5.3468986
603,1747638520920,-1.4595059,-2.3819683,-1.1754345,0.3683409,-2.061915,5.3468986
604,1747638520930,0.02356845,-2.4981334,-1.071221,-0.7780667,-2.2244003,7.661399
605,1747638520940,0.25943586,-2.51741815,-0.97238905,-1.52234595,-2.17492165,8.738361
606,1747638520950,0.49530327,-2.5367029,-0.8735571,-2.2666252,-2.125443,9.815323
607,1747638520960,1.878067,-2.4830105,-0.20583518,-2.5108876,-2.1443794,10.453734
608,1747638520970,2.2158305,-2.43261135,-0.132751648,-2.2781548000000003,-2.3004508,11.1296365
609,1747638520980,2.553594,-2.3822122,-0.059668116,-2.045422,-2.4565222,11.805539
610,1747638520990,3.1649408,-2.2062566,-0.15311868,-1.526431,-2.6783361,11.918547
611,1747638521000,3.5360143,-1.9631785000000002,-0.30529221,-1.35291215,-2.48160515,11.815924500000001
612,1747638521010,3.9070878,-1.7201004,-0.45746574,-1.1793933,-2.2848742,11.713302
613,1747638521020,3.8990386,-0.5728383,0.041618284,-0.9375742,-1.4919944,11.352901
614,1747638521030,4.1251338,-0.41506995,0.201231252,-0.70113812,-1.5020734,11.441168999999999
615,1747638521040,4.351229,-0.2573016,0.36084422,-0.46470204,-1.5121524,11.529437
616,1747638521050,4.7546678,0.21492107,0.4984742,0.17706935,-1.4797775,11.30831
617,1747638521060,4.6013966,0.44225143499999997,0.403179015,1.316375825,-1.12915115,10.5609
618,1747638521070,4.4481254,0.6695818,0.30788383,2.4556823,-0.7785248,9.81349
619,1747638521080,4.474743,1.2740988,-0.056009363,2.92802,-0.8335011,9.22158
620,1747638521090,4.654479,1.6020905,0.04832598850000001,3.1654105,-0.8909207299999999,7.8727908
621,1747638521100,4.834215,1.9300822,0.15266134,3.402801,-0.94834036,6.5240016
622,1747638521110,3.563958,2.8328178,-0.2519659,3.5211527,-0.60076827,2.5912905
623,1747638521120,3.1922746,2.91567325,-0.357033025,3.1971745499999997,-0.28068431,2.0668398999999997
624,1747638521130,2.8205912,2.9985287,-0.46210015,2.8731964,0.03939965,1.5423893
625,1747638521140,2.4558596,3.0214721,-0.525183125,2.09776395,0.270032655,1.021642
626,1747638521150,2.091128,3.0444155,-0.5882661,1.3223315,0.50066566,0.5008947
627,1747638521160,2.1533575,2.6275923,-0.29907233,-0.576258,0.9478059,-1.0641723
628,1747638521170,2.16274825,2.59952665,-0.126409816,-0.7033524200000001,0.909627925,-1.4523657
629,1747638521180,2.172139,2.571461,0.046252698,-0.83044684,0.87144995,-1.8405591
630,1747638521190,2.8091273,2.7344582,0.26443616,-0.8809181,0.6863633,-2.7873724
631,1747638521200,3.26157745,2.6571063,0.29140418999999995,-0.92016505,0.706826665,-3.4339922000000005
632,1747638521210,3.7140276,2.5797544,0.31837222,-0.959412,0.72729003,-4.080612
633,1747638521220,4.3036656,2.4228244,0.28199816,-1.1033429,0.9710181,-5.1813593
634,1747638521230,4.54124045,2.1724286,0.31872286,-1.26815715,1.30576235,-6.092781649999999
635,1747638521240,4.7788153,1.9220328,0.35544756,-1.4329714,1.6405066,-7.004204
636,1747638521250,4.7646685,0.8623979,0.7432446,-1.0609653,2.3014433,-8.852704
637,1747638521260,4.7008386,0.57442377,0.78815575,-0.6790330699999999,2.283118,-9.1401075
638,1747638521270,4.6370087,0.28644964,0.8330669,-0.29710084,2.2647927,-9.427511
639,1747638521280,4.505476,-0.63534194,0.5453367,0.20952061,2.0338924,-9.622982
640,1747638521290,4.26704765,-0.9486834199999999,0.21915912999999998,0.4849172625,1.68525125,-9.7784425
641,1747638521300,4.0286193,-1.2620249,-0.10701844,0.760313915,1.3366101000000001,-9.933903
642,1747638521310,3.9360070499999997,-1.4118811999999998,-0.176931055,0.326631465,1.4509913,-9.8004335
643,1747638521320,3.8433948,-1.5617375,-0.24684367,-0.107050985,1.5653725,-9.666964
644,1747638521330,3.5790806,-1.8230941,-0.04698445,-0.8092199,2.1921017,-9.437284
645,1747638521340,3.29805815,-1.94439695,0.24173667499999996,-0.8649979,2.5232191,-9.189280499999999
646,1747638521350,3.0170357,-2.0656998,0.5304578,-0.9207759,2.8543365,-8.941277
647,1747638521360,1.9122456,-2.7231467,0.84038436,1.1254097,2.0650456,-8.373189
648,1747638521370,1.6608743000000001,-2.9407204499999997,0.68810415,1.6347800000000001,1.6777684,-8.192645500000001
649,1747638521380,1.409503,-3.1582942,0.53582394,2.1441503,1.2904912,-8.012102
650,1747638521390,0.13802634,-3.7400963,-0.09527995,3.3460686,0.17813833,-7.047574
651,1747638521400,-0.9836245,-3.6629577,-0.54408664,3.4974823,-1.0753967,-5.1153874
652,1747638521410,-1.093318375,-3.6240377,-0.6207222299999999,3.2890688,-1.3111837,-4.22202345
653,1747638521420,-1.20301225,-3.5851177,-0.6973578199999999,3.0806553,-1.5469707,-3.3286595
654,1747638521430,-1.5624998,-3.3850145,-0.95359224,2.0444293,-1.6618099,-0.42339352
655,1747638521440,-1.3911788,-3.296671,-0.85829705,1.7357224,-1.61172045,0.64379484
656,1747638521450,-1.2198578,-3.2083275,-0.76300186,1.4270155,-1.561631,1.7109832
657,1747638521460,-0.95603144,-3.118993,-0.65171486,1.1683981,-1.7106777,3.7457917
658,1747638521470,-0.75249822,-2.9598678,-0.632552145,1.1796224,-1.87041435,4.70608185
659,1747638521480,-0.548965,-2.8007426,-0.61338943,1.1908467,-2.030151,5.666372
660,1747638521490,0.18781583,-2.434197,-0.69150376,0.98835087,-2.265327,7.7140083
661,1747638521500,0.407081665,-2.3386579000000003,-0.684064295,0.907337235,-2.2210406000000003,8.021264649999999
662,1747638521510,0.6263475,-2.2431188,-0.67662483,0.8263236,-2.1767542,8.328521
663,1747638521520,1.2396455,-1.9268198,-0.74153715,0.713546,-2.1950796,9.098799
664,1747638521530,1.4805818,-1.796133825,-0.8271290250000001,0.6474981,-2.0939844,9.3587145
665,1747638521540,1.7215181,-1.66544785,-0.9127209000000001,0.5814502,-1.9928892,9.61863
666,1747638521550,2.2639124,-1.2600735,-1.2325414,0.1783674,-1.605612,9.880684
667,1747638521560,2.2639124,-1.2600735,-1.2325414,0.1783674,-1.605612,9.880684
668,1747638521570,2.7912908,-1.0877769,-1.1234497,-0.31512082,-1.545749,10.1708355
669,1747638521580,3.385914,-0.7218409,-1.0801392500000002,-0.48833421,-1.8643059000000002,9.92832925
670,1747638521590,3.9805372,-0.3559049,-1.0368288,-0.6615476,-2.1828628,9.685823
671,1747638521600,4.263877,0.27080846,-0.7576357,-0.74821156,-1.6465387,8.676703
672,1747638521610,3.9006087999999997,0.603937655,-0.55117547,-0.38433747149999997,-1.48741305,8.356925
673,1747638521620,3.5373406,0.93706685,-0.34471524,-0.020463383,-1.3282874,8.037147
674,1747638521630,3.438036,1.1213155,-0.23513566,1.5061203,-1.1089932,8.712744
675,1747638521640,3.78958085,1.11668105,-0.300048,1.76657025,-1.03721865,8.614397
676,1747638521650,4.1411257,1.1120466,-0.36496034,2.0270202,-0.9654441,8.51605
677,1747638521660,4.7941823,1.3780682,-0.65171486,2.2563171,-0.917798,7.509298
678,1747638521670,4.6361699000000005,1.74877585,-0.83500298,1.93634765,-0.605349625,6.1003407
679,1747638521680,4.4781575,2.1194835,-1.0182911,1.6163782,-0.29290125,4.6913834
680,1747638521690,3.1175904,2.925323,-0.3473983,0.026953636,0.52082366,2.195385
681,1747638521700,3.0335154500000003,2.9046968,-0.187785337,-0.035047362,0.54159245,1.8606406999999998
682,1747638521710,2.9494405,2.8840706,-0.028172374,-0.09704836,0.56236124,1.5258964
683,1747638521720,2.370321,2.603414,0.36377123,0.25747213,0.667427,-0.56694263
684,1747638521730,1.8739202000000001,2.5179975,0.268094915,0.49658065500000004,0.7184327375,-1.306984065
685,1747638521740,1.3775194,2.432581,0.1724186,0.73568918,0.7694384750000001,-2.0470255
686,1747638521750,1.3775194,2.432581,0.1724186,0.73851436,0.755389,-2.8759453
687,1747638521760,1.418101025,2.4266584,-0.042647304999999996,0.29484835000000004,0.8854994999999999,-3.28708365
688,1747638521770,1.45868265,2.4207358,-0.25771321,-0.14881766,1.01561,-3.698222
689,1747638521780,1.970023475,2.3922509,-0.24666836000000003,-0.461915045,1.05806385,-4.1820129999999995
690,1747638521790,2.4813643,2.363766,-0.23562351,-0.77501243,1.1005177,-4.665804
691,1747638521800,2.7995842,2.3190987,-0.17339426,-1.110215,1.2739983,-5.3798847
692,1747638521810,2.9927509,2.07847485,-0.00963470999999999,-1.3974658500000001,1.76237075,-6.24763135
693,1747638521820,3.1859176,1.837851,0.15412484,-1.6847167,2.2507432,-7.115378
694,1747638521830,3.518315,1.0044184,0.5363118,-1.0392039,2.8543365,-8.610197
695,1747638521840,3.6009265,0.7692827,0.556191,-0.7288935,2.9138942,-8.819718
696,1747638521850,3.683538,0.534147,0.5760702,-0.4185831,2.9734519,-9.029239
697,1747638521860,3.9495294,-0.32245782,0.39230946,0.75714517,2.9716191,-9.525858
698,1747638521870,3.9734483999999997,-0.631302045,0.222086122,1.102044835,2.96673235,-9.6495545
699,1747638521880,3.9973674,-0.94014627,0.051862784,1.4469445,2.9618456,-9.773251
700,1747638521890,4.0105696,-1.3664821,-0.1501917,1.6014124,3.0015507,-9.7469845
701,1747638521900,3.894267,-1.68863515,-0.23865722500000003,1.4275882000000002,2.9477961,-9.69903275
702,1747638521910,3.7779644,-2.0107882,-0.32712275,1.253764,2.8940415,-9.651081
703,1747638521920,2.8259575,-2.5491426,-0.27833942,0.051234815,3.0937886,-9.141635
704,1747638521930,2.51125925,-2.7032523,-0.17315035,-0.12885059249999997,3.3231618000000003,-8.8640045
705,1747638521940,2.196561,-2.857362,-0.06796128,-0.308936,3.552535,-8.586374
706,1747638521950,0.624884,-3.1065533,0.5016451,0.2992388,3.0827935,-7.4733343
707,1747638521960,-0.27344585,-3.0884882000000005,0.20147516,1.0064090499999998,2.06752715,-5.496289
708,1747638521970,-1.1717757,-3.0704231000000006,-0.09869478,1.7135793,1.0522608,-3.5192437
709,1747638521980,-1.1717757,-3.0704231,-0.09869478,1.7135793,1.0522608,-3.5192437
710,1747638521990,-1.3872761,-2.9574287000000004,-0.38985509,1.5983200499999999,0.57515089,-1.63989579
711,1747638522000,-1.6027765,-2.8444343,-0.6810154,1.4830608,0.09804098,0.23945212
712,1747638522010,-1.200100525,-2.6994715,-0.8642883000000001,0.59080385,-0.56656086,2.56070981
713,1747638522020,-0.79742455,-2.5545087,-1.0475612,-0.3014531,-1.2311627,4.8819675
714,1747638522030,-0.14921603,-2.4229767,-0.981917,-0.8665632,-1.4834425,5.7720485
715,1747638522040,0.302151785,-2.2619002999999998,-0.8440278999999999,-1.26346125,-1.79039335,6.3822849
716,1747638522050,0.7535196,-2.1008239,-0.7061388,-1.6603593,-2.0973442,6.9925213
717,1747638522060,1.3402001,-1.7083925,-0.3473983,-1.3949461,-2.7320907,7.3596406
718,1747638522070,1.36082635,-1.65727665,-0.3603259,-1.22891015,-2.8328805,7.4552381
719,1747638522080,1.3814526,-1.6061608,-0.3732535,-1.0628742,-2.9336703,7.5508356
720,1747638522090,1.4629512,-1.5017034,-0.44819686,-0.75508356,-2.6746712,8.19108
721,1747638522100,1.748425175,-1.4460523250000001,-0.438668885,-0.6957168375,-2.7082677750000004,8.3546345
722,1747638522110,2.03389915,-1.39040125,-0.42914091,-0.6363501149999999,-2.74186435,8.518189
723,1747638522120,2.3666625,-1.3179122,-0.42377475,-0.38865158,-3.2195468,8.105561
724,1747638522130,2.5023564,-1.0164007000000002,-0.311268175,-0.07992555125,-3.235887025,7.80605525
725,1747638522140,2.6380503,-0.7148892,-0.1987616,0.2288004775,-3.25222725,7.5065495
726,1747638522150,2.557253,-0.084761046,-0.24172144,0.8793146,-3.0442336,7.196544
727,1747638522160,2.6617103,0.325110427,-0.42048187000000004,0.99892615,-2.9968929500000003,7.18035665
728,1747638522170,2.7661676,0.7349819,-0.5992423,1.1185377,-2.9495523,7.1641693
729,1747638522180,3.01240145,1.0603058,-0.6637887499999999,0.766193365,-2.55307425,7.0340588
730,1747638522190,3.2586353,1.3856297,-0.7283352,0.41384903,-2.1565962,6.9039483
731,1747638522200,3.6291142,2.4582226,-0.2678205,-0.6709394,-1.1407572,5.7873197
732,1747638522210,3.84033085,2.6750493,-0.180208683,-0.8441527,-1.0381349,5.421116850000001
733,1747638522220,4.0515475,2.891876,-0.092596866,-1.017366,-0.9355126,5.054914
734,1747638522230,4.3910184,3.2599158,0.076528855,-1.2404017,-0.62398046,3.7934377
735,1747638522240,4.3527082,3.4256115,0.3885287775,-1.1326253,-0.35581851999999997,2.3936431000000002
736,1747638522250,4.314398,3.5913072,0.7005287,-1.0248489,-0.08765658,0.9938485
737,1747638522260,3.552494,3.376813,0.7300731,-0.08582404,0.0051922016,-1.3384427
738,1747638522270,3.0009373,3.1521657,0.41403331,0.14782502999999997,0.1206805108,-2.1716766
739,1747638522280,2.4493806,2.9275184,0.09799352,0.3814741,0.23616882,-3.0049105
740,1747638522290,2.0357285,2.7496116,-0.35105708,-0.4708869,0.7840988,-3.5125244
741,1747638522300,2.3213853999999996,2.6993343000000003,-0.30760940999999997,-1.0185878000000002,1.04279265,-3.70219245
742,1747638522310,2.6070423,2.649057,-0.26416174,-1.5662887,1.3014865,-3.8918605
743,1747638522320,3.40215,2.4250195,0.12823918,-2.32519,2.1255193,-5.054303
744,1747638522330,3.4643791,2.0774992,0.41561876000000003,-2.1638309,2.439972075,-5.742613175
745,1747638522340,3.5266082,1.7299789,0.70299834,-2.0024718,2.7544248500000004,-6.43092335
746,1747638522350,3.0250852,0.90654683,0.7740086,-0.2216612,3.1701446,-8.000496
747,1747638522360,3.0250852,0.90654683,0.7740086,-0.2216612,3.1701446,-8.000496
748,1747638522370,2.7666554,0.4031028,0.58143634,0.72729003,3.1793072,-8.321191
749,1747638522380,2.6501242,0.10633242999999998,0.34349564,1.223259815,3.1038676,-8.40858
750,1747638522390,2.533593,-0.19043794,0.10555494,1.7192296,3.028428,-8.495969
751,1747638522400,2.439624,-0.99164325,-0.57704586,1.9205037,3.1224985,-8.423889
752,1747638522410,2.4435266999999996,-1.102198475,-0.59815991,1.6319929,3.392493,-8.259227500000001
753,1747638522420,2.4474294,-1.2127537,-0.61927396,1.3434821,3.6624875,-8.094566
754,1747638522430,2.5023413,-1.748913,-0.62244487,1.0562313,3.840855,-7.9766726
755,1747638522440,2.4561038,-2.0077239000000002,-0.51384096,0.722899575,4.29166025,-7.789448
756,1747638522450,2.4098663,-2.2665348,-0.40523705,0.38956785,4.7424655,-7.6022234
757,1747638522460,2.2622051,-2.5679243,-0.23489174,0.6076403,4.6294584,-7.555188
758,1747638522470,1.7543401,-2.9316803499999997,-0.28809607,1.0123266,4.2388217,-7.458674
759,1747638522480,1.2464751,-3.2954364,-0.3413004,1.4170129,3.848185,-7.36216
760,1747638522490,-0.40499315,-3.5607262,-1.005577,1.7385477,2.4877517,-5.599179
761,1747638522500,-0.6605110949999999,-3.5862306,-1.1809226,1.4678278,2.08947935,-4.90159115
762,1747638522510,-0.91602904,-3.611735,-1.3562682,1.1971079,1.691207,-4.2040033
763,1747638522520,-1.5473769,-3.6329558,-1.5388398,-0.48150036,0.7883747,-1.4447302
764,1747638522530,-1.5653047999999998,-3.507209125,-1.28057015,-1.1200266300000001,0.04676796500000002,0.13543624999999992
765,1747638522540,-1.5832327,-3.38146245,-1.0223005,-1.7585529000000002,-0.69483877,1.7156026999999998
766,1747638522550,-1.4814584,-3.3147054,-0.8628247,-1.9800614,-1.1798515,2.6389365
767,1747638522560,-1.4814584,-3.3147054,-0.8628247,-1.9800614,-1.1798515,2.6389365
768,1747638522570,-0.30077976,-2.893248,-0.1651011,-1.5756805,-3.1260872,6.1202316
769,1747638522580,1.6098806,-2.5034997,-0.21144526,0.31229568,-5.3820224,8.372501
770,1747638522590,1.86355395,-2.36965045,-0.38497673,0.57553264,-5.4431072,8.5484255
771,1747638522600,2.1172273,-2.2358012,-0.5585082,0.8387696,-5.504192,8.72435
772,1747638522610,2.3692084500000004,-1.8687523000000001,-0.69772365,0.77024018,-4.8933065,8.9720485
773,1747638522620,2.6211896,-1.5017034,-0.8369391,0.70171076,-4.282421,9.219747
774,1747638522630,3.5542011,-0.58262545,-0.59021735,0.09422319,-3.5115318,10.176333
775,1747638522640,3.691472825,-0.3877512775,-0.589546575,0.018516307499999995,-3.4049389000000003,10.2291715
776,1747638522650,3.8287445499999997,-0.192877105,-0.5888758000000001,-0.057190575,-3.298346,10.28201
777,1747638522660,4.3236666,0.6830276,-0.37861964,-0.15439165,-2.879305,10.366384
778,1747638522670,4.737448575,1.1021069749999999,0.06663498750000002,0.3474957249999999,-2.4898516500000003,10.0505375
779,1747638522680,5.151230549999999,1.5211863499999998,0.5118896150000001,0.8493831,-2.1003983,9.734691
780,1747638522690,5.2839975,1.6201556,0.45161173,2.184619,-2.061304,8.3932705
781,1747638522700,4.71170805,2.2471129,0.08444090500000001,2.6248488500000002,-1.5591876,7.4723799500000005
782,1747638522710,4.1394186,2.8740702,-0.28272992,3.0650787,-1.0570712,6.5514894
783,1747638522720,4.5098667,3.5307853,-0.9001745,2.0002193,-0.39491275,5.5148816
784,1747638522730,4.45446705,3.6451211499999996,-0.7670417,1.2867879,-0.05707603499999997,4.1700633
785,1747638522740,4.3990674,3.759457,-0.6339089,0.5733565,0.28076068,2.825245
786,1747638522750,3.8597374,3.805832,-0.38596764,-0.24601874,0.48844874,-0.3109976
787,1747638522760,2.9141792250000003,3.5586147749999997,-0.147653428,-0.297711685,0.48600535,-0.7871530499999999
788,1747638522770,1.96862105,3.3113975499999997,0.090660784,-0.34940463,0.48356196,-1.2633085
789,1747638522780,1.6213446,3.1161575,0.12897095,-0.36811182,0.2526617,-2.3805482
790,1747638522790,1.409381,2.8860221,0.010366464999999991,-0.49180841,0.029358849999999992,-2.9657779499999997
791,1747638522800,1.1974174,2.6558867,-0.10823802,-0.615505,-0.193944,-3.5510077
792,1747638522810,1.6401261,2.3788888,-0.18705359,-1.1189195,-0.038177952,-4.1129875
793,1747638522820,1.9221243000000001,2.2543083,-0.19266367499999998,-1.4513349,0.10418763900000001,-4.59738925
794,1747638522830,2.2041225,2.1297278,-0.19827376,-1.7837503,0.24655323,-5.081791
795,1747638522840,2.50869825,1.9197156,-0.11761356749999999,-2.0906246499999996,0.569080585,-5.64380865
796,1747638522850,2.813274,1.7097034,-0.036953375,-2.397499,0.89160794,-6.2058263
797,1747638522860,3.0724354,1.144518,0.14192902,-2.1071177,1.8646876,-8.158705
798,1747638522870,2.9007484999999997,0.48998285499999994,0.334592695,-1.802763,1.9364621,-8.437899999999999
799,1747638522880,2.7290616,-0.16455229,0.52725637,-1.4984083,2.0082366,-8.717095
800,1747638522890,2.5062437,-0.60750496,0.54240966,-0.76936215,1.9923546,-8.882025
801,1747638522900,2.39410305,-0.93648753,0.40537424499999997,-0.1908516,1.91966385,-8.7195395
802,1747638522910,2.2819624,-1.2654701,0.26833883,0.38765895,1.8469731,-8.557054
803,1747638522920,1.9461502,-2.1271973,-0.23245259,0.8144885,2.2941132,-7.7085104
804,1747638522930,1.78557675,-2.3232758000000002,-0.313234745,0.798301025,2.3322911,-7.60161235
805,1747638522940,1.6250033,-2.5193543,-0.3940169,0.78211355,2.370469,-7.4947143
806,1747638522950,1.1783919,-2.636282,-0.5384765,0.3683409,2.2366936,-6.6364737
807,1747638522960,0.556434895,-2.6792265,-0.54664775,0.164928761,2.2757878,-5.685040949999999
808,1747638522970,-0.06552211,-2.722171,-0.554819,-0.038483378,2.314882,-4.7336082
809,1747638522980,-0.3530084,-2.7917178,-0.4340192,0.14034216,2.0198429,-3.24986
810,1747638522990,-0.51492335,-2.8717682499999997,-0.57434752,0.51261538,1.454503735,-1.9490226499999999
811,1747638523000,-0.6768383,-2.9518187,-0.71467584,0.8848886,0.88916457,-0.6481853
812,1747638523010,-0.862093,-2.626495,-1.4490174,0.62382776,-0.16095825,3.4812949
813,1747638523020,-0.71248062,-2.5220528,-1.4753756999999998,0.39109495499999997,-0.33657682499999997,4.34079515
814,1747638523030,-0.56286824,-2.4176106,-1.501734,0.15836215,-0.5121954,5.2002954
815,1747638523040,-0.15763117000000004,-2.2636077,-1.47037545,-0.16966283499999998,-0.9171871,6.26164245
816,1747638523050,0.2476059,-2.1096048,-1.4390169,-0.49768782,-1.3221788,7.3229895
817,1747638523060,1.2128147,-1.8048005,-1.312851,-1.049741,-2.1156695,8.582633
818,1747638523070,1.49871555,-1.6888790500000002,-1.2573294499999998,-1.1918012,-2.2320359,8.732596000000001
819,1747638523080,1.7846164,-1.5729576,-1.2018079,-1.3338614,-2.3484023,8.882559
820,1747638523090,2.325654,-1.0335969,-0.88111854,-1.6453935,-1.8151326,8.6596
821,1747638523100,2.18832135,-0.25790377500000006,-0.5176750475,-1.5771695000000001,-1.46084125,8.578052
822,1747638523110,2.0509887,0.5177893499999999,-0.154231555,-1.5089455,-1.1065499,8.496504
823,1747638523120,2.1304293,0.64201915,-0.0725957,-1.3419551,-1.1890142,8.50872
824,1747638523130,2.2478141000000003,1.167202225,0.13691346999999998,-1.0285522500000002,-1.1981769,7.982131750000001
825,1747638523140,2.3651989,1.6923853,0.34642264,-0.7151494,-1.2073396,7.4555435
826,1747638523150,2.54213,3.1730206,0.6834545,-0.044133715,-1.1627477,5.659042
827,1747638523160,2.6796533,3.48869445,0.71383738,-0.0519220175,-1.06256875,5.1425325
828,1747638523170,2.8171766,3.8043683,0.74422026,-0.05971032,-0.9623898,4.626023
829,1747638523180,3.0180113,4.285372,1.244036,-0.3787253,-0.05222744,1.7928367
830,1747638523190,2.5600578499999997,4.235963699999999,1.6303542,-0.131198535,0.516204105,0.36127796
831,1747638523200,2.1021044,4.1865554,2.0166724,0.11632822999999999,1.08463565,-1.07028078
832,1747638523210,2.1021044,4.1865554,2.0166724,1.1354123,1.4163257,-2.5625806
833,1747638523220,2.0396311,3.6891787,1.9507846,1.1354123,1.4163257,-2.5625806
834,1747638523230,2.136527,3.3406827,1.7082095,1.6488295,1.5281107,-3.2535253
835,1747638523240,2.3575003,2.9936503500000002,1.2663697,1.9834211000000002,1.59927445,-4.08244495
836,1747638523250,2.5784736,2.646618,0.8245299,2.3180127,1.6704382,-4.9113646
837,1747638523260,3.007523,2.389865,0.41035932,2.0002193,1.5116179,-5.4965563
838,1747638523270,3.3310022,2.16387625,0.21489059200000002,1.3615785,1.6194324500000001,-5.95931115
839,1747638523280,3.6544814,1.9378875,0.019421864,0.7229377,1.727247,-6.422066
840,1747638523290,3.8985507,1.0529882,0.22269592,-0.3113794,2.1316278,-7.3927026
841,1747638523300,3.79921565,0.7008335299999999,0.26248483499999997,-0.4360304,2.1337658,-7.54541445
842,1747638523310,3.6998806,0.34867886,0.30227375,-0.5606814,2.1359038,-7.6981263
843,1747638523320,3.3238218,-0.48304647,0.25199643,-0.87778753,2.363139,-7.5484686
844,1747638523330,3.1923965499999998,-0.7784600349999999,0.349608825,-0.870304645,2.5788062,-7.4162203
845,1747638523340,3.0609713,-1.0738736,0.44722122,-0.86282176,2.7944734,-7.283972
846,1747638523350,2.2761085,-1.9685601,0.7298292,0.46432027,2.8818247,-6.8404965
847,1747638523360,2.0278012,-2.10754675,0.60634639,0.916385385,2.6631032,-6.56989125
848,1747638523370,1.7794939,-2.2465334,0.48286358,1.3684505,2.4443817,-6.299286
849,1747638523380,0.8567268,-2.5288975,-0.23391607,2.1727836,2.0167885,-4.8276787
850,1747638523390,0.50884066,-2.56342695,-0.488580335,2.08993745,1.79810525,-3.99509385
851,1747638523400,0.16095452,-2.5979564,-0.7432446,2.0070913,1.579422,-3.162509
852,1747638523410,-0.36447248,-2.7246103,-1.1776297,0.97964627,0.9563577,-0.9872055
853,1747638523420,-0.500288325,-2.7711068,-1.10064345,0.4834855925,0.5027845375,-0.11457202749999995
854,1747638523430,-0.63610417,-2.8176033,-1.0236572,-0.012675085000000003,0.04921137500000003,0.758061445
855,1747638523440,-0.6675694,-2.7411966,-0.90578455,-0.8292252,-1.1413682,2.7592735
856,1747638523450,-0.63096665,-2.67055225,-0.82670981,-0.9416592,-1.4043379,3.34324345
857,1747638523460,-0.5943639,-2.5999079,-0.74763507,-1.0540932,-1.6673076,3.9272134
858,1747638523470,-0.115799434,-2.348765,-0.47868645,-0.9998806,-2.4064329,5.9369774
859,1747638523480,0.4710183829999999,-2.28482835,-0.491385375,-0.7983391799999999,-2.678298,6.5933326999999995
860,1747638523490,1.0578362,-2.2208917,-0.5040843,-0.59679776,-2.9501631,7.249688
861,1747638523500,1.1543508999999998,-2.1259625,-0.56338655,-0.39212575499999996,-2.88144275,7.626619
862,1747638523510,1.2508656,-2.0310333,-0.6226888,-0.18745375,-2.8127224,8.00355
863,1747638523520,1.4541702,-1.8526386,-0.6351285,-0.2839676,-2.615419,8.5349865
864,1747638523530,2.15372325,-1.6133411,-0.6343967500000001,-0.479324185,-3.07233265,8.822695750000001
865,1747638523540,2.8532763,-1.3740436,-0.633665,-0.67468077,-3.5292463,9.110405
866,1747638523550,3.28976515,-0.81262365,-0.7307896,-1.056307585,-3.62148425,8.5527015
867,1747638523560,3.726254,-0.2512037,-0.8279142,-1.4379344,-3.7137222,7.994998
868,1747638523570,3.535877,0.85410476,-0.49015057,-2.3245792,-2.8200526,7.5117416
869,1747638523580,3.535877,0.85410476,-0.49015057,-2.3245792,-2.8200526,7.5117416
870,1747638523590,3.5246568,1.6660423,0.22537899,-2.633668,-2.088792,7.4366074
871,1747638523600,3.6136103,2.0837191500000003,0.440025695,-2.4900425000000004,-1.811162,7.1550066999999995
872,1747638523610,3.7025638,2.501396,0.6546724,-2.346417,-1.533532,6.873406
873,1747638523620,4.2260394,3.2608914,1.2869958,-1.5077237,-1.0491302,4.58815
874,1747638523630,4.1760212,3.4248797,1.3315259,-1.2148606499999999,-0.947729525,3.76625515
875,1747638523640,4.126003,3.588868,1.376056,-0.9219976,-0.84632885,2.9443603
876,1747638523650,3.3142788,3.8133934,1.0919845,-0.30954686,-0.21959959,0.2443389
877,1747638523660,2.9942143999999997,3.7343186499999996,0.9896156999999999,-0.31111215,0.06539883499999999,-0.3463885499999999
878,1747638523670,2.67415,3.6552439,0.8872469,-0.31267744,0.35039726,-0.937116
879,1747638523680,1.4890503,2.8967545,0.94289035,-0.33512607,1.3662362,-2.8447921
880,1747638523690,1.41474715,2.80206905,0.95374465,-0.24319356,1.4013599499999998,-3.00456675
881,1747638523700,1.340444,2.7073836,0.96459895,-0.15126105,1.4364837,-3.1643414
882,1747638523710,1.6630543,2.0857923,0.7229995,0.3690281,1.6484476,-4.150249
883,1747638523720,1.74530005,2.0069616,0.691275085,0.39052229000000005,1.738853,-4.3472471
884,1747638523730,1.8275458,1.9281309,0.65955067,0.41201648,1.8292584,-4.5442452
885,1747638523740,2.0735662,1.5513405,0.6322015,0.5110501,2.44316,-5.608952
886,1747638523750,2.0735662,1.5513405,0.6322015,0.5110501,2.44316,-5.608952
887,1747638523760,2.3893468,1.150128,0.66369724,0.62573665,2.6441288,-5.9181175
888,1747638523770,2.5319923,0.9042448000000001,0.637460945,0.977431975,2.87720515,-6.3417399
889,1747638523780,2.6746378,0.6583616,0.61122465,1.3291273,3.1102815,-6.7653623
890,1747638523790,2.788364,0.25129515,0.52530503,1.7628288,3.2477221,-7.2180004
891,1747638523800,2.7389402499999997,-0.08781001,0.403895515,2.3382469,3.1664794499999998,-7.5567152
892,1747638523810,2.6895165,-0.42691517,0.282486,2.913665,3.0852368,-7.89543
893,1747638523820,2.473315,-1.0748494,-0.0769862,3.0214796,2.9148104,-7.814187
894,1747638523830,2.43303825,-1.1760138,-0.15679269,2.9650908,2.8653317,-7.75432415
895,1747638523840,2.3927615,-1.2771782,-0.23659918,2.908702,2.815853,-7.6944613
896,1747638523850,2.1091778,-1.5063379,-0.40084654,2.2618911,2.9306924,-7.3859835
897,1747638523860,1.903144475,-1.627930325,-0.3833988825,1.9185949,2.97009205,-7.1355359499999995
898,1747638523870,1.69711115,-1.7495227500000001,-0.365951225,1.5752987,3.0094917,-6.8850884
899,1747638523880,1.5886292,-1.8216306,-0.34520307,1.1764919,2.9636781,-6.443446
900,1747638523890,1.1602658424999999,-1.99423985,-0.28668593249999996,0.9291369,2.8402488000000004,-6.03414
901,1747638523900,0.731902485,-2.1668491000000003,-0.22816879499999998,0.6817819,2.7168195,-5.624834
902,1747638523910,0.016494865,-2.3705041,-0.18876101,0.53533125,1.8066571,-3.8497121
903,1747638523920,-0.1885018525,-2.3969842999999997,-0.229266405,0.51666224,1.4630554999999998,-3.24310265
904,1747638523930,-0.39349857,-2.4234645,-0.2697718,0.49799323,1.1194539,-2.6364932
905,1747638523940,-0.7744659,-2.3929446,-0.52408546,-0.012369657,-0.022295926,0.03787253
906,1747638523950,-0.5980226900000001,-2.3731872999999997,-0.47002743,-0.5413633785,-0.5677825129999999,1.972769365
907,1747638523960,-0.42157948,-2.35343,-0.4159694,-1.0703571,-1.1132691,3.9076662
908,1747638523970,-0.42157948,-2.35343,-0.4159694,-1.0703571,-1.1132691,3.9076662
909,1747638523980,0.04613075999999999,-2.2666719,-0.318966785,-1.1385811000000001,-1.8350233,5.50720785
910,1747638523990,0.513841,-2.1799138,-0.22196417,-1.2068051,-2.5567775,7.1067495
911,1747638524000,1.1359199,-2.1188736,-0.12336086,-0.9463551,-3.1798418,8.117778
912,1747638524010,1.1359199,-2.1188736,-0.12336086,-0.9463551,-3.1798418,8.117778
913,1747638524020,2.0674682,-1.8645905,-0.22781818,-0.3519244,-4.0246434,9.027941
914,1747638524030,2.5393249,-1.6598377,-0.43037572,-0.32451262000000003,-4.0139537,9.221274000000001
915,1747638524040,3.0111816,-1.4550849,-0.63293326,-0.29710084,-4.003264,9.414607
916,1747638524050,3.6347244,-0.69659555,-0.5694845,-1.6335583,-2.8261611,9.293659
917,1747638524060,3.71575045,-0.47499724,-0.40584687999999997,-1.84323155,-2.74949975,9.20814075
918,1747638524070,3.7967765,-0.25339893,-0.24220926,-2.0529048,-2.6728384,9.1226225
919,1747638524080,3.9539502,0.6654352,0.15241744,-2.3725307,-2.4516354,9.025497
920,1747638524090,4.0532701,1.04676845,0.54521475,-2.1284590750000003,-2.321372225,8.421808075
921,1747638524100,4.15259,1.4281017,0.93801206,-1.8843874500000002,-2.19110905,7.81811915
922,1747638524110,4.15259,1.4281017,0.93801206,-1.5027606,-2.125443,7.1837163
923,1747638524120,3.9937087,1.6335861999999999,0.952159255,-1.11269645,-2.0906247000000002,6.6779349
924,1747638524130,3.8348274,1.8390707,0.96630645,-0.7226323,-2.0558064,6.1721535
925,1747638524140,2.980936,2.643203,0.46819806,0.20448112,-1.6825788,3.8190935
926,1747638524150,2.68111665,2.7199453,0.40267594,0.013209569999999976,-1.41960905,3.148994
927,1747638524160,2.3812973,2.7966876,0.33715382,-0.17806198,-1.1566393,2.4788945
928,1747638524170,1.4744153,3.0898144,0.47530213,-0.42728767,-0.9123004,1.8826313
929,1747638524180,1.4058442,3.0993272,0.5602308650000001,-0.6531484350000001,-0.6520794599999999,1.02255834
930,1747638524190,1.3372731,3.10884,0.6451596,-0.8790092,-0.39185852,0.16248538
931,1747638524200,1.3891358999999999,3.0010896999999996,0.65113555,-0.83040867,-0.311532105,-0.25262351
932,1747638524210,1.4409987,2.8933394,0.6571115,-0.78180814,-0.23120569,-0.6677324
933,1747638524220,1.3626405,2.7264092,0.63829947,-0.6534538,0.0027488125,-1.5516284
934,1747638524230,1.26112545,2.6307480500000002,0.5560690349999999,-0.633219525,0.16557778125000003,-2.1301007
935,1747638524240,1.1596104,2.5350869,0.4738386,-0.61298525,0.32840675,-2.708573
936,1747638524250,1.3321509,2.3708396,0.35642326,-1.1812259,0.95391434,-3.63897
937,1747638524260,1.44477945,2.3493596500000002,0.40743232,-1.3460401499999999,1.16129697,-3.80450955
938,1747638524270,1.557408,2.3278797,0.45844138,-1.5108544,1.3686796,-3.9700491
939,1747638524280,2.3666625,1.9137397,0.91456556,-1.4547328,2.4236128,-4.985277
940,1747638524290,2.4838035,1.7922082000000001,0.97789238,-1.201460225,2.6459994,-5.265656
941,1747638524300,2.6009445,1.6706767,1.0412192,-0.94818765,2.868386,-5.546035
942,1747638524310,2.8244941,1.1103392,0.9609402,0.32596338,3.308196,-6.425731
943,1747638524320,2.80008705,0.755013575,0.6372170500000001,0.98021894,3.3732513,-6.7604755
944,1747638524330,2.77568,0.39968795,0.3134939,1.6344745,3.4383066,-7.09522
945,1747638524340,2.745404,0.18662675,0.12799528,1.7535135,3.443804,-7.203951
946,1747638524350,2.7047766500000003,0.05398181200000002,0.031846373,1.7643942,3.42670035,-7.2592324999999995
947,1747638524360,2.6641493,-0.078663126,-0.064302534,1.7752749,3.4095967,-7.314514
948,1747638524370,2.4474294,-0.4801195,-0.28199816,1.6376052,3.5152733,-7.274809
949,1747638524380,2.29173435,-0.68816515,-0.32079616499999997,1.567357725,3.66370915,-7.023598
950,1747638524390,2.1360393,-0.8962108,-0.35959417,1.49711025,3.812145,-6.772387
951,1747638524400,2.09746995,-0.94795165,-0.369716705,1.4876039749999999,3.8768948500000002,-6.565768
952,1747638524410,2.0589006,-0.9996925,-0.37983924,1.4780977,3.9416447,-6.359149
953,1747638524420,1.8229111,-1.3574573,-0.37374133,1.5048985,3.876895,-5.8552
954,1747638524430,1.74714455,-1.51609465,-0.41633526499999995,1.5806054,3.602319,-5.5821131
955,1747638524440,1.671378,-1.674732,-0.4589292,1.6563123,3.327743,-5.3090262
956,1747638524450,1.3965753,-1.9312103,-0.6287867,1.6587558,3.0510294,-5.03048
957,1747638524460,1.12262645,-2.0378628,-0.73812235,1.5139086499999999,2.90102815,-4.708258
958,1747638524470,0.8486776,-2.1445153,-0.847458,1.3690615,2.7510269,-4.386036
959,1747638524480,-0.31931743,-2.1965,-0.8388904,0.5173113,2.2904482,-2.3671095
960,1747638524490,-0.488443165,-2.17172725,-0.7931407800000001,0.388307985,1.9911330500000002,-1.73854765
961,1747638524500,-0.6575689,-2.1469545,-0.74739116,0.25930467,1.6918179,-1.1099858
962,1747638524510,-0.696626,-2.1291487,-0.6312259,-0.02351762,0.36078167,1.3230952
963,1747638524520,-0.448791418,-2.07600535,-0.62859615,-0.09830823500000001,-0.24918749999999995,2.09890945
964,1747638524530,-0.200956836,-2.022862,-0.6259664,-0.17309885,-0.85915667,2.8747237
965,1747638524540,0.012592198,-1.9729505,-0.6500074,-0.47653723,-1.8866018,4.269288
966,1747638524550,0.3663933265,-1.8950953,-0.6019329725,-0.904435715,-2.30323775,5.382747975000001
967,1747638524560,0.720194455,-1.8172401,-0.553858545,-1.3323342,-2.7198737,6.4962079500000005
968,1747638524570,1.4014537,-1.6000324,-0.18095568,-1.8049009,-2.9648235,8.229564
969,1747638524580,1.6218324000000002,-1.47106145,-0.092612111,-1.77905445,-3.0622536,8.6980835
970,1747638524590,1.8422111,-1.3420905,-0.004268542,-1.753208,-3.1596837,9.166603
971,1747638524600,2.4852669499999998,-1.16747665,0.058936364000000005,-1.6226775500000001,-3.3585145499999998,9.675439
972,1747638524610,3.1283228,-0.9928628,0.12214127,-1.4921471,-3.5573454,10.184275
973,1747638524620,4.338058,-0.010335969,0.2710219,-0.8123505,-3.9391248,9.037104
974,1747638524630,4.285463350000001,0.2152869455,0.27236344999999995,-0.720456175,-3.7894673,8.6641815
975,1747638524640,4.2328687,0.44090986,0.273705,-0.62856185,-3.6398098,8.291259
976,1747638524650,3.6191137,1.2867824,0.31788442,-0.45225605,-3.1999998,7.5569444
977,1747638524660,3.494152075,1.5872038750000002,0.236797365,-0.5609868600000001,-2.9636018,7.4469917
978,1747638524670,3.36919045,1.88762535,0.15571031000000002,-0.66971767,-2.7272038,7.337039
979,1747638524680,3.3111076,2.138021,0.14997827,-1.7987161,-1.4235796,6.4006104
980,1747638524690,3.3072050500000003,2.4063446500000003,0.537882035,-1.8339162,-1.28491725,5.9424747
981,1747638524700,3.3033025,2.6746683,0.9257858,-1.8691163,-1.1462549,5.484339
982,1747638524710,3.0182555,3.2235417,1.3621526,-1.0609653,-1.189625,3.2241282
983,1747638524720,2.73759875,3.3218859500000004,1.2849073,-0.71423315,-1.17527015,2.4251018
984,1747638524730,2.456942,3.4202302,1.207662,-0.367501,-1.1609153,1.6260754
985,1747638524740,1.9054161,3.425596,0.8877348,-0.20677179,-0.74004143,-0.32138202
986,1747638524750,1.431470765,3.0395217,0.7139746,-0.47531551,-0.39979952,-1.2746092100000002
987,1747638524760,0.95752543,2.6534474,0.5402144,-0.74385923,-0.05955761,-2.2278364
988,1747638524770,0.7398297,2.5116405,0.61122465,-0.8485432,0.06139015,-2.7360613
989,1747638524780,0.76069985,2.4729644,0.6300214749999999,-0.85350635,0.058335913,-2.8863678999999998
990,1747638524790,0.78157,2.4342883,0.6488183,-0.8584695,0.055281676,-3.0366745
991,1747638524800,1.0617388,2.34935955,0.608053765,-0.90615375,0.160996428,-3.35889635
992,1747638524810,1.3419076,2.2644308,0.56728923,-0.953838,0.26671118,-3.6811182
993,1747638524820,1.9354179,2.2844625,0.50896263,-1.2348278,0.68025476,-4.2247725
994,1747638524830,2.28562115,2.0668888499999998,0.52532029,-1.50428775,1.24223428,-4.8624969
995,1747638524840,2.6358244,1.8493152,0.54167795,-1.7737477,1.8042138,-5.5002213
996,1747638524850,2.9274879,1.1652509,0.92773706,-1.4815336,2.8237941,-6.962666
997,1747638524860,2.9517577,0.9104646750000001,0.958866955,-1.1653438299999999,2.91847555,-7.2338821499999995
998,1747638524870,2.9760275,0.65567845,0.98999685,-0.84915406,3.013157,-7.5050983
999,1747638524880,2.7515326,-0.12162295,0.6880889,-0.09460497,3.0986755,-7.9479628
