id,timestamp,acc_x,acc_y,acc_z,gyro_x,gyro_y,gyro_z
0,1747638577020,0.06457694,0.9336521,-0.38889465,0.38017607,-0.35765108,0.0659715
1,1747638577030,0.050170612,0.9223099349999999,-0.38314736,0.33531697,-0.308477875,0.10781454000000001
2,1747638577040,0.035764284,0.91096777,-0.37740007,0.29045787,-0.25930467,0.14965758
3,1747638577050,0.026983282,0.9020496,-0.367155565,0.283318585,-0.27763008499999997,0.21410197
4,1747638577060,0.01820228,0.89313143,-0.35691106,0.2761793,-0.2959555,0.27854636
5,1747638577070,0.026983283,0.88752127,-0.34008083,0.3004605,-0.42545512,0.41537613
6,1747638577080,0.14692930650000002,0.880203785,-0.357398915,0.32256553,-0.5619794850000001,0.501200165
7,1747638577090,0.26687533,0.8728863,-0.374717,0.34467056,-0.69850385,0.5870242
8,1747638577100,0.4542948,0.84065884,-0.408408,0.25808296,-0.5115846,0.35490227
9,1747638577110,0.45148975,0.852747945,-0.41231065,0.21383470999999998,-0.44958359999999997,0.318862275
10,1747638577120,0.4486847,0.86483705,-0.4162133,0.16958646,-0.3875826,0.28282228
11,1747638577130,0.42746398,0.8967901,-0.4013344,-0.01977618,-0.361927,0.26938364
12,1747638577140,0.47114029,0.893741165,-0.36361878999999997,-0.135379025,-0.35306972000000003,0.32283278
13,1747638577150,0.5148166,0.89069223,-0.32590318,-0.25098187,-0.34421244,0.37628192
14,1747638577160,0.5655818,0.8741059,-0.273705,-0.2989334,-0.35337514,0.379947
15,1747638577170,0.5655818,0.8741059,-0.273705,-0.2989334,-0.35337514,0.379947
16,1747638577180,0.6017119,0.87800854,-0.2470876,-0.29710084,-0.33016294,0.35490227
17,1747638577190,0.6541845,0.8836186,-0.21757366,-0.20425205,-0.29229042,0.28282228
18,1747638577200,0.6954216499999999,0.8898384500000001,-0.228184045,-0.187721,-0.31489177,0.272132455
19,1747638577210,0.7366588,0.8960583,-0.23879443,-0.17118995,-0.33749312,0.26144263
20,1747638577220,0.78510677,0.8800817999999999,-0.239526175,-0.169968255,-0.31214295000000003,0.230594845
21,1747638577230,0.83355474,0.8641053,-0.24025792,-0.16874656,-0.28679278,0.19974706
22,1747638577240,0.94093907,0.8182185,-0.27050358,-0.17867282,-0.12308572,-0.057419643
23,1747638577250,0.93167022,0.801738875,-0.29161761500000005,-0.23132021,0.01469851500000001,-0.24590420149999997
24,1747638577260,0.92240137,0.78525925,-0.31273165,-0.2839676,0.15248275,-0.43438876
25,1747638577270,0.81770012,0.77672217,-0.30090171,-0.35749835,0.22334103,-0.55167145
26,1747638577280,0.75338236,0.775136685,-0.282165855,-0.425111505,0.249607465,-0.625889395
27,1747638577290,0.6890646,0.7735512,-0.26343,-0.49272466,0.2758739,-0.70010734
28,1747638577300,0.4970107,0.77916133,-0.14848427,-0.3612398,0.022906773,-0.517464
29,1747638577310,0.4888395,0.767819195,-0.148118395,-0.30267482,-0.049173203500000005,-0.4230881
30,1747638577320,0.4806683,0.75647706,-0.14775252,-0.24410984,-0.12125318,-0.3287122
31,1747638577330,0.5592399,0.72985965,-0.2119331,-0.107050985,-0.26052636,-0.07269082
32,1747638577340,0.5945011250000001,0.7033794499999999,-0.257576,-0.1328974575,-0.218377895,-0.053449135
33,1747638577350,0.62976235,0.67689925,-0.3032189,-0.15874393,-0.17622943,-0.03420745
34,1747638577360,0.6393056,0.6444583,-0.3617894,-0.55693996,0.3326827,-0.3171061
35,1747638577370,0.5289943,0.703394685,-0.28821804,-0.66284561,0.457295525,-0.35864371
36,1747638577380,0.418683,0.76233107,-0.21464668,-0.76875126,0.58190835,-0.40018132
37,1747638577390,0.34617874,0.810901,-0.08503545,-1.1382375,1.1756519,-0.34153998
38,1747638577400,0.32325057,0.83041433,-0.017805917000000004,-1.06096535,1.13380885,-0.23674149
39,1747638577410,0.3003224,0.84992766,0.049423616,-0.9836932,1.0919658,-0.131943
40,1747638577420,0.32300666,0.89191175,0.16119842,-0.42484426,0.58313006,0.21135315
41,1747638577430,0.32300666,0.89191175,0.16119842,-0.42484426,0.58313006,0.21135315
42,1747638577440,0.45309046,0.860324565,0.016723537499999996,0.43690850000000003,-0.21959958000000002,0.37139513999999996
43,1747638577450,0.4782291,0.89386314,-0.18754143,0.6064186,-0.3582619,0.35306972
44,1747638577460,0.448821915,0.904610695,-0.29431595,0.558276195,-0.3799469875,0.26388601749999996
45,1747638577470,0.41941473,0.91535825,-0.40109047,0.51013379,-0.401632075,0.174702315
46,1747638577480,0.3518193,0.8880091,-0.41231063,-0.15561333,0.06139015,0.033596598
47,1747638577490,0.31581111,0.89642422,-0.40999344000000004,-0.359369085,0.18451405499999998,0.011606097499999999
48,1747638577500,0.27980292,0.90483934,-0.40767625,-0.56312484,0.30763796,-0.010384403
49,1747638577510,0.181946595,0.92351425,-0.322381625,-0.81578652,0.49394636,0.004275931
50,1747638577520,0.08409027,0.94218916,-0.237087,-1.0684482,0.68025476,0.018936265
51,1747638577530,-0.15824094,1.0476221,0.11067719,-0.8515974,0.42492062,0.3500155
52,1747638577540,-0.18118435,1.0616473,0.147279935,-0.680254775,0.228495051,0.45935715
53,1747638577550,-0.20412776,1.0756725,0.18388268,-0.50891215,0.032069482,0.5686988
54,1747638577560,-0.14994776,1.1232667,0.13583109,0.06925481,-0.7461499,0.98040986
55,1747638577570,-0.06087244750000001,1.1239985,0.073830524,0.14496169,-1.03446985,1.0695935300000001
56,1747638577580,0.028202865,1.1247303,0.011829958,0.22066857,-1.3227898,1.1587772
57,1747638577590,0.1770835,1.0561591,-0.14189851,-0.0029778804,-1.2281084,0.775776
58,1747638577600,0.15901842500000002,1.0482319,-0.16179297,-0.0926960702,-1.09585997,0.67651333
59,1747638577610,0.14095335,1.0403047,-0.18168743,-0.18241426,-0.96361154,0.57725066
60,1747638577620,-0.18144351,1.017346,-0.1197021,-0.6447493,-0.25136364,0.20402299
61,1747638577630,-0.18144351,1.017346,-0.1197021,-0.6447493,-0.25136364,0.20402299
62,1747638577640,-0.31687826,1.0576227,-0.015488708,-0.64161867,-0.30267483,0.19852535
63,1747638577650,-0.44621506,1.1132662,0.027958948,-0.268391,-1.1541959,0.43614495
64,1747638577660,-0.43365334,1.0872738,-0.073449411,-0.06654417000000001,-1.50512765,0.537240175
65,1747638577670,-0.42109162,1.0612814,-0.17485777,0.13530266,-1.8560594,0.6383354
66,1747638577680,-0.432677675,1.0589642,-0.267835755,0.126903515,-1.85300515,0.6435276
67,1747638577690,-0.44426373,1.056647,-0.36081374,0.11850437,-1.8499509,0.6487198
68,1747638577700,-0.5131092,1.0271331,-0.5353056,-0.2777828,-1.4632846,0.7146913
69,1747638577710,-0.53457385,1.03201145,-0.42767737000000006,-0.5008184,-1.43793445,0.7690567150000001
70,1747638577720,-0.5560385,1.0368898,-0.32004914,-0.723854,-1.4125843,0.82342213
71,1747638577730,-0.59899837,1.1403714,-0.22854991,-0.61294705,-1.5381133999999999,0.834111965
72,1747638577740,-0.6075354550000001,1.1829501,-0.24708759000000002,-0.451587925,-1.6439427,0.8434273825
73,1747638577750,-0.61607254,1.2255288,-0.26562527,-0.2902288,-1.749772,0.8527428
74,1747638577760,-0.6451291,1.3563292,-0.5763141,-0.07963921,-1.2281084,0.79593396
75,1747638577770,-0.62986908,1.3730527000000001,-0.60072105,-0.16874655500000002,-1.00423288,0.7623373550000001
76,1747638577780,-0.61460906,1.3897762,-0.625128,-0.2578539,-0.78035736,0.72874075
77,1747638577790,-0.5321347,1.3917276,-0.4296287,-0.5662554,-0.089489125,0.5283829
78,1747638577800,-0.509069335,1.3939228,-0.34494389999999997,-0.400830335,0.06356629250000001,0.33657685
79,1747638577810,-0.48600397,1.396118,-0.2602591,-0.23540527,0.21662171,0.1447708
80,1747638577820,-0.2280621,1.3194977,-0.08674286,0.11163234,0.22700611,-0.123391144
81,1747638577830,-0.18217526499999998,1.2943590500000002,-0.09919786,0.28484571999999997,0.256632205,-0.288052657
82,1747638577840,-0.13628843,1.2692204,-0.11165286,0.4580591,0.2862583,-0.45271417
83,1747638577850,-0.119946025,1.1774467,-0.23855051,0.8282325,0.5501443,-0.99758995
84,1747638577860,-0.119946025,1.1774467,-0.23855051,0.8282325,0.5501443,-0.99758995
85,1747638577870,-0.16165577,1.0978994,-0.29956016,0.8712209,0.84884864,-1.3726501
86,1747638577880,-0.27660152,1.0529882,-0.30980465,0.78020465,1.1017394,-1.6145457
87,1747638577890,-0.33652879,1.0287033,-0.284909905,0.728206275,1.1170106,-1.5751460000000002
88,1747638577900,-0.39645606,1.0044184,-0.26001516,0.6762079,1.1322818,-1.5357463
89,1747638577910,-0.37851292999999997,1.0021012,-0.25013654,0.65780613,1.1124291999999998,-1.48596225
90,1747638577920,-0.3605698,0.999784,-0.24025792,0.63940436,1.0925766,-1.4361782
91,1747638577930,-0.30248716,1.0063697,-0.20778652,0.6232169,0.99361944,-1.3683742
92,1747638577940,-0.22633943,0.979767525,-0.197663975,0.7038869,0.916958095,-1.45267115
93,1747638577950,-0.1501917,0.95316535,-0.18754143,0.7845569,0.84029675,-1.5369681
94,1747638577960,-0.14360595,0.8130962,-0.16485718,0.968422,0.89221877,-1.7122812
95,1747638577970,-0.18045260000000002,0.79905577,-0.17302838999999998,1.0322937,0.8775584350000001,-1.7535134
96,1747638577980,-0.21729925,0.78501534,-0.1811996,1.0961654,0.8628981,-1.7947456
97,1747638577990,-0.47453988,0.81724274,-0.4045053,1.1515998,0.75599986,-1.689069
98,1747638578000,-0.53689109,0.89215567,-0.47136895,0.7702784,0.78623678,-1.3246986
99,1747638578010,-0.5992423,0.9670686,-0.5382326,0.388957,0.8164737,-0.9603282
100,1747638578020,-0.57020095,0.9765965999999999,-0.49492216499999997,0.180505369,0.8277744,-0.7517238749999999
101,1747638578030,-0.5411596,0.9861246,-0.45161173,-0.027946262,0.8390751,-0.54311955
102,1747638578040,-0.3500814,0.960239,-0.23391607,-0.4010976,0.9001598,0.033596598
103,1747638578050,-0.2906572,0.956702175,-0.17729692,-0.368417265,0.95238725,0.132553859
104,1747638578060,-0.231233,0.95316535,-0.12067777,-0.33573693,1.0046147,0.23151112
105,1747638578070,-0.036221627,0.9688065,-0.0886942,-0.18119256,0.94658417,0.32008398
106,1747638578080,0.06187861150000001,0.96844062,-0.16715913999999998,-0.064062602,0.81005982,0.12461284750000001
107,1747638578090,0.15997885,0.96807474,-0.24562408,0.053067356,0.67353547,-0.070858285
108,1747638578100,-0.09088945,1.0349385,-0.52408546,-0.40926766,1.1359469,-0.393462
109,1747638578110,-0.180940445,1.0424999000000001,-0.51262138,-0.613634255,1.2996539,-0.29263401499999997
110,1747638578120,-0.27099144,1.0500613,-0.5011573,-0.81800085,1.4633609,-0.19180603
111,1747638578130,-0.41889638,1.0700624,-0.21586627,-1.3139324,1.8567466,0.591911
112,1747638578140,-0.2249978775,1.1093635000000002,-0.07334270000000001,-1.21829665,1.44931145,1.2299410000000002
113,1747638578150,-0.031099375,1.1486646,0.06918087,-1.1226609,1.0418763,1.867971
114,1747638578160,0.4923763,1.0571349,0.10165227,-0.84724516,0.515326,1.9327208
115,1747638578170,0.6626605999999999,1.023032275,0.0815825015,-0.6709202700000001,0.30761885209999995,1.72136765
116,1747638578180,0.8329449,0.98892965,0.061512733,-0.49459538000000003,0.09991170419999999,1.5100145
117,1747638578190,0.9628916,0.9019124,-0.17046726,-0.17684028,0.013744064,0.34329617
118,1747638578200,0.84111617,0.900936725,-0.21987563000000002,-0.17993269,0.137478817,0.07941015000000001
119,1747638578210,0.71934074,0.89996105,-0.269284,-0.1830251,0.26121357,-0.18447587
120,1747638578220,0.43844021,0.911562325,-0.19510284700000002,-0.148130455,0.34215081999999997,-0.199136205
121,1747638578230,0.15753968,0.9231636,-0.120921694,-0.11323581,0.42308807,-0.21379654
122,1747638578240,-0.0945482,0.9975887,0.10482319,0.6406261,-0.22937314,1.039662
123,1747638578250,0.067732615,0.962449435,0.0765136125,0.82197135,-0.42148462,1.28705515
124,1747638578260,0.23001343,0.92731017,0.048204035,1.0033166,-0.6135961,1.5344483
125,1747638578270,0.8706606,0.81431586,-0.074059196,1.5254383,-1.281863,1.4367127
126,1747638578280,0.856010315,0.806754415,-0.211094638,1.6357344500000002,-1.3481399,1.1545013
127,1747638578290,0.84136003,0.79919297,-0.34813008,1.7460306,-1.4144168,0.8722899
128,1747638578300,0.7187309150000001,0.811998585,-0.39034291,1.67902825,-1.1777134999999999,0.62978353
129,1747638578310,0.5961018,0.8248042,-0.43255574,1.6120259,-0.9410102,0.38727716
130,1747638578320,0.26711926,0.8023639,-0.46161228,1.2911402,-0.57419642,0.6557445150000001
131,1747638578330,0.26882668,0.78771363,-0.470149365,1.02818955,-0.512958985,1.0022476075000002
132,1747638578340,0.2705341,0.77306336,-0.47868645,0.7652389,-0.45172155,1.3487507
133,1747638578350,0.58829653,0.7310793,-0.43182397,0.3422272,-0.6252022,1.7812306
134,1747638578360,0.811724165,0.6819148150000001,-0.357886735,0.22505905,-0.747371625,1.6691401
135,1747638578370,1.0351518,0.63275033,-0.2839495,0.1078909,-0.86954105,1.5570496
136,1747638578380,1.0075588,0.6749479,-0.10287185,0.40514445,-0.81212145,1.0005678
137,1747638578390,0.9752245749999999,0.6838661,-0.096514775,0.5284974250000001,-0.8160919550000001,0.97796645
138,1747638578400,0.94289035,0.6927843,-0.0901577,0.6518504,-0.82006246,0.9553651
139,1747638578410,0.92679185,0.61223084,-0.30370674,0.823193,-0.8341119,1.047603
140,1747638578420,0.953150095,0.57282305,-0.39156248,0.47707169,-0.723548575,0.970636275
141,1747638578430,0.97950834,0.53341526,-0.47941822,0.13095038,-0.61298525,0.89366955
142,1747638578440,1.066861,0.47338125,-0.4591731,-0.020119785,-0.5613686449999999,0.781884495
143,1747638578450,1.0555189,0.480698765,-0.42232645,-0.1629625975,-0.47691901249999996,0.6264238675
144,1747638578460,1.0441768,0.48801628,-0.3854798,-0.30580541,-0.39246938,0.47096324
145,1747638578470,0.9255723,0.56244135,-0.21144526,-0.19860171,-0.19455485,-0.018325418
146,1747638578480,0.9255723,0.56244135,-0.21144526,-0.19860171,-0.19455485,-0.018325418
147,1747638578490,0.895784,0.5456111,-0.22074458,-0.025426516,-0.17378604,-0.1563769
148,1747638578500,0.87930435,0.5082766,-0.273811715,0.09078717700000001,-0.111479623,-0.26422961
149,1747638578510,0.8628247,0.4709421,-0.32687885,0.20700087,-0.049173206,-0.37208232
150,1747638578520,0.77132547,0.4675273,-0.30395067,0.47806433,0.16958646,-0.6084802
151,1747638578530,0.751918855,0.47362519999999997,-0.28503186999999996,0.58710058,0.15187189499999998,-0.63444122
152,1747638578540,0.73251224,0.4797231,-0.26611307,0.69613683,0.13415733,-0.66040224
153,1747638578550,0.6519892,0.52097553,-0.26123476,1.0989142,-0.019852534,-0.68391987
154,1747638578560,0.64369605,0.532805515,-0.29602337,1.2922474,-0.100789802,-0.6477271849999999
155,1747638578570,0.6354029,0.5446355,-0.33081198,1.4855806,-0.18172707,-0.6115345
156,1747638578580,0.7249508,0.5590265,-0.5367691,1.6289005,-0.2275406,-0.4258369
157,1747638578590,0.76583735,0.5614657000000001,-0.57300598,1.56502885,-0.18203248,-0.41881216
158,1747638578600,0.8067239,0.5639049,-0.60924286,1.5011572,-0.13652436,-0.41178742
159,1747638578610,0.9311823,0.5421963,-0.6534223,1.0207257,0.3174115,-0.58954394
160,1747638578620,0.9311823,0.5421963,-0.6534223,1.0207257,0.3174115,-0.58954394
161,1747638578630,0.95118356,0.52951264,-0.60875505,0.87618405,0.39682165,-0.69522053
162,1747638578640,0.86602616,0.5380497,-0.43597054,0.96277165,0.21356747,-0.87114453
163,1747638578650,0.75864183,0.5331713499999999,-0.453547805,1.114968075,0.0530291755,-0.8613709775
164,1747638578660,0.6512575,0.528293,-0.47112507,1.2671644999999998,-0.107509119,-0.851597425
165,1747638578670,0.5067674,0.5448794,-0.61927396,1.3883795,-0.317946,-0.6426877
166,1747638578680,0.42892747,0.55231885,-0.71005668,1.2880478000000002,-0.29106872500000003,-0.52204535
167,1747638578690,0.35108754,0.5597583,-0.8008394,1.1877161,-0.26419145,-0.401403
168,1747638578700,0.35169733999999997,0.5735548500000001,-0.808156925,0.8254073500000001,-0.07452337,-0.11487745500000002
169,1747638578710,0.35230714,0.5873514,-0.81547445,0.4630986,0.11514471,0.17164809
170,1747638578720,0.56728923,0.5580509,-0.62317663,-0.5612923,1.0162208,0.83441734
171,1747638578730,0.620859415,0.540488885,-0.575338465,-0.6310815999999999,1.04065465,0.82311669
172,1747638578740,0.6744296,0.52292687,-0.5275003,-0.7008709,1.0650885,0.81181604
173,1747638578750,0.8377014,0.48826018,-0.30834118,-0.46653458,0.66925955,0.343907
174,1747638578760,0.813660335,0.49862666499999997,-0.296999055,-0.330392,0.5156314550000001,0.1826433265
175,1747638578770,0.78961927,0.50899315,-0.28565693,-0.19424942,0.36200336,0.021379653
176,1747638578780,0.4974985,0.6149139,-0.36105764,0.30916506,-0.05650337,-0.38552096
177,1747638578790,0.338876455,0.6848418000000001,-0.43208312000000004,0.35404324249999997,-0.1180462325,-0.32304275000000005
178,1747638578800,0.18025441,0.7547697,-0.5031086,0.398921425,-0.179589095,-0.26056454
179,1747638578810,0.12436701,0.788918,-0.5523798,0.23006035,-0.21226943,0.26877278
180,1747638578820,0.13790439,0.785991,-0.5494528,0.16027105,-0.20738265,0.44744558999999995
181,1747638578830,0.15144177,0.783064,-0.5465258,0.09048175,-0.20249587,0.6261184
182,1747638578840,0.22868713499999999,0.7551203,-0.50260555,0.020997875,-0.289847035,0.79501768
183,1747638578850,0.3059325,0.7271766,-0.4586853,-0.048486,-0.3771982,0.96391696
184,1747638578860,0.37474748,0.7552575,-0.42255515,-0.07773031,-0.72538114,0.83075225
185,1747638578870,0.37474748,0.7552575,-0.42255515,-0.07773031,-0.72538114,0.83075225
186,1747638578880,0.37474748,0.7552575,-0.42255515,-0.07773031,-0.72538114,0.83075225
187,1747638578890,0.32861674,0.810901,-0.44109282,-0.081471756,-0.7467608,0.70552856
188,1747638578900,0.21915913,0.86142225,-0.483320875,-0.060932016000000006,-0.49051036000000003,0.78921463
189,1747638578910,0.10970152,0.9119435,-0.52554893,-0.040392276,-0.23425992,0.8729007
190,1747638578920,0.08067544,0.8987415,-0.5450623,0.0019852535,-0.20921518,0.9266553
191,1747638578930,0.052121945,0.9085133750000001,-0.55666357,0.00293970235,-0.24922569,0.96483325
192,1747638578940,0.02356845,0.91828525,-0.56826484,0.0038941512,-0.2892362,1.0030112
193,1747638578950,-0.04329521,1.0051501,-0.651227,-0.27404135,-0.7864658,1.2400199
194,1747638578960,-0.046344167500000005,1.0160196,-0.6783170000000001,-0.40644249,-0.8701519,1.2907202
195,1747638578970,-0.049393125,1.0268891,-0.705407,-0.53884363,-0.953838,1.3414205
196,1747638578980,0.022592781,1.0066136,-0.6844302,-1.0061418,-0.8835906,1.399451
197,1747638578990,0.022592781,1.0066136,-0.6844302,-1.0061418,-0.8835906,1.399451
198,1747638579000,-0.058204614,1.1003386,-0.4672224,-0.8590803,-0.41384903,1.3896775
199,1747638579010,-0.084684819,1.12486745,-0.45403565999999995,-0.703008825,-0.40102123,1.4125842999999998
200,1747638579020,-0.111165024,1.1493963,-0.44084892,-0.54693735,-0.38819343,1.4354911
201,1747638579030,-0.13750802,1.1791542,-0.5492089,-0.037261683,-0.6954496,1.4672551
202,1747638579040,-0.12836115,1.18990175,-0.6298690849999999,-0.011071606749999997,-0.82128415,1.4321314
203,1747638579050,-0.11921428,1.2006493,-0.71052927,0.0151184695,-0.9471187,1.3970077
204,1747638579060,-0.10674403,1.2291876,-0.804986,-0.20234315,-1.0625688,1.28339
205,1747638579070,-0.072580452,1.2453013,-0.8353688699999999,-0.57996129,-0.98315865,1.1300674
206,1747638579080,-0.038416874,1.261415,-0.86575174,-0.95757943,-0.9037485,0.9767448
207,1747638579090,-0.007927292,1.2660495,-0.53896433,-1.36631265,-0.32985752,0.628561825
208,1747638579100,-0.023659917000000003,1.26983025,-0.419384215,-1.248839075,-0.157445881,0.4159869775
209,1747638579110,-0.039392542,1.273611,-0.2998041,-1.1313655,0.014965758,0.20341213
210,1747638579120,-0.083084114,1.1769589,-0.24977067,-0.45469943,-0.08826743,-0.14232741
211,1747638579130,-0.113710897,1.1469419,-0.286739285,-0.244109837,-0.15454436,-0.24559877
212,1747638579140,-0.14433768,1.1169249,-0.3237079,-0.033520244,-0.22082129,-0.34887013
213,1747638579150,-0.19485892,1.0634767,-0.44770905,0.2917559,-0.36070532,-0.46554196
214,1747638579160,-0.184492465,1.04419205,-0.469417625,0.31851866,-0.359789045,-0.480202305
215,1747638579170,-0.17412601,1.0249074,-0.4911262,0.34528142,-0.35887277,-0.49486265
216,1747638579180,-0.09649953,0.957068,-0.54067177,0.4201102,-0.09987353,-0.6738409
217,1747638579190,-0.08320607499999999,0.94792115,-0.540915685,0.42820393,-0.020463384,-0.7483642500000001
218,1747638579200,-0.06991262,0.9387743,-0.5411596,0.43629766,0.058946762,-0.8228876
219,1747638579210,-0.07625445,0.90679073,-0.5570447,0.4456131,0.30091864,-1.0342407
220,1747638579220,-0.11102782,0.893009415,-0.5560537999999999,0.40323556,0.40415182,-1.10540445
221,1747638579230,-0.14580119,0.8792281,-0.5550629,0.36085802,0.507385,-1.1765682
222,1747638579240,-0.15813422500000002,0.87935005,-0.54347685,0.33657685000000004,0.5370111,-1.17259765
223,1747638579250,-0.17046726,0.879472,-0.5318908,0.31229568,0.5666372,-1.1686271
224,1747638579260,-0.16604628,0.8843504,-0.4864918,0.33535513,0.5727457,-1.0708916
225,1747638579270,-0.11541832499999999,0.8799599,-0.452572125,0.411672875,0.511050115,-1.0540933
226,1747638579280,-0.06479037,0.8755694,-0.41865245,0.48799062,0.44935453,-1.037295
227,1747638579290,0.029666364,0.86191,-0.40231007,0.61695576,0.36689013,-1.0763892
228,1747638579300,0.037105822,0.86117825,-0.41706702,0.82197138,0.30030778,-1.1576319
229,1747638579310,0.04454528,0.8604465,-0.43182397,1.026987,0.23372543,-1.2388746
230,1747638579320,-0.055033702,0.8965462,-0.6114381,1.1989405,0.25449425,-1.301181
231,1747638579330,-0.090538816,0.90790355,-0.65025135,1.15221065,0.27801186,-1.2446776
232,1747638579340,-0.12604393,0.9192609,-0.6890646,1.1054808,0.30152947,-1.1881742
233,1747638579350,-0.22659859,0.9949056,-0.7725146,0.6543701,0.48722705,-0.6353575
234,1747638579360,-0.141547894,1.0174831,-0.73493615,0.44609028799999995,0.5632775325,-0.383669345
235,1747638579370,-0.056497198,1.0400606,-0.6973577,0.237810476,0.639328015,-0.13198118999999997
236,1747638579380,0.2080609,1.0105163,-0.58704644,-0.15813309,0.8158629,0.32130566
237,1747638579390,0.31703069,0.9931981999999999,-0.55654162,-0.185544855,0.79081815,0.33718769
238,1747638579400,0.42600048,0.9758801,-0.5260368,-0.21295662,0.7657734,0.35306972
239,1747638579410,0.78693616,0.7774539,-0.50505996,0.0019852535,0.24410984,-0.5034145
240,1747638579420,0.632216765,0.73158235,-0.54190663,0.14248012675,0.188522735,-0.9475004499999999
241,1747638579430,0.47749737,0.6857108,-0.5787533,0.282975,0.13293563,-1.3915864
242,1747638579440,0.379869735,0.7047362699999999,-0.579972865,0.339363835,0.144847155,-1.4493114999999999
243,1747638579450,0.2822421,0.72376174,-0.58119243,0.39575267,0.15675868,-1.5070366
244,1747638579460,-0.048173543,0.7952598,-0.61585915,0.52723753,0.11575556,-1.0464578
245,1747638579470,-0.0375631665,0.7909913,-0.6430558550000001,0.49673334999999996,0.098040988,-0.84212935
246,1747638579480,-0.02695279,0.7867228,-0.67025256,0.46622917,0.080326416,-0.6378009
247,1747638579490,0.096164148,0.75098893,-0.6745363,0.315693495,0.15061203,-0.354024175
248,1747638579500,0.160039824,0.744692845,-0.65519828,0.2526044325,0.210188715,-0.3080388175
249,1747638579510,0.2239155,0.73839676,-0.63586026,0.18951537,0.2697654,-0.26205346
250,1747638579520,0.34938017,0.6832715,-0.50774306,0.11850437,0.2770956,-0.5064687
251,1747638579530,0.365112785,0.66032815,-0.48711686,0.159622025,0.197952695,-0.5977903849999999
252,1747638579540,0.3808454,0.6373848,-0.46649066,0.20073968,0.11880979,-0.68911207
253,1747638579550,0.30056632,0.6034498,-0.43304357,0.4786752,-0.17256436,-0.9597174
254,1747638579560,0.2009873375,0.6456779,-0.46135313499999997,0.67368818,-0.255334155,-0.9349780700000001
255,1747638579570,0.101408355,0.687906,-0.4896627,0.86870116,-0.33810395,-0.91023874
256,1747638579580,0.036983866,0.71644425,-0.5392083,0.86870116,-0.33810395,-0.91023874
257,1747638579590,0.069074153,0.698135255,-0.58375355,0.75809963,-0.12308572000000001,-0.60569322
258,1747638579600,0.10116444,0.67982626,-0.6282988,0.6474981,0.09193251,-0.3011477
259,1747638579610,0.15753968499999998,0.66202033,-0.6191367000000001,0.5870624,0.1631344,-0.23975755
260,1747638579620,0.21391493,0.6442144,-0.6099746,0.5266267,0.23433629,-0.1783674
261,1747638579630,0.30227375,0.60905993,-0.5821681,0.48989952,0.23250374,-0.16859384
262,1747638579640,0.32227490999999997,0.5786770649999999,-0.5478826,0.5581235099999999,0.04646257000000001,-0.265451305
263,1747638579650,0.34227607,0.5482942,-0.5135971,0.6263475,-0.1395786,-0.36230877
264,1747638579660,0.14217293,0.5473185,-0.5785094,1.0556204,-0.3771982,-0.45271417
265,1747638579670,0.12325414,0.5537823,-0.6146243,1.0761983000000002,-0.2751867,-0.369295335
266,1747638579680,0.10433535,0.5602461,-0.6507392,1.0967762,-0.1731752,-0.2858765
267,1747638579690,0.020153614,0.53878146,-0.7344636,1.0001861,0.23372543,0.15271181
268,1747638579700,0.08494398199999999,0.54536721,-0.7201792,0.940666625,0.30244575500000004,0.456913755
269,1747638579710,0.14973435,0.55195296,-0.7058948,0.88114715,0.37116608,0.7611157
270,1747638579720,0.63686645,0.48923588,-0.6595202,0.93352735,0.053449135,1.0677611
271,1747638579730,0.759495525,0.46434112,-0.676975485,1.056880275,-0.29503921750000006,0.8845068700000001
272,1747638579740,0.8821246,0.43944636,-0.69443077,1.1802332,-0.64352757,0.70125264
273,1747638579750,0.7537635,0.50362694,-0.85282415,1.2257414,-0.7149967,0.47768256
274,1747638579760,0.6737131000000001,0.52230182,-0.9101750550000001,1.15469225,-0.5977140400000001,0.50089473
275,1747638579770,0.5936627,0.5409767,-0.96752596,1.0836431,-0.48043138,0.5241069
276,1747638579780,0.4896932,0.543537825,-0.9915670299999999,0.7973466,-0.269994495,0.76111565
277,1747638579790,0.3857237,0.54609895,-1.0156081,0.5110501,-0.05955761,0.9981244
278,1747638579800,0.6339089,0.46118546,-0.8838015,-0.3008423,0.21051323,1.7714571
279,1747638579810,0.7451959,0.435680915,-0.8428083,-0.40113578,0.214789165,1.79589095
280,1747638579820,0.8564829,0.41017637,-0.8018151,-0.50142926,0.2190651,1.8203248
281,1747638579830,1.1361638,0.34380054,-0.71052927,-0.6360447,0.010689827,1.4434321
282,1747638579840,1.1445942,0.34562992000000003,-0.684536885,-0.60615135,-0.0797155615,1.2070342
283,1747638579850,1.1530246,0.3474593,-0.6585445,-0.576258,-0.17012095,0.9706363
284,1747638579860,0.96912668,0.473625195,-0.585826835,-0.293626635,-0.2519745,0.5158605
285,1747638579870,0.9139023900000001,0.4983979825,-0.6043797675,-0.1641842865,-0.24006297999999998,0.43049461
286,1747638579880,0.8586781,0.52317077,-0.6229327,-0.034741938,-0.22815146,0.34512872
287,1747638579890,0.7862044,0.4899676,-0.7859605,-0.07773031,0.0015271181,0.23823044
288,1747638579900,0.78815575,0.48350381,-0.78070105,-0.14939033000000002,0.09960628405000001,0.22173756
289,1747638579910,0.7901071,0.47704002,-0.7754416,-0.22105035,0.19768545,0.20524468
290,1747638579920,0.85233635,0.43261668,-0.66220325,-0.30519456,0.3534515,0.10017895
291,1747638579930,0.85233635,0.43261668,-0.66220325,-0.30519456,0.3534515,0.10017895
292,1747638579940,0.89188135,0.42286006,-0.62366444,0.03130592,0.14881766,-0.25777754
293,1747638579950,0.8804172,0.41261554,-0.662935,0.25373068,0.022295926,-0.4337779
294,1747638579960,0.85497365,0.411883785,-0.693752355,0.3359659875,-0.0334438855,-0.5000548425
295,1747638579970,0.8295300999999999,0.41115203,-0.7245697099999999,0.41820129500000003,-0.089183697,-0.566331785
296,1747638579980,0.759785165,0.430543405,-0.784916205,0.4739792775,-0.1461452085,-0.6341358425
297,1747638579990,0.69004023,0.44993478,-0.8452627,0.52975726,-0.20310672,-0.7019399
298,1747638580000,0.62976235,0.48143053,-0.9240783,0.4300365,-0.20188501,-0.7068266
299,1747638580010,0.6053706750000001,0.490089565,-0.9616567,0.22754061849999999,-0.0980409805,-0.6509341
300,1747638580020,0.580979,0.4987486,-0.9992351,0.025044737,0.005803049,-0.5950416
301,1747638580030,0.6261036,0.48874804,-0.882582,-0.49272466,0.44568944,-0.40995488
302,1747638580040,0.6523399,0.48801629,-0.8266946,-0.503299955,0.428280295,-0.39437826
303,1747638580050,0.6785762,0.48728454,-0.7708072,-0.51387525,0.41087115,-0.37880164
304,1747638580060,0.79376584,0.4721617,-0.7027239,-0.37246412,0.0839915,-0.41484165
305,1747638580070,0.79291212,0.4692347,-0.728838225,-0.29958241,-0.07513421,-0.524488725
306,1747638580080,0.7920584,0.4663077,-0.75495255,-0.2267007,-0.23425992,-0.6341358
307,1747638580090,0.62317663,0.52439034,-0.7569039,-0.2602973,-0.23364908,-0.83754796
308,1747638580100,0.5807198650000001,0.528658895,-0.7298138999999999,-0.26621488000000004,-0.204939255,-0.84487811
309,1747638580110,0.5382631,0.53292745,-0.7027239,-0.27213246,-0.17622943,-0.85220826
310,1747638580120,0.42478088,0.4794792,-0.60973066,-0.06154286,-0.06933116,-0.6597914
311,1747638580130,0.42478088,0.4794792,-0.60973066,-0.06154286,-0.06933116,-0.6597914
312,1747638580140,0.38913855,0.47874746,-0.59021735,0.07551599,-0.043064732,-0.54373044
313,1747638580150,0.392065555,0.47862551,-0.6120631249999999,0.24033022,-0.058946761,-0.35860553
314,1747638580160,0.39499256,0.47850356,-0.6339089,0.40514445,-0.07482879,-0.17348062
315,1747638580170,0.6143956,0.47021037,-0.777149,0.36085802,-0.6569662,-0.083686076
316,1747638580180,0.645388265,0.46423439499999997,-0.7988728199999999,0.276751985,-0.777303125,-0.190889773
317,1747638580190,0.67638093,0.45825842,-0.82059664,0.19264595,-0.89764005,-0.29809347
318,1747638580200,0.5795155,0.47338125,-0.75666,-0.0494022696,-0.869235625,-0.62191885
319,1747638580210,0.52728685,0.476552175,-0.71774005,-0.1087689848,-0.7563815975,-0.705604925
320,1747638580220,0.4750582,0.4797231,-0.6788201,-0.1681357,-0.64352757,-0.789291
321,1747638580230,0.15949102,0.53317136,-0.6019254,0.02443389,-0.33260635,-0.55594736
322,1747638580240,0.13325473000000002,0.53878143,-0.60938008,0.057152395,-0.33169007500000003,-0.45210333
323,1747638580250,0.10701844,0.5443915,-0.61683476,0.0898709,-0.3307738,-0.3482593
324,1747638580260,0.15412484,0.55683124,-0.7036996,0.040010497,-0.53052086,0.17531316
325,1747638580270,0.23954142,0.5518309699999999,-0.71774005,-0.0160729165,-0.5891622,0.23364907000000001
326,1747638580280,0.324958,0.5468307,-0.7317805,-0.07215633,-0.64780354,0.29198498
327,1747638580290,0.39035815,0.5580509,-0.7232129,-0.31076854,-0.6465818,0.27732465
328,1747638580300,0.38974834999999997,0.5565264075,-0.6883251975,-0.36919989999999997,-0.597103175,0.18630841
329,1747638580310,0.38913854999999997,0.5550019150000001,-0.653437495,-0.42763125999999996,-0.54762455,0.09529217000000001
330,1747638580320,0.35314559999999995,0.5726401075,-0.6180467325000001,-0.41157742999999997,-0.563201175,-0.025044735
331,1747638580330,0.31715265,0.5902783,-0.58265597,-0.3955236,-0.5787778,-0.14538164
332,1747638580340,0.114092029,0.6860614,-0.596315295,-0.27808821,-0.551900505,-0.20249587
333,1747638580350,0.031739661,0.7071068,-0.6064530775,-0.23242738000000002,-0.5390727225,-0.134233685
334,1747638580360,-0.050612707,0.7281522,-0.61659086,-0.18676655,-0.52624494,-0.0659715
335,1747638580370,-0.17510168,0.79306453,-0.6773566,-0.15996562,-0.5005893,0.69758755
336,1747638580380,-0.112125445,0.780258915,-0.6659992,-0.18489582999999998,-0.5073086250000001,0.8444963249999999
337,1747638580390,-0.04914921,0.7674533,-0.6546418,-0.20982604,-0.51402795,0.9914051
338,1747638580400,0.26980233,0.68766207,-0.6141212,-0.2602973,-0.661853,1.0421054
339,1747638580410,0.28615999000000003,0.70412645,-0.5907052150000001,-0.33569875000000005,-0.79410145,0.68628688
340,1747638580420,0.30251765,0.72059083,-0.56728923,-0.4111002,-0.9263499,0.33046836
341,1747638580430,0.1917185,0.75013524,-0.5365252,-0.42541694,-0.89366955,0.25563958
342,1747638580440,0.06182525024999999,0.7583674199999999,-0.5098620625,-0.40907677750000004,-0.753938225,0.2279987375
343,1747638580450,-0.06806799949999999,0.7665995999999999,-0.483198925,-0.392736615,-0.6142069,0.20035789499999998
344,1747638580460,-0.266357,0.75916016,-0.48478436,-0.28648737,-0.51891476,0.4886778
345,1747638580470,-0.30346283,0.76233107,-0.51140183,-0.2602973,-0.641695,0.76050484
346,1747638580480,-0.30346283,0.76233107,-0.51140183,-0.2602973,-0.641695,0.76050484
347,1747638580490,-0.19583459,0.73010355,-0.5721675,-0.28152424,-0.9544488,1.0463814
348,1747638580500,-0.14384985,0.72351784,-0.59338826,-0.34131092,-1.0210311,1.0164498
349,1747638580510,-0.1811996,0.7430616,-0.58851,-0.36062896,-0.99904066,0.97552305
350,1747638580520,-0.1811996,0.7430616,-0.58851,-0.36062896,-0.99904066,0.97552305
351,1747638580530,-0.36252114,0.81797457,-0.59997404,-0.31886226,-0.8750387,0.9969027
352,1747638580540,-0.4747838,0.873618,-0.6334211,-0.3008423,-0.7675296,1.2082559
353,1747638580550,-0.47088113,0.8889848,-0.6414703,-0.2914505,-0.7583669,1.2925528
354,1747638580560,-0.45258737,0.90679073,-0.6805275,-0.25846475,-0.7931852,1.4348803
355,1747638580570,-0.45258737,0.90679073,-0.6805275,-0.22914408,-0.8444963,1.4806937
356,1747638580580,-0.44304416,0.90581506,-0.70394355,-0.22914408,-0.8444963,1.4806937
357,1747638580590,-0.47014937,0.91730964,-0.74592763,-0.21860696,-0.9630007,1.4196091
358,1747638580600,-0.5523798,0.9409695,-0.7530012,-0.23166382,-0.9935431,1.3762388
359,1747638580610,-0.5523798,0.9409695,-0.7530012,-0.23166382,-0.9935431,1.3762388
360,1747638580620,-0.61948735,0.9724653,-0.72028595,-0.24288814,-1.0112576,1.343864
361,1747638580630,-0.6497635,1.0044184,-0.6893085,-0.18058172,-0.9581139,1.4110571
362,1747638580640,-0.5746067,1.0622572,-0.7317805,-0.18058172,-0.9581139,1.4110571
363,1747638580650,-0.49429715,1.065428,-0.7649532,-0.308936,-0.62398046,1.4122789
364,1747638580660,-0.38276625,1.0661598,-0.7695876,-0.5051707,-0.4462239,1.2785033
365,1747638580670,-0.38276625,1.0661598,-0.7695876,-0.5051707,-0.4462239,1.2785033
366,1747638580680,-0.14555727,1.0019792,-0.6893085,-0.8796964,-0.25258535,0.7006418
367,1747638580690,-0.0755227,0.94292086,-0.59631526,-1.0005678,-0.19577655,0.033596598
368,1747638580700,-0.09541715,0.92583143,-0.55580988,-0.9986970749999999,-0.186919265,-0.246820466
369,1747638580710,-0.1153116,0.908742,-0.5153045,-0.99682635,-0.17806198,-0.52723753
370,1747638580720,-0.3852054,0.8755694,-0.44892865,-0.77745587,-0.018630842,-1.3158413
371,1747638580730,-0.49063838000000004,0.8649590300000001,-0.449294525,-0.677467785,0.105714754,-1.38028575
372,1747638580740,-0.59607136,0.85434866,-0.4496604,-0.5774797,0.23006035,-1.4447302
373,1747638580750,-0.71809065,0.85041547,-0.40621272,-0.31267744,0.49638975,-1.2003912
374,1747638580760,-0.6922888425,0.85078896,-0.39083073,-0.21142951,0.537316525,-1.08188685
375,1747638580770,-0.6664870350000001,0.85116245,-0.37544874,-0.11018158,0.5782433,-0.9633825
376,1747638580780,-0.5429356375000001,0.8392029249999999,-0.37569265500000004,0.16771576,0.5757999,-0.7727981500000001
377,1747638580790,-0.41938424,0.8272434,-0.37593657,0.4456131,0.5733565,-0.5822138
378,1747638580800,-0.14214244,0.771356,-0.45380697,0.8400677,0.3222983,-0.8198334
379,1747638580810,-0.11688182,0.7524372,-0.50333731,0.90764267,0.256326785,-0.9682693
380,1747638580820,-0.0916212,0.7335184,-0.55286765,0.97521764,0.19035527,-1.1167052
381,1747638580830,-0.24611193,0.771356,-0.75446475,0.810747,0.28870168,-1.5846142
382,1747638580840,-0.298584505,0.7894210500000001,-0.786798975,0.6880048999999999,0.39987589,-1.5864467
383,1747638580850,-0.35105708,0.8074861,-0.8191332,0.5652628,0.5110501,-1.5882792
384,1747638580860,-0.46293858499999996,0.80602268,-0.82828002,0.06707865999999998,0.89832723,-1.3659308000000001
385,1747638580870,-0.47581281249999996,0.8144377899999999,-0.79673856,-0.17479777,1.054704115,-1.1903122000000002
386,1747638580880,-0.48868704,0.8228529,-0.7651971,-0.4166742,1.211081,-1.0146936
387,1747638580890,-0.34861788,0.7901376,-0.5494528,-0.72141063,1.3289746,-0.65368295
388,1747638580900,-0.27088469,0.79074738,-0.49441908999999995,-0.714538615,1.2498699,-0.617948375
389,1747638580910,-0.1931515,0.79135716,-0.43938538,-0.7076666,1.1707652,-0.5822138
390,1747638580920,0.031617697,0.7982173,-0.36739948,-0.19486028,0.5770216,-0.869312
391,1747638580930,0.031617697,0.7982173,-0.36739948,-0.19486028,0.5770216,-0.869312
392,1747638580940,-0.013049542,0.84358585,-0.42987266,0.06490252,0.47073418,-0.99392486
393,1747638580950,-0.086498951,0.9033758949999999,-0.5056545,0.15026842499999998,0.53365144,-0.92764793
394,1747638580960,-0.15994836,0.96316594,-0.58143634,0.23563433,0.5965687,-0.861371
395,1747638580970,-0.19241977,0.9382865,-0.6739418,-0.10392039,1.0217184,-0.42644775
396,1747638580980,-0.17179356499999998,0.90009825,-0.6480713499999999,-0.232274675,1.1041827999999998,-0.339974685
397,1747638580990,-0.15116736,0.86191,-0.6222009,-0.36062896,1.1866472,-0.25350162
398,1747638581000,-0.1094576,0.75647706,-0.4164572,-0.44756015,1.0608126150000001,-0.157598595
399,1747638581010,-0.09236819,0.751232865,-0.39448948,-0.40504900499999996,0.8433509875,-0.1423274125
400,1747638581020,-0.07527878,0.74598867,-0.37252176,-0.36253786,0.62588936,-0.12705623
401,1747638581030,0.05844853,0.80894965,-0.40645662,0.19577655,-0.30023143,-0.043370154
402,1747638581040,0.09616415,0.80894965,-0.45929507999999997,0.274614025,-0.39857784,-0.034512869
403,1747638581050,0.13387977,0.80894965,-0.51213354,0.3534515,-0.49692425,-0.025655584
404,1747638581060,0.16900377,0.81895024,-0.7376345,0.2892362,-0.47065783,-0.11972606
405,1747638581070,0.15741773,0.814193845,-0.782042575,0.126292682,-0.33260634,-0.15607147500000002
406,1747638581080,0.14583169,0.80943745,-0.82645065,-0.036650836,-0.19455485,-0.19241689
407,1747638581090,0.17363818,0.725957,-0.7751977,-0.514524295,0.21998136000000001,-0.32470350000000003
408,1747638581100,0.17168685,0.715224665,-0.68782977,-0.6593905474999999,0.26533678,-0.425970515
409,1747638581110,0.16973552,0.70449233,-0.60046184,-0.8042568,0.3106922,-0.52723753
410,1747638581120,0.15827143,0.72376174,-0.53701305,-0.68834853,0.12438377,-0.60359347
411,1747638581130,0.12410784999999999,0.728152245,-0.535305625,-0.623560515,0.10968526,-0.58526805
412,1747638581140,0.08994427,0.73254275,-0.5335982,-0.5587725,0.09498675,-0.56694263
413,1747638581150,-0.046710044,0.8118766,-0.5192071,-0.34940463,0.18730104,-0.24311721
414,1747638581160,-0.046710044,0.8118766,-0.5192071,-0.34940463,0.18730104,-0.24311721
415,1747638581170,-0.029391957,0.7896497,-0.5382326,-0.16500512,0.279539,0.4550812
416,1747638581180,0.018690113999999997,0.783185915,-0.5457940299999999,-0.16500512,0.279539,0.4550812
417,1747638581190,0.066772185,0.77672213,-0.55335546,-0.16500512,0.279539,0.4550812
418,1747638581200,0.4796926,0.7435495,-0.60314494,-0.007941014,0.20135053,0.8295306
419,1747638581210,0.587564775,0.7077852,-0.59570552,0.054976255,0.06753680000000001,0.60534965
420,1747638581220,0.69543695,0.6720209,-0.5882661,0.117893524,-0.06627693,0.3811687
421,1747638581230,0.6939734,0.68375945,-0.5555507,0.29549736,-0.15729317,-0.017103724
422,1747638581240,0.5508400499999999,0.720484125,-0.5645908749999999,0.47867518,-0.03970507000000001,-0.21566726200000003
423,1747638581250,0.4077067,0.7572088,-0.57363105,0.661853,0.07788303,-0.4142308
424,1747638581260,0.015519199,0.72351784,-0.61707866,0.9814788,0.53548396,0.0452027
425,1747638581270,-0.0177906705,0.71302942,-0.616590855,0.99579555,0.558696155,0.2067718
426,1747638581280,-0.05110054,0.702541,-0.61610305,1.0101123,0.58190835,0.3683409
427,1747638581290,0.28785217,0.6298233,-0.5482332,1.0830321,0.45118704,1.1465603
428,1747638581300,0.5696064350000001,0.5813753749999999,-0.6635447999999999,1.1948935500000002,0.15672049499999996,1.1508362
429,1747638581310,0.8513607,0.53292745,-0.7788564,1.306755,-0.13774605,1.1551121
430,1747638581320,0.86797744,0.5156093,-0.94944566,1.3815074,-0.53846186,0.40804598
431,1747638581330,0.79914722,0.532317625,-1.00204018,1.28961305,-0.429731055,0.261442633
432,1747638581340,0.730317,0.54902595,-1.0546347,1.1977187,-0.32100025,0.114839286
433,1747638581350,0.3720644,0.6188166,-0.95432395,0.6768188,0.24166645,0.16004199
434,1747638581360,0.31520132,0.611743025,-0.88246,0.62417138,0.293588465,0.28801448500000004
435,1747638581370,0.25833824,0.60466945,-0.81059605,0.57152396,0.34551048,0.41598698
436,1747638581380,0.2505329,0.5512212,-0.63976294,0.71476763,0.23006035,1.1343434
437,1747638581390,0.5065386999999999,0.4999682,-0.7030898050000001,0.85530069,-0.07601231,1.26964605
438,1747638581400,0.7625445,0.4487152,-0.76641667,0.99583375,-0.38208497,1.4049487
439,1747638581410,0.864669375,0.43542172999999995,-0.8386617350000001,0.995528325,-0.514027985,1.25406945
440,1747638581420,0.96679425,0.42212826,-0.9109068,0.9952229,-0.645971,1.1031902
441,1747638581430,1.0265843,0.3945352,-1.081496,0.75874865,-0.642611315,0.48592899
442,1747638581440,0.9589889199999999,0.40711216,-1.0507473,0.5766398150000001,-0.4897467875,0.196845528
443,1747638581450,0.89139354,0.41968912,-1.0199986,0.39453098,-0.33688226,-0.092237934
444,1747638581460,0.5687527,0.49021152,-0.9262736,0.11415208,-0.18722469,-0.41545248
445,1747638581470,0.5183686750000001,0.482284235,-0.91724865,0.036879902000000006,-0.186919265,-0.40323554
446,1747638581480,0.46798465,0.47435695,-0.9082237,-0.040392276,-0.18661384,-0.3910186
447,1747638581490,0.4225856,0.4667955,-0.81791353,-0.32199287,-0.057114217,-0.17286977
448,1747638581500,0.459432285,0.44934021999999996,-0.778017935,-0.30859240499999996,-0.021990500500000003,-0.136218938
449,1747638581510,0.49627897,0.43188494,-0.73812234,-0.29519194,0.013133216,-0.099568106
450,1747638581520,0.6905281,0.3945352,-0.66903293,0.06620057,-0.18111621,-0.25899923
451,1747638581530,0.71774005,0.38868121,-0.699553015,0.307943385,-0.283738545,-0.5287264899999999
452,1747638581540,0.744952,0.38282722,-0.7300731,0.5496862,-0.38636088,-0.79845375
453,1747638581550,0.7034862,0.39627314,-0.96728206,0.5328879,-0.32344362,-0.91023874
454,1747638581560,0.67542052,0.39968797,-1.0105924800000001,0.43690850999999997,-0.25441788,-0.97040717
455,1747638581570,0.64735484,0.4031028,-1.0539029,0.34092912,-0.18539214,-1.0305756
456,1747638581580,0.5438732,0.43481195,-1.0636597,-0.03229855,-0.037567105,-1.0543988
457,1747638581590,0.5438732,0.43481195,-1.0636597,-0.03229855,-0.037567105,-1.0543988
458,1747638581600,0.46871638,0.49338245,-0.9357863,-0.5431959,0.086434886,-0.7062158
459,1747638581610,0.48786384000000005,0.49021154499999997,-0.9171114499999999,-0.5783959999999999,0.086129463,-0.6536829200000001
460,1747638581620,0.5070113,0.48704064,-0.8984366,-0.6135961,0.08582404,-0.60115004
461,1747638581630,0.6000045,0.43944636,-0.81815743,-0.65162134,0.05222744,-0.5229616
462,1747638581640,0.58620795,0.41503945,-0.793384665,-0.637304605,0.05803049,-0.5226562
463,1747638581650,0.5724114,0.39063254,-0.7686119,-0.62298787,0.06383354,-0.5223508
464,1747638581660,0.5499711,0.4372511,-0.7620262,-0.62107897,0.04734066,-0.52723753
465,1747638581670,0.47835107,0.455072275,-0.7719048,-0.6927389850000001,0.067804045,-0.519907385
466,1747638581680,0.40673104,0.47289345,-0.7817834,-0.764399,0.08826743,-0.51257724
467,1747638581690,0.2837056,0.6139383,-0.6119259,-0.8061657,0.14820682,-0.23578705
468,1747638581700,0.29433121,0.6195636,-0.5837383,-0.7173637749999999,0.1219022075,-0.16706673
469,1747638581710,0.30495682,0.6251889,-0.5555507,-0.62856185,0.095597595,-0.09834641
470,1747638581720,0.3823089,0.5580509,-0.58631474,-0.20112146,0.17080817,0.061084725
471,1747638581730,0.400373965,0.5445135,-0.612429055,-0.064062608,0.147901395,0.022906772
472,1747638581740,0.41843903,0.5309761,-0.63854337,0.072996244,0.12499462,-0.015271181
473,1747638581750,0.4250248,0.5580509,-0.70418745,0.072996244,0.12499462,-0.015271181
474,1747638581760,0.34203213,0.5714967,-0.780076,-0.030695075000000002,0.0568087965,-0.138967745
475,1747638581770,0.306527015,0.57174065,-0.7727585,-0.09972081749999999,0.10434034824999999,-0.17485502749999998
476,1747638581780,0.2710219,0.5719846,-0.765441,-0.16874656,0.1518719,-0.21074231
477,1747638581790,0.08335852,0.62811595,-0.67979574,-0.3257343,0.42308807,-0.04031592
478,1747638581800,0.0643177765,0.6287257049999999,-0.675390005,-0.34566319999999995,0.424920615,0.042453880000000006
479,1747638581810,0.045277033,0.62933546,-0.67098427,-0.3655921,0.42675316,0.12522368
480,1747638581820,0.097749606,0.61149913,-0.6639107,-0.4808895,0.4145362,0.40499175
481,1747638581830,0.12069302300000001,0.637247565,-0.5916808499999999,-0.49333551500000006,0.42522605,0.399799545
482,1747638581840,0.14363644,0.662996,-0.519451,-0.50578153,0.4359159,0.39460734
483,1747638581850,0.14363644,0.662996,-0.519451,-0.3556658,0.36322504,0.24739315
484,1747638581860,0.12630311,0.7119318,-0.5231097849999999,-0.2687536975,0.23660786749999999,0.20112146250000001
485,1747638581870,0.10896978,0.7608676,-0.52676857,-0.181841595,0.10999069499999999,0.154849775
486,1747638581880,0.0831146,0.7491596,-0.56850874,-0.030389652,-0.20005247,0.027488127
487,1747638581890,0.0480973165,0.75428183,-0.5809485,-0.0008017375,-0.24311719999999998,-0.0042759314999999964
488,1747638581900,0.013080033,0.75940406,-0.59338826,0.028786177,-0.28618193,-0.03603999
489,1747638581910,-0.16729634,0.79477197,-0.64586085,0.046271678,-0.21532366,0.04031592
490,1747638581920,-0.21048484,0.76940465,-0.64586085,-0.05654155100000001,-0.13133216,0.18966807
491,1747638581930,-0.25367334,0.74403733,-0.64586085,-0.15935478,-0.04734066,0.33902022
492,1747638581940,-0.22780293000000001,0.7387778650000001,-0.6346406950000001,-0.18676655,-0.07055286,0.36742462
493,1747638581950,-0.20193252,0.7335184,-0.62342054,-0.21417832,-0.09376506,0.39582902
494,1747638581960,0.005518615,0.72912794,-0.6546418,-0.32321456,-0.25930467,0.29137415
495,1747638581970,0.057732022499999994,0.73499715,-0.7161393,-0.40018131,-0.2751867,0.10842539000000001
496,1747638581980,0.10994543,0.74086636,-0.7776368,-0.47714806,-0.29106873,-0.07452337
497,1747638581990,-0.055140416500000004,0.8139346700000001,-0.92663948,-0.71201885,-0.17561859,-0.3250471
498,1747638582000,-0.14184516325,0.8607285550000001,-0.94269224,-1.081848675,0.04371376499999999,-0.34337251999999996
499,1747638582010,-0.22854991,0.90752244,-0.958745,-1.4516785,0.26304612,-0.36169794
500,1747638582020,-0.32126877,0.91291916,-0.71150494,-2.3825333,0.6106182,0.06536066
501,1747638582030,-0.320171135,0.9145046299999999,-0.597778785,-2.42895765,0.48172943,0.16248538
502,1747638582040,-0.3190735,0.9160901,-0.48405263,-2.475382,0.35284066,0.2596101
503,1747638582050,-0.34056866,0.9807584,-0.1211656,-1.9968597,-0.21898875,0.5002839
504,1747638582060,-0.33335787,0.9918566,-0.07101023749999999,-1.52207865,-0.430952745,0.6142069
505,1747638582070,-0.32614708,1.0029548,-0.020854875,-1.0472976,-0.64291674,0.7281299
506,1747638582080,-0.291267,0.99880826,-0.06918087,-0.33879116,-0.7913526,0.8246438
507,1747638582090,-0.28821803,1.01736123,-0.18729752,0.1986017200000001,-0.9000834,0.831973975
508,1747638582100,-0.28516906,1.0359142,-0.30541417,0.7359946,-1.0088142,0.83930415
509,1747638582110,-0.40792012,1.0400606,-0.7788564,1.2294828,-0.7895201,0.88511765
510,1747638582120,-0.41450587,1.04335355,-0.8232797000000001,1.14350605,-0.7217160499999999,0.905886475
511,1747638582130,-0.42109162,1.0466465,-0.867703,1.0575293,-0.653912,0.9266553
512,1747638582140,-0.36496034,1.0129554,-0.89453393,0.57396734,-0.7278245,0.87717664
513,1747638582150,-0.36496034,1.00758925,-0.879045215,0.37429665,-0.77608145,0.817619055
514,1747638582160,-0.36496034,1.0022231,-0.8635565,0.17462596,-0.8243384,0.75806147
515,1747638582170,-0.37105823,0.97661185,-0.78349084,-0.38055784,-0.6423059,0.57725066
516,1747638582180,-0.37105823,0.97661185,-0.78349084,-0.38055784,-0.6423059,0.57725066
517,1747638582190,-0.38544932,0.9546288,-0.67199045,-0.5220453,-0.60443336,0.47279578
518,1747638582200,-0.4162133,0.9092299,-0.5301834,-0.49089214,-0.63558656,0.2907633
519,1747638582210,-0.41779877,0.88764325,-0.5168899,-0.44820918,-0.62367505,0.241284665
520,1747638582220,-0.41938424,0.8660566,-0.5035964,-0.40552622,-0.61176354,0.19180603
521,1747638582230,-0.42048186,0.83652745,-0.49040969,-0.32355816,-0.51708222,0.07879929
522,1747638582240,-0.42157948,0.8069983,-0.47722298,-0.2415901,-0.4224009,-0.03420745
523,1747638582250,-0.4220673,0.79428416,-0.49063838,-0.1880646,-0.34360158,-0.2974826
524,1747638582260,-0.42987264000000003,0.79160108,-0.50150791,-0.20486290000000001,-0.30572904,-0.35371874000000003
525,1747638582270,-0.43767798,0.788918,-0.51237744,-0.2216612,-0.2678565,-0.40995488
526,1747638582280,-0.45697787,0.7835518,-0.48332086,-0.31580803,-0.013744064,-0.5418979
527,1747638582290,-0.46502713500000004,0.7820883000000001,-0.47185678,-0.327948615,0.069063918,-0.56877518
528,1747638582300,-0.4730764,0.7806248,-0.4603927,-0.3400892,0.1518719,-0.59565246
529,1747638582310,-0.52652466,0.80651045,-0.35837457,-0.15752223,0.5086067,-0.6066477
530,1747638582320,-0.530427305,0.8239505,-0.33811423500000004,-0.096132084,0.51410432,-0.5901548
531,1747638582330,-0.53432995,0.84139055,-0.3178539,-0.034741938,0.51960194,-0.5736619
532,1747638582340,-0.43987322,0.8611783,-0.3530084,0.33848575,0.4737884,-0.5382328
533,1747638582350,-0.37593657,0.84299125,-0.39400165,0.411062035,0.489059575,-0.59412533
534,1747638582360,-0.31199992,0.8248042,-0.4349949,0.48363832,0.50433075,-0.65001786
535,1747638582370,-0.25245374,0.7872106,-0.61951786,0.45187426,0.6197809,-1.0244672
536,1747638582380,-0.332870035,0.8209015799999999,-0.71030058,0.17863464500000004,0.885194,-1.1096803999999998
537,1747638582390,-0.41328633,0.85459256,-0.8010833,-0.09460497,1.1506071,-1.1948936
538,1747638582400,-0.471978785,0.87471568,-0.82853918,-0.38059601,1.4181582499999998,-1.13839025
539,1747638582410,-0.53067124,0.8948388,-0.85599506,-0.66658705,1.6857094,-1.0818869
540,1747638582420,-0.5937541749999999,0.931700705,-0.8037512,-1.4036506499999999,2.3787155,-0.7089646000000001
541,1747638582430,-0.5873513525,0.9412135025,-0.751408175,-1.679371825,2.6550094,-0.52769568
542,1747638582440,-0.58094853,0.9507263,-0.69906515,-1.955093,2.9313033,-0.34642676
543,1747638582450,-0.21632361,0.9353595,-0.35788673,-2.5134075,3.4456367,0.14965758
544,1747638582460,-0.115418326,0.925358875,-0.28149508,-2.4514065,3.27521035,0.090099971
545,1747638582470,-0.014513042,0.91535825,-0.20510343,-2.3894055,3.104784,0.030542362
546,1747638582480,0.31886008,0.8533425,0.11092111,-1.3537903,1.6026342,-0.97743195
547,1747638582490,0.24858159,0.8562847499999999,0.088831405,-1.02171842,1.3262257499999999,-1.2132190250000001
548,1747638582500,0.1783031,0.859227,0.0667417,-0.68964654,1.0498173,-1.4490061
549,1747638582510,-0.26099083,0.97027004,-0.12872702,0.24124648,0.9056574,-1.59591485
550,1747638582520,-0.329943015,0.98405132,-0.1826631,0.44189073999999995,0.9365052,-1.469622125
551,1747638582530,-0.3988952,0.9978326,-0.23659918,0.642535,0.967353,-1.3433294
552,1747638582540,-0.5231098,1.0632328,-0.5492089,0.525405,1.3619603,0.028709821
553,1747638582550,-0.46368559,1.06079365,-0.5531268,0.422591765,1.37936945,0.2550287355
554,1747638582560,-0.40426138,1.0583545,-0.5570447,0.31977853,1.3967786,0.48134765
555,1747638582570,0.23906884,0.9470675,-0.33447072,0.008246438,0.95757943,0.9565868
556,1747638582580,0.44089462,0.9309689699999999,-0.249176115,0.111670519,0.650628685,0.784327875
557,1747638582590,0.6427204,0.91487044,-0.16388151,0.2150946,0.34367794,0.61206895
558,1747638582600,0.6185422,0.9517019,-0.24074577,0.8325848,-0.117588095,-0.27182704
559,1747638582610,0.48175067000000005,0.98525565,-0.36410660499999997,0.902068675,-0.0769667525,-0.39067502
560,1747638582620,0.34495914,1.0188094,-0.48746744,0.97155255,-0.03634541,-0.509523
561,1747638582630,0.10482319,0.97027004,-0.5575325,0.76775867,0.53975993,-0.5809921
562,1747638582640,0.10482319,0.97027004,-0.5575325,0.76775867,0.53975993,-0.5809921
563,1747638582650,-0.013049542,0.92779803,-0.50505996,0.6612422,0.7077429,-0.35681117
564,1747638582660,-0.06625386600000001,0.907293795,-0.46088052999999995,0.6752535,0.657348,-0.062650025
565,1747638582670,-0.11945819,0.88678956,-0.4167011,0.6892648,0.6069531,0.23151112
566,1747638582680,0.324958,0.78233224,-0.34934965,1.0051491,-0.21654536,0.7702784
567,1747638582690,0.42709808000000005,0.7744049399999999,-0.3932699,1.08272675,-0.45263783,0.64047337
568,1747638582700,0.52923816,0.76647764,-0.43719015,1.1603044,-0.6887303,0.51066834
569,1747638582710,0.59439445,0.73717713,-0.7564161,0.9497148,-0.6410842,0.06658235
570,1747638582720,0.41098434500000003,0.7579252999999999,-0.7735055,0.62478223,-0.3472666675,-0.072996245
571,1747638582730,0.22757424,0.77867347,-0.7905949,0.29984966,-0.053449135,-0.21257484
572,1747638582740,0.074577525,0.7833079,-0.6465926,-0.16126367,0.3650576,-0.17897825
573,1747638582750,0.033934908,0.78160047,-0.5941200499999999,-0.365019435,0.5498388999999999,0.015271179999999995
574,1747638582760,-0.006707709,0.77989304,-0.5416475,-0.5687752,0.7346202,0.20952061
575,1747638582770,0.18708408,0.74428123,-0.28151032,-0.41361994,0.18424681,0.98285323
576,1747638582780,0.18708408,0.74428123,-0.28151032,-0.41361994,0.18424681,0.98285323
577,1747638582790,0.43404973,0.70766324,-0.24611193,-0.1537808,-0.30267483,1.0384403
578,1747638582800,0.706901,0.67665535,-0.36983865,0.32474166,-0.7583669,0.6010737
579,1747638582810,0.63416808,0.707526055,-0.44086414500000004,0.32287095499999996,-0.46302223499999995,0.397050715
580,1747638582820,0.56143516,0.73839676,-0.51188964,0.32100025,-0.16767757,0.19302773
581,1747638582830,0.5022549000000001,0.737664995,-0.50504472,0.295153775,-0.031153207500000002,0.19669281500000002
582,1747638582840,0.44307464,0.73693323,-0.4981998,0.2693073,0.105371155,0.2003579
583,1747638582850,0.21989087499999999,0.761843225,-0.426716965,0.27113983,0.5800758,0.65910417
584,1747638582860,0.1929838175,0.7575746875,-0.3865698025,0.33596599000000005,0.5666372,0.903748485
585,1747638582870,0.16607676,0.75330615,-0.34642264,0.40079215,0.5531986,1.1483928
586,1747638582880,0.6739418,0.66080076,-0.35642326,0.71171343,-0.16279079,1.4446537
587,1747638582890,0.7921804,0.6204173,-0.408773855,0.7603139649999999,-0.34329614500000005,1.3096565
588,1747638582900,0.910419,0.58003384,-0.46112445,0.8089145,-0.5238015,1.1746593
589,1747638582910,0.82696897,0.5695454,-0.6609837,0.5727457,-0.4602734,0.29137415
590,1747638582920,0.722023815,0.61224607,-0.640860565,0.4693216,-0.302063965,0.240062975
591,1747638582930,0.61707866,0.65494674,-0.62073743,0.3658975,-0.14385453,0.1887518
592,1747638582940,0.38157713,0.71693206,-0.49502888,0.23441264,0.13660072,0.4538595
593,1747638582950,0.43795238000000003,0.6588494300000001,-0.49722414000000004,0.26277887,0.013782240000000001,0.8750387
594,1747638582960,0.49432763,0.6007668,-0.4994194,0.2911451,-0.10903624,1.2962179
595,1747638582970,0.72202384,0.53073215,-0.5221341,0.27427042,-0.34482327,1.471531
596,1747638582980,0.88761277,0.50193475,-0.56850875,0.25185996,-0.450499835,1.42663375
597,1747638582990,1.0532017,0.47313735,-0.6148834,0.2294495,-0.5561764,1.3817365
598,1747638583000,1.06917825,0.481064665,-0.6285427699999999,0.121329536,-0.597103165,1.117850475
599,1747638583010,1.0851548,0.48899198,-0.64220214,0.013209572,-0.63802993,0.85396445
600,1747638583020,0.9482565,0.6219875,-0.62415224,-0.41919392,-0.13530266,0.25411245
601,1747638583030,0.92128845,0.635052285,-0.61462427,-0.47932419,-0.05497624999999999,0.209520605
602,1747638583040,0.8943204,0.64811707,-0.6050963,-0.53945446,0.02535016,0.16492876
603,1747638583050,0.872368,0.65787375,-0.49405318,-0.5606814,0.1311031,0.07330167
604,1747638583060,0.8905398,0.65470284,-0.48393065999999996,-0.51486787,0.124040175,0.029931515
605,1747638583070,0.9087116,0.65153193,-0.47380814,-0.46905434,0.11697725,-0.01343864
606,1747638583080,0.92630404,0.59954715,-0.4991755,-0.35749835,0.10353861,-0.15454435
607,1747638583090,0.92153239,0.588692875,-0.5052886649999999,-0.27430859500000004,0.117015425,-0.29049605
608,1747638583100,0.91676074,0.5778386,-0.51140183,-0.19111884,0.13049224,-0.42644775
609,1747638583110,0.86773354,0.5751555,-0.54701364,-0.0098499125,0.3094705,-0.75752693
610,1747638583120,0.849546495,0.57747272,-0.564956755,-0.0033023932500000006,0.3752892875,-0.81494659
611,1747638583130,0.83135945,0.57978994,-0.58289987,0.0032451259999999997,0.441108075,-0.87236625
612,1747638583140,0.817075105,0.60785559,-0.592778485,-0.020444294499999998,0.47730078750000005,-0.8925242250000001
613,1747638583150,0.80279076,0.63592124,-0.6026571,-0.044133715,0.5134935,-0.9126822
614,1747638583160,0.7630323,0.5905222,-0.5423792,0.0007635591,0.4010976,-0.91940147
615,1747638583170,0.75045535,0.5974738749999999,-0.5332323299999999,0.027564483549999998,0.370555225,-0.905351985
616,1747638583180,0.7378784,0.60442555,-0.52408546,0.054365408,0.34001285,-0.8913025
617,1747638583190,0.7625445,0.60466945,-0.5096944,0.15591876,0.31802234,-0.8314395
618,1747638583200,0.7812041,0.610889325,-0.5225,0.18394138,0.342456235,-0.82869068
619,1747638583210,0.7998637,0.6171092,-0.5353056,0.211964,0.36689013,-0.82594186
620,1747638583220,0.7993759,0.6266524,-0.52676857,0.14965758,0.31557897,-0.98109704
621,1747638583230,0.728609565,0.6397019500000001,-0.44696207499999996,0.20574099,0.242582715,-0.99758992
622,1747638583240,0.65784323,0.6527515,-0.36715558,0.2618244,0.16958646,-1.0140828
623,1747638583250,0.5819547,0.70644367,-0.32395184,0.42881477,0.10048437,-0.9389486
624,1747638583260,0.5745,0.731948185,-0.33043088,0.51479152,0.080326413,-0.86045472
625,1747638583270,0.5670453,0.7574527,-0.33690992,0.60076827,0.060168456,-0.78196084
626,1747638583280,0.6758931,0.70619977,-0.45356306,0.78524417,0.21845426,-0.56083417
627,1747638583290,0.6920068500000001,0.715346635,-0.48845838,0.7204180099999999,0.133813733,-0.678727685
628,1747638583300,0.7081206,0.7244935,-0.5233537,0.65559185,0.049173206,-0.7966212
629,1747638583310,0.6212253,0.7394029,-0.5145727,0.60015744,-0.07849387,-0.941392
630,1747638583320,0.50981635,0.7481839,-0.503947075,0.586604255,-0.1041494525,-0.98201335
631,1747638583330,0.3984074,0.7569649,-0.49332145,0.57305107,-0.129805035,-1.0226347
632,1747638583340,0.36643906000000004,0.74609535,-0.492223825,0.597179535,-0.12552910750000001,-0.98720555
633,1747638583350,0.33447072,0.7352258,-0.4911262,0.621308,-0.12125318,-0.9517764
634,1747638583360,0.26638750499999997,0.719371215,-0.52077735,0.65688986,-0.13224843,-0.8552625
635,1747638583370,0.24820046749999997,0.7072973575,-0.5511068450000001,0.6444056650000001,-0.19760908,-0.75264018
636,1747638583380,0.23001343,0.6952235,-0.58143634,0.63192147,-0.26296973,-0.65001786
637,1747638583390,0.11604336,0.7337623,-0.6473243,0.13660072,-0.23853585,-0.54434127
638,1747638583400,0.09128581499999999,0.7341282,-0.606575,0.05715239700000001,-0.17439689,-0.525099585
639,1747638583410,0.06652827,0.7344941,-0.5658257,-0.022295926,-0.11025793,-0.5058579
640,1747638583420,-0.0521067,0.76037973,-0.41962814,0.04871507,-0.035123717,-0.3690281
641,1747638583430,-0.09578302999999999,0.74048528,-0.40913972,0.19856353499999999,-0.1429382585,-0.281027915
642,1747638583440,-0.13945936,0.72059083,-0.3986513,0.348412,-0.2507528,-0.19302773
643,1747638583450,-0.13945936,0.72059083,-0.3986513,0.6437566,-0.49692425,-0.021379653
644,1747638583460,-0.14006915,0.700208545,-0.47857974999999997,0.8406403499999999,-0.725381125,0.12339114849999999
645,1747638583470,-0.14067894,0.67982626,-0.5585082,1.0375241,-0.953838,0.26816195
646,1747638583480,-0.104304865,0.7125416,-0.72492033,0.8045622,-1.1822948,0.40132666
647,1747638583490,-0.1196868625,0.721078675,-0.733594615,0.7001836850000001,-1.1279294,0.391553105
648,1747638583500,-0.13506886,0.72961575,-0.7422689,0.59580517,-1.073564,0.38177955
649,1747638583510,-0.2107135,0.75891626,-0.72370076,0.22379917,-0.75958854,0.46180052
650,1747638583520,-0.26403978,0.720102995,-0.7256521,0.06024481500000001,-0.71682924,0.51891473
651,1747638583530,-0.31736606,0.68128973,-0.72760344,-0.10330954,-0.67406994,0.57602894
652,1747638583540,-0.33494331,0.671655015,-0.73713145,-0.10330954,-0.67406994,0.57602894
653,1747638583550,-0.35252056,0.6620203,-0.74665946,-0.10330954,-0.67406994,0.57602894
654,1747638583560,-0.36422858,0.65445894,-0.720042,-0.5506788,-0.8567133,0.85091025
655,1747638583570,-0.34701721500000005,0.65884942,-0.6740484499999999,-0.6061132,-0.88114718,0.9159654749999999
656,1747638583580,-0.32980585,0.6632399,-0.6280549,-0.6615476,-0.90558106,0.9810207
657,1747638583590,-0.322854205,0.698867,-0.554224405,-0.5930563,-0.91291124,1.0323318
658,1747638583600,-0.3118169825,0.73206255,-0.5414721525,-0.45939529999999995,-0.9593356200000001,1.0940273999999999
659,1747638583610,-0.30077976,0.7652581,-0.5287199,-0.3257343,-1.00576,1.155723
660,1747638583620,-0.2309891,0.83675617,-0.69125986,-0.08582404,-1.0228637,1.1764919
661,1747638583630,-0.22903776,0.857260405,-0.7251795299999999,-0.17088451999999998,-0.9730796500000001,1.1877925500000002
662,1747638583640,-0.22708642,0.87776464,-0.7590992,-0.255945,-0.9232956,1.1990932
663,1747638583650,-0.11409202,0.8665444,-0.69906515,-0.6765133,-0.91046786,1.2113101
664,1747638583660,-0.11409202,0.8665444,-0.69906515,-0.6765133,-0.91046786,1.2113101
665,1747638583670,0.027471114,0.9377987,-0.51506054,-0.92764795,-0.91291124,1.0592091
666,1747638583680,0.051390197,0.93109093,-0.492848885,-0.892753275,-0.8588512699999999,0.98774
667,1747638583690,0.07530928,0.92438316,-0.47063723,-0.8578586,-0.8047913,0.9162709
668,1747638583700,-0.0018293752,0.91779745,-0.42157948,-0.6136342499999999,-0.629478085,0.705834025
669,1747638583710,-0.0558874026,0.932188545,-0.43708342499999997,-0.42421433,-0.5891621625000001,0.6235223375000001
670,1747638583720,-0.10994543,0.94657964,-0.45258737,-0.23479441,-0.54884624,0.54121065
671,1747638583730,-0.26879618,0.92804193,-0.554575,0.2836622,-0.5903839,0.5778615
672,1747638583740,-0.28954433,0.913269765,-0.57898195,0.37773268,-0.64841438,0.58366455
673,1747638583750,-0.31029248,0.8984976,-0.6033889,0.47180316,-0.70644486,0.5894676
674,1747638583760,-0.36447248,0.8828868,-0.7583674,0.6300889,-0.8054021,0.5632012
675,1747638583770,-0.37239977999999996,0.8804476699999999,-0.8227919,0.55903976,-0.7226323,0.54884628
676,1747638583780,-0.38032708,0.87800854,-0.8872164,0.48799062,-0.6398625,0.53449136
677,1747638583790,-0.39778235500000003,0.89849755,-0.8956468,0.13973132,-0.32344362,0.459968
678,1747638583800,-0.4028512375,0.912416055,-0.8759429,0.059977569999999994,-0.27365956999999996,0.439810035
679,1747638583810,-0.40792012,0.92633456,-0.856239,-0.01977618,-0.22387552,0.41965207
680,1747638583820,-0.32980585,0.921944,-0.7530012,-0.13011047,-0.28007346,0.17470232
681,1747638583830,-0.31175600000000003,0.91546495,-0.7521475200000001,-0.138815045,-0.28465483,0.08215895849999999
682,1747638583840,-0.29370615,0.9089859,-0.75129384,-0.14751962,-0.2892362,-0.010384403
683,1747638583850,-0.30687764,0.86971533,-0.7422689,-0.25968644,-0.09804098,-0.45515758
684,1747638583860,-0.30687764,0.86971533,-0.7422689,-0.25968644,-0.09804098,-0.45515758
685,1747638583870,-0.44036105,0.86532485,-0.7227251,-0.5145625,0.24288814,-0.75386184
686,1747638583880,-0.44927925999999996,0.863007675,-0.71113905,-0.559421575,0.295115585,-0.76943847
687,1747638583890,-0.45819747,0.8606905,-0.699553,-0.60428065,0.34734303,-0.7850151
688,1747638583900,-0.4449955,0.81382793,-0.5465258,-0.7008709,0.6521558,-0.8070056
689,1747638583910,-0.4329216,0.806144565,-0.508703465,-0.6494452,0.6842252849999999,-0.81800083
690,1747638583920,-0.4208477,0.7984612,-0.47088113,-0.5980195,0.71629477,-0.82899606
691,1747638583930,-0.43572664,0.7874545,-0.40377355,-0.36811182,0.7181273,-0.85343
692,1747638583940,-0.431336135,0.78550315,-0.40023675999999997,-0.1827578596,0.66345645,-0.839380515
693,1747638583950,-0.42694563,0.7835518,-0.39669997,0.0025961008,0.6087856,-0.82533103
694,1747638583960,-0.2534294,0.71083415,-0.4877114,0.3994941,0.4853945,-0.93833774
695,1747638583970,-0.24903890500000003,0.6902079750000001,-0.52493915,0.421942735,0.516853135,-1.00705807
696,1747638583980,-0.24464841,0.6695818,-0.5621669,0.44439137,0.54831177,-1.0757784
697,1747638583990,-0.34959355,0.68104583,-0.6736979,0.29358846,0.6863633,-1.2486482
698,1747638584000,-0.40840034999999997,0.68703704,-0.7025486425,0.02909159499999997,0.752334785,-1.14602585
699,1747638584010,-0.46720715,0.69302825,-0.731399385,-0.23540527,0.81830627,-1.0434035
700,1747638584020,-0.47855691,0.692052575,-0.7337851925000001,-0.361888835,0.8241093150000001,-0.9701018299999999
701,1747638584030,-0.48990667,0.6910769,-0.736171,-0.4883724,0.82991236,-0.89680016
702,1747638584040,-0.42816523,0.780137,-0.528476,-0.687470415,0.74317205,-0.62772191
703,1747638584050,-0.361911365,0.7764782299999999,-0.47819866,-0.7075329324999999,0.65918055,-0.456493795
704,1747638584060,-0.2956575,0.77281946,-0.42792132,-0.72759545,0.57518905,-0.28526568
705,1747638584070,-0.218031,0.7762343,-0.37520483,-0.59924114,0.5018874,-0.20219044
706,1747638584080,-0.1161500625,0.7730634000000001,-0.362521155,-0.40766418,0.39559997,-0.20616094499999998
707,1747638584090,-0.014269125,0.7698925,-0.34983748,-0.21608722,0.28931254,-0.21013145
708,1747638584100,-0.036465544,0.6935161,-0.5031086,0.27862272,0.28686914,-0.5449521
709,1747638584110,-0.11554028200000001,0.71633755,-0.55887405,0.31664795,0.29969694,-0.5531985500000001
710,1747638584120,-0.19461502,0.739159,-0.6146395,0.35467318,0.31252474,-0.561445
711,1747638584130,-0.45770964,0.81748676,-0.7925463,0.078646585,0.1311031,-0.16248538
712,1747638584140,-0.31494215999999997,0.859333665,-0.7642367,-0.0899090825,0.04188122,0.05436539999999998
713,1747638584150,-0.17217468,0.90118057,-0.7359271,-0.25846475,-0.04734066,0.27121618
714,1747638584160,-0.017196124,0.8467567,-0.68589365,-0.7288935,0.14026581,0.8527428
715,1747638584170,0.12240042799999998,0.84443948,-0.58960755,-0.8584885625,0.34352522500000005,0.8845068375
716,1747638584180,0.26199698,0.84212226,-0.49332145,-0.988083625,0.54678464,0.9162708749999999
717,1747638584190,0.44795296,0.82797515,-0.36788732,-0.71201885,0.38765895,0.519831
718,1747638584200,0.447709055,0.821389405,-0.35898436,-0.556252795,0.291145075,0.343907
719,1747638584210,0.44746515,0.81480366,-0.3500814,-0.40048674,0.1946312,0.167983
720,1747638584220,0.33178766,0.85030878,-0.4051151,-0.16030923,0.026304610000000006,-0.020768805
721,1747638584230,0.21611017,0.8858139,-0.4601488,0.07986828,-0.14202198,-0.20952061
722,1747638584240,-0.10820753,0.9116996,-0.65634924,0.11911522,-0.15057385,0.1655396
723,1747638584250,-0.111515648,0.92633455,-0.6580566699999999,0.05028036699999999,-0.06352811500000001,0.34421243
724,1747638584260,-0.114823766,0.9409695,-0.6597641,-0.018554486,0.02351762,0.52288526
725,1747638584270,0.2061096,0.90703464,-0.6285428,-0.24288814,0.32168743,0.98346406
726,1747638584280,0.358755715,0.91083059,-0.5746066999999999,-0.32077117,0.302751165,0.918714255
727,1747638584290,0.51140183,0.91462654,-0.5206706,-0.3986542,0.2838149,0.85396445
728,1747638584300,0.5699723,0.8841065,-0.4540509,-0.3245126,0.040010497,0.62856185
729,1747638584310,0.5071332399999999,0.85957762,-0.439156725,-0.21593450349999999,-0.1004843765,0.4758500275
730,1747638584320,0.44429418,0.83504874,-0.42426255,-0.107356407,-0.24097925,0.323138205
731,1747638584330,0.29102308,0.84431756,-0.4921019,0.17088452,-0.26968905,0.21685077
732,1747638584340,0.258079085,0.839561195,-0.5116304700000001,0.18768282,-0.20157958999999998,0.262053465
733,1747638584350,0.22513509,0.83480483,-0.53115904,0.20448112,-0.13347013,0.30725616
734,1747638584360,0.267119245,0.821633315,-0.547882585,0.16210359,-0.023517621999999988,0.46454933
735,1747638584370,0.3091034,0.8084618,-0.56460613,0.11972606,0.086434886,0.6218425
736,1747638584380,0.3986513,0.7486717,-0.69808954,-0.31764057,0.1866902,0.75561804
737,1747638584390,0.419521435,0.73841195,-0.65476382,-0.44225343500000003,0.208375275,0.7583668699999999
738,1747638584400,0.44039157,0.7281522,-0.6114381,-0.5668663,0.23006035,0.7611157
739,1747638584410,0.5035964,0.6832715,-0.38621157,-0.61638305,0.015882030000000002,0.662463845
740,1747638584420,0.47126222000000006,0.68729617,-0.35288644999999996,-0.43585861000000004,-0.097888275,0.6354338525000001
741,1747638584430,0.43892804,0.69132084,-0.31956133,-0.25533417,-0.21165858,0.60840386
742,1747638584440,0.386455475,0.73963158,-0.42011598,-0.05841227,-0.21226943,0.6890357
743,1747638584450,0.3797477775,0.73633107,-0.45440151,-0.013553175,-0.14690877,0.8157865
744,1747638584460,0.37304008,0.73303056,-0.48868704,0.03130592,-0.08154811,0.9425373
745,1747638584470,0.43965977,0.71083415,-0.47039333,-0.029167956,-0.1395786,1.1135745
746,1747638584480,0.487985785,0.691305575,-0.438790865,-0.0004963130000000017,-0.180505365,1.12365355
747,1747638584490,0.5363118,0.671777,-0.4071884,0.02817533,-0.22143213,1.1337326
748,1747638584500,0.5892722,0.6190605,-0.32200047,0.42385164,-0.4871507,1.0060655
749,1747638584510,0.577061115,0.6143041499999999,-0.361423505,0.75813777,-0.527772025,0.9407048
750,1747638584520,0.56485003,0.6095478,-0.40084654,1.0924239,-0.56839335,0.8753441
751,1747638584530,0.56094736,0.6264085,-0.5204267,1.267508,-0.4847073,0.883896
752,1747638584540,0.6147614875,0.630250175,-0.6221933275,1.1553412,-0.35429141,0.8771766750000001
753,1747638584550,0.668575615,0.6340918499999999,-0.723959955,1.0431744,-0.22387552,0.87045735
754,1747638584560,0.7103158375,0.6334210899999999,-0.8036368275,0.8431601,-0.126139959,0.830752275
755,1747638584570,0.75205606,0.63275033,-0.8833137,0.6431458,-0.028404398,0.7910472
756,1747638584580,0.8140414,0.6764114,-0.78864354,-0.3070271,0.13232478,0.5210527
757,1747638584590,0.8134316,0.6810611,-0.733487905,-0.40861863,0.132935635,0.45294324
758,1747638584600,0.8128218,0.6857108,-0.67833227,-0.51021016,0.13354649,0.38483378
759,1747638584610,0.8569707,0.6254328,-0.5775337,-0.5438068,0.055281676,0.117893524
760,1747638584620,0.85062887,0.61078257,-0.6023065000000001,-0.55720725,0.065055233,0.056503373
761,1747638584630,0.84428704,0.59613234,-0.6270793,-0.5706077,0.07482879,-0.004886778
762,1747638584640,0.78986317,0.56561226,-0.71126103,-0.79307065,0.266711185,-0.184475875
763,1747638584650,0.740683465,0.55939238,-0.599852085,-0.929843175,0.3739148725,-0.2663675875
764,1747638584660,0.69150376,0.5531725,-0.48844314,-1.0666157,0.48111856,-0.3482593
765,1747638584670,0.64759874,0.5668319,-0.39645606,-0.9232956,0.37666368,-0.48875415
766,1747638584680,0.65235512,0.5736767700000001,-0.36729278,-0.78123545,0.31649524,-0.499443975
767,1747638584690,0.6571115,0.58052164,-0.3381295,-0.6391753,0.2563268,-0.5101338
768,1747638584700,0.6832106,0.59247357,-0.37837574,-0.08956548,0.23922306,-0.58282465
769,1747638584710,0.6499007299999999,0.5929614000000001,-0.418164655,0.17741294500000002,0.35681114999999997,-0.61397785
770,1747638584720,0.61659086,0.59344923,-0.45795357,0.44439137,0.47439924,-0.64513105
771,1747638584730,0.61293208,0.600644795,-0.46014880999999996,0.53036812,0.3897969,-0.637495455
772,1747638584740,0.6092733,0.60784036,-0.46234405,0.61634487,0.30519456,-0.62985986
773,1747638584750,0.64491564,0.6102795,-0.61216986,0.85869855,0.028404398,-0.6793385
774,1747638584760,0.64589132,0.60808425,-0.651105045,0.842816505,0.073301672,-0.69155545
775,1747638584770,0.646867,0.605889,-0.69004023,0.82693446,0.118198946,-0.7037724
776,1747638584780,0.5865891,0.6334821,-0.7364149,0.6338304,0.34489963999999995,-0.7373690049999999
777,1747638584790,0.568524035,0.6418972300000001,-0.7134715,0.525405,0.43255620499999997,-0.7129351225
778,1747638584800,0.55045897,0.65031236,-0.6905281,0.4169796,0.52021277,-0.68850124
779,1747638584810,0.56802094,0.6434827,-0.6312259,0.028786177,0.93070215,-0.46065518
780,1747638584820,0.60646829,0.6375067299999999,-0.5702162150000001,0.009773556249999999,0.9197069250000001,-0.43530503
781,1747638584830,0.64491564,0.63153076,-0.50920653,-0.0092390645,0.9087117,-0.40995488
782,1747638584840,0.7100719,0.61174303,-0.42035988,0.27556846,0.3222983,-0.64513105
783,1747638584850,0.6414856,0.637613445,-0.45354779,0.477109895,0.151833729,-0.70255071
784,1747638584860,0.5728993,0.66348386,-0.4867357,0.67865133,-0.018630842,-0.75997037
785,1747638584870,0.55570317,0.665069315,-0.49100425000000003,0.740041465,-0.041232191,-0.72393036
786,1747638584880,0.53850704,0.66665477,-0.4952728,0.8014316,-0.06383354,-0.68789035
787,1747638584890,0.5143288,0.6720209,-0.554819,0.8481614,-0.16279079,-0.4869216
788,1747638584900,0.483580035,0.676533365,-0.6074135,0.74130133,-0.07513421049999999,-0.41881213500000003
789,1747638584910,0.45283127,0.68104583,-0.660008,0.63444126,0.012522369,-0.35070267
790,1747638584920,0.39669997,0.69815046,-0.65708107,0.37460208,0.26610035,-0.21074231
791,1747638584930,0.417326185,0.707297355,-0.583875535,0.205130145,0.34551048500000003,-0.04062135
792,1747638584940,0.4379524,0.71644425,-0.51067,0.03565821,0.42492062,0.12949961
793,1747638584950,0.6895524,0.64494616,-0.39352906,0.20203774,0.016187452,0.19119519
794,1747638584960,0.72190185,0.635433405,-0.40548098,0.288930755,-0.06474980899999999,0.081548108
795,1747638584970,0.7542513,0.62592065,-0.4174329,0.37582377,-0.14568707,-0.028098974
796,1747638584980,0.7073888,0.6320186,-0.5328665,0.55281675,-0.1511847,-0.6109236
797,1747638584990,0.58976001,0.65740115,-0.58033875,0.526321265,-0.046729818000000006,-0.765162535
798,1747638585000,0.47213122,0.6827837,-0.627811,0.49982578,0.057725064,-0.91940147
799,1747638585010,0.11653119,0.72010297,-0.6531784,0.30916506,0.32046574,-0.92001235
800,1747638585020,0.080660195,0.723883685,-0.6519588000000001,0.148741303,0.38155047,-0.756610675
801,1747638585030,0.0447892,0.7276644,-0.6507392,-0.011682454,0.4426352,-0.593209
802,1747638585040,0.048935782,0.714249,-0.57728976,-0.3768164,0.19035527,0.1111742
803,1747638585050,0.096042191,0.70815105,-0.561419965,-0.41575791500000003,0.0806700125,0.191806035
804,1747638585060,0.1431486,0.7020531,-0.54555017,-0.45469943,-0.029015245,0.27243787
805,1747638585070,0.27004623,0.66811824,-0.5160362,-0.5120427,-0.16889927,0.20707722
806,1747638585080,0.27004623,0.66811824,-0.5160362,-0.5120427,-0.16889927,0.20707722
807,1747638585090,0.22415942,0.7642824,-0.36935082,-0.44446772999999995,-0.240368395,-0.054670829500000004
808,1747638585100,0.16168626,0.7674533,-0.33910516,-0.26594764,-0.2843494,-0.15698774
809,1747638585110,0.111896772,0.77025833,-0.34154431500000004,-0.17340427249999998,-0.28709821,-0.15423893
810,1747638585120,0.062107284,0.77306336,-0.34398347,-0.080860905,-0.28984702,-0.15149012
811,1747638585130,-0.013781293,0.78123458,-0.381805805,0.0477988025,-0.34299073,0.010384404999999985
812,1747638585140,-0.08966987,0.7894058,-0.41962814,0.17645851,-0.39613444,0.17225893
813,1747638585150,-0.0930847,0.80138826,-0.46210015,0.16275262000000001,-0.69300622,0.41110019
814,1747638585160,-0.069043662,0.7952750799999999,-0.49467826000000004,0.109475285,-0.79990451,0.46057882
815,1747638585170,-0.045002624,0.7891619,-0.52725637,0.05619795,-0.9068028,0.51005745
816,1747638585180,0.021861032,0.86556876,-0.4994194,-0.33069745,-1.1267078,0.6566608
817,1747638585190,0.04724361099999999,0.8714227800000001,-0.4774669,-0.381168695,-1.1065497999999998,0.657882485
818,1747638585200,0.07262619,0.8772768,-0.4555144,-0.43163994,-1.0863918,0.65910417
819,1747638585210,0.11092111,0.9336521,-0.44356245,-0.49585527,-1.0509627,0.53815645
820,1747638585220,0.025626496999999998,0.95415635,-0.48919012500000003,-0.5827864700000001,-0.8463288499999999,0.49295374999999997
821,1747638585230,-0.059668116,0.9746606,-0.5348178,-0.66971767,-0.641695,0.44775105
822,1747638585240,-0.1811996,1.0437194,-0.5333543,-0.78684765,-0.46699274,0.5173876
823,1747638585250,-0.23464783499999997,1.0792245,-0.5299394799999999,-0.834188325,-0.42973106,0.603822515
824,1747638585260,-0.28809607,1.1147296,-0.52652466,-0.881529,-0.39246938,0.69025743
825,1747638585270,-0.27503128499999996,1.14157565,-0.50053227,-0.85255192,-0.47982053999999996,0.9385668149999999
826,1747638585280,-0.2619665,1.1684217,-0.47453988,-0.82357484,-0.5671717,1.1868762
827,1747638585290,-0.09332862,1.1210716,-0.5387204,-0.5176167,-0.7821899,1.180157
828,1747638585300,-0.08088887,1.11777865,-0.58265592,-0.48772335,-0.7589777,1.1306783
829,1747638585310,-0.06844912,1.1144857,-0.62659144,-0.45783,-0.7357655,1.0811996
830,1747638585320,-0.15604569,1.068355,-0.79742455,-0.7151494,-0.3399365,0.7305733
831,1747638585330,-0.19766397,1.0573788,-0.807425125,-0.8497267,-0.24128466999999998,0.6685723
832,1747638585340,-0.23928225,1.0464026,-0.8174257,-0.984304,-0.14263284,0.6065713
833,1747638585350,-0.32687885,1.008565,-0.70784616,-1.3657018,0.0021379655,0.4563029
834,1747638585360,-0.339821675,0.9611079499999999,-0.63659203,-1.3236297000000001,-0.18630841725,0.35704022
835,1747638585370,-0.3527645,0.9136509,-0.5653379,-1.2815576,-0.3747548,0.25777754
836,1747638585380,-0.37337545,0.90595225,-0.54946805,-1.2030637,-0.47126864999999996,0.20157959000000003
837,1747638585390,-0.3939864,0.8982536,-0.5335982,-1.1245698,-0.5677825,0.14538164
838,1747638585400,-0.42231122,0.8926436,-0.5482332,-0.8578586,-0.69483876,0.01099525
839,1747638585410,-0.42657976,0.89154595,-0.56812765,-0.83980045,-0.64474928,-0.01435491
840,1747638585420,-0.4308483,0.8904483,-0.5880221,-0.8217423,-0.5946598,-0.03970507
841,1747638585430,-0.4630758,0.8636175,-0.6253719,-0.8740461,-0.16523418,-0.1111742
842,1747638585440,-0.427311515,0.8592269800000001,-0.5655817999999999,-0.918905175,0.01103343000000001,-0.131943005
843,1747638585450,-0.39154723,0.85483646,-0.5057917,-0.96376425,0.18730104,-0.15271181
844,1747638585460,-0.23928225,0.84114665,-0.36447248,-0.56999683,0.053449135,-0.50524706
845,1747638585470,-0.25330746,0.8555529749999999,-0.36252114,-0.472184925,0.012216945,-0.57671618
846,1747638585480,-0.26733267,0.8699593,-0.3605698,-0.37437302,-0.029015245,-0.6481853
847,1747638585490,-0.35935023,0.92828584,-0.4167011,0.04871507,-0.20616095,-0.8778639
848,1747638585500,-0.374229145,0.947311345,-0.433546615,0.10353861,-0.19760909,-0.8836669500000001
849,1747638585510,-0.38910806,0.96633685,-0.45039213,0.15836215,-0.18905723,-0.88947
850,1747638585520,-0.31102425,1.0334749,-0.43840972,0.18890451,0.065055236,-0.8271635
851,1747638585530,-0.2793608125,1.0318285,-0.43578762,0.1580758125,0.18115439049999998,-0.8462525125
852,1747638585540,-0.247697375,1.0301821,-0.43316551999999997,0.127247115,0.297253545,-0.8653415250000001
853,1747638585550,-0.22781818,1.0334749,-0.42353082,0.036269058,0.5501443,-0.9181798
854,1747638585560,-0.2274523,1.0219956,-0.363130945,0.044668207,0.66406732,-1.0015604
855,1747638585570,-0.22708642,1.0105163,-0.30273107,0.053067356,0.77799034,-1.084941
856,1747638585580,-0.26125,1.0687209,-0.26222566,0.151222878,0.67597884,-1.081276
857,1747638585590,-0.29541358,1.1269255,-0.22172025,0.2493784,0.57396734,-1.077611
858,1747638585600,-0.18022393,1.1632996,-0.13823977,1.065623,-0.3723114,-0.93467265
859,1747638585610,-0.148133645,1.1640313500000001,-0.15691464500000002,1.2846117499999998,-0.53968355,-0.951470975
860,1747638585620,-0.11604336,1.1647631,-0.17558952,1.5036005,-0.7070557,-0.9682693
861,1747638585630,-0.012302547,1.1016801,-0.356423225,1.9385237499999999,-0.7485933,-1.12159195
862,1747638585640,0.002827909,1.04865875,-0.4533038875,1.9849481249999998,-0.61084725,-1.239485475
863,1747638585650,0.017958365,0.9956374,-0.55018455,2.0313725,-0.4731012,-1.357379
864,1747638585660,-0.251722,0.9358473,-0.87550837,1.331647,0.19768545,-1.5699538
865,1747638585670,-0.30175541,0.924993,-0.887582285,1.09799795,0.257548475,-1.5195588999999998
866,1747638585680,-0.35178882,0.9141387,-0.8996562,0.8643489,0.3174115,-1.469164
867,1747638585690,-0.5055173,0.9119435,-0.82962155,0.24128467,0.33085015,-1.1160944
868,1747638585700,-0.50563925,0.9041229,-0.7045532750000001,-0.0020234299999999927,0.32321456000000004,-0.693349865
869,1747638585710,-0.5057612,0.8963023,-0.579485,-0.24533153,0.31557897,-0.27060533
870,1747638585720,-0.37691224,0.8963023,-0.49551672,-0.28526568,0.24410984,0.060473878
871,1747638585730,-0.37691224,0.8963023,-0.49551672,-0.28526568,0.24410984,0.060473878
872,1747638585740,-0.06259512,0.79452807,-0.46917373,-0.2945811,0.17936003,0.21135315
873,1747638585750,0.10092052,0.7118098,-0.4672224,-0.34696123,0.35406235,0.00061084726
874,1747638585760,0.094700645,0.7051020800000001,-0.474295975,-0.382466735,0.407816905,-0.13530266637
875,1747638585770,0.08848077,0.69839436,-0.48136955,-0.41797224,0.46157146,-0.27121618
876,1747638585780,-0.06514099999999999,0.7124195799999999,-0.485028295,-0.51983102,0.594430745,-0.38578821499999993
877,1747638585790,-0.21876277,0.7264448,-0.48868704,-0.6216898,0.72729003,-0.50036025
878,1747638585800,-0.49746805,0.80333954,-0.33617815,-0.7787539,0.70041275,0.12216945
879,1747638585810,-0.471841555,0.82994169,-0.297608835,-0.7578705649999999,0.648490725,0.370478875
880,1747638585820,-0.44621506,0.85654384,-0.25903952,-0.73698723,0.5965687,0.6187883
881,1747638585830,-0.000365875,0.8391954,-0.16729634,-0.5457157,0.4401918,1.2534586
882,1747638585840,0.16717438750000002,0.8217553,-0.174613845,-0.41888853000000004,0.40506808000000005,1.2058125
883,1747638585850,0.33471465,0.8043152,-0.18193135,-0.29206136,0.36994436,1.1581664
884,1747638585860,0.4921324,0.7759904,-0.240014,-0.16126367,0.35772744,0.9419265
885,1747638585870,0.456749235,0.7728195,-0.237940705,0.02970245000000002,0.274652205,0.608403885
886,1747638585880,0.42136607,0.7696486,-0.23586741,0.22066857,0.19157697,0.27488127
887,1747638585890,0.17168686,0.7435495,-0.21464668,0.863738,-0.0943759,0.15882029
888,1747638585900,0.1621741,0.7607455999999999,-0.24123359,1.0085852,-0.15576605,0.23761959500000002
889,1747638585910,0.15266134,0.7779417,-0.2678205,1.1534324,-0.2171562,0.3164189
890,1747638585920,0.21879324,0.90264416,-0.5206706,1.2506334,-0.08093726,0.72446483
891,1747638585930,0.34069061,0.86348028,-0.6107216,0.8070055749999999,0.12648357,0.8777875150000001
892,1747638585940,0.46258798,0.8243164,-0.7007726,0.36337775,0.3339044,1.0311102
893,1747638585950,0.49126344,0.804178,-0.66648705,0.24655322000000002,0.36200336499999997,1.0198095
894,1747638585960,0.5199389,0.7840396,-0.6322015,0.12972869,0.39010233,1.0085088
895,1747638585970,0.56084068,0.737558275,-0.421213595,-0.0029778804,0.3613925,0.935818
896,1747638585980,0.59958529,0.7067409375,-0.3540450475,0.16962465980000002,0.13534084000000002,0.77638688
897,1747638585990,0.6383299,0.6759236,-0.2868765,0.3422272,-0.09071082,0.61695576
898,1747638586000,0.3869433,0.64177525,-0.43304357,0.9266553,-0.06261184,0.27243787
899,1747638586010,0.30189262,0.6765486,-0.508947385,0.931962015,0.10785271500000002,0.33932565000000003
900,1747638586020,0.21684194,0.71132195,-0.5848512,0.93726873,0.27831727,0.40621343
901,1747638586030,0.21147576,0.67714316,-0.58972955,0.5160132,0.7669951,1.1490037
902,1747638586040,0.325445815,0.66519123,-0.5562977250000001,0.47367386499999997,0.623445985,1.2500989
903,1747638586050,0.43941587,0.6532393,-0.5228659,0.43133453,0.47989687,1.3511941
904,1747638586060,0.8979792,0.50704175,-0.51847535,0.5983249,-0.096208446,1.0463814
905,1747638586070,0.859791,0.563295025,-0.5439799249999999,0.6992292325,-0.1334701305,0.831363135
906,1747638586080,0.8216028,0.6195483,-0.5694845,0.8001335650000001,-0.170731815,0.61634487
907,1747638586090,0.6134199,0.67397225,-0.67540526,0.93352735,0.016187452,0.31947312
908,1747638586100,0.5120801625,0.6931959400000001,-0.742688155,0.876489475,0.125872711,0.36009446
909,1747638586110,0.41074042499999996,0.7124196300000001,-0.8099710499999999,0.8194516,0.23555797,0.4007158
910,1747638586120,0.3108108,0.72522527,-0.81010824,0.23319094,0.4853945,0.9345963
911,1747638586130,0.37779644,0.70337945,-0.7584893699999999,0.10731822700000002,0.397737915,1.0750912
912,1747638586140,0.44478208,0.68153363,-0.7068705,-0.018554486,0.31008133,1.2155861
913,1747638586150,0.7109104100000001,0.6332229149999999,-0.6368359349999999,-0.046615279999999995,0.024472054999999993,1.1807678
914,1747638586160,0.97703874,0.5849122,-0.56680137,-0.074676074,-0.26113722,1.1459495
915,1747638586170,1.10665,0.6095478,-0.5846073,0.21822518,-0.35093176,0.3115321
916,1747638586180,0.9248253499999999,0.6709233,-0.639397085,0.245636955,-0.25533416,0.12369656799999998
917,1747638586190,0.7430007,0.7322988,-0.69418687,0.27304873,-0.15973656,-0.064138964
918,1747638586200,0.66198987,0.7494035,-0.705407,0.18333053500000002,0.0216850765,-0.162485375
919,1747638586210,0.6352657349999999,0.74745215,-0.7281065,0.0932687415,0.06291726825,-0.1294996225
920,1747638586220,0.6085416,0.7455008,-0.750806,0.003206948,0.10414946,-0.09651387
921,1747638586230,0.7025105,0.648361,-0.7308048,-0.4883724,0.29053423,0.0787993
922,1747638586240,0.76803262,0.6254176,-0.687845,-0.52574862,0.276790175,0.033291177500000005
923,1747638586250,0.83355474,0.6024742,-0.6448852,-0.56312484,0.26304612,-0.012216945
924,1747638586260,0.961428,0.5551238,-0.551648,-0.43232715,0.117588095,-0.35253522
925,1747638586270,0.8970035,0.5630663499999999,-0.5714205,-0.243842592,0.1181989425,-0.6194754600000001
926,1747638586280,0.832579,0.5710089,-0.591193,-0.055358034,0.11880979,-0.8864157
927,1747638586290,0.736171,0.57247245,-0.6212253,0.036269058,0.1738624,-0.993314
928,1747638586300,0.658818925,0.579911925,-0.62768905,0.070858284,0.2022668,-0.9829296000000001
929,1747638586310,0.58146685,0.5873514,-0.6341528,0.10544751,0.2306712,-0.9725452
930,1747638586320,0.58390605,0.5927175,-0.6246401,0.117893524,0.31313556,-0.90229774
931,1747638586330,0.58390605,0.5927175,-0.6246401,0.117893524,0.31313556,-0.90229774
932,1747638586340,0.62927455,0.5868635,-0.554575,0.17332791,0.41759047,-0.85281914
933,1747638586350,0.641973475,0.581497335,-0.5435988,0.27675199,0.450881645,-0.82655272
934,1747638586360,0.6546724,0.57613117,-0.5326226,0.38017607,0.48417282,-0.8002863
935,1747638586370,0.7071449,0.5839365,-0.54994065,0.732864,0.1518719,-0.78196084
936,1747638586380,0.712755,0.585034125,-0.585582975,0.7742871,0.085251371,-0.80944897
937,1747638586390,0.7183651,0.58613175,-0.6212253,0.8157102,0.018630842,-0.8369371
938,1747638586400,0.69812,0.5893027,-0.66220325,0.8089145,-0.014965758,-0.88702655
939,1747638586410,0.65320885,0.58454632,-0.67014581,0.693006225,0.038788799,-0.947805875
940,1747638586420,0.6082977,0.57978994,-0.67808837,0.57709795,0.092543356,-1.0085852
941,1747638586430,0.51091397,0.57296026,-0.558996,0.490204935,0.3442888,-0.9765157250000001
942,1747638586440,0.468579175,0.5674569,-0.5320279800000001,0.5065450975,0.44232978,-0.9186379375
943,1747638586450,0.42624438,0.56195354,-0.50505996,0.52288526,0.54037076,-0.86076015
944,1747638586460,0.36133206,0.57344806,-0.49015057,0.7534037,0.33573693,-0.60603684
945,1747638586470,0.36133206,0.57344806,-0.49015057,0.7534037,0.33573693,-0.60603684
946,1747638586480,0.3620638,0.5612218,-0.5245733,0.8556443,0.088878274,-0.46554196
947,1747638586490,0.44039157,0.55341643,-0.6536662,0.85190284,-0.36131614,-0.36841726
948,1747638586500,0.46516435,0.560002165,-0.70772425,0.6643536525,-0.41430715,-0.47348298
949,1747638586510,0.48993713,0.5665879,-0.7617823,0.47680446499999996,-0.46729816,-0.5785487
950,1747638586520,0.41697556,0.5910101,-0.72860956,0.37460208,-0.41751412,-0.6390226
951,1747638586530,0.35400695000000004,0.6063234900000001,-0.6978532049999999,0.12163496000000001,-0.162179955,-0.73920155
952,1747638586540,0.29103834,0.6216368800000001,-0.66709685,-0.13133216,0.09315421,-0.8393805
953,1747638586550,0.22282551,0.6297547400000001,-0.590956725,-0.25376886,0.29355029,-0.753861875
954,1747638586560,0.15461268,0.6378726,-0.5148166,-0.37620556,0.49394637,-0.66834325
955,1747638586570,0.12387918,0.6439705,-0.41499373,-0.255945,0.5226562,-0.48325655
956,1747638586580,0.12631834,0.64921472,-0.36837515,-0.006413895000000003,0.26942182600000003,-0.31859503
957,1747638586590,0.1287575,0.65445894,-0.32175657,0.24311721,0.016187452,-0.15393351
958,1747638586600,0.19781642,0.6432388,-0.47868645,0.9191724,-0.8133431,-0.007941014
959,1747638586610,0.19549920999999998,0.64299485,-0.544574475,0.99361945,-0.89122615,-0.0076355905
960,1747638586620,0.193182,0.6427509,-0.6104625,1.0680665,-0.9691092,-0.007330167
961,1747638586630,0.21391493,0.63470167,-0.71467584,0.92169213,-0.78402245,-0.058641337
962,1747638586640,0.1907276,0.625905435,-0.72200862,0.6739935850000001,-0.569615065,-0.0937650535
963,1747638586650,0.16754027,0.6171092,-0.7293414,0.42629504,-0.35520768,-0.12888877
964,1747638586660,0.16754027,0.6171092,-0.7293414,0.42629504,-0.35520768,-0.12888877
965,1747638586670,0.103847525,0.6254176,-0.64965685,0.25403611000000004,-0.244338905,-0.07757760050000001
966,1747638586680,0.04015478,0.633726,-0.5699723,0.08177718,-0.13347013,-0.026266431
967,1747638586690,0.024788031,0.636653,-0.51774365,0.09857547,-0.25136364,0.13927318
968,1747638586700,0.018080323,0.63421383,-0.516889925,0.15370444,-0.30725617,0.1731752
969,1747638586710,0.011372615,0.63177466,-0.5160362,0.20883341,-0.3631487,0.20707722
970,1747638586720,-0.028172374,0.6012546,-0.5394522,0.4512634,-0.60932016,0.35368055
971,1747638586730,-0.028172374,0.6012546,-0.5394522,0.4512634,-0.60932016,0.35368055
972,1747638586740,0.022836698,0.6200362,-0.61314553,0.59267455,-0.84999394,0.48928866
973,1747638586750,0.022104949,0.6264085,-0.6963821,0.52166355,-0.8915316,0.49784052
974,1747638586760,-0.007668130500000002,0.63177465,-0.73737535,0.42041562499999996,-0.8377770250000001,0.51036289
975,1747638586770,-0.03744121,0.6371408,-0.7783686,0.3191677,-0.78402245,0.52288526
976,1747638586780,-0.100890035,0.6404337,-0.786311125,0.035352785,-0.570836765,0.60260081
977,1747638586790,-0.16433886,0.6437266,-0.79425365,-0.24846213,-0.35765108,0.68231636
978,1747638586800,-0.27879676,0.623451,-0.7388541,-0.8217423,0.15675868,0.96452785
979,1747638586810,-0.28930043,0.62871045,-0.720179225,-0.875955,0.177222065,1.037218625
980,1747638586820,-0.2998041,0.6339699,-0.70150435,-0.9301677,0.19768545,1.1099094
981,1747638586830,-0.32980585,0.6857108,-0.6495196,-0.81487024,-0.0045813546,1.3298144
982,1747638586840,-0.341285175,0.7002238,-0.6445193,-0.62512581,-0.1453816423,1.40525405
983,1747638586850,-0.3527645,0.7147368,-0.639519,-0.43538138,-0.28618193,1.4806937
984,1747638586860,-0.46941763,0.80212,-0.7947415,0.061199260000000005,-0.39979953999999995,1.58239985
985,1747638586870,-0.49199516499999996,0.81956005,-0.8563609649999999,0.20576007999999998,-0.372616835,1.650051175
986,1747638586880,-0.5145727,0.8370001,-0.91798043,0.3503209,-0.34543413,1.7177025
987,1747638586890,-0.56018513,0.9673125,-1.1864412,0.072996244,-0.15912572,1.955322
988,1747638586900,-0.557989865,1.0124676,-1.1993688,-0.19928892800000003,-0.148435885,2.0145743
989,1747638586910,-0.5557946,1.0576227,-1.2122964,-0.4715741,-0.13774605,2.0738266
990,1747638586920,-0.43865365,1.0957042,-1.1708001,-1.2815576,-0.0387888,2.0671072
991,1747638586930,-0.37630245,1.12657485,-0.94139642,-1.5890428,0.19596743500000002,1.9075233
992,1747638586940,-0.31395125,1.1574455,-0.71199274,-1.896528,0.43072367,1.7479394
993,1747638586950,-0.3161465,1.198454,-0.53115904,-1.928292,0.55075514,1.6389031
994,1747638586960,-0.3049187,1.2021127999999999,-0.46472224500000003,-1.498541915,0.3708415525,1.38402715
995,1747638586970,-0.2936909,1.2057715999999998,-0.39828545000000004,-1.0687918299999999,0.19092796499999998,1.1291512
996,1747638586980,-0.21217702,1.1652509,-0.38791898,-0.15126105,-0.4456131,0.7550072
997,1747638586990,-0.18911165,1.13120925,-0.45197759,0.14064757500000002,-0.58397,0.56778252
998,1747638587000,-0.16604628,1.0971676,-0.5160362,0.4325562,-0.7223269,0.38055784
999,1747638587010,-0.15872878,1.0572568,-0.6160877499999999,0.61760475,-0.72660285,0.132553855
1000,1747638587020,-0.15141128,1.017346,-0.7161393,0.8026533,-0.7308788,-0.11545013
