id,timestamp,acc_x,acc_y,acc_z,gyro_x,gyro_y,gyro_z
0,1747638491420,0.11336028,0.95292145,0.4911567,0.9091698,-1.4003674,0.14660335
1,1747638491430,0.14144118,0.92901766,0.48603445,0.83945686,-1.3661599,0.14232741
2,1747638491440,0.13985572000000002,0.89875673,0.46748155,0.782419,-1.3606622499999999,0.145992495
3,1747638491450,0.13827026,0.8684958,0.44892865,0.72538114,-1.3551646,0.14965758
4,1747638491460,0.1829375,0.7520866,0.49018103,0.65498096,-1.00576,0.19974706
5,1747638491470,0.171702095,0.690223225,0.5005475,0.723854005,-0.94711865,0.19363859
6,1747638491480,0.16046669,0.62835985,0.51091397,0.79272705,-0.8884773,0.18753012
7,1747638491490,0.09994486,0.48630884,0.5426536,1.3746355,-0.9385668,0.2932067
8,1747638491500,0.014040455000000007,0.133178495,0.45309046499999994,2.04943075,-1.4339639499999999,0.40438090000000004
9,1747638491510,-0.07186395,-0.21995185,0.36352733,2.724226,-1.9293611,0.5155551
10,1747638491520,-0.07186395,-0.21995185,0.36352733,3.0120877999999998,-2.35821405,0.5531222
11,1747638491530,-0.07186395,-0.21995185,0.36352733,3.2999496,-2.787067,0.5906893
12,1747638491540,0.038447365,-0.70732784,-0.5062795,3.3180459,-3.5854445,0.65482825
13,1747638491550,0.019284661667999997,-0.84533897,-0.786555,2.5226846,-2.9837216499999997,0.7513421250000001
14,1747638491560,0.000121958336,-0.9833501,-1.0668305,1.7273233,-2.3819988,0.847856
15,1747638491570,-0.41987208,-0.9589279,-0.8759962,-0.45156884,-1.2769762,1.7751222
16,1747638491580,-0.41316434999999996,-0.96673323,-0.72359405,-0.74878417,-1.3154596,2.1441121
17,1747638491590,-0.40645662,-0.97453856,-0.5711919,-1.0459995,-1.353943,2.513102
18,1747638491600,0.544361,-1.3916361,0.061131615,-0.6946097,-3.2079408,4.467202
19,1747638491610,0.7580168,-1.3932215499999998,0.0516188665,-0.32978117,-3.48251665,4.62205185
20,1747638491620,0.9716726,-1.394807,0.042106118,0.03504736,-3.7570925,4.7769017
21,1747638491630,1.3880383,-1.2454386,-0.32886064,0.6606313,-3.975165,5.094008
22,1747638491640,1.62073475,-1.1346394,-0.50140122,0.24067382000000004,-3.7158603,5.4605165
23,1747638491650,1.8534312,-1.0238402,-0.6739418,-0.17928366,-3.4565556,5.827025
24,1747638491660,2.0472078,-0.961489,-0.6529497,-0.53010088,-3.2913214,6.0078356500000005
25,1747638491670,2.2409844,-0.8991378,-0.6319576,-0.8809181,-3.1260872,6.1886463
26,1747638491680,2.6434164,-0.7744354,-0.5716797,-1.8283040000000002,-2.6263759,6.268667199999999
27,1747638491690,3.12161505,-0.27829366,-0.368512355,-2.6708723,-2.0976685,6.0426538
28,1747638491700,3.5998137,0.21784808,-0.16534501,-3.5134406,-1.5689611,5.8166404
29,1747638491710,3.60373175,0.53146395,0.429034185,-4.1913283,-1.0344698,5.26779415
30,1747638491720,3.433378775,0.62383215,0.7830868925000001,-4.0131519,-0.9715525500000001,4.932248075
31,1747638491730,3.2630258,0.71620035,1.1371396,-3.8349755,-0.9086353,4.596702
32,1747638491740,2.4986825,1.2677569,1.2110767,-1.5762913,-1.9806722,4.257071
33,1747638491750,2.53760245,1.34401135,1.0481861000000001,-1.27563995,-2.17858675,4.2317207
34,1747638491760,2.5765224,1.4202658,0.8852955,-0.9749886,-2.3765013,4.2063704
35,1747638491770,2.5579846,1.6721402,0.5958579,-0.79929364,-2.1480443,3.4892359
36,1747638491780,2.4161928,1.75084905,0.598541,-0.8665632000000001,-1.729614,2.9984201500000003
37,1747638491790,2.274401,1.8295579,0.6012241,-0.93383276,-1.3111837,2.5076044
38,1747638491800,1.93761305,1.8916651999999998,0.67711265,-0.93383276,-1.3111837,2.5076044
39,1747638491810,1.6008251,1.9537725,0.7530012,-0.93383276,-1.3111837,2.5076044
40,1747638491820,1.5822874,1.9815791,0.7434885,-0.9613209,-1.0961654,2.0616095
41,1747638491830,1.5017645,2.000879,0.9919481,-1.07784,-0.793796,0.7666133
42,1747638491840,1.4333000999999999,2.00112295,1.03830755,-0.99621555,-0.773332625,0.48318018
43,1747638491850,1.3648357,2.0013669,1.084667,-0.9145911,-0.75286925,0.19974706
44,1747638491860,1.2350111,1.99818065,1.1489695,-0.7217160499999999,-0.67987299,-0.11029609999999998
45,1747638491870,1.1051865,1.9949944,1.213272,-0.528841,-0.60687673,-0.42033926
46,1747638491880,1.1896122,1.9113005,1.1947343,0.06681142,-0.09926268,-1.1741248
47,1747638491890,1.26685745,1.87750285,1.1902219,0.17210620999999998,0.007941014999999996,-1.3375264
48,1747638491900,1.3441027,1.8437052,1.1857095,0.277401,0.11514471,-1.500928
49,1747638491910,1.62951585,1.77950935,1.184124,0.58396998,0.435610445,-2.03205985
50,1747638491920,1.778929975,1.760354325,1.1677053499999999,0.78803114,0.5964159725,-2.406051025
51,1747638491930,1.9283441,1.7411993,1.1512867,0.9920923,0.7572215,-2.7800422
52,1747638491940,2.30978415,1.62296055,0.9771759250000001,1.4600013,1.351576,-3.8289433
53,1747638491950,2.420956825,1.558353125,0.9311137625000001,1.56189825,1.4111335500000002,-4.0488484
54,1747638491960,2.5321295,1.4937457,0.8850516,1.6637952,1.4706911,-4.2687535
55,1747638491970,2.8169327,1.119364,0.6341528,1.9553984,1.5763677,-5.109279
56,1747638491980,2.8518280000000003,0.97318175,0.523841515,2.0095729,1.7168626,-5.43948025
57,1747638491990,2.8867233,0.8269995,0.41353023,2.0637474,1.8573575,-5.7696815
58,1747638492000,2.9181886,0.6036937,0.36889347,2.2101982,2.0534394,-6.4300075
59,1747638492010,2.7964132,0.27887295,0.246858915,2.2775059,2.0418333,-6.584857250000001
60,1747638492020,2.6746378,-0.0459478,0.12482436,2.3448136,2.0302272,-6.739707
61,1747638492030,2.4425511,-0.28388852,0.042837866,2.5124147,1.603245,-7.1495852
62,1747638492040,2.379956,-0.37627195,0.008796245000000001,2.5152017,1.5155884,-7.1611914500000005
63,1747638492050,2.3173609,-0.46865538,-0.025245376,2.5179887,1.4279318,-7.1727977
64,1747638492060,2.1778862500000002,-0.62093564,-0.0384321215,2.48840085,1.3381373,-7.1550832
65,1747638492070,2.0384116,-0.7732159,-0.051618867,2.458813,1.2483428,-7.1373687
66,1747638492080,1.8121789,-0.9338045,-0.10531103,2.4382732,1.1206757,-6.9571686
67,1747638492090,1.64524845,-1.0266605500000001,-0.140450275,2.4015078499999998,1.14236075,-6.80812195
68,1747638492100,1.478318,-1.1195166,-0.17558952,2.3647425,1.1640458,-6.6590753
69,1747638492110,1.0956737,-1.3123022,-0.24220926,2.2401297,0.80914354,-6.1508503
70,1747638492120,0.94203667,-1.36233555,-0.26161588,2.1142569,0.64787987,-5.85791085
71,1747638492130,0.78839964,-1.4123689,-0.2810225,1.9883841,0.4866162,-5.5649714
72,1747638492140,0.338007535,-1.40444175,-0.39755369500000004,1.7864991,0.38032877,-5.029869
73,1747638492150,0.1331937525,-1.3865596249999999,-0.4425105675,1.6138966,0.346121325,-4.6004433
74,1747638492160,-0.07162003,-1.3686775,-0.48746744,1.4412941,0.31191388,-4.1710176
75,1747638492170,-0.6111942,-1.4436208,-0.68589365,0.7359946,0.27037627,-2.4428546
76,1747638492180,-0.685512575,-1.49010215,-0.701504345,0.5889331200000001,0.18054354499999997,-2.0650455
77,1747638492190,-0.75983095,-1.5365835,-0.71711504,0.44187164,0.09071082,-1.6872364
78,1747638492200,-0.7889941899999999,-1.53646155,-0.708212045,0.200739682,-0.13957858999999997,-1.0831085
79,1747638492210,-0.81815743,-1.5363396,-0.69930905,-0.040392276,-0.369868,-0.4789806
80,1747638492220,-0.6951625,-1.4094421,-0.6604958,-0.8497649,-0.63802993,1.3145432
81,1747638492230,-0.6951625,-1.4094421,-0.6604958,-1.03202645,-0.624591315,1.6560068499999998
82,1747638492240,-0.6951625,-1.4094421,-0.6604958,-1.214288,-0.6111527,1.9974705
83,1747638492250,-0.6346407,-1.3323338,-0.59729093,-1.4865732,-0.5763344,2.5338707
84,1747638492260,-0.46027076499999997,-1.4088322,-0.51797229,-1.8192941,-0.6682669,3.23817765
85,1747638492270,-0.28590083,-1.4853306,-0.43865365,-2.152015,-0.7601994,3.9424846
86,1747638492280,0.068479605,-1.5812508,-0.29785275,-2.429263,-1.1285403,4.5741005
87,1747638492290,0.31026201499999995,-1.5801608,-0.11859686124999999,-2.4613707500000004,-1.36524365,5.07533875
88,1747638492300,0.552044425,-1.5790708,0.060659027500000004,-2.4934785,-1.601947,5.576577
89,1747638492310,0.95362276,-1.5056062,0.15119785,-1.7482449,-2.1767542,6.932658
90,1747638492320,1.08504813,-1.4680125,0.112033978,-1.55697335,-2.1865277,7.226475499999999
91,1747638492330,1.2164735,-1.4304188,0.072870106,-1.3657018,-2.1963012,7.520293
92,1747638492340,2.0262158,-1.3938313,-0.019879209,-0.84915406,-2.1028416,8.293092
93,1747638492350,2.64340125,-1.0858408,-0.1736229295,-0.7576987625,-2.232799425,8.25140125
94,1747638492360,3.2605867,-0.7778503,-0.32736665,-0.666243465,-2.36275725,8.2097105
95,1747638492370,3.5734706,-0.47231415,-0.45136783,-0.69583136,-2.438197,8.103118
96,1747638492380,3.5561372,-0.34698671,-0.4157255,-1.04073098,-2.17950305,7.8657655
97,1747638492390,3.5388038,-0.22165927,-0.38008317,-1.3856306,-1.9208091,7.628413
98,1747638492400,3.45582665,0.06424156500000003,-0.08479154,-1.5223840499999999,-1.59095165,7.9219635
99,1747638492410,3.3728495,0.3501424,0.21050009,-1.6591375,-1.2610942,8.215514
100,1747638492420,3.7435722,0.5287808,0.3662104,-1.4211361,-1.413806,8.282096
101,1747638492430,3.8980476,0.72975292,0.45162694999999997,-1.1634731,-1.3579134499999999,7.9234905
102,1747638492440,4.052523,0.93072504,0.5370435,-0.9058101,-1.3020209,7.564885
103,1747638492450,3.9963918,1.6250339,0.7373906,0.37399122,-1.3313416,5.2894793
104,1747638492460,3.7556459,1.74180895,0.66662425,0.624476775,-1.2504043500000002,4.8196996500000004
105,1747638492470,3.5149,1.858584,0.5958579,0.87496233,-1.1694671,4.34992
106,1747638492480,3.1102731,2.0274658,0.43014705,1.0650122,-0.83533365,3.2424536
107,1747638492490,3.1102731,2.0274658,0.43014705,1.0650122,-0.83533365,3.2424536
108,1747638492500,2.15201575,2.4035397,0.20318259500000002,0.8244911,-0.5934381,2.7873724
109,1747638492510,2.060684225,2.4906712,0.30238044750000004,0.5867569850000001,-0.35123717,2.29926725
110,1747638492520,1.9693527,2.5778027,0.4015783,0.34902287,-0.10903624,1.8111621
111,1747638492530,2.01229735,2.5887789999999997,0.49896205000000005,0.40667157,-0.15729317,1.16824537
112,1747638492540,2.055242,2.5997553,0.5963458,0.46432027,-0.2055501,0.52532864
113,1747638492550,1.8417233,2.4787116,0.49579114,0.48050773,0.051005747,-1.4966521
114,1747638492560,1.8152431500000001,2.4196533000000002,0.50932852,0.467756285,0.1255672935,-1.7419072999999998
115,1747638492570,1.788763,2.360595,0.5228659,0.45500484,0.20012884,-1.9871625
116,1747638492580,1.8131545999999998,2.17340425,0.5859641,0.54128705,0.44843824499999996,-2.7635493
117,1747638492590,1.8869850499999998,2.067978875,0.5788219,0.661394875,0.5603759975,-3.14506165
118,1747638492600,1.9608155,1.9625535,0.5716797,0.7815027,0.67231375,-3.526574
119,1747638492610,2.331264,1.7224176,0.5189632,0.96406966,0.7132405,-4.1429186
120,1747638492620,2.56578995,1.62125315,0.47248184,1.0780690800000001,0.7511130500000001,-4.544856299999999
121,1747638492630,2.8003159,1.5200887,0.42600048,1.1920685,0.7889856,-4.946794
122,1747638492640,3.7250347,0.99856436,0.11653119,1.4687059,0.68758494,-6.395189
123,1747638492650,3.7250347,0.99856436,0.11653119,1.4687059,0.68758494,-6.395189
124,1747638492660,3.7794278,0.75306225,-0.023294043,1.370894,0.7321768,-7.187458
125,1747638492670,3.6022527,0.45679495,-0.1299466,1.228872,0.7957049,-7.6779685
126,1747638492680,3.37762085,0.151975335,-0.10944235999999999,1.026509745,0.8118923575,-7.900775
127,1747638492690,3.152989,-0.15284428,-0.08893812,0.82414749,0.8280798149999999,-8.1235815
128,1747638492700,2.9823997,-0.47280195,-0.0064637917,0.79830104,0.8005917,-8.109226
129,1747638492710,2.91808185,-0.6403422249999999,0.04381353415,0.85190287,0.6686487,-8.01759925
130,1747638492720,2.853764,-0.8078825,0.09409086,0.9055047,0.5367057,-7.9259725
131,1747638492730,2.6070423,-1.0038391,0.11409202,0.9590302,0.62955445,-7.714619
132,1747638492740,2.51028365,-1.09047525,0.15924709,1.0098069,0.635662925,-7.61718885
133,1747638492750,2.413525,-1.1771114,0.20440216,1.0605836,0.6417714,-7.5197587
134,1747638492760,2.17361775,-1.28315415,0.23356544,1.16839815,0.643909375,-7.46386635
135,1747638492770,1.9337105,-1.3891969,0.26272872,1.2762127,0.64604735,-7.407974
136,1747638492780,1.0451524,-1.5802752,0.0064637917,1.996478,0.25144,-6.736042
137,1747638492790,0.86820613,-1.5712502499999998,-0.08444090415,1.98742975,0.0947195015,-6.518580200000001
138,1747638492800,0.69125986,-1.5622253,-0.1753456,1.9783815,-0.062000997,-6.3011184
139,1747638492810,0.3459348,-1.5465841,-0.363009,1.7254144,-0.17012095,-5.7916718
140,1747638492820,0.061878600000000006,-1.58747065,-0.44976710000000003,1.28739875,-0.03756709999999999,-5.1923926
141,1747638492830,-0.2221776,-1.6283572,-0.5365252,0.8493831,0.09498675,-4.5931134
142,1747638492840,-1.014602,-1.7623284,-0.251722,-0.09086353,0.08460235,-2.5479202
143,1747638492850,-1.04608245,-1.766597,-0.194005215,-0.14007491,-0.04001049499999999,-2.0974204
144,1747638492860,-1.0775629,-1.7708656,-0.13628843,-0.18928629,-0.16462334,-1.6469206
145,1747638492870,-0.78934485,-1.760621,-0.120189935,-0.27404135,-0.5714476,0.40132666
146,1747638492880,-0.726383875,-1.7079045499999999,-0.16815005249999998,-0.340394625,-0.49387000000000003,0.8347227799999999
147,1747638492890,-0.6634229,-1.6551881,-0.21611017,-0.4067479,-0.4162924,1.2681189
148,1747638492900,-0.6129016,-1.6053985,-0.27614418,-0.57496,-0.2776301,1.8508672
149,1747638492910,-0.5839212500000001,-1.55830735,-0.3466055975,-0.7765396,-0.317029735,2.3542435
150,1747638492920,-0.5549409000000001,-1.5112162,-0.417067015,-0.9781192,-0.35642937,2.8576198
151,1747638492930,-0.30687764,-1.5961298,-0.5514041,-1.8454459,-0.5360185,4.4953012
152,1747638492940,-0.253185495,-1.6261468,-0.54798927,-2.00743495,-0.5317425499999999,4.7539951
153,1747638492950,-0.19949335,-1.6561638,-0.54457444,-2.169424,-0.5274666,5.012689
154,1747638492960,0.044057445,-1.7247501,-0.40314852,-2.43518075,-0.6700994499999999,5.62907215
155,1747638492970,0.28760824,-1.7933364,-0.2617226,-2.7009375,-0.8127323,6.2454553
156,1747638492980,0.83087164,-1.7581818,0.014269125,-2.4267435,-1.3172921,7.126908
157,1747638492990,1.18827052,-1.6561789500000001,0.01097625,-1.93016285,-1.5213151,7.564007
158,1747638493000,1.5456694,-1.5541761,0.007683375,-1.4335822,-1.7253381,8.001106
159,1747638493010,1.8812379,-1.4428891,-0.03524596,-1.0728005,-1.88538,8.204518
160,1747638493020,2.2729374499999997,-1.15491498,-0.15959773000000002,-0.67685694,-2.00480065,8.2029915
161,1747638493030,2.664637,-0.86694086,-0.2839495,-0.28091338,-2.1242213,8.201465
162,1747638493040,3.0220513,-0.47766505000000004,-0.46819805999999997,-0.11766446,-2.0784078,8.098231
163,1747638493050,3.06494245,-0.2184959715,-0.54800453,-0.27591208,-1.7409146500000001,8.09029
164,1747638493060,3.1078336,0.040673107,-0.627811,-0.4341597,-1.4034215,8.082349
165,1747638493070,3.672806,0.5085053,-0.29224268,-1.2155097,-0.79257435,8.36395
166,1747638493080,3.7729795,0.64432115,-0.1605734025,-1.21455525,-0.837471605,8.195356
167,1747638493090,3.873153,0.780137,-0.028904125,-1.2136008,-0.88236886,8.026762
168,1747638493100,3.9285524,1.1027778,0.34813008,-0.5351022,-1.0845593,7.0108466
169,1747638493110,3.70841755,1.29582255,0.278461375,0.20199955000000003,-1.23513315,6.16390705
170,1747638493120,3.4882827,1.4888673,0.20879267,0.9391013,-1.385707,5.3169675
171,1747638493130,3.39810985,1.5297386,0.1191075595,1.0169843,-1.34478025,5.05915175
172,1747638493140,3.307937,1.5706099,0.029422449,1.0948673,-1.3038535,4.801336
173,1747638493150,3.0094744,1.8289328999999999,-0.160573395,0.88023085,-1.0805888000000001,3.8566605000000003
174,1747638493160,2.8348605,1.8626773,-0.1784479125,0.444238644,-0.8144121000000001,3.2786462500000004
175,1747638493170,2.6602466,1.8964217,-0.19632243,0.008246438,-0.5482354,2.700632
176,1747638493180,2.3517835,1.900812,0.019177949,-0.49394637,-0.26052636,2.0182393
177,1747638493190,2.0800299,1.9361952,0.30751792450000004,-0.55594736,-0.185697567,1.5503303
178,1747638493200,1.8082763,1.9715784,0.5958579,-0.61794835,-0.110868774,1.0824213
179,1747638493210,1.5398154,2.0762796,0.73104876,0.4182013,-0.3594836,0.0012216945
180,1747638493220,1.5714179,2.08188975,0.65465708,0.5219689750000001,-0.30695075,-0.29263402275
181,1747638493230,1.6030204,2.0874999,0.5782654,0.62573665,-0.2544179,-0.58648974
182,1747638493240,1.5513101,2.0135627,0.42917135,0.6244386,-0.073607095,-1.0818869
183,1747638493250,1.5513101,2.0135627,0.42917135,0.5260158,0.13049224,-1.5644562
184,1747638493260,1.4912456,1.9322774,0.43868414,0.21135315,0.6124507,-2.7232335
185,1747638493270,1.53127835,1.8493,0.47455512,0.21135315,0.6124507,-2.7232335
186,1747638493280,1.5713111,1.7663226,0.5104261,0.21135315,0.6124507,-2.7232335
187,1747638493290,1.8304727,1.5547553,0.5760702,0.37834352,0.7456154,-3.3958526
188,1747638493300,2.09771395,1.4031916,0.49236106,0.57026411,0.88305605,-3.8952203
189,1747638493310,2.3649552,1.2516279,0.40865192,0.7621847,1.0204967,-4.394588
190,1747638493320,2.499414,1.1779346,0.33422682,0.8438091,1.139001,-4.6633606
191,1747638493330,2.72381735,1.09032275,0.28260796,0.9325729,1.1774844,-5.0484998
192,1747638493340,2.9482207,1.0027109,0.2309891,1.0213367,1.2159678,-5.433639
193,1747638493350,3.46755,0.5685698,0.0086590415,0.9746068,1.1133455,-6.571724
194,1747638493360,3.4341181499999998,0.45874631,-0.03989561925000001,0.9456297499999999,1.1448041,-6.83408285
195,1747638493370,3.4006863,0.34892282,-0.08845028,0.9166527,1.1762627,-7.0964417
196,1747638493380,3.0431652,-0.017897386,-0.21046959,0.6736882,1.267279,-7.6156616
197,1747638493390,2.9734813,-0.086102583,-0.21682667,0.59393443,1.247121,-7.64101195
198,1747638493400,2.9037974,-0.15430778,-0.22318375,0.51418066,1.226963,-7.6663623
199,1747638493410,2.5379834,-0.6658315,-0.039392542,0.12224581,1.358906,-7.5936713
200,1747638493420,2.4563476,-0.7516139500000001,0.05517090399999999,0.198258115,1.3295853499999999,-7.53747345
201,1747638493430,2.3747118,-0.8373964,0.14973435,0.27427042,1.3002647,-7.4812756
202,1747638493440,2.26964465,-0.9392926,0.22257396499999998,0.7369108600000001,1.07150245,-7.30657315
203,1747638493450,2.1645775,-1.0411888,0.29541358,1.1995513,0.8427402,-7.1318707
204,1747638493460,1.9674015,-1.1309806,0.07823627,1.66998,0.57885414,-6.9223504
205,1747638493470,1.6777199,-1.1545338,-0.07674228,1.74629775,0.5535039900000001,-6.7723872
206,1747638493480,1.3880383,-1.178087,-0.23172083,1.8226155,0.52815384,-6.622424
207,1747638493490,0.7988881,-1.2010152,-0.3766683,1.5970602,0.5782433,-6.1129775
208,1747638493500,0.6575841,-1.25080465,-0.41975008999999996,1.3976949,0.51563145,-5.71313975
209,1747638493510,0.5162801,-1.3005941,-0.46283188,1.1983296,0.4530196,-5.313302
210,1747638493520,0.036496032,-1.4084663,-0.4547826,0.6200863,0.6710921,-4.1710176
211,1747638493530,-0.06282378400000001,-1.42579965,-0.44635223999999996,0.54502845,0.7285117249999999,-3.9349252
212,1747638493540,-0.1621436,-1.443133,-0.43792188,0.4699706,0.78593135,-3.6988328
213,1747638493550,-0.845964,-1.5885683,-0.4032857,0.39643988,0.5898494,-2.1795793
214,1747638493560,-0.9246728500000001,-1.62811325,-0.46234403,0.41354359,0.34547231,-1.67685205
215,1747638493570,-1.0033817,-1.6676582,-0.52140236,0.4306473,0.10109522,-1.1741248
216,1747638493580,-0.9877711,-1.6117709,-0.7056509,0.18707198,-0.6679615,0.7831062
217,1747638493590,-0.8789232499999999,-1.5385501499999998,-0.74237563,-0.07494332000000001,-0.8716790999999999,1.5222314
218,1747638493600,-0.7700754,-1.4653294,-0.77910036,-0.33695862,-1.0753967,2.2613566
219,1747638493610,-0.7257893,-1.39822185,-0.777636855,-0.46657278,-1.10105225,2.5320000499999997
220,1747638493620,-0.6815032,-1.3311143,-0.77617335,-0.59618694,-1.1267078,2.8026435
221,1747638493630,-0.4176768,-1.2932767,-0.6568371,-1.5139849,-0.99109966,4.5001884
222,1747638493640,-0.226827255,-1.33073315,-0.53933025,-1.6737978500000001,-1.02561258,4.838635699999999
223,1747638493650,-0.03597771,-1.3681896,-0.4218234,-1.8336108,-1.0601255,5.177083
224,1747638493660,0.3618199,-1.4143203,-0.21757366,-1.9594452,-1.3600514,5.630332
225,1747638493670,0.6072000750000001,-1.3863766,-0.1201899345,-1.83857385,-1.6389032000000001,5.800453
226,1747638493680,0.85258025,-1.3584329,-0.022806209,-1.7177025,-1.917755,5.970574
227,1747638493690,1.0763737,-1.0865573,0.008415125,-1.0728005,-1.9281393,6.662664
228,1747638493700,1.14288675,-1.042393135,0.0187968285,-0.9940012,-1.9009566,6.864243500000001
229,1747638493710,1.2093998,-0.99822897,0.029178532,-0.9152019,-1.8737739,7.065823
230,1747638493720,1.7033311,-0.97920346,-0.009390792,-0.62604207,-1.5048223,8.005993
231,1747638493730,2.39739605,-0.7693131799999999,0.037959532,-0.532887875,-1.5536900500000002,8.1174725
232,1747638493740,3.091461,-0.5594229,0.085309856,-0.43973368,-1.6025578,8.228952
233,1747638493750,3.2264229999999996,-0.256935731,-0.01243975,-0.306721685,-1.7977235,7.8911155
234,1747638493760,3.361385,0.045551438,-0.110189356,-0.17370969,-1.9928892,7.553279
235,1747638493770,3.4416947,0.6468975,-0.31370735,-0.6715502,-1.4144168,7.3315415
236,1747638493780,3.308318,0.78185967,-0.05855525,-0.7936814649999999,-0.89702918,7.13026725
237,1747638493790,3.1749413,0.91682184,0.19659685,-0.91581273,-0.37964156,6.928993
238,1747638493800,2.6931753,1.0134434,0.5921992,-0.61298525,-0.19699824,6.8074346
239,1747638493810,2.73552535,1.0788587500000002,0.544117135,-0.007979225000000034,-0.45111069,6.75490165
240,1747638493820,2.7778754,1.1442741,0.49603507,0.5970268,-0.70522314,6.7023687
241,1747638493830,3.436786,1.7973305,-0.044057447,1.1715287,-0.777914,5.377441
242,1747638493840,3.3828651,1.9255697500000002,-0.1203119035,1.05814015,-0.7327113000000001,4.8218372
243,1747638493850,3.3289442,2.053809,-0.19656636,0.9447516,-0.6875086,4.2662334
244,1747638493860,2.96494435,2.2499027500000004,-0.17705302,0.535980275,-0.54518118,3.51122625
245,1747638493870,2.6009445,2.4459965,-0.15753968,0.12720895,-0.40285376,2.7562191
246,1747638493880,2.3401823,2.6323487500000002,0.11360419100000001,-0.15691139,-0.3423799,2.3707745
247,1747638493890,2.3234054,2.663524375,0.17851651550000003,-0.30924142499999996,-0.256555855,2.00758765
248,1747638493900,2.3066285,2.6947,0.24342884,-0.46157146,-0.17073181,1.6444008
249,1747638493910,2.4959993,2.5511854,0.4679541,-0.27839363,0.17691664,-0.80150795
250,1747638493920,2.29856405,2.4746870000000003,0.5010353,-0.173098838,0.33146098999999996,-1.470996475
251,1747638493930,2.1011288,2.3981886,0.5341165,-0.067804046,0.48600534,-2.140485
252,1747638493940,1.923222,2.3090982,0.5296955,0.09544489,0.5293755,-2.6028965
253,1747638493950,1.99252485,2.23490175,0.46014877499999995,0.307905215,0.6121453,-3.0451881
254,1747638493960,2.0618277,2.1607053,0.39060205,0.52036554,0.6949151,-3.4874797
255,1747638493970,2.6558561,1.7768414,0.13631892,0.80082077,1.0528716,-4.8203483
256,1747638493980,2.75920055,1.6842141,0.079577809,0.814832065,1.065394,-5.1034761500000005
257,1747638493990,2.862545,1.5915868,0.022836698,0.82884336,1.0779164,-5.386604
258,1747638494000,3.0856068,1.2550733,-0.11653119,0.7547018,1.2599488,-6.2876797
259,1747638494010,3.10147665,1.036889815,-0.10970152,0.747524325,1.2468156000000001,-6.69450405
260,1747638494020,3.1173465,0.81870633,-0.10287185,0.74034685,1.2336824,-7.1013284
261,1747638494030,2.9621239,0.38575423,-0.12726352,0.86060745,0.96613127,-7.6529236
262,1747638494040,2.9162524,0.219204872,-0.15569506,0.893936775,0.884583185,-7.74546695
263,1747638494050,2.8703809,0.052655514,-0.1841266,0.9272661,0.8030351,-7.8380103
264,1747638494060,2.7576303,-0.4305739,-0.37105823,0.707972,0.5843518,-7.921696
265,1747638494070,2.7080848,-0.54051935,-0.35752085,0.500474815,0.6607077,-7.8722175
266,1747638494080,2.6585393,-0.6504648,-0.34398347,0.29297763,0.7370636,-7.822739
267,1747638494090,2.5985053,-0.78224075,-0.25050244,-0.06154286,0.991176,-7.6657515
268,1747638494100,2.4416974,-0.9164711249999999,-0.08247433500000001,-0.03256579385,1.0232455,-7.5848141
269,1747638494110,2.2848895,-1.0507015,0.08555377,-0.0035887277,1.055315,-7.5038767
270,1747638494120,1.718454,-1.3086435,0.23635526,0.8867975,0.7413395,-7.0842247
271,1747638494130,1.55349005,-1.36940925,0.16949160000000002,1.11139845,0.6481852800000001,-6.9987061
272,1747638494140,1.3885261,-1.430175,0.10262794,1.3359994,0.55503106,-6.9131875
273,1747638494150,0.7740086,-1.5282904,-0.2587956,1.6139348,0.00335966,-6.3817506
274,1747638494160,0.459310345,-1.54830675,-0.41572545,1.28087035,-0.07238539999999999,-5.7824713
275,1747638494170,0.14461209,-1.5683231,-0.5726553,0.9478059,-0.14813046,-5.183192
276,1747638494180,-0.05430195,-1.5231681,-0.5287199,0.50417805,-0.06627693,-4.5082054
277,1747638494190,-0.18406561250000003,-1.614812175,-0.456970265,-0.0047149775000000504,0.08968000999999999,-3.43918455
278,1747638494200,-0.313829275,-1.70645625,-0.38522062999999995,-0.513608005,0.24563695,-2.3701637
279,1747638494210,-0.3871109875,-1.776376475,-0.2932107,-0.6598868525,0.20852798,-1.6554724
280,1747638494220,-0.4603927,-1.8462967,-0.20120077,-0.8061657,0.17141901,-0.9407811
281,1747638494230,-0.63220155,-1.9192583,-0.14970385,-0.6939988,-0.031458635,-0.28831992
282,1747638494240,-0.7251794899999999,-1.9068185500000001,-0.18302897,-0.4827602,-0.3490991975,0.35184802
283,1747638494250,-0.81815743,-1.8943788,-0.21635409,-0.2715216,-0.66673976,0.99201596
284,1747638494260,-0.86672735,-1.8636148,-0.35739893,-0.14507623,-0.9037485,1.6419574
285,1747638494270,-0.786920905,-1.7786860999999998,-0.536037385,-0.35035909,-0.9935430999999999,2.8117681
286,1747638494280,-0.70711446,-1.6937574,-0.71467584,-0.55564195,-1.0833377,3.9815788
287,1747638494290,-0.2648935,-1.6203079,-0.64854395,-1.2890404,-1.1951227,5.753723
288,1747638494300,0.051999985000000026,-1.6088286,-0.55471225,-1.415524,-1.3478345,6.12847775
289,1747638494310,0.36889347,-1.5973493,-0.46088055,-1.5420076,-1.5005463,6.5032325
290,1747638494320,0.78376526,-1.5451206,-0.3854798,-1.5793456,-1.9489082,7.0395565
291,1747638494330,1.06088513,-1.4276138,-0.36314618,-1.5606765999999999,-1.95837635,7.1333215
292,1747638494340,1.338005,-1.310107,-0.34081256,-1.5420076,-1.9678445,7.2270865
293,1747638494350,1.8224233,-0.8847468,-0.20754258,-1.4198381,-2.1040633,7.5917625
294,1747638494360,1.9529874,-0.79005375,-0.11322306,-1.2737501500000001,-1.9266122,7.836597825
295,1747638494370,2.0835515,-0.6953606999999999,-0.018903539999999996,-1.1276622,-1.7491611,8.08143315
296,1747638494380,2.3595889,-0.57454574,0.11726294,-0.6316924,-1.6838005,8.436029
297,1747638494390,2.8959920500000003,-0.28303481750000004,0.015381996999999994,-0.285876505,-1.8423153499999998,8.496808999999999
298,1747638494400,3.4323952,0.008476105,-0.086498946,0.05993939,-2.0008302,8.557589
299,1747638494410,3.64850545,0.1979688675,-0.063555535,0.151833725,-1.9898349,8.345319
300,1747638494420,3.8646157,0.38746163,-0.040612124,0.24372806,-1.9788396,8.133049
301,1747638494430,3.81555795,0.788445415,-0.01536675065,0.42759308,-1.8493401,7.6943846
302,1747638494440,3.454241175,0.9903855575,0.016906474675,0.7463026399999999,-1.36310565,7.2108991499999995
303,1747638494450,3.0929244,1.1923257,0.0491797,1.0650122,-0.8768712,6.7274137
304,1747638494460,2.9772468,1.2357733,0.052838445,1.0650122,-0.8768712,6.7274137
305,1747638494470,3.2040894,1.3909958,0.005991202500000001,1.28464995,-0.6865923,6.51850385
306,1747638494480,3.430932,1.5462183,-0.04085604,1.5042877,-0.4963134,6.309594
307,1747638494490,3.2659528,1.9835303,-0.029391957,1.4824499,-0.46454933,4.073206
308,1747638494500,3.05144335,2.07004455,-0.0506279535,1.44568455,-0.44836188499999996,3.6327851
309,1747638494510,2.8369339,2.1565588,-0.07186395,1.4089192,-0.43217444,3.1923642
310,1747638494520,2.3952007,2.300805,-0.080157116,1.0737168,-0.41690326,2.0628312
311,1747638494530,2.30478385,2.3505944999999997,-0.062229240500000005,0.739430625,-0.26388601700000003,1.199093165
312,1747638494540,2.214367,2.400384,-0.044301365,0.40514445,-0.110868774,0.33535513
313,1747638494550,2.0982015,2.4101405,0.0018293752,0.252509,-0.01007898,-0.19302773
314,1747638494560,1.9132213,2.31568385,0.1541248376,0.14377817999999998,0.13992219500000003,-0.8973727650000001
315,1747638494570,1.7282411,2.2212272,0.3064203,0.03504736,0.28992337,-1.6017178
316,1747638494580,1.7355586,2.072377,0.48188788,0.13660072,0.30885965,-2.1905746
317,1747638494590,1.767161,2.0424819,0.50152317,0.24594238000000002,0.285952885,-2.4575148
318,1747638494600,1.7987634,2.0125868,0.52115846,0.35528404,0.26304612,-2.724455
319,1747638494610,2.1260386,1.9373997,0.43307403,0.6562027,0.31557897,-3.566279
320,1747638494620,2.3611667,1.8711458250000002,0.3846870825,0.6828700000000001,0.380634195,-3.9621079999999997
321,1747638494630,2.5962948,1.80489195,0.336300135,0.7095373,0.44568942,-4.357937
322,1747638494640,3.1178343,1.4559081,0.28614473,0.75653434,0.63810635,-5.385993
323,1747638494650,3.16591645,1.3188727,0.286632565,0.80796002,0.662845645,-5.75528835
324,1747638494660,3.2139986,1.1818373,0.2871204,0.8593857,0.68758494,-6.1245837
325,1747638494670,3.1066144,0.60515726,0.086285524,1.2176477,0.49883315,-7.2369366
326,1747638494680,3.1123463,0.46470699000000004,-0.002423917999999997,1.22978825,0.44538401,-7.36552
327,1747638494690,3.1180782,0.32425672,-0.09113336,1.2419288,0.39193487,-7.4941034
328,1747638494700,3.0891589,0.06617763500000001,-0.21707057999999999,1.05096268,0.38216132,-7.69904255
329,1747638494710,3.0602396,-0.19190145,-0.3430078,0.85999656,0.37238777,-7.9039817
330,1747638494720,2.682931,-0.8024858,-0.2502585,-0.007330167,0.4646257,-8.034703
331,1747638494730,2.62667765,-0.8854632250000001,-0.2135338,-0.1051802635,0.47989687999999997,-8.002328
332,1747638494740,2.5704243,-0.96844065,-0.1768091,-0.20303036,0.49516806,-7.969953
333,1747638494750,2.2849046,-1.2395846000000001,-0.09053881999999999,-0.5282302,0.8702283,-7.6859093
334,1747638494760,2.032679525,-1.37514885,-0.05466020125,-0.5492662374999999,0.9387958999999999,-7.47699955
335,1747638494770,1.7804544500000001,-1.5107131,-0.018781582499999998,-0.570302275,1.0073634999999999,-7.2680898
336,1747638494780,1.3628844,-1.7381808,0.046740532,-0.42728767,0.8781693,-6.6089854
337,1747638494790,1.2513535,-1.7984586,-0.010488417,-0.378076285,0.8070056000000001,-6.392440049999999
338,1747638494800,1.1398226,-1.8587364,-0.067717366,-0.3288649,0.7358419,-6.1758947
339,1747638494810,0.8939546,-1.9600076,-0.112262648,-0.29335940000000005,0.7721873,-5.83072785
340,1747638494820,0.6480866,-2.0612788,-0.15680793,-0.2578539,0.8085327,-5.485561
341,1747638494830,-0.007683375,-2.0847254,-0.13628843,-0.10392039,0.6240568,-4.3994746
342,1747638494840,-0.30297498749999996,-2.0891158499999998,-0.20841154,0.00946813199999999,0.4725667,-3.8075636499999996
343,1747638494850,-0.5982666,-2.0935063,-0.28053465,0.122856654,0.3210766,-3.2156527
344,1747638494860,-0.705407,-2.0698464,-0.34105647,0.35650574,-0.283738555,-1.0415709
345,1747638494870,-0.7118708,-2.00272365,-0.507621085,0.29419931,-0.5158604975000001,0.013400499999999926
346,1747638494880,-0.7183346,-1.9356009,-0.6741857,0.23189288,-0.74798244,1.0683719
347,1747638494890,-0.6199752,-1.8291922,-0.76031876,-0.05596888,-0.77363807,2.0170176
348,1747638494900,-0.49929742,-1.73084795,-0.75714785,-0.368417265,-0.862516335,2.73968815
349,1747638494910,-0.37861964,-1.6325037,-0.75397694,-0.68086565,-0.9513946,3.4623587
350,1747638494920,0.12046435,-1.4587437,-0.61951786,-1.3332505,-1.3612732,4.863642
351,1747638494930,0.228565175,-1.44031275,-0.57363103,-1.3905938,-1.44404295,5.079614749999999
352,1747638494940,0.336666,-1.4218818,-0.5277442,-1.4479371,-1.5268127,5.2955875
353,1747638494950,0.5172558,-1.3616039,-0.41499373,-1.4609939,-1.8395665,6.0560923
354,1747638494960,0.62829885,-1.34526145,-0.40621273,-1.4192654,-1.95165695,6.51208965
355,1747638494970,0.7393419,-1.328919,-0.39743173,-1.3775369,-2.0637474,6.968087
356,1747638494980,1.557408,-1.1568663,-0.33569032,-1.352874,-2.2057694,7.79704525
357,1747638494990,1.740437,-1.0962225,-0.31274691,-1.3162804,-2.3262590750000003,8.0470535
358,1747638495000,1.923466,-1.0355787,-0.2898035,-1.2796868,-2.4467487500000002,8.297061750000001
359,1747638495010,3.0782893,-0.46963108,-0.30224323,-1.1593881,-2.1828628,7.8129654
360,1747638495020,3.09708615,-0.33125409499999997,-0.23745286999999998,-1.1385429,-2.0842109,7.6986987
361,1747638495030,3.115883,-0.19287711,-0.17266251,-1.1176977,-1.985559,7.584432
362,1747638495040,3.0125233500000004,0.006997365000000005,-0.046237449999999986,-0.84697785,-1.9391346,7.5422837
363,1747638495050,2.9091637,0.20687184,0.08018761,-0.576258,-1.8927102,7.5001354
364,1747638495060,3.5436826,0.79650986,0.113116354,0.25808296,-1.677692,7.9607906
365,1747638495070,3.7717446,0.83713725,0.105798857,0.25808296,-1.677692,7.9607906
366,1747638495080,3.9998066,0.87776464,0.09848136,0.25808296,-1.677692,7.9607906
367,1747638495090,3.774062,1.2428468,0.13705069,0.85808766,-0.94162107,5.5313745
368,1747638495100,3.48852685,1.37036955,0.197084665,0.97773738,-0.856713285,5.1382560999999995
369,1747638495110,3.2029917,1.4978923,0.25711864,1.0973871,-0.7718055,4.7451377
370,1747638495120,2.5704243,1.7377843,0.20123126,1.6020997,-0.7705838,4.184991
371,1747638495130,2.58861135,1.780363,0.12666898,1.78653735,-0.683538075,3.8148175
372,1747638495140,2.6067984,1.8229417,0.0521067,1.970975,-0.59649235,3.444644
373,1747638495150,2.3034575,2.029417,-0.25635642,1.5116943,-0.13347013,1.839261
374,1747638495160,2.1204133,2.0844508,-0.25440507999999995,1.2643393,-0.039399649999999994,1.53658625
375,1747638495170,1.9373691,2.1394846,-0.25245374,1.0169843,0.05467083,1.2339115
376,1747638495180,1.6106123,2.2148852,0.07823627,0.3222983,0.22395188,0.37506023
377,1747638495190,1.5852297000000002,2.2181781000000003,0.188288415,0.39113315,0.22059222,-0.309432315
378,1747638495200,1.5598471,2.221471,0.29834056,0.459968,0.21723256,-0.99392486
379,1747638495210,1.5971663,2.0921342,0.52506113,0.6362738,0.22822781,-1.4557254
380,1747638495220,1.6046209999999999,2.0596781,0.5056697450000001,0.752182065,0.24930204,-1.75748395
381,1747638495230,1.6120757,2.027222,0.48627836,0.86809033,0.27037627,-2.0592425
382,1747638495240,1.68637885,1.9657244999999999,0.370113045,0.897067395,0.37849623499999996,-2.5812496
383,1747638495250,1.760682,1.904227,0.25394773,0.92604446,0.4866162,-3.1032567
384,1747638495260,1.8090079,1.8771217,0.23172083,0.8487723,0.56236124,-3.3097231
385,1747638495270,2.04914395,1.67944245,0.24149274499999998,0.6945715299999999,0.72270864,-3.8564313500000003
386,1747638495280,2.28928,1.4817632,0.25126466,0.54037076,0.88305604,-4.4031396
387,1747638495290,2.4911208,1.116681,0.291267,0.7347729,0.8506812,-5.418368
388,1747638495300,2.57483005,0.9763527000000001,0.233916095,0.7970793,0.8738934,-5.64136535
389,1747638495310,2.6585393,0.8360244,0.17656519,0.8593857,0.8971056,-5.8643627
390,1747638495320,2.8429098,0.6202953449999999,0.07151332,0.8357154,0.9722398,-6.43184
391,1747638495330,2.89873625,0.4612997725,0.0355737225,0.8092199,1.00339295,-6.5686698
392,1747638495340,2.9545627,0.3023042,-0.000365875,0.7827244,1.0345461,-6.7054996
393,1747638495350,2.7102802,-0.19263318,0.07799236,0.94910395,0.8628981,-7.283361
394,1747638495360,2.6731744,-0.222406265,0.028934616999999996,0.962504375,0.8512919999999999,-7.27542
395,1747638495370,2.6360686,-0.25217935,-0.020123126,0.9759048,0.8396859,-7.267479
396,1747638495380,2.6314341,-0.368588575,-0.08576720300000001,0.862478125,0.8604547,-7.1651620000000005
397,1747638495390,2.6267996,-0.4849978,-0.15141128,0.74905145,0.8812235,-7.062845
398,1747638495400,2.6121645,-0.7092792,-0.14872819,0.4201102,0.79875916,-6.9968734
399,1747638495410,2.5099025,-0.84960748,-0.08137669975,0.23380178799999998,0.8864157500000001,-6.9116602
400,1747638495420,2.4076405,-0.98993576,-0.0140252095,0.047493376,0.97407234,-6.826447
401,1747638495430,1.9732553,-1.0821668,0.29882842,0.39330927,1.0821923,-6.431229
402,1747638495440,1.84207385,-1.12415095,0.271875625,0.6553245649999999,1.00889063,-6.30875415
403,1747638495450,1.7108924,-1.1661351,0.24492283,0.91733986,0.93558896,-6.1862793
404,1747638495460,1.2130586,-1.2923009,-0.058204614,1.5908754,0.65276664,-5.758686
405,1747638495470,0.7586418300000001,-1.4397028500000002,-0.371805232,1.5513039000000002,0.6168793699999999,-5.440854625
406,1747638495480,0.30422506,-1.5871048,-0.68540585,1.5117324,0.5809921,-5.123023249999999
407,1747638495490,0.13583109299999999,-1.5907635,-0.728960225,1.2712303500000002,0.498069585,-4.7392583749999995
408,1747638495500,-0.032562874,-1.5944222,-0.7725146,1.0307283,0.41514707,-4.3554935
409,1747638495510,-0.41401803,-1.6293329,-0.80254686,0.5727457,0.20562646,-3.5528405
410,1747638495520,-0.611087465,-1.6533739,-0.7864331,0.225669905,0.020806985,-2.6799014999999997
411,1747638495530,-0.8081569,-1.6774149,-0.77031934,-0.12140589,-0.16401249,-1.8069625
412,1747638495540,-0.88867986,-1.7647675,-0.67955184,-0.5076904,-0.28373855,-0.23334365
413,1747638495550,-0.8468329299999999,-1.8210207500000002,-0.594379185,-0.55159505,-0.49203747499999995,0.6923953749999999
414,1747638495560,-0.804986,-1.877274,-0.50920653,-0.5954997,-0.7003364,1.6181344
415,1747638495570,-0.63683593,-1.8189476,-0.4511239,-0.4964661,-1.3912046,2.8594525
416,1747638495580,-0.520670615,-1.7706368000000001,-0.46856393500000004,-0.48150033999999997,-1.669751,3.40616075
417,1747638495590,-0.4045053,-1.722326,-0.48600397,-0.46653458,-1.9482974,3.952869
418,1747638495600,-0.100051571,-1.6001696,-0.449035345,-0.61107635,-2.1633155,4.785454
419,1747638495610,0.057297554500000014,-1.58034375,-0.4249409425,-0.6883485250000001,-2.2851796,5.225913
420,1747638495620,0.21464668,-1.5605179,-0.40084654,-0.7656207,-2.4070437,5.666372
421,1747638495630,0.8150171,-1.4291992,-0.4555144,-1.1033429,-2.4516354,6.6034117
422,1747638495640,0.9349631,-1.35684745,-0.416335285,-1.1862271999999998,-2.4287286999999997,6.885623
423,1747638495650,1.0549091,-1.2844957,-0.37715617,-1.2691115,-2.405822,7.1678343
424,1747638495660,1.725314,-1.0931736,-0.19656636,-1.2940036,-2.1101718,7.9516277
425,1747638495670,2.03146,-0.98578923,-0.106637326,-1.1167433249999998,-2.043589475,7.967662499999999
426,1747638495680,2.337606,-0.87840486,-0.016708292,-0.93948305,-1.97700715,7.983697299999999
427,1747638495690,2.5094147,-0.744891,0.060887698,-0.7805864,-1.9941108,7.9131446
428,1747638495700,2.6631737,-0.51134079,0.047716199,-0.439122805,-1.89973495,7.7897153
429,1747638495710,2.8169327,-0.27779058,0.0345447,-0.09765921,-1.8053591,7.666286
430,1747638495720,2.9662704,0.25007555,-0.12897095,0.33100286,-1.2745328,7.8764935
431,1747638495730,3.0541262,0.307426475,-0.20987504499999998,0.32195468,-1.2943853,7.8538920999999995
432,1747638495740,3.141982,0.3647774,-0.29077914,0.3129065,-1.3142378,7.8312907
433,1747638495750,3.2608304,0.7545257,-0.24025792,0.05932854,-0.88603395,7.302221
434,1747638495760,3.3283192,1.03420665,-0.02891937,0.06772768800000001,-0.728435375,6.898451
435,1747638495770,3.395808,1.3138876,0.18241918,0.076126836,-0.5708368,6.494681
436,1747638495780,3.5998137,1.57622,0.3139817,0.4356868,-0.5439595,5.9308686
437,1747638495790,3.5903009,1.660295,0.291526135,0.60702945,-0.54365405,5.41741345
438,1747638495800,3.5807881,1.74437,0.26907057,0.7783721,-0.5433486,4.9039583
439,1747638495810,3.2843989000000002,1.9348538,0.18548338,0.8120069000000001,-0.478598815,3.7708366
440,1747638495820,2.9880097,2.1253376,0.10189619,0.8456417,-0.41384903,2.6377149
441,1747638495830,2.650734,2.3112934,0.043569613,0.6431458,-0.33749312,1.9113411
442,1747638495840,2.5226015,2.3535062,0.0203822857,0.356849328,-0.22326468,1.3197355
443,1747638495850,2.394469,2.395719,-0.0028050416,0.070552856,-0.10903624,0.7281299
444,1747638495860,2.142137,2.24321,0.18168743,-0.82296395,0.59962296,-1.1319764
445,1747638495870,2.05293985,2.20831475,0.26185978,-0.888057375,0.70285615,-1.3726501500000001
446,1747638495880,1.9637427,2.1734195,0.34203213,-0.9531508,0.80608934,-1.6133239
447,1747638495890,1.86477345,2.0627271,0.646485895,-0.7824572,1.0101123,-2.2986945
448,1747638495900,1.994552325,1.99835595,0.7268335674999999,-0.33415256,1.0036984150000001,-2.75961705
449,1747638495910,2.1243312,1.9339848,0.80718124,0.11415208,0.99728453,-3.2205396
450,1747638495920,2.5938709,1.7692801,0.5341165,0.96216077,0.98873264,-4.4953775
451,1747638495930,2.7294352,1.69953515,0.39097554,1.027597835,1.04096012,-4.798663250000001
452,1747638495940,2.8649995,1.6297902,0.24783458000000003,1.0930349,1.0931876,-5.101949
453,1747638495950,3.0463362,1.4324921,0.1563201,1.0524899,1.483519,-5.8942943
454,1747638495960,3.1357774999999997,1.148542625,0.15497855,1.108897775,1.6114914750000002,-6.3866371
455,1747638495970,3.2252188,0.86459315,0.153637,1.16530565,1.7394639500000002,-6.8789799
456,1747638495980,3.2154469,0.763794575,0.1109211,1.274971875,1.6551669750000002,-7.16088595
457,1747638495990,3.205675,0.662996,0.0682052,1.3846381,1.57087,-7.442792
458,1747638496000,3.2007964,0.16586334,-0.15656401,1.4375527,1.5006226,-7.6217704
459,1747638496010,3.1844541,-0.04998767000000001,-0.220988505,1.3590588,1.4499222999999999,-7.8435082000000005
460,1747638496020,3.1681118,-0.26583868,-0.285413,1.2805649,1.399222,-8.065246
461,1747638496030,3.0170357,-0.58384502,-0.28332447,1.02324555,1.3176738499999998,-8.2002425
462,1747638496040,2.92796035,-0.69635159,-0.23823798499999999,0.922608455,1.220396425,-8.17580875
463,1747638496050,2.838885,-0.80885816,-0.1931515,0.82197136,1.123119,-8.151375
464,1747638496060,2.5445693,-1.2022347,-0.07357136,0.50112385,1.3356938,-7.7842555
465,1747638496070,2.4601283499999997,-1.2831388499999998,-0.019513330000000002,0.5197928549999999,1.3515759,-7.6889634000000004
466,1747638496080,2.3756874,-1.364043,0.0345447,0.53846186,1.367458,-7.5936713
467,1747638496090,1.9132215,-1.5814947,0.13363585,0.86557055,1.4022763,-7.1886797
468,1747638496100,1.58577095,-1.665508775,0.07261856875,1.125867825,1.359975075,-6.86584685
469,1747638496110,1.2583204,-1.74952285,0.011601287500000002,1.3861651,1.31767385,-6.543013999999999
470,1747638496120,0.74153715,-1.9019403,-0.17949218,1.5029896,1.2648356,-6.378085
471,1747638496130,0.598769695,-1.9599009499999998,-0.28687649000000004,1.5880501,1.05348245,-5.9651143
472,1747638496140,0.45600224,-2.0178616,-0.3942608,1.6731106,0.8421293,-5.5521436
473,1747638496150,-0.03245615499999999,-2.0104068,-0.5600784,1.2556346999999999,0.76943848,-4.6725235000000005
474,1747638496160,-0.52091455,-2.002952,-0.725896,0.8381588,0.69674766,-3.7929034
475,1747638496170,-0.81596226,-1.9785606,-0.6465926,0.40018132,0.5458684,-2.6572618
476,1747638496180,-0.85780923,-2.0002844,-0.5863147,0.201694134,0.24773675,-1.6261517
477,1747638496190,-0.8996562,-2.0220082,-0.5260368,0.003206948,-0.0503949,-0.5950416
478,1747638496200,-0.82962155,-2.1042387,-0.6282988,-0.4466057,-0.44683477,1.6779975
479,1747638496210,-0.8298654750000001,-2.0874083499999996,-0.6193806500000001,-0.55629095,-0.561674035,2.12334325
480,1747638496220,-0.8301094,-2.070578,-0.6104625,-0.6659762,-0.6765133,2.568689
481,1747638496230,-0.7776368,-2.0090806,-0.59021735,-1.044167,-1.3728793,4.143453
482,1747638496240,-0.37557067650000003,-1.8993791,-0.537378905,-1.3042925250000001,-1.506196675,4.840620749999999
483,1747638496250,0.026495447,-1.7896776,-0.48454046,-1.56441805,-1.63951405,5.5377885
484,1747638496260,0.3059325,-1.7396442,-0.36276507,-1.714572,-1.6954066,5.897272
485,1747638496270,0.3993983,-1.7085295500000002,-0.32067419500000005,-1.84666765,-1.8282658500000002,6.404275350000001
486,1747638496280,0.4928641,-1.6774149,-0.27858332,-1.9787633,-1.9611251,6.9112787
487,1747638496290,0.8877347,-1.58186055,-0.12287301850000001,-1.8874798,-2.01121455,7.52979935
488,1747638496300,1.2826053,-1.4863062,0.032837283,-1.7961963,-2.061304,8.14832
489,1747638496310,1.7560476,-1.3870018,0.110189356,-1.5102435,-2.1468227,8.371891
490,1747638496320,2.10088475,-1.17125743,0.103359688,-1.17565192,-2.3291606,8.297062
491,1747638496330,2.4457219,-0.95551306,0.09653002,-0.84106034,-2.5114985,8.222233
492,1747638496340,2.6631737,-0.6590018,-0.013781292,-0.51082104,-2.4308667,7.97484
493,1747638496350,2.6320591,-0.3066032225,-0.06552211599999999,-0.46874892,-1.9437160000000002,8.1480155
494,1747638496360,2.6009445,0.045795355,-0.11726294,-0.4266768,-1.4565653,8.321191
495,1747638496370,3.2029917,0.14708175,0.03673995,-0.30328566,-1.1279294,8.63089
496,1747638496380,3.5142752,0.475820425,-0.005488125000000003,-0.19176786,-1.1123528,8.353871000000002
497,1747638496390,3.8255587,0.8045591,-0.0477162,-0.08025006,-1.0967762,8.076852
498,1747638496400,3.8255587,0.8045591,-0.0477162,-0.07711947,-1.0350807,7.5074654
499,1747638496410,3.62165965,1.1205989,0.24722478000000003,0.274919465,-0.8539645,6.6623582
500,1747638496420,3.4177606,1.4366387,0.54216576,0.6269584,-0.6728483,5.817251
501,1747638496430,3.1705508,1.6103989,0.39499256,1.3578371,-0.7601994,5.039643
502,1747638496440,3.1313717,1.76889895,0.1965815924,1.40643765,-0.7482878749999999,4.7693045000000005
503,1747638496450,3.0921926,1.927399,-0.0018293752,1.4550382,-0.73637635,4.498966
504,1747638496460,3.1266153,2.0828655,-0.28931567,0.8170082,-0.2751867,3.324918
505,1747638496470,2.914179175,2.1375332499999997,-0.1593614375,0.3054618,-0.075401465,2.1795412
506,1747638496480,2.70174305,2.192201,-0.029407204999999992,-0.2060846,0.12438377,1.0341644
507,1747638496490,2.4617137749999998,2.22026665,0.10615711750000001,-0.22635708999999998,0.133546485,0.6927007900000001
508,1747638496500,2.2216845,2.2483323,0.24172144,-0.24662958,0.1427092,0.35123718
509,1747638496510,2.1123488,2.2644308,0.24687417,-0.23418356,0.1750841,-0.22418094
510,1747638496520,2.0408507499999997,2.20756785,0.26650945000000004,-0.27278148,0.3910186,-0.8827124700000001
511,1747638496530,1.9693527,2.1507049,0.28614473,-0.3113794,0.6069531,-1.541244
512,1747638496540,1.9405401,2.075548,0.42746398,-0.22043951,0.67292464,-1.9437923
513,1747638496550,2.07403875,2.0521168000000003,0.50542584,0.10762364499999999,0.63902259,-2.43735695
514,1747638496560,2.2075374,2.0286856,0.5833877,0.4356868,0.60512054,-2.9309216
515,1747638496570,2.8291285,1.9564557,0.31983575,0.8357154,0.6790331,-3.7367053
516,1747638496580,3.04278435,1.84797375,0.233443505,0.8381969499999999,0.8225821849999999,-4.41596745
517,1747638496590,3.2564402,1.7394918,0.14705126,0.8406785,0.96613127,-5.0952296
518,1747638496600,3.3696934,1.5036090500000001,0.10701843999999999,0.7547018,1.0650885,-5.8778014
519,1747638496610,3.372925275,1.2557821100000002,0.12916912,0.7397360424999999,1.1469420750000001,-6.572792850000001
520,1747638496620,3.37615715,1.00795517,0.1513198,0.724770285,1.22879565,-7.267784300000001
521,1747638496630,3.188113,0.35892338,0.097017854,0.95964104,1.1567156,-8.017599
522,1747638496640,3.0981839,0.17821161700000002,0.079318652,1.0478321199999998,1.1170106,-8.152291
523,1747638496650,3.0082548,-0.002500146,0.06161945,1.1360232,1.0773056,-8.286983
524,1747638496660,2.7912908,-0.45130682,-0.049911447,1.3846381,0.5849626,-8.473368
525,1747638496670,2.7257686999999997,-0.59797696,-0.1182386035,1.33164705,0.46676365,-8.4620675
526,1747638496680,2.6602466,-0.7446471,-0.18656576,1.278656,0.3485647,-8.450767
527,1747638496690,2.5814158,-0.86521815,-0.166915225,1.10887865,0.423698925,-8.3022925
528,1747638496700,2.502585,-0.9857892,-0.14726469,0.9391013,0.49883315,-8.153818
529,1747638496710,2.371297,-1.3637991,-0.034514207,0.57152396,0.61794835,-7.7213383
530,1747638496720,2.2314565,-1.4339708500000001,0.011113454000000002,0.495511665,0.703466975,-7.615967299999999
531,1747638496730,2.091616,-1.5041426,0.056741115,0.41949937,0.7889856,-7.5105963
532,1747638496740,1.8090079,-1.6261619,0.16339368,0.40575528,1.0351571,-7.241823
533,1747638496750,1.477952,-1.6691064500000001,0.27187562,0.64440566,1.10998585,-6.95747365
534,1747638496760,1.1468961,-1.712051,0.38035756,0.88305604,1.1848146,-6.6731243
535,1747638496770,0.26760706,-1.817728,-0.0974752,1.6737214,0.675368,-5.574134
536,1747638496780,0.015381990000000012,-1.86361485,-0.311756,1.608628,0.5473954999999999,-5.186246000000001
537,1747638496790,-0.23684308,-1.9095017,-0.5260368,1.5435346,0.419423,-4.798358
538,1747638496800,-0.8850212,-1.9578276,-0.8598978,0.44378054,0.15798037,-3.1557896
539,1747638496810,-1.0074063999999998,-2.03103315,-0.67892683,-0.10204968000000003,0.04554630000000001,-2.20924365
540,1747638496820,-1.1297916,-2.1042387,-0.49795586,-0.6478799,-0.06688777,-1.2626977
541,1747638496830,-1.1297916,-2.1042387,-0.49795586,-1.0067526,-0.2507528,-0.3354315
542,1747638496840,-1.06244005,-2.1248649,-0.32553727,-1.1631677,-0.37292225,0.57812875
543,1747638496850,-0.9950885,-2.1454911,-0.15311868,-1.3195828,-0.4950917,1.491689
544,1747638496860,-0.76812404,-2.040302,0.15168568,-0.66528904,-0.40346462,4.015786
545,1747638496870,-0.63413757,-2.02187105,0.13508409999999998,-0.419193945,-0.50730866,4.4473497
546,1747638496880,-0.5001511,-2.0034401,0.11848252,-0.17309885,-0.6111527,4.8789134
547,1747638496890,0.021617115,-1.8487359,-0.33764166,0.30420193,-1.125486,6.093354
548,1747638496900,0.24095155999999998,-1.7581285000000002,-0.5257318950000001,0.20356485000000002,-1.1639694,6.36945715
549,1747638496910,0.460286005,-1.6675211,-0.71382213,0.10292777,-1.2024528,6.6455603
550,1747638496920,0.629106815,-1.6037064,-0.7595793775,-0.594278015,-1.10868775,7.23720385
551,1747638496930,0.797927625,-1.5398917,-0.805336625,-1.2914838,-1.0149227,7.8288474
552,1747638496940,1.2606224,-1.4433769,-0.6229327,-1.6080554,-1.002095,8.091512
553,1747638496950,1.5180916500000001,-1.3580823,-0.46758826,-1.6899853,-1.00789805,8.2478885
554,1747638496960,1.7755609,-1.2727877,-0.31224382,-1.7719152,-1.0137011,8.404265
555,1747638496970,2.1448202,-0.9647819,-0.12872702,-1.5345247,-1.1352596,8.547204
556,1747638496980,2.56030175,-0.78614343,0.014894164999999987,-1.14167355,-1.4241904,8.428088500000001
557,1747638496990,2.9757833,-0.60750496,0.15851535,-0.7488224,-1.7131212,8.308973
558,1747638497000,2.9955711,-0.12479387,0.23416002,0.7472189,-1.5701829,7.7640977
559,1747638497010,2.9437084000000002,0.024818515000000013,0.10055465499999999,0.89302055,-1.47030935,7.807162549999999
560,1747638497020,2.8918457,0.1744309,-0.03305071,1.0388222,-1.3704358,7.8502274
561,1747638497030,3.144421,0.82992643,-0.5477454,0.6244386,-0.61970454,8.60951
562,1747638497040,3.4287365,0.875691315,-0.49173602000000005,0.263046095,-0.324665316,8.545982
563,1747638497050,3.713052,0.9214562,-0.43572664,-0.09834641,-0.029626092,8.482454
564,1747638497060,4.3124466,1.0434755,0.10726235,-0.12071869,0.16164546,7.2118154
565,1747638497070,4.0320339,1.2803186,0.259908475,0.4768044549999999,-0.209482435,6.02612285
566,1747638497080,3.7516212,1.5171617,0.4125546,1.0743276,-0.58061033,4.8404303
567,1747638497090,3.3811575,1.79794035,0.14837758299999998,1.33382315,-0.7806628149999999,4.258903500000001
568,1747638497100,3.0106938,2.078719,-0.115799434,1.5933187,-0.9807153,3.6773767
569,1747638497110,3.0482876,2.3344655,-0.38471758,0.7608866,-0.3814741,2.6914694
570,1747638497120,2.9600659499999997,2.4011005,-0.22365635,0.5297191,-0.219599582,2.37623405
571,1747638497130,2.8718443,2.4677355,-0.06259512,0.2985516,-0.057725064,2.0609987
572,1747638497140,2.6623200000000002,2.483956,0.16632068,-0.32634515,0.43652672,0.56075776
573,1747638497150,2.6443159,2.40030775,0.30079499,-0.24132284499999998,0.50524703,-0.34302891999999996
574,1747638497160,2.6263118,2.3166595,0.4352693,-0.15630054,0.57396734,-1.2468156
575,1747638497170,2.5267632,2.2515032,0.42624438,0.19264595,0.38643724,-2.3347347
576,1747638497180,2.4914867999999997,2.21416875,0.356072605,0.34749572500000003,0.4120928225,-3.055114475
577,1747638497190,2.4562104,2.1768343,0.28590083,0.5023455,0.437748405,-3.7754942500000004
578,1747638497200,2.6787844,2.0562785,0.1592471,0.49051034,0.53548396,-4.102603
579,1747638497210,2.8930651000000003,1.8701853499999999,0.16985747,0.41728502,0.7382852449999999,-4.7158935
580,1747638497220,3.1073458,1.6840922,0.18046784,0.3440597,0.94108653,-5.329184
581,1747638497230,3.4673061,1.219187,0.24467891,0.42942563,0.9765157,-6.507585
582,1747638497240,3.44533835,0.9596444,0.200987335,0.508568515,0.9896488999999999,-7.01978035
583,1747638497250,3.4233706,0.7001018,0.15729576,0.5877114,1.0027821,-7.5319757
584,1747638497260,3.2482688,0.4062736925,0.0931151875,0.6774296,0.99148145,-7.89542985
585,1747638497270,3.073167,0.112445585,0.028934615,0.7671478,0.9801808,-8.258884
586,1747638497280,2.9582214,-0.06768687,-0.043569613,0.77272177,0.9081008,-8.403731
587,1747638497290,2.9201552,-0.35566098500000004,-0.1142139815,0.604815135,0.99911705,-8.43091375
588,1747638497300,2.882089,-0.6436351,-0.18485835,0.4369085,1.0901333,-8.4580965
589,1747638497310,2.930415,-0.8066629,-0.16241801,0.13095038,1.3289746,-8.401288
590,1747638497320,3.0092305,-0.94795165,-0.094075609,-0.17901642999999998,1.5745352000000001,-8.399149999999999
591,1747638497330,3.088046,-1.0892404,-0.025733208,-0.48898324,1.8200958,-8.397012
592,1747638497340,2.5731075,-1.8077275,0.6092733,-0.065284304,2.2568517,-9.04451
593,1747638497350,2.28818225,-1.8549558,0.66955125,0.338791168,2.21409225,-9.0072485
594,1747638497360,2.003257,-1.9021841,0.7298292,0.74286664,2.1713328,-8.969987
595,1747638497370,0.79132664,-2.220648,0.47896087,2.030151,1.8121548,-8.093955
596,1747638497380,0.460407955,-2.322666,0.147539095,2.3416831,1.3885322,-7.3875103
597,1747638497390,0.12948927,-2.424684,-0.18388268,2.6532152,0.9649096,-6.6810656
598,1747638497400,-0.42523822,-2.6901875,-1.027316,1.3877686,0.8928296,-4.6468678
599,1747638497410,-0.56873743,-2.70398405,-1.0180319,1.0509627,0.945057065,-4.2446249
600,1747638497420,-0.71223664,-2.7177806,-1.0087478,0.7141568,0.99728453,-3.842382
601,1747638497430,-1.02339812,-2.7454804,-0.8132791,0.16584503500000003,0.64482565,-2.2382589
602,1747638497440,-1.3345596,-2.7731802,-0.6178104,-0.38246673,0.29236677,-0.6341358
603,1747638497450,-1.3677628,-2.7065604,-0.591193,-0.36185065,-0.18111621,0.7660025
604,1747638497460,-1.25452445,-2.6128354,-0.68404905,-0.394874575,-0.484096455,1.9480301500000001
605,1747638497470,-1.1412861,-2.5191104,-0.7769051,-0.4278985,-0.7870767,3.1300578
606,1747638497480,-0.248795,-2.2062566,-0.81303525,-0.895883875,-1.28308468,4.7057762499999995
607,1747638497490,-0.05184754,-2.1230354,-0.799116725,-1.0338971875,-1.4324368399999998,5.041608625
608,1747638497500,0.14509992,-2.0398142,-0.7851982,-1.1719105,-1.581789,5.377441
609,1747638497510,0.39767563,-1.9297467,-0.6829667,-1.9295901,-1.9525733,6.3639593
610,1747638497520,0.7292193650000001,-1.74842515,-0.39840740500000005,-2.02304975,-2.1602614,6.88867715
611,1747638497530,1.0607631,-1.5671036,-0.11384811,-2.1165094,-2.3679495,7.413395
612,1747638497540,1.2494022,-1.4221257,-0.051131032,-1.8466676,-2.5231047,7.8276258
613,1747638497550,1.6195,-1.25691785,-0.02879741185,-1.61023155,-2.53043485,8.1241919
614,1747638497560,1.9895978,-1.09171,-0.0064637917,-1.3737955,-2.537765,8.420758
615,1747638497570,2.9482207,-0.29782224,-0.081864536,-1.4099119,-2.3025887,8.103118
616,1747638497580,2.9651882499999997,-0.1684701865,-0.0652782005,-1.46038315,-2.17003485,7.907647000000001
617,1747638497590,2.9821558,-0.039118133,-0.048691865,-1.5108544,-2.037481,7.712176
618,1747638497600,2.5645704,0.21296974,0.2968771,-1.3273711000000001,-1.8685817999999998,7.3975127999999994
619,1747638497610,2.5020971999999997,0.31230482,0.21842739,-0.9524254000000001,-1.9463120999999999,7.4732579
620,1747638497620,2.439624,0.4116399,0.13997768,-0.5774797,-2.0240424,7.549003
621,1747638497630,3.109282,1.02858135,-0.074547032,-0.750693115,-1.8252115500000001,7.7075944
622,1747638497640,3.4641275,1.295327125,-0.0374564535,-0.9827959575,-1.621952125,7.5568297
623,1747638497650,3.818973,1.5620729,-0.000365875,-1.2148988,-1.4186927,7.406065
624,1747638497660,3.8253145,1.9681636,0.8740754,-0.9625426,-0.52135813,4.965043
625,1747638497670,3.5331938000000003,2.0505312,1.0650317,-0.4967715495,-0.673459115,4.5249275
626,1747638497680,3.2410731,2.1328988,1.255988,-0.031000499,-0.8255601,4.084812
627,1747638497690,2.970905,2.264675,0.9458174,0.8412894,-1.1792406,3.396998
628,1747638497700,2.99409245,2.4290442,0.6239236100000001,0.8724426,-0.99384848,2.8291773
629,1747638497710,3.0172799,2.5934134,0.30202982,0.9035958,-0.80845636,2.2613566
630,1747638497720,2.8147376,2.7351902,0.5836316,-0.057190575,0.23739052,0.10567658
631,1747638497730,2.7499319499999997,2.7264092,0.65929152,-0.021685078000000003,0.368111835,-0.27461400999999996
632,1747638497740,2.6851263,2.7176282,0.73495144,0.013820419,0.49883315,-0.6549046
633,1747638497750,2.67415,2.6207476,0.82244127,0.23876490949999998,0.608174825,-1.2068051
634,1747638497760,2.6631737,2.523867,0.9099311,0.4637094,0.7175165,-1.7587056
635,1747638497770,2.6751256,2.3703518,0.8235541,1.0301175,0.6949151,-2.90099
636,1747638497780,2.6751256,2.3703518,0.8235541,1.1740484,0.72270865,-3.2941084
637,1747638497790,2.6751256,2.3703518,0.8235541,1.3179793,0.7505022,-3.6872268
638,1747638497800,3.23131665,1.8777468,0.25858217,1.2905675,0.8189171,-5.465403
639,1747638497810,3.257674825,1.6263220999999999,0.186337095,1.2369656500000001,0.92092855,-5.9932134
640,1747638497820,3.284033,1.3748974,0.11409202,1.1833638,1.02294,-6.5210238
641,1747638497830,3.2918382,0.8450493,0.06844912,1.14908,1.0907441,-6.999928
642,1747638497840,3.1965431,0.35049301,0.0423500335,1.198463175,1.0905914,-7.512276
643,1747638497850,3.101248,-0.14406328,0.016250947,1.24784635,1.0904387,-8.024624
644,1747638497860,2.9357811,-0.33210780500000003,-0.008643797999999998,1.3492661250000002,1.0255362,-8.2789275
645,1747638497870,2.7703142,-0.52015233,-0.033538543,1.4506859,0.9606337,-8.533231
646,1747638497880,2.4833157,-0.7863874,-0.08625503,1.5304015,0.8732825,-8.500855
647,1747638497890,2.39814295,-0.9502688499999999,-0.13653236,1.4419431999999999,0.7981483,-8.282134
648,1747638497900,2.3129702,-1.1141503,-0.18680969,1.3534849,0.7230141,-8.063413
649,1747638497910,2.280743,-1.5710063,-0.09918261,0.7073611,1.0773056,-7.5765676
650,1747638497920,2.1964240000000004,-1.6253082,-0.056969784,0.6441002499999999,1.18939605,-7.50906895
651,1747638497930,2.112105,-1.6796101,-0.014756958,0.5808394,1.3014865,-7.4415703
652,1747638497940,1.5244488,-1.9214536,0.112140685,0.57709795,1.7168626,-7.013366
653,1747638497950,1.17522108,-1.96721845,0.17828784250000002,0.812923175,1.55895855,-6.6813706
654,1747638497960,0.82599336,-2.0129833,0.244435,1.0487484,1.4010545,-6.3493752
655,1747638497970,0.07945585,-2.1462228,-0.15827143,1.709227,0.53914905,-5.0885105
656,1747638497980,-0.06672645500000002,-2.1722152,-0.26746986500000003,1.665455975,0.4369848525,-4.5923497
657,1747638497990,-0.21290876,-2.1982076,-0.3766683,1.6216849500000001,0.334820655,-4.0961889
658,1747638498000,-1.2889166,-2.4202936,-1.0546347,0.7815027,0.11270132,-2.3017488
659,1747638498010,-1.45316405,-2.4284648,-1.08038315,0.434121505,-0.040926765000000004,-1.6343982
660,1747638498020,-1.6174115,-2.436636,-1.1061316,0.08674031,-0.19455485,-0.9670476
661,1747638498030,-1.62387525,-2.4345627,-1.07404135,-0.39678347500000005,-0.522885255,0.1154118999999999
662,1747638498040,-1.630339,-2.4324894,-1.0419511,-0.88030726,-0.85121566,1.1978714
663,1747638498050,-0.91383386,-2.2323558,-0.62927455,-1.76008,-1.5188717,3.973027
664,1747638498060,-0.77070048,-2.1501254000000003,-0.5458092999999999,-1.7971508,-1.6752486,4.410088200000001
665,1747638498070,-0.6275671,-2.067895,-0.46234405,-1.8342216,-1.8316255,4.8471494
666,1747638498080,-0.18229720417999998,-1.89302195,-0.32543058999999996,-1.8397956,-2.349013,6.090911
667,1747638498090,0.09622513791000001,-1.807430075,-0.260754555,-1.81303285,-2.1257484,6.6189883
668,1747638498100,0.37474748,-1.7218382,-0.19607852,-1.7862701,-1.9024838,7.1470656
669,1747638498110,0.6822349,-1.6071365,-0.097231284,-1.7862701,-1.9024838,7.1470656
670,1747638498120,0.9236057,-1.5098747000000001,0.016738777999999996,-1.6709727,-1.8646112499999998,7.466271300000001
671,1747638498130,1.1649765,-1.4126129,0.13070884,-1.5556753,-1.8267387,7.785477
672,1747638498140,1.9852072,-1.1744283,0.1504661,-1.1700016,-2.0234315,8.115946
673,1747638498150,2.13346285,-1.0868164999999999,0.17670238,-1.05630763,-2.04878175,8.115335
674,1747638498160,2.2817185,-0.9992047,0.20293866,-0.94261366,-2.074132,8.114724
675,1747638498170,2.481852,-0.66461194,0.19366984,-0.5974086,-1.8383448,8.359063
676,1747638498180,2.9726276,-0.48780285,0.26248482,-0.3813595675,-1.69021435,8.572706750000002
677,1747638498190,3.4634032,-0.31099376,0.3312998,-0.165310535,-1.5420839,8.786350500000001
678,1747638498200,3.6868308499999998,-0.108436208,0.23844378,0.12770525749999997,-1.5210096499999999,8.63501325
679,1747638498210,3.9102585,0.094121344,0.14558776,0.42072105,-1.4999354,8.483676
680,1747638498220,3.9805372,0.41237164,-0.008171208,0.50921756,-1.2433796,8.110448
681,1747638498230,3.8447213500000004,0.639823945,0.028675450999999998,0.5780524,-0.8499939649999999,7.66235335
682,1747638498240,3.7089055,0.86727625,0.06552211,0.64688724,-0.45660833,7.2142587
683,1747638498250,3.358702,1.0205169,0.15851535,1.0275978,-0.24464433,6.754902
684,1747638498260,3.42459015,1.08300525,0.19292283999999998,1.38055295,-0.31061583,6.4574192
685,1747638498270,3.4904783,1.1454936,0.22733033,1.7335081,-0.37658733,6.1599364
686,1747638498280,3.5976183,1.5969529,-0.21242093,2.2612803,-0.6930062,4.4146695
687,1747638498290,3.38396265,1.78280215,-0.40156306500000005,2.0251496,-0.5830537,3.6987565499999997
688,1747638498300,3.170307,1.9686514,-0.5907052,1.7890189,-0.4731012,2.9828436
689,1747638498310,2.8925773,2.08567045,-0.5923058999999999,0.7285117,-0.20860434,1.6309621
690,1747638498320,2.7709238000000003,2.1211146249999997,-0.5285445599999999,0.54063799,-0.167983,1.34813985
691,1747638498330,2.6492703,2.1565588,-0.46478322,0.35276428,-0.12736166,1.0653176
692,1747638498340,2.3722727,2.1397285,-0.29321834,-0.37307495,0.20073968,-0.18325418
693,1747638498350,2.2737913499999998,2.05614135,-0.153499816,-0.585573425,0.298780665,-0.76298639
694,1747638498360,2.17531,1.9725542,-0.013781292,-0.7980719,0.39682165,-1.3427186
695,1747638498370,2.0489001,1.8034284,0.39474866,-0.5438068,0.31802234,-2.6835284
696,1747638498380,2.1376094500000002,1.70923085,0.42525347999999996,-0.301281335,0.28641100500000005,-3.05236555
697,1747638498390,2.2263188,1.6150333,0.4557583,-0.05875587,0.25479967000000003,-3.4212027000000003
698,1747638498400,2.2808647,1.5901385499999998,0.43685475,0.120241465,0.24914933500000003,-3.7264736000000003
699,1747638498410,2.3354106,1.5652438,0.4179512,0.2992388,0.243499,-4.0317445
700,1747638498420,2.707841,1.3377914,0.28053465,0.5160132,0.27770644,-5.0359774
701,1747638498430,2.827787,1.2380905,0.263094615,0.515402375,0.30427829500000003,-5.3444934
702,1747638498440,2.947733,1.1383896,0.24565458,0.51479155,0.33085015,-5.6530094
703,1747638498450,3.1356401,0.8950827,0.2180615,0.51479155,0.44080266,-6.2082696
704,1747638498460,2.99897055,0.478381565,0.21489059,0.576181675,0.51532603,-6.7662788
705,1747638498470,2.862301,0.06168043,0.21171968,0.6375718,0.5898494,-7.324288
706,1747638498480,2.862301,0.06168043,0.21171968,0.88366693,0.45240876,-7.7323337
707,1747638498490,2.8253325,-0.1068355,0.120936939,0.992092315,0.30641626,-7.81601985
708,1747638498500,2.788364,-0.27535143,0.030154198,1.1005177,0.16042376,-7.899706
709,1747638498510,2.9152615,-0.60457796,-0.23659918,0.9079481,0.06383354,-7.991944
710,1747638498520,2.9005046,-0.701702505,-0.24098967999999998,0.6440620850000001,0.132592035,-8.0768515
711,1747638498530,2.8857477,-0.79882705,-0.24538018,0.38017607,0.20135053,-8.161759
712,1747638498540,2.6512218,-1.1351272,-0.015732625,0.061848287,0.2911451,-8.233229
713,1747638498550,2.3931427000000003,-1.26216205,0.1016522775,-0.018096349999999997,0.451339775,-8.1194585
714,1747638498560,2.1350636,-1.3891969,0.21903718,-0.098040987,0.61153445,-8.005688
715,1747638498570,1.7633651,-1.4828913,0.32568973,0.33970743,0.7773795,-7.337726
716,1747638498580,1.6605085,-1.4931511,0.328860655,0.526015845,0.70804835,-7.1498905
717,1747638498590,1.5576519,-1.5034109,0.33203158,0.71232426,0.6387172,-6.962055
718,1747638498600,1.2983532,-1.5119479500000002,0.209646385,0.9397503300000001,0.54922805,-6.62914335
719,1747638498610,1.0390545,-1.520485,0.08726119,1.1671764,0.4597389,-6.2962317
720,1747638498620,0.10384752,-1.8018733,-0.35252056,1.0818105,0.60634226,-5.3719435
721,1747638498630,-0.13214184999999998,-1.832866,-0.420359895,0.96216078,0.53548398,-5.02314975
722,1747638498640,-0.36813122,-1.8638587,-0.48819923,0.84251106,0.4646257,-4.674356
723,1747638498650,-0.8569706750000001,-1.85483385,-0.56324935,0.412016475,0.1698537185,-3.2568467
724,1747638498660,-0.9805754875,-1.8454430249999998,-0.558668255,0.15091744749999997,-0.030370560749999997,-2.1721156
725,1747638498670,-1.1041803,-1.8360522,-0.55408716,-0.11018158,-0.23059484,-1.0873845
726,1747638498680,-1.0675623,-1.8694689,-0.5328665,-0.25159273,-0.2892362,-0.06963659
727,1747638498690,-1.06390355,-1.8505501,-0.5593467000000001,-0.31233384,-0.36131616499999997,0.662158405
728,1747638498700,-1.0602448,-1.8316313,-0.5858269,-0.37307495,-0.43339613,1.3939534
729,1747638498710,-1.0128944,-1.7252531,-0.67516136,-0.8347991,-0.8567133,3.3432434
730,1747638498720,-0.9127209000000001,-1.6984070500000001,-0.640738605,-0.9943066,-0.9773556,3.7894672
731,1747638498730,-0.8125474,-1.671561,-0.60631585,-1.1538141,-1.0979979,4.235691
732,1747638498740,-0.23537959,-1.5753968,-0.4162133,-1.6037031,-1.3844854,5.529542
733,1747638498750,0.08419698,-1.49107785,-0.2397700825,-1.6286333,-1.42144165,6.0698365
734,1747638498760,0.40377355,-1.4067589,-0.063326865,-1.6535635,-1.4583979,6.610131
735,1747638498770,0.5399705,-1.3330655,0.02625153,-1.6535635,-1.4583979,6.610131
736,1747638498780,0.6255700175000001,-1.3085976750000001,0.060171193750000004,-1.4516784999999999,-1.41350055,6.9983245
737,1747638498790,0.711169535,-1.28412985,0.09409085750000001,-1.2497935,-1.3686032,7.386518
738,1747638498800,1.4566094,-1.238121,0.19586508,-0.6372664,-1.5402514,8.483065
739,1747638498810,1.7093223000000002,-1.18808765,0.128010515,-0.5070414,-1.6489822,8.5114695
740,1747638498820,1.9620352,-1.1380543,0.06015595,-0.3768164,-1.757713,8.539874
741,1747638498830,2.1473813,-1.0321486850000001,0.0367247045,-0.27247604999999997,-1.6621154,8.411596
742,1747638498840,2.3327274,-0.92624307,0.013293459,-0.1681357,-1.5665178,8.283318
743,1747638498850,2.638782,-0.2426666,0.024788031,0.025655588,-1.2320788999999999,8.171838000000001
744,1747638498860,2.6193755000000003,-0.20348748500000002,0.0626103625,0.139693134,-0.934138175,8.28255425
745,1747638498870,2.599969,-0.16430837,0.100432694,0.25373068,-0.63619745,8.3932705
746,1747638498880,2.9243171,0.06314393,0.17412601,0.472414,-0.49448085,8.729847
747,1747638498890,3.4264347500000003,0.25629544,0.0765136085,0.5172730999999999,-0.416597825,8.553923000000001
748,1747638498900,3.9285524,0.44944695,-0.021098793,0.5621322,-0.3387148,8.377999
749,1747638498910,4.1674685,1.2196748,0.5260368,1.1080005,-0.13469182,6.4012213
750,1747638498920,4.0588647,1.2947248999999998,0.5428823,1.45377825,-0.229983995,5.95621895
751,1747638498930,3.9502609,1.369775,0.5597278,1.799556,-0.32527617,5.5112166
752,1747638498940,3.5815198,1.5557309,0.15583226,2.764771,-0.5714476,3.8594093
753,1747638498950,3.3111230000000003,1.73266195,-0.19144407000000002,2.692462,-0.48501272000000006,3.446782
754,1747638498960,3.0407262,1.909593,-0.5387204,2.620153,-0.39857784,3.0341547
755,1747638498970,2.7920227,2.2141535,-0.6836984,1.411439,-0.033902023,2.1660643
756,1747638498980,2.719061075,2.204701775,-0.51725577,0.7802428650000001,0.1090744135,1.6291296
757,1747638498990,2.64609945,2.19525005,-0.35081314,0.14904673,0.25205085,1.0921949
758,1747638499000,2.3517835,2.132655,0.0418622,-0.4821112,0.507385,-0.9829296
759,1747638499010,2.2792945,2.0981255,0.100066815,-0.414192625,0.45393587,-1.3265312
760,1747638499020,2.2068055,2.063596,0.15827143,-0.34627405,0.40048674,-1.6701328
761,1747638499030,2.1711633,1.8668772,0.16924767,-0.08773294,0.2398339,-2.561359
762,1747638499040,2.32406855,1.74839465,0.180605045,0.13377555000000002,0.212040355,-3.2608172
763,1747638499050,2.4769738,1.6299121,0.19196242,0.35528404,0.18424681,-3.9602754
764,1747638499060,2.56360995,1.5341291,0.188776255,0.418544905,0.20593189,-4.1810967
765,1747638499070,2.6502461,1.4383461,0.18559009,0.48180577,0.22761697,-4.401918
766,1747638499080,2.857179,1.2094303,0.09287128,0.7378271,0.14087665,-5.351175
767,1747638499090,2.9678560999999997,1.05823247,0.008308415,0.74970045,0.109990685,-5.731159999999999
768,1747638499100,3.0785332,0.90703464,-0.07625445,0.7615738,0.07910472,-6.111145
769,1747638499110,3.1573794,0.69449174,-0.17754084,0.64131325,0.11025793,-6.600434
770,1747638499120,3.1329725,0.47203974000000004,-0.18485834,0.486158055,0.153055415,-6.9816025
771,1747638499130,3.1085656,0.24958774,-0.19217584,0.33100286,0.1958529,-7.362771
772,1747638499140,2.8318117,-0.4435015,-0.04235003,0.12816339,0.19218782,-7.79677815
773,1747638499150,2.8318117,-0.4435015,-0.04235003,0.10153426499999998,0.19218782,-7.861680724999999
774,1747638499160,2.8318117,-0.4435015,-0.04235003,0.07490514,0.19218782,-7.9265833
775,1747638499170,2.6400015,-0.96551365,0.040886533,0.102316916,0.33329353,-7.954682
776,1747638499180,2.54603265,-1.095353525,0.06370798650000001,0.12163495799999999,0.43255620000000006,-7.9241395
777,1747638499190,2.4520638,-1.2251934,0.08652944,0.140953,0.53181887,-7.893597
778,1747638499200,2.262449,-1.3616039,0.114823766,0.20387027,0.6436039,-7.804414
779,1747638499210,2.0578182,-1.4327513,0.169857468,0.351848025,0.6344412150000001,-7.6556725
780,1747638499220,1.8531874,-1.5038987,0.22489117,0.49982578,0.62527853,-7.506931
781,1747638499230,1.0539334,-1.6376262,0.05722895,1.1080005,0.77127105,-6.7293224
782,1747638499240,0.858083585,-1.6544716,-0.0037807099999999996,1.2008111499999998,0.8204442249999999,-6.5057522
783,1747638499250,0.66223377,-1.671317,-0.06479037,1.2936218,0.8696174,-6.282182
784,1747638499260,-0.025733208,-1.6966844,-0.3293485,1.4051777,0.7175165,-5.287036
785,1747638499270,-0.2902227215,-1.684297975,-0.43153433500000005,1.1709178,0.40258654,-4.4153568
786,1747638499280,-0.554712235,-1.67191155,-0.53372017,0.9366579,0.08765658,-3.5436776
787,1747638499290,-1.0043573,-1.5871048,-0.6575689,0.6194755,-0.21776704,-2.612059
788,1747638499300,-1.03986245,-1.5730796,-0.675146115,0.49329734999999997,-0.299926005,-2.2596002
789,1747638499310,-1.0753676,-1.5590544,-0.69272333,0.3671192,-0.38208497,-1.9071414
790,1747638499320,-1.09209115,-1.5785677,-0.71932548,0.03161133999999999,-0.456302915,-1.0470303300000001
791,1747638499330,-1.1088147,-1.598081,-0.74592763,-0.30389652,-0.53052086,-0.18691926
792,1747638499340,-1.1529942,-1.6537244,-0.7590992,-0.7320241,-0.56411743,0.7806628
793,1747638499350,-1.1694585499999999,-1.6817901499999999,-0.70882185,-1.0949437,-0.591605565,1.60442855
794,1747638499360,-1.1859229,-1.7098559,-0.6585445,-1.4578633,-0.6190937,2.4281943
795,1747638499370,-0.85575116,-1.6334796,-0.30053583,-1.813071,-1.0491302,4.4183345
796,1747638499380,-0.72213058,-1.6063895000000001,-0.22976950499999999,-1.7663412,-1.18076775,4.80503895
797,1747638499390,-0.58851,-1.5792994,-0.15900318,-1.7196114,-1.3124053,5.1917434
798,1747638499400,-0.178638468,-1.4920535,-0.06588799349999999,-1.5295615,-1.5170392,5.863065
799,1747638499410,0.028873641000000005,-1.4492842499999998,-0.05215243374999999,-1.3338995,-1.5155120499999999,6.317535299999999
800,1747638499420,0.23638575,-1.406515,-0.038416874,-1.1382375,-1.5139849,6.7720056
801,1747638499430,0.78791183,-1.265958,-0.035489876,-0.847856,-0.97582847,7.775704
802,1747638499440,0.915312565,-1.2543567,-0.005960712999999999,-0.8310577,-0.9626952849999999,7.918642500000001
803,1747638499450,1.0427133,-1.2427554,0.02356845,-0.8142594,-0.9495621,8.061581
804,1747638499460,2.0215814,-1.0045708,0.10701844,-0.5463265,-1.2769762,8.305308
805,1747638499470,2.1957073,-0.8845027999999999,0.099335063,-0.41392537,-1.323706,8.210016
806,1747638499480,2.3698332,-0.7644348,0.091651686,-0.28152424,-1.3704358,8.114724
807,1747638499490,2.4496248,-0.64753777,0.08848077,-0.112014115,-1.2128372,8.005993
808,1747638499500,2.6673127,-0.5093437375000001,0.1189856,0.15170011000000003,-0.942079175,8.2013115
809,1747638499510,2.8850006,-0.371149705,0.14949043,0.415414335,-0.67132115,8.39663
810,1747638499520,3.6908555,-0.07622396,-0.016708292,0.79639214,-0.7302679,8.150764
811,1747638499530,3.83691585,0.1652688,-0.043554371,0.78955827,-0.7018635,8.0240133
812,1747638499540,3.9829762,0.40676156,-0.07040045,0.7827244,-0.6734591,7.8972626
813,1747638499550,4.13598835,0.70205318,-0.0036587500000000023,0.7154166799999999,-0.5314371099999999,7.4870403
814,1747638499560,4.2890005,0.9973448,0.06308295,0.64810896,-0.38941512,7.076818
815,1747638499570,4.02605805,1.35622245,0.27272933499999996,1.2724712,-0.060779303,4.7573547
816,1747638499580,3.7702352249999995,1.467440825,0.2007281775,1.39987105,-0.09926267650000001,4.2998302
817,1747638499590,3.5144124,1.5786592,0.12872702,1.5272709,-0.13774605,3.8423057
818,1747638499600,2.9802043,1.8927629,-0.30931684,1.2955307,-0.2855711,2.3719962
819,1747638499610,2.76494785,2.0391890999999998,-0.36715557,0.86060744,-0.14049487270000002,1.9162659999999998
820,1747638499620,2.5496914,2.1856153,-0.4249943,0.42568418,0.0045813546,1.4605358
821,1747638499630,2.5826355,2.2435607500000003,-0.229281675,-0.31733516,0.227311545,0.65207945
822,1747638499640,2.5332195,2.174311275,-0.05722895450000001,-0.5368011300000001,0.3403182775,-0.28301316750000005
823,1747638499650,2.4838035,2.1050618,0.114823766,-0.7562671000000001,0.45332501000000003,-1.218105785
824,1747638499660,2.1696997,1.9252038,0.35325232,-0.57434916,0.4542413,-2.1954615
825,1747638499670,2.11247085,1.8684627,0.3786349,-0.454088595,0.46554196999999997,-2.44651975
826,1747638499680,2.055242,1.8117216,0.40401748,-0.33382803,0.47684264,-2.697578
827,1747638499690,2.2190013,1.5266744,0.44380638,0.193944,0.4401918,-3.4746518
828,1747638499700,2.31614115,1.4123385000000002,0.42842439,0.5718293999999999,0.37452572500000003,-4.13253425
829,1747638499710,2.413281,1.2980026,0.4130424,0.9497148,0.30885965,-4.7904167
830,1747638499720,2.5260315,1.1293647,0.291998745,0.99518475,0.31954947499999997,-4.97397635
831,1747638499730,2.638782,0.9607268,0.17095509,1.0406547,0.3302393,-5.157536
832,1747638499740,2.8169327,0.6376287,0.03356903,1.02637605,0.42675317,-5.817327499999999
833,1747638499750,2.8558526000000004,0.48728454,0.028812656,0.972163375,0.46920705,-6.182003249999999
834,1747638499760,2.8947725,0.33694038,0.024056282,0.9179507,0.51166093,-6.546679
835,1747638499770,2.88646425,-0.03484959,0.0222269075,0.8980218,0.47806433,-6.894862
836,1747638499780,2.836804225,-0.16180822500000003,0.01202814135,0.91264395,0.39743249,-7.134925
837,1747638499790,2.7871442,-0.28876686,0.0018293752,0.9272661,0.31680065,-7.374988
838,1747638499800,2.6658568,-0.6136029,-0.095523864,0.75096035,0.26915458,-7.4763885
839,1747638499810,2.64523065,-0.726963175,-0.090889447,0.67242831,0.305805415,-7.48585675
840,1747638499820,2.6246045,-0.84032345,-0.08625503,0.59389627,0.34245625,-7.495325
841,1747638499830,2.5169914999999996,-0.9657575249999999,-0.045505702499999995,0.520060085,0.408733175,-7.49899
842,1747638499840,2.4093785,-1.0911916,-0.004756375,0.4462239,0.4750101,-7.502655
843,1747638499850,1.8812379,-1.2844957,0.08018761,0.41881216,0.64910156,-7.2595377
844,1747638499860,1.73749465,-1.2969354499999999,0.100554652,0.47397929499999997,0.69735848,-7.146531100000001
845,1747638499870,1.5937514,-1.3093752,0.120921694,0.52914643,0.7456154,-7.0335245
846,1747638499880,1.0388106,-1.3333095,0.11848252,0.7440883,0.781044585,-6.689312
847,1747638499890,0.87444125,-1.3485543,0.089929026,0.9160418,0.7840988275,-6.4527615
848,1747638499900,0.7100719,-1.3637991,0.061375532,1.0879953,0.78715307,-6.216211
849,1747638499910,0.24053232,-1.4921907,-0.17168686,1.4968048,0.61122906,-5.5686364
850,1747638499920,-0.09503604000000002,-1.61225865,-0.37326873,1.5089454,0.43163995499999996,-5.1770832
851,1747638499930,-0.4306044,-1.7323266,-0.5748506,1.521086,0.25205085,-4.78553
852,1747638499940,-0.4306044,-1.7323266,-0.5748506,1.521086,0.25205085,-4.78553
853,1747638499950,-0.91601385,-1.7785641,-0.7928969,0.742523005,-0.19665462500000003,-3.1985107
854,1747638499960,-1.4014233,-1.8248016,-1.0109432,-0.03603999,-0.6453601,-1.6114914
855,1747638499970,-1.4990509,-1.9656329,-0.9501774,-0.5351022,-0.55251133,-0.79845375
856,1747638499980,-1.52065275,-1.96465725,-0.8888019,-1.0404255999999998,-0.457830015,0.20581732500000016
857,1747638499990,-1.5422546,-1.9636816,-0.8274264,-1.545749,-0.3631487,1.2100884
858,1747638500000,-1.1339382,-1.7740364,-0.31443906,-1.7357988,-1.2934691,3.6437802
859,1747638500010,-1.021065715,-1.7299942499999998,-0.271494485,-1.6734924,-1.44159955,3.9586721000000002
860,1747638500020,-0.90819323,-1.6859521,-0.22854991,-1.611186,-1.58973,4.273564
861,1747638500030,-0.111896776,-1.4660611,-0.10384752,-1.2136008,-2.037481,5.698136
862,1747638500040,0.038325412,-1.42567765,-0.10078332000000001,-1.15285965,-2.0121309,5.8850551499999995
863,1747638500050,0.1885476,-1.3852942,-0.09771912,-1.0921185,-1.9867808,6.0719743
864,1747638500060,0.33985215,-1.2973165500000001,-0.08832832500000001,-1.05195535,-1.8236845499999998,6.37098415
865,1747638500070,0.4911567,-1.2093389,-0.07893753,-1.0117922,-1.6605883,6.669994
866,1747638500080,1.1159188,-1.1165895,0.09457869,-0.94818765,-1.1706887,7.6632314
867,1747638500090,1.32896475,-1.09754875,0.103115775,-0.902412295,-1.1819894,7.7176352
868,1747638500100,1.5420107,-1.078508,0.11165286,-0.85663694,-1.1932901,7.772039
869,1747638500110,2.0596323,-0.804925,0.097749606,-0.587406,-1.4162494,7.677281
870,1747638500120,2.1667727,-0.76734658,0.09713981299999999,-0.55220593,-1.43885075,7.699920499999999
871,1747638500130,2.2739131,-0.72976816,0.09653002,-0.51700586,-1.4614521,7.72256
872,1747638500140,2.4586494,-0.40493217,0.062107284,-0.20112146,-0.9581139,7.921696
873,1747638500150,2.4576738000000002,-0.370646625,0.054911742,-0.16683766,-0.8426638,8.0838765
874,1747638500160,2.4566982,-0.33636108,0.0477162,-0.13255386,-0.7272137,8.246057
875,1747638500170,3.2737887,-0.31562817,0.045033116,-0.0098499125,-0.72049433,8.731069
876,1747638500180,3.5901942499999997,-0.10514332500000001,0.061146861,0.08656850625,-0.6972821499999999,8.288796375
877,1747638500190,3.9065998,0.10534152,0.077260606,0.182986925,-0.6740699699999999,7.84652375
878,1747638500200,4.125759,0.28937665,0.2180615,0.590842,-0.73698723,6.7946067
879,1747638500210,3.966023975,0.6561739499999999,0.2742538,0.7842896850000001,-0.782189935,6.4418425500000005
880,1747638500220,3.80628895,1.0229712499999999,0.33044609999999996,0.97773737,-0.82739264,6.0890784
881,1747638500230,3.3282125,1.4034355,-0.010366458,1.6637952,-0.641695,4.144675
882,1747638500240,3.3282125,1.4034355,-0.010366458,1.6637952,-0.641695,4.144675
883,1747638500250,3.3282125,1.4034355,-0.010366458,1.6637952,-0.641695,4.144675
884,1747638500260,2.7061336,1.8029406,-0.15656401,0.66246384,0.05833591,2.179503
885,1747638500270,2.5832452999999997,1.8552912,-0.0749281505,0.498298645,0.088267428,1.7381658500000001
886,1747638500280,2.460357,1.9076418,0.006707709,0.33413345,0.118198946,1.2968287
887,1747638500290,2.4513321,1.8855521,-0.000487833,0.30233120999999996,0.102927763,1.06043083
888,1747638500300,2.4423072,1.8634624,-0.007683375,0.27052897,0.08765658,0.82403296
889,1747638500310,2.2907436,1.7829394,0.055765446,0.07986828,0.16592139,-1.2779688
890,1747638500320,2.24340845,1.72522255,0.071269403,0.089221875,0.228838645,-1.6701327
891,1747638500330,2.1960733,1.6675057,0.08677336,0.09857547,0.2917559,-2.0622966
892,1747638500340,2.1762855,1.5503649,0.12945877,0.19951798,0.32596338,-2.6071725
893,1747638500350,2.2036193500000003,1.44359035,0.083587192,0.32661239,0.27740101500000003,-3.0470207
894,1747638500360,2.2309532,1.3368158,0.037715614,0.4537068,0.22883865,-3.4868689
895,1747638500370,2.5948465,1.0913137,-0.09235295,0.35436776000000003,0.156453255,-4.28555165
896,1747638500380,2.7467608500000003,0.997710665,-0.07844970000000001,0.233954495,0.17309884250000002,-4.666873025
897,1747638500390,2.8986752,0.90410763,-0.06454645,0.11354123,0.18974443,-5.0481944
898,1747638500400,3.031183,0.7584284,0.0037807084,0.08857285,0.3198549,-6.288902
899,1747638500410,3.1041598500000003,0.63224727,0.0467405322,0.103844035,0.32810132999999997,-6.3982434999999995
900,1747638500420,3.1771367,0.50606614,0.089700356,0.11911522,0.33634776,-6.507585
901,1747638500430,3.2767155,0.25519782,0.07994369,0.17271706,0.36994436,-6.984046
902,1747638500440,3.3047812,0.026647900000000002,0.071025487,0.22597530500000002,0.39529453000000003,-7.3071839999999995
903,1747638500450,3.3328469,-0.20190202,0.062107284,0.27923355,0.4206447,-7.630322
904,1747638500460,2.8401048,-0.8527632,0.0045124586,0.4892123,0.46523654,-8.415338
905,1747638500470,2.74298025,-0.92012995,0.0009756667999999999,0.52131997,0.4362213,-8.4303035
906,1747638500480,2.6458557,-0.9874967,-0.002561125,0.55342764,0.40720606,-8.445269
907,1747638500490,2.2709863,-1.2559268,-0.018171793,0.621308,0.30885965,-8.246057
908,1747638500500,2.1494547749999997,-1.3123097499999998,-0.017988855249999998,0.626614735,0.425226075,-7.977589350000001
909,1747638500510,2.0279232499999997,-1.3686927,-0.0178059175,0.63192147,0.5415925,-7.7091217
910,1747638500520,1.7472667,-1.448743,0.005488125,0.63192147,0.5415925,-7.7091217
911,1747638500530,1.6492884,-1.4522798,-0.007805334000000001,0.745959015,0.6338304,-7.4727236999999995
912,1747638500540,1.5513101,-1.4558166,-0.021098793,0.85999656,0.7260683,-7.2363257
913,1747638500550,1.29542625,-1.4510603,-0.0690589065,0.96063363,0.7016344299999999,-6.98374035
914,1747638500560,1.0395424,-1.446304,-0.11701902,1.0612707,0.67720056,-6.731155
915,1747638500570,0.60634637,-1.5792994,-0.23562351,1.2419288,0.52815384,-6.211935
916,1747638500580,0.21159772,-1.7288966000000001,-0.316039785,1.3160704,0.2840821685,-5.9153305
917,1747638500590,-0.18315093,-1.8784938,-0.39645606,1.390212,0.040010497,-5.618726
918,1747638500600,-1.287941,-2.0324967,-0.8044982,1.1167052,-0.5995466,-3.674399
919,1747638500610,-1.4574326,-2.07080685,-0.8447597,0.8864539499999999,-0.64871978,-2.99662585
920,1747638500620,-1.6269242,-2.109117,-0.8850212,0.6562027,-0.69789296,-2.3188527
921,1747638500630,-1.7950741,-2.151345,-0.90310144,0.109188944,-0.7235486,-0.869312
922,1747638500640,-1.7617642999999998,-2.22016,-0.83671039,-0.331041053,-0.65330115,0.26170989999999994
923,1747638500650,-1.7284545,-2.288975,-0.77031934,-0.77127105,-0.5830537,1.3927318
924,1747638500660,-1.3982524,-2.2011344,-0.393773,-1.1762627,-1.173743,3.6150703
925,1747638500670,-1.3002741,-2.1415883,-0.33043087,-1.1448041,-1.3185137999999998,4.068319150000001
926,1747638500680,-1.2022958,-2.0820422,-0.26708874,-1.1133455,-1.4632846,4.521568
927,1747638500690,-0.9248100499999999,-1.97721905,-0.1913221325,-1.04916835,-1.55369,5.3062395
928,1747638500700,-0.6473243,-1.8723959,-0.115555525,-0.9849912,-1.6440954,6.090911
929,1747638500710,-0.055277612,-1.7420833,-0.016220458,-0.8896227,-1.6172181,7.1238537
930,1747638500720,0.310795564,-1.6403091,0.0089182035,-0.856293325,-1.50451675,7.57255885
931,1747638500730,0.67686874,-1.5385349,0.034056865,-0.82296395,-1.3918154,8.021264
932,1747638500740,1.3045579,-1.3437979,0.105067104,-0.79929364,-1.1645803,8.36395
933,1747638500750,1.4755129500000002,-1.25484455,0.107750187,-0.763444545,-0.9550596849999999,8.454966
934,1747638500760,1.646468,-1.1658912,0.11043327,-0.72759545,-0.74553907,8.545982
935,1747638500770,1.9204169000000002,-0.958943165,0.24746870499999998,-0.72079974,-0.47126865,8.6693735
936,1747638500780,2.1479302000000002,-0.8887790025,0.3194012525,-0.4433605625,-0.4422534125,8.7539755
937,1747638500790,2.3754435,-0.81861484,0.3913338,-0.165921385,-0.413238175,8.8385775
938,1747638500800,3.2254624,-0.31050593,0.14851476,0.37521294,-0.5879405,8.14832
939,1747638500810,3.2219257,-0.20690232,0.030520069999999996,0.3608962,-0.49845137500000003,8.0273725
940,1747638500820,3.218389,-0.10329871,-0.08747462,0.34657946,-0.40896225,7.906425
941,1747638500830,3.01606,0.32767156,0.16754027,0.26556584,0.28259322,7.927194
942,1747638500840,3.4666961,0.44225139999999996,0.248078505,0.6671215699999999,0.06051205999999998,7.81384365
943,1747638500850,3.9173322,0.55683124,0.32861674,1.0686773,-0.1615691,7.7004933
944,1747638500860,4.0810919,0.7313231499999999,0.222208087,1.3042353,-0.294428385,7.24663365
945,1747638500870,4.2448516,0.90581506,0.115799434,1.5397933,-0.42728767,6.792774
946,1747638500880,4.07936935,1.4670215,-0.202923425,1.6301223,-0.30939415,5.662707
947,1747638500890,3.853632125,1.7311299500000001,-0.1880368875,1.3631438500000002,-0.209215195,4.5460399
948,1747638500900,3.6278949,1.9952384,-0.17315035,1.0961654,-0.10903624,3.4293728
949,1747638500910,3.3689466,2.1599736,-0.10921369,0.93291646,-0.09804098,2.5393684
950,1747638500920,3.3036683,2.2621137,-0.059302241,0.9391394799999999,-0.124918265,1.8505999499999999
951,1747638500930,3.23839,2.3642538,-0.009390792,0.9453625,-0.15179555,1.1618315
952,1747638500940,3.3198888,2.2383318,-0.27297324,0.76966757,-0.029626092,-0.76546794
953,1747638500950,3.27974925,2.1374114,-0.31030774,0.602677185,0.07914289399999999,-1.42793182
954,1747638500960,3.2396097,2.036491,-0.34764224,0.4356868,0.18791188,-2.0903957
955,1747638500970,2.9472299,1.68116515,-0.317137405,0.10483666,0.40964943,-3.6554627
956,1747638500980,2.7882343499999998,1.4313792250000001,-0.2693068775,0.139387705,0.23429809599999998,-4.2238562
957,1747638500990,2.6292388,1.1815933,-0.22147635,0.17393875,0.058946762,-4.7922497
958,1747638501000,2.7007673,0.9614585,-0.23245259,0.17393875,0.058946762,-4.7922497
959,1747638501010,2.90820315,0.7479247,-0.22964754999999998,0.13656253499999998,-0.085824039,-5.11416605
960,1747638501020,3.115639,0.5343909,-0.22684251,0.09918632,-0.23059484,-5.4360824
961,1747638501030,3.3674831,0.012622688,-0.11409202,-0.1880646,-0.23609246,-6.5485115
962,1747638501040,3.3788405499999996,-0.10927467099999999,-0.087489859,-0.261900765,-0.1157555527,-6.78582575
963,1747638501050,3.390198,-0.23117203,-0.060887698,-0.33573693,0.0045813546,-7.02314
964,1747638501060,3.2583914,-0.5723505,-0.000365875,-0.48898324,0.5067741,-7.5900064
965,1747638501070,2.99824655,-0.7838796,0.06412721349999999,-0.38617002,0.5617503699999999,-7.8053302
966,1747638501080,2.7381017,-0.9954087,0.128620302,-0.2833568,0.61672664,-8.020654
967,1747638501090,2.66501055,-1.0424465,0.140396901,-0.16496695150000001,0.550755145,-8.007826
968,1747638501100,2.5919194,-1.0894843,0.1521735,-0.046577103,0.48478365,-7.994998
969,1747638501110,2.1048026,-1.36088735,0.249907885,0.35093175,0.249302035,-7.80502435
970,1747638501120,1.9770436,-1.401644325,0.1682186625,0.5543820749999999,0.23509983750000002,-7.615050875
971,1747638501130,1.8492846,-1.4424013,0.08652944,0.7578324,0.22089764,-7.4250774
972,1747638501140,1.6271986,-1.5021913,-0.03158721,0.75844324,0.43347248,-7.2442665
973,1747638501150,1.3907213999999999,-1.51682625,-0.085401325,0.69270082,0.64482562,-7.0604017500000005
974,1747638501160,1.1542442,-1.5314612,-0.13921544,0.6269584,0.85617876,-6.876537
975,1747638501170,0.4701799,-1.7901654,-0.08845028,0.71171343,0.9166527,-6.4342833
976,1747638501180,0.244313049,-1.81384055,-0.09149924000000001,0.8556443149999999,0.69369344,-6.28034965
977,1747638501190,0.018446198,-1.8375157,-0.0945482,0.9995752,0.47073418,-6.126416
978,1747638501200,-0.7695876,-1.7672068,-0.38816288,1.2553293,-0.23548161,-5.29375505
979,1747638501210,-0.9443234,-1.7427999,-0.50102006,1.1797942,-0.327108705,-4.694513775
980,1747638501220,-1.1190592,-1.718393,-0.61387724,1.1042591,-0.4187358,-4.0952725
981,1747638501230,-1.5546944,-1.7083925,-0.859166,-0.14751962,-0.037567105,-1.8265097
982,1747638501240,-1.57323205,-1.75220595,-0.8432961999999999,-0.45095801,-0.024739313500000002,-1.35737898
983,1747638501250,-1.5917697,-1.7960194,-0.8274264,-0.7543964,-0.011911522,-0.88824826
984,1747638501260,-1.5912819,-1.9034038,-0.60046184,-1.5588058,-0.36803547,0.7421794
985,1747638501270,-1.55199605,-1.8500774500000001,-0.45781633,-1.612407675,-0.60977827,1.479338475
986,1747638501280,-1.5127102,-1.7967511,-0.31517082,-1.66600955,-0.85152107,2.21649755
987,1747638501290,-1.2757452,-1.6983918,-0.19973727,-1.5183372,-1.2433796,3.6981456
988,1747638501300,-1.018275895,-1.671736225,-0.1608173175,-1.4451119000000001,-1.3295091,4.0557967999999995
989,1747638501310,-0.7608065900000001,-1.64508065,-0.12189736500000001,-1.3718866,-1.4156386,4.413448
990,1747638501320,-0.3903428995,-1.5714406749999998,-0.1034664075,-1.1027320250000001,-1.44862435,5.32609185
991,1747638501330,-0.019879209,-1.4978007,-0.08503545,-0.83357745,-1.4816101,6.2387357
992,1747638501340,0.26321658,-1.4633781,-0.08064495,-0.7201889,-1.4076976,6.668772
993,1747638501350,0.61793239,-1.4002951,-0.069668699,-0.60240992,-1.3154596500000002,7.0242852
994,1747638501360,0.9726482,-1.3372121,-0.058692448,-0.48463094,-1.2232217,7.3797984
995,1747638501370,2.0245085,-0.98310614,-0.095523864,-0.30954686,-1.437629,7.5471706
996,1747638501380,2.1429909499999997,-0.87816102,-0.112247407,-0.30828698,-1.3921209,7.4787558
997,1747638501390,2.2614734,-0.7732159,-0.12897095,-0.3070271,-1.3466128,7.410341
998,1747638501400,2.4078844,-0.37785742,-0.14628904,-0.45408857,-0.82250583,7.3559756
999,1747638501410,2.35725645,-0.284635515,-0.091133375,-0.514524285,-0.655744535,7.5233476
1000,1747638501420,2.3066285,-0.19141361,-0.03597771,-0.57496,-0.48898324,7.6907196
