id,timestamp,acc_x,acc_y,acc_z,gyro_x,gyro_y,gyro_z
0,1747638623110,0.13241626,0.6451901,0.8828564,-0.6547519,-0.23364908,-0.27854636
1,1747638623120,0.13241626,0.6451901,0.8828564,-0.6547519,-0.23364908,-0.27854636
2,1747638623130,0.0015854583,0.60491335,0.88968605,-0.34131092,-0.31244838,-0.4062898
3,1747638623140,-0.06649778435,0.6436579825,0.7827286,-0.15828580275,-0.392316655,-0.41514707500000003
4,1747638623150,-0.134581027,0.682402615,0.67577115,0.024739314499999998,-0.47218493000000006,-0.42400435000000003
5,1747638623160,-0.10921369,0.7496474,0.55411774,-0.21356747,-0.25747213,-0.06902574
6,1747638623170,-0.07479095,0.7231672,0.56265482,-0.35096993499999996,-0.17714571,0.05741964500000002
7,1747638623180,-0.04036821,0.696687,0.5711919,-0.4883724,-0.09681929,0.18386503
8,1747638623190,0.1285136,0.68104583,0.8584342,-0.7737144,-0.111479625,0.3994941
9,1747638623200,0.155237715,0.678606665,0.9134679,-0.7777612700000001,-0.33840938750000005,0.35429140000000003
10,1747638623210,0.18196183,0.6761675,0.9685016,-0.78180814,-0.56533915,0.3090887
11,1747638623220,0.14851476,0.5556117,0.8337987,-0.72759545,-1.2073396,0.4123219
12,1747638623230,0.09726177,0.5879459,0.7260485,-0.686172375,-1.0576820150000001,0.4978405
13,1747638623240,0.04600878,0.6202801,0.6182983,-0.6447493,-0.90802443,0.5833591
14,1747638623250,0.074577525,0.5453672,0.5939066,-0.5431959,-0.63619745,0.5595361
15,1747638623260,0.0936030225,0.5298785,0.6135419,-0.557207225,-0.60809845,0.50089475
16,1747638623270,0.11262852,0.5143898,0.6331772,-0.57121855,-0.57999945,0.4422534
17,1747638623280,0.13802634,0.48630884,0.53558004,-0.8709155,-0.9397885,0.15882029
18,1747638623290,0.13009905,0.4634874,0.369015435,-1.3267220499999999,0.06600970000000006,0.314586335
19,1747638623300,0.12217176,0.44066596,0.20245083,-1.7825286,1.0718079,0.47035238
20,1747638623310,0.0738457715,0.40077033,0.257484535,-1.8759883,1.2785796500000002,0.5445703399999999
21,1747638623320,0.025519783,0.3608747,0.31251824,-1.969448,1.4853514,0.6187883
22,1747638623330,0.050155364,0.31084132,0.8125474,-2.5576174,0.879391,0.8185353
23,1747638623340,0.15144176199999998,0.28301957,0.696626,-2.60995945,0.4706959985,0.88908817
24,1747638623350,0.25272816,0.25519782,0.5807046,-2.6623015,0.062000997,0.95964104
25,1747638623360,0.36401513,-0.20580468,0.7671789,-1.648524,0.5141043,0.47035238
26,1747638623370,0.32715323500000004,-0.191291645,0.730804835,-1.432627675,-0.030351469999999936,0.1930277325
27,1747638623380,0.29029134,-0.17677861,0.69443077,-1.2167313499999999,-0.5748072399999999,-0.084296915
28,1747638623390,0.004024625,0.03506302,0.27882725,-0.8267054,-2.1126153,-0.40079215
29,1747638623400,-0.023240686,-0.10373319,0.17285307475,-0.7762341500000001,-2.31724915,-0.312181125
30,1747638623410,-0.050505997,-0.2425294,0.06687889949999999,-0.7257629,-2.521883,-0.2235701
31,1747638623420,-0.032562874,-0.3746865,-0.013293459,-0.92016506,-2.4498029,-0.07269082
32,1747638623430,0.036130158,-0.432403275,-0.1554511395,-1.22329803,-2.2524992499999996,-0.013744060000000002
33,1747638623440,0.10482319,-0.49012005,-0.29760882,-1.526431,-2.0551956,0.0452027
34,1747638623450,0.06945527,-0.46548447,-0.34178823,-1.9631867,-1.8493401,0.12216945
35,1747638623460,0.127294005,-0.37785741500000003,-0.250517665,-2.2803310000000003,-1.7674866,0.40041039
36,1747638623470,0.18513274,-0.29023036,-0.1592471,-2.5974753,-1.6856331,0.67865133
37,1747638623480,0.84648234,-0.18068127,0.111165024,-2.5781572,-2.5395975,1.0109522
38,1747638623490,1.14483812,-0.135038365,0.117384899,-2.44858125,-2.898203,0.90710817
39,1747638623500,1.4431939,-0.08939546,0.123604774,-2.3190053,-3.2568085,0.80326414
40,1747638623510,1.8567241499999998,-0.001905594999999996,-0.07407444799999999,-2.3654296500000003,-3.47518645,0.14228922
41,1747638623520,2.2702544,0.08558427,-0.27175367,-2.411854,-3.6935644,-0.5186857
42,1747638623530,2.1594553,0.7337623,-0.013049542,-4.4829316,-2.8768616,-1.8155144
43,1747638623540,2.2368226499999997,0.9176602,0.31898202899999994,-4.9296901,-2.7861507,-1.8323127000000001
44,1747638623550,2.31419,1.1015581,0.6510136,-5.3764486,-2.6954398,-1.849111
45,1747638623560,3.3428473,1.2684886,2.1933901,-5.378281,-3.166403,-2.116662
46,1747638623570,3.57005565,1.2823919,2.4177782499999996,-4.5539426,-2.7745064,-3.2272205
47,1747638623580,3.797264,1.2962952,2.6421664,-3.7296042,-2.3826098,-4.337779
48,1747638623590,3.797264,1.2962952,2.6421664,-3.2884963,-1.7485503,-5.2833705
49,1747638623600,3.619898575,1.3261901750000002,3.27461945,-3.17167175,-1.8310146999999999,-5.47124425
50,1747638623610,3.44253315,1.3560851500000002,3.9070725,-3.0548472,-1.9134791,-5.659118
51,1747638623620,3.4797456,1.1259499,5.4838567,-1.0940274,-3.5164187,-6.7164946
52,1747638623630,3.47559905,1.05493965,5.66848635,-0.2749576,-3.40157935,-6.85607315
53,1747638623640,3.4714525,0.9839294,5.853116,0.5441122,-3.28674,-6.9956517
54,1747638623650,3.6376512,0.4482274,6.0463896,3.7934377,-2.5151637,-7.6339874
55,1747638623660,3.5892032499999997,-0.0019056000000000073,5.8538325,5.17387615,-2.8114628,-8.385978699999999
56,1747638623670,3.5407553,-0.4520386,5.6612754,6.5543146,-3.1077619,-9.13797
57,1747638623680,3.42678525,-0.63288755,5.5617117,6.9568248,-3.3667610999999997,-9.433924999999999
58,1747638623690,3.3128152,-0.8137365,5.462148,7.359335,-3.6257603,-9.72988
59,1747638623700,3.1147701000000003,-1.06216565,5.23884215,7.7079759999999995,-4.0127319,-9.8899225
60,1747638623710,2.916725,-1.3105948,5.0155363,8.056617,-4.3997035,-10.049965
61,1747638623720,2.8708687,-1.7559866,3.7721102,8.247278,-4.3569446,-10.503824
62,1747638623730,2.8792839,-1.79711705,3.4780383,8.00271,-4.2665391,-10.6476785
63,1747638623740,2.8876991,-1.8382475,3.1839664,7.758142,-4.1761336,-10.791533
64,1747638623750,2.527983,-1.8204112,2.321751,6.424739,-2.9226751,-11.15995
65,1747638623760,2.0847864,-1.7801496499999998,2.10808015,5.5795172,-2.9443601,-10.975436
66,1747638623770,1.6415898,-1.7398881,1.8944093,4.7342954,-2.9660451,-10.790922
67,1747638623780,1.3804768,-1.731351,1.652078,4.1585717,-3.3484356,-10.453124
68,1747638623790,1.2379533,-1.6924158,1.4163326,3.7722681000000002,-3.462969475,-10.1904595
69,1747638623800,1.0954298,-1.6534806,1.1805872,3.3859645,-3.5775033499999997,-9.927795
70,1747638623810,0.92703575,-1.601252,0.8459944,2.4401057,-2.7131546,-9.1538515
71,1747638623820,0.7726670250000001,-1.52841235,0.70908095,2.1317042,-2.0955498,-8.745805749999999
72,1747638623830,0.6182983,-1.4555727,0.5721675,1.8233027,-1.477945,-8.33776
73,1747638623840,0.476506475,-1.4128568000000001,0.524466565,1.5780857,-1.371963,-7.8493492499999995
74,1747638623850,0.33471465,-1.3701409,0.47676563,1.3328687,-1.265981,-7.3609385
75,1747638623860,0.20732918,-1.4057833,0.1533931,0.7004891,-1.4669497,-6.291345
76,1747638623870,0.07860215200000001,-1.4689882,0.011601289999999986,0.47680446499999996,-0.833806515,-5.979202
77,1747638623880,-0.050124876,-1.5321931,-0.13019052,0.25311983,-0.20066333,-5.667059
78,1747638623890,-0.7097975,-1.5829582,-0.043569613,-0.21112408,1.7321337,-4.2571473
79,1747638623900,-0.9041838,-1.61699985,0.07444032350000002,-0.130110465,1.7730605000000002,-3.7626664499999998
80,1747638623910,-1.0985701,-1.6510415,0.19245026,-0.04909685,1.8139873,-3.2681856
81,1747638623920,-1.3662688,-1.7584258,0.056009363,0.401403,1.6466151,-2.1808012
82,1747638623930,-1.35187765,-1.812118,-0.12311693349999997,0.7814645499999999,1.69426125,-1.553766425
83,1747638623940,-1.3374865,-1.8658102,-0.30224323,1.1615261,1.7419074,-0.92673165
84,1747638623950,-1.531004,-1.9219414,-0.6739418,2.6301556,1.1988641,-0.4050681
85,1747638623960,-1.57932995,-1.9685598999999998,-1.02853565,3.2672693,0.21078047,-0.2367415
86,1747638623970,-1.6276559,-2.0151784,-1.3831295,3.904383,-0.77730316,-0.0684149
87,1747638623980,-1.5961602,-2.1110682,-1.7904397,4.0875607,-1.5451381,0.052532863
88,1747638623990,-1.7940833,-2.0941161,-1.9623705500000002,4.0257123749999995,-1.6360016499999999,0.28480752400000003
89,1747638624000,-1.9920064,-2.077164,-2.1343014,3.9638640499999998,-1.7268652,0.517082185
90,1747638624010,-2.182871,-2.0095685,-2.106495,3.9000306,-1.5549117,1.5393351
91,1747638624020,-2.222157,-2.001382,-2.1461467,3.8208878,-1.67311065,1.8667492
92,1747638624030,-2.261443,-1.9931955,-2.1857984,3.741745,-1.7913096,2.1941633
93,1747638624040,-1.9246551,-1.9870977,-2.4913344,3.0495021,-1.9446323,3.148994
94,1747638624050,-1.7914156,-1.9388937,-2.43117845,2.34324815,-1.7638215000000002,3.4736593
95,1747638624060,-1.6581761,-1.8906897,-2.3710225,1.6369942,-1.5830107,3.7983246
96,1747638624070,-1.4108293,-1.9069253499999999,-2.02789275,0.63909889,-1.52284225,4.15841915
97,1747638624080,-1.1634825,-1.923161,-1.684763,-0.35879642,-1.4626738,4.5185137
98,1747638624090,-0.5987544,-1.914136,-0.90285754,-1.4990191,-1.2183349,5.398821
99,1747638624100,-0.47978407,-1.89009495,-0.66965797,-1.52891245,-1.1517525000000002,5.662707
100,1747638624110,-0.36081374,-1.8660539,-0.4364584,-1.5588058,-1.0851701,5.926593
101,1747638624120,0.10567689400000001,-1.83384175,-0.233916095,-1.28526085,-0.8264763500000001,6.6516684999999995
102,1747638624130,0.405679167,-1.805280625,-0.2876082475,-1.2285856750000002,-0.663838275,6.8950910499999996
103,1747638624140,0.70568144,-1.7767195,-0.3413004,-1.1719105,-0.5012002,7.1385136
104,1747638624150,1.5937514,-1.6590908,-0.3808149,-2.1401796,0.9526926,7.641241
105,1747638624160,1.7071117,-1.6723994,-0.29125175000000003,-2.4834758,1.2352094999999998,7.6223049
106,1747638624170,1.820472,-1.685708,-0.2016886,-2.826772,1.5177264,7.6033688
107,1747638624180,1.8783108,-1.6593347,0.36279556,-3.2766612,0.44630027,7.413395
108,1747638624190,1.8443911499999999,-1.62163425,0.46296908000000003,-3.26387145,0.0009544499999999956,7.392321000000001
109,1747638624200,1.8104715,-1.5839338,0.5631426,-3.2510817,-0.44439137,7.371247
110,1747638624210,1.7633651,-1.5573469,0.6524771,-2.8186784,-0.95200545,7.4640956
111,1747638624220,1.70955095,-1.61433195,0.65881895,-2.5844184500000003,-0.7702783950000001,7.60676645
112,1747638624230,1.6557368,-1.671317,0.6651608,-2.3501585,-0.58855134,7.7494373
113,1747638624240,1.6564686,-1.7228138,0.59707755,-2.2547898,-0.48776153,7.8086896
114,1747638624250,1.67929005,-1.73171685,0.57267061,-2.26040205,-0.423927995,7.8157143
115,1747638624260,1.7021115,-1.7406199,0.54826367,-2.2660143,-0.36009446,7.822739
116,1747638624270,1.72907955,-1.7697831499999999,0.557166635,-2.33580365,-0.33779853000000004,7.7139701
117,1747638624280,1.7560476,-1.7989464,0.5660696,-2.405593,-0.3155026,7.6052012
118,1747638624290,1.6735734,-1.8923969,0.8743193,-2.3576415,-0.9306258,7.197155
119,1747638624300,1.6723537,-1.9370641499999999,0.914824715,-2.23673175,-1.13678675,7.2145643
120,1747638624310,1.671134,-1.9817314,0.95533013,-2.115822,-1.3429477,7.2319736
121,1747638624320,1.8702615,-2.0485952,1.0078027,-1.5619365,-1.7369442,7.4140058
122,1747638624330,1.9282222,-2.0183342499999997,0.9833958,-1.4475935,-1.69968255,7.4106462
123,1747638624340,1.9861829,-1.9880733,0.9589889,-1.3332505,-1.6624209,7.4072866
124,1747638624350,2.0186543,-1.9431622,0.84257966,-1.2952253,-1.2238325,7.498914
125,1747638624360,2.114620275,-1.9570197249999999,0.6991413975,-1.74120105,-0.49308737,7.708014500000001
126,1747638624370,2.2105862500000004,-1.97087725,0.555703135,-2.1871768,0.23765776,7.917115000000001
127,1747638624380,2.5042925,-1.9941713,0.5963458,-3.6249967,1.3656254,8.269879
128,1747638624390,2.6230188500000002,-1.95329995,0.744235525,-4.0256362,1.53269215,8.29614575
129,1747638624400,2.7417452,-1.9124286,0.89212525,-4.4262757,1.6997589,8.3224125
130,1747638624410,2.9740758,-1.7286679,1.4497797,-5.0817146,1.9660883,8.034703
131,1747638624420,3.0706059000000003,-1.5409893000000001,1.65002,-4.8742175,1.83109105,7.6006578000000005
132,1747638624430,3.167136,-1.3533107,1.8502603,-4.6667204,1.6960938,7.1666126
133,1747638624440,3.155672,-1.0192058,1.9229782,-4.205683,1.3472999,6.4586406
134,1747638624450,3.26218735,-0.7866312499999999,2.00071135,-3.907857,1.08982782,5.990426299999999
135,1747638624460,3.3687027,-0.5540567,2.0784445,-3.610031,0.83235574,5.522212
136,1747638624470,3.5439262,-0.094517715,2.2165623,-2.8934307,0.12003148,4.8031683
137,1747638624480,3.67962025,0.035916727499999995,2.2191234,-2.6921947,-0.13072131,4.56890845
138,1747638624490,3.8153143,0.16635117,2.2216845,-2.4909587,-0.3814741,4.3346486
139,1747638624500,3.89304735,0.477634585,2.21253765,-2.45106285,-0.49264830000000004,3.92018865
140,1747638624510,3.9707804,0.788918,2.2033908,-2.411167,-0.6038225,3.5057287
141,1747638624520,4.5479484,1.4451759,2.8901381,-2.8667061,0.39926505,3.5277193
142,1747638624530,4.8588657,1.4684851,3.0885491,-2.8909874,0.645131075,3.26047365
143,1747638624540,5.169783,1.4917943,3.2869601,-2.9152687,0.8909971,2.993228
144,1747638624550,5.8025947,1.3436455,4.11646,-2.5460877,1.88942685,1.28125215
145,1747638624560,5.93767885,0.919245715,4.3774657999999995,-1.93718755,2.436936925,0.02821352499999996
146,1747638624570,6.072763,0.49484593,4.6384716,-1.3282874,2.984447,-1.2248251
147,1747638624580,5.2337203,-0.56503296,4.8883953,1.88622,3.7547255,-4.2217183
148,1747638624590,5.014683,-0.7533214100000001,4.78174265,2.65321505,3.5003076,-4.7409384
149,1747638624600,4.7956457,-0.94160986,4.67509,3.4202101,3.2458897,-5.2601585
150,1747638624610,4.1540537,-1.9668525,3.7323215,5.3168907,2.3875728,-6.1062584
151,1747638624620,4.13978435,-2.10094575,3.4808434,5.486057349999999,2.2421911999999997,-6.261718999999999
152,1747638624630,4.125515,-2.235039,3.2293653,5.655224,2.0968096,-6.4171796
153,1747638624640,4.062524,-2.3519664,2.9948394,6.019136,1.9190531,-7.139201
154,1747638624650,4.2362838499999995,-2.5297511999999998,2.7516392,6.2798915,1.65058565,-7.612302
155,1747638624660,4.4100437,-2.707536,2.508439,6.540647,1.3821182,-8.085403
156,1747638624670,4.460443,-2.7609843,2.4390143,6.563057499999999,1.51283955,-8.3835345
157,1747638624680,4.5108423,-2.8144326,2.3695896,6.585468,1.6435609,-8.681666
158,1747638624690,4.3619769999999995,-2.9174111,2.2058147,6.9362852,1.8799587999999998,-9.397885500000001
159,1747638624700,4.2388525,-2.9225409,1.9656711,7.12757575,1.7919968,-9.693077250000002
160,1747638624710,4.115728,-2.9276707,1.7255275,7.3188663,1.7040348,-9.988269
161,1747638624720,3.4255657,-2.770497,0.6463792,6.951213,1.5934714,-10.521539
162,1747638624730,3.2184957,-2.70985325,0.5336287150000001,6.670223,1.61088055,-10.5068785
163,1747638624740,3.0114257,-2.6492095,0.42087823,6.389233,1.6282897,-10.492218
164,1747638624750,2.0449972,-2.3021772,0.26687533,5.374845,1.1518289,-10.03958
165,1747638624760,1.8642855,-2.21919965,0.19036172,5.21346685,1.02110755,-9.81601
166,1747638624770,1.6835738,-2.1362221,0.11384811,5.0520887,0.8903862,-9.59244
167,1747638624780,1.5290831,-2.0024643,-0.12628786,4.086339,0.6906392,-8.610808
168,1747638624790,1.3214033325,-1.842127225,-0.16137374399999999,3.5719675,0.51135552,-8.15813215
169,1747638624800,1.113723565,-1.6817901499999999,-0.196459628,3.057596,0.33207184,-7.7054563
170,1747638624810,0.82404196,-1.4772813,0.0052442085,2.8320405,-0.11270132,-7.225941
171,1747638624820,0.8451560149999999,-1.4316536,-0.01695220825,2.79214465,-0.25686126,-7.000538499999999
172,1747638624830,0.86627007,-1.3860259,-0.039148625,2.7522488,-0.4010212,-6.775136
173,1747638624840,1.0736908,-1.3057165,-0.43231183,2.3036578,0.23372543,-6.3921347
174,1747638624850,0.9102970800000001,-1.3224399999999998,-0.389855065,1.61015525,0.635357515,-6.25591585
175,1747638624860,0.74690336,-1.3391635,-0.3473983,0.9166527,1.0369896,-6.119697
176,1747638624870,0.4982303,-1.2974232,-0.2107135,0.6094729,1.12373,-5.795948
177,1747638624880,0.4087891,-1.2327548,-0.12945876750000002,0.49764965,1.049512,-5.4840722
178,1747638624890,0.3193479,-1.1680864,-0.048204035,0.3858264,0.975294,-5.1721964
179,1747638624900,0.2878674,-1.1132966,-0.0356270805,0.319473115,1.02110755,-4.935492999999999
180,1747638624910,0.2563869,-1.0585068,-0.023050126,0.25311983,1.0669211,-4.6987896
181,1747638624920,0.194630265,-1.004433635,-0.040505413000000004,0.05902311785,1.41174435,-4.24920605
182,1747638624930,0.1659624275,-0.9595910675,-0.0441108065,-0.015290268575000002,1.680517125,-3.9311074
183,1747638624940,0.13729459,-0.9147485,-0.0477162,-0.089603655,1.9492899,-3.61300875
184,1747638624950,0.0018293752,-0.85178757,-0.009146876,-0.16439427,2.1737764,-2.9835308
185,1747638624960,0.004161828249999999,-0.85899836,0.09982289700000001,-0.03756710499999999,1.9468466,-2.8060415
186,1747638624970,0.0064942813,-0.86620915,0.20879267,0.08926006,1.7199168,-2.6285522
187,1747638624980,-0.010610376,-0.84032345,0.3603564,0.70171076,1.0968527,-2.260822
188,1747638624990,0.031861617,-0.803720675,-0.15837815,1.5989690300000001,0.640855175,-1.85460865
189,1747638625000,0.07433361,-0.7671179,-0.6771127,2.4962273,0.18485765,-1.4483953
190,1747638625010,0.00085370836,-0.8024858,-1.1490915,2.1385763,0.49272466,-1.4227396
191,1747638625020,-0.25038046082,-0.88497542,-1.24853325,1.58060545,0.9371160300000001,-1.4260993000000002
192,1747638625030,-0.50161463,-0.96746504,-1.347975,1.0226346,1.3815074,-1.429459
193,1747638625040,-0.819605715,-1.00542452,-1.2261996,0.83693705,1.2208546,-1.26239225
194,1747638625050,-1.1375968,-1.043384,-1.1044242,0.6512395,1.0602018,-1.0953255
195,1747638625060,-1.4426757,-1.0472867,-1.027316,0.7060631,0.32779592,-0.729428
196,1747638625070,-1.618631,-0.97577337,-1.0863743499999998,0.7683695,-0.11938243999999998,-0.450843465
197,1747638625080,-1.7945863,-0.90426004,-1.1454327,0.8306759,-0.5665608,-0.17225893
198,1747638625090,-1.9951774,-0.9350241,-1.2650129,0.5341096,-0.47065783,0.1783674
199,1747638625100,-2.0723007,-0.927462675,-1.2207115000000002,0.5468991999999999,-0.562895745,0.18753011
200,1747638625110,-2.149424,-0.91990125,-1.1764101,0.5596888,-0.65513366,0.19669282
201,1747638625120,-2.4715772,-0.88035625,-1.065367,1.0163735,-1.5500249,0.1643179
202,1747638625130,-2.5152534500000003,-0.922081275,-1.1335874499999998,1.1824094,-2.0209881999999997,0.3915531
203,1747638625140,-2.5589297,-0.9638063,-1.2018079,1.3484453,-2.4919515,0.6187883
204,1747638625150,-2.5589297,-0.9638063,-1.2018079,1.3484453,-2.4919515,0.6187883
205,1747638625160,-2.4144548500000003,-1.0531255,-1.24280115,0.9378414150000001,-2.04694925,0.66490725
206,1747638625170,-2.26998,-1.1424447,-1.2837944,0.52723753,-1.601947,0.7110262
207,1747638625180,-2.018624,-1.2825444,-0.7586113,-0.7320241,0.31680065,1.1520579
208,1747638625190,-1.9382076499999998,-1.3229278,-0.65342225,-0.7479061300000001,0.725457475,1.4040324
209,1747638625200,-1.8577913,-1.3633112,-0.5482332,-0.76378816,1.1341143,1.6560069
210,1747638625210,-1.68622645,-1.36831155,-0.46905176,-0.54258509,1.1631295499999998,2.1868713499999997
211,1747638625220,-1.5146616,-1.3733119,-0.38987032,-0.32138202,1.1921448,2.7177358
212,1747638625230,-0.74763507,-1.2425115,-0.8115718,-0.122627586,-0.37292224,4.320599
213,1747638625240,-0.575216475,-1.2586252500000001,-0.8800209,-0.30767612299999997,-0.37994699,4.593953
214,1747638625250,-0.40279788,-1.274739,-0.94847,-0.49272466,-0.38697174,4.867307
215,1747638625260,-0.10552445,-1.4279797,-0.66439855,-1.453511,0.42003384,5.4067616
216,1747638625270,-0.0331726675,-1.486557775,-0.3383581725,-1.59526575,0.50158195,5.931174
217,1747638625280,0.039179115,-1.5451358499999999,-0.012317794999999993,-1.7370205,0.58313006,6.4555864
218,1747638625290,0.14949043,-1.5978371,0.11701902,-1.7370205,0.58313006,6.4555864
219,1747638625300,0.607382965,-1.690822775,0.068578695,-1.6793718499999999,0.90596283,7.1819219499999996
220,1747638625310,1.0652755,-1.78380845,0.02013837,-1.6217232,1.2287956,7.9082575
221,1747638625320,1.6086609,-1.9163314,0.12311694,-2.8174567,2.063824,8.348679
222,1747638625330,1.63085725,-1.97307245,0.281266405,-3.0809991,2.0928391499999996,8.268658
223,1747638625340,1.6530536,-2.0298135,0.43941587,-3.3445415,2.1218543,8.188637
224,1747638625350,1.6894279,-2.2399478,1.264769,-3.2741413,1.5281107,7.855114
225,1747638625360,1.7260306,-2.2160287,1.4331629000000001,-2.19435425,0.5045979700000001,7.6040175
226,1747638625370,1.7626333,-2.1921096,1.6015568,-1.1145672,-0.51891476,7.352921
227,1747638625380,1.8012025,-2.1118,1.3638601,-0.21112408,-1.1920685,7.2154803
228,1747638625390,1.78033245,-2.04127755,1.03769775,0.07551599000000003,-1.3502779,7.19074115
229,1747638625400,1.7594624,-1.9707551,0.7115354,0.36215606,-1.5084873,7.166002
230,1747638625410,1.731168,-1.9024282,0.38182107,0.13660072,-0.9226848,7.565496
231,1747638625420,1.75104725,-1.8892414,0.299331505,-0.12415471,-0.6759025,7.71549725
232,1747638625430,1.7709265,-1.8760546,0.21684194,-0.38491014,-0.4291202,7.8654985
233,1747638625440,1.83268315,-1.89363185,0.190483685,-1.0173661200000002,0.019890715000000003,8.08967925
234,1747638625450,1.8944398,-1.9112091,0.16412543,-1.6498221,0.46890163,8.31386
235,1747638625460,2.2565951,-2.049083,0.6822349,-3.0168219,0.843351,8.382886
236,1747638625470,2.32577595,-2.0353016999999998,0.784497,-3.17041185,0.67628428,8.237809500000001
237,1747638625480,2.3949568,-2.0215204,0.8867591,-3.3240018,0.50921756,8.092733
238,1747638625490,2.4435267,-1.9421866,1.0805204,-3.2461188,0.27770644,7.5679393
239,1747638625500,2.48575485,-1.8371347,1.08173995,-3.2171416500000003,0.31435727999999996,7.58473765
240,1747638625510,2.527983,-1.7320828,1.0829595,-3.1881645,0.35100812,7.601536
241,1747638625520,2.9626117,-1.5021913,0.8110839,-3.7066212,0.39926505,7.606423
242,1747638625530,3.23912185,-1.30731715,0.8257341300000001,-4.2209546,0.486921625,7.3825475
243,1747638625540,3.515632,-1.112443,0.84038436,-4.735288,0.5745782,7.158672
244,1747638625550,4.046669,-0.6390007,1.0197546,-5.4692974,0.951471,6.63823
245,1747638625560,4.4426372,-0.06145175000000003,1.3110216000000001,-6.0730436,1.7614543999999999,5.85939965
246,1747638625570,4.8386054,0.5160972,1.6022886,-6.6767898,2.5714378,5.0805693
247,1747638625580,5.079961,0.8638614,1.9676453,-7.1298094,3.3717241,3.8893409
248,1747638625590,4.9924713,1.1359656999999999,2.7886078000000003,-7.1933757,3.26940725,2.68287935
249,1747638625600,4.9049816,1.40807,3.6095703,-7.256942,3.1670904,1.4764178
250,1747638625610,4.9047375,1.6191798,4.809061,-5.89857,2.3698583,0.5192202
251,1747638625620,4.79503575,1.83673825,5.3398695,-4.93465315,1.9147771000000002,0.227235195
252,1747638625630,4.685334,2.0542967,5.870678,-3.9707363,1.4596959,-0.06474981
253,1747638625640,4.96147835,2.2325846,6.2106369,-1.7709607649999999,0.4083895799999999,-0.32592519000000003
254,1747638625650,5.2376227,2.4108725,6.5505958,0.42881477,-0.64291674,-0.58710057
255,1747638625660,6.1059356,2.11802,5.125848,4.1149726,-0.22815146,-3.554673
256,1747638625670,5.9415663,1.9163161,4.855679500000001,4.246763,-0.010346229999999984,-3.9899017
257,1747638625680,5.777197,1.7146122,4.585511,4.3785534,0.207459,-4.4251304
258,1747638625690,4.934526,0.8265117,4.0720363,4.8178287,1.3436348,-5.828323
259,1747638625700,4.32732585,0.36014299499999997,3.64531935,5.186360349999999,1.485046,-6.2265952
260,1747638625710,3.7201257,-0.10622571,3.2186024,5.554892,1.6264572,-6.6248674
261,1747638625720,3.7201257,-0.10622571,3.2186024,5.9393444,1.423045,-6.899138
262,1747638625730,3.3042172250000004,-0.25217172499999996,2.693419325,5.8144262,1.0916603999999999,-6.926626199999999
263,1747638625740,2.88830875,-0.39811774,2.16823625,5.689508,0.7602758,-6.9541144
264,1747638625750,2.634361,-0.46865538,1.7501935,5.4545608,0.71507305,-6.873482
265,1747638625760,2.5737172,-0.48524174,1.56556385,5.2567606,0.8531245249999999,-6.86096
266,1747638625770,2.5130734,-0.5018281,1.3809342,5.0589604,0.991176,-6.848438
267,1747638625780,2.2848895,-0.55576414,0.9336215,4.3274713,1.5250565,-6.9412866
268,1747638625790,2.09886485,-0.6093343449999999,0.913170635,3.96355895,1.61851615,-6.9950411500000005
269,1747638625800,1.9128402,-0.6629045499999999,0.89271977,3.5996466,1.7119758,-7.0487957
270,1747638625810,1.6899157,-0.7783381,0.9563058,3.7255573,1.4627501,-7.092777
271,1747638625820,1.6639233500000001,-0.8652181750000001,0.84465295,3.96604035,1.1680163000000001,-7.16149725
272,1747638625830,1.637931,-0.95209825,0.7330001,4.2065234,0.8732825,-7.2302175
273,1747638625840,1.5647255,-1.0048147,0.45649004,4.3355646,0.65765345,-7.3517756
274,1747638625850,1.54166005,-1.0238554500000001,0.358267845,4.2666917,0.6252785249999999,-7.3933133
275,1747638625860,1.5185946,-1.0428962,0.26004565,4.1978188,0.5929036,-7.434851
276,1747638625870,1.4697808499999998,-0.9937164999999999,0.17401929700000002,3.8454744,0.57671615,-7.4602012
277,1747638625880,1.4209671,-0.9445368,0.087992944,3.49313,0.5605287,-7.4855514
278,1747638625890,1.3162658,-0.8852346,0.017470533,2.37841,0.9496384,-7.144088
279,1747638625900,1.25074375,-0.8619253499999999,0.11020459649999999,2.13636185,0.9365052,-7.0491012
280,1747638625910,1.1852217,-0.8386161,0.20293866,1.8943137,0.923372,-6.9541144
281,1747638625920,1.11226,-0.7995589,0.4674663,1.4313679,0.39682165,-6.5136933
282,1747638625930,1.185595075,-0.77948911,0.509694375,1.4540837500000001,0.013171390000000005,-6.3206656500000005
283,1747638625940,1.2589301499999999,-0.75941932,0.55192245,1.4767996,-0.37047887,-6.127638
284,1747638625950,1.2928499,-0.7397688,0.4982303,1.4767996,-0.37047887,-6.127638
285,1747638625960,1.3504447000000002,-0.68375942,0.43002510000000005,1.3088929500000002,-0.10258416000000004,-5.988364750000001
286,1747638625970,1.4080395,-0.62775004,0.3618199,1.1409863,0.16531055,-5.8490915
287,1747638625980,1.4134057,-0.5879916,0.67223436,0.99079424,1.0656995,-5.7134833
288,1747638625990,1.41840595,-0.598358065,0.7122519300000001,1.1129255200000001,1.0461523000000001,-5.6749618
289,1747638626000,1.4234062,-0.60872453,0.7522695,1.2350568,1.0266051,-5.6364403
290,1747638626010,1.3074849,-0.6655876,0.8481897,1.735417,0.26610035,-5.5319853
291,1747638626020,1.0862677,-0.587122675,0.70603203,2.1765632999999998,0.061122909999999975,-5.2519119
292,1747638626030,0.8650505,-0.50865775,0.56387436,2.6177096,-0.14385453,-4.9718385
293,1747638626040,0.8042695,-0.5571056750000001,0.44978234,2.78935765,0.006146655000000001,-4.834092399999999
294,1747638626050,0.7434885,-0.6055536,0.33569032,2.9610057,0.15614784,-4.6963463
295,1747638626060,0.31617698,-0.8461774,-0.014513042,3.448233,0.507385,-4.483161
296,1747638626070,0.017828790500000025,-0.9830299349999999,-0.31200753099999995,3.4666347,0.599622925,-4.4156623
297,1747638626080,-0.280519399,-1.1198824699999999,-0.60950202,3.4850364,0.69186085,-4.3481636
298,1747638626090,-0.89282644,-1.4760617,-1.0936918,2.582815,0.9197069,-3.690281
299,1747638626100,-0.97336467,-1.62078055,-1.16397035,2.3619173,0.91298757,-3.6093437
300,1747638626110,-1.0539029,-1.7654994,-1.2342489,2.1410196,0.90626824,-3.5284064
301,1747638626120,-2.0771945,-2.671406,-0.9472504,1.7902406,1.287437,-3.4532723
302,1747638626130,-2.3435667000000002,-2.875427,-0.84268637,2.1989738,1.0195804499999999,-3.4321980500000002
303,1747638626140,-2.6099389,-3.079448,-0.73812234,2.607707,0.7517239,-3.4111238
304,1747638626150,-3.1884482,-3.6031827,-0.92249287,4.33896275,-0.244033503,-2.9007228
305,1747638626160,-3.3638546,-3.73313695,-1.416012535,4.9735757,-0.5903839015,-2.135922915
306,1747638626170,-3.539261,-3.8630912,-1.9095322,5.60818865,-0.9367343,-1.37112303
307,1747638626180,-3.4519088,-3.6573477,-2.2111657,5.10256,-1.4351857,0.46607646
308,1747638626190,-3.25264405,-3.45625355,-2.37626675,4.480412,-1.47275275,1.1706887799999999
309,1747638626200,-3.0533793,-3.2551594,-2.5413678,3.858264,-1.5103198,1.8753011
310,1747638626210,-2.0376494,-2.511305,-2.555271,0.89924353,0.0015271181,4.581431
311,1747638626220,-1.16616561,-2.2924051,-2.1253831,-0.8391514350000001,0.7028179590499999,5.6935165
312,1747638626230,-0.29468182,-2.0735052,-1.6954952,-2.5775464,1.4041088,6.805602
313,1747638626240,0.03308120000000003,-1.96063275,-1.4507248000000001,-3.07790665,1.41937995,6.91860885
314,1747638626250,0.36084422,-1.8477603,-1.2059544,-3.5782669,1.4346511,7.0316157
315,1747638626260,1.2757757,-1.4680125,-0.53384215,-4.2692113,1.5384952,6.7946067
316,1747638626270,1.4380565,-1.35672555,-0.294437926,-4.2116008,1.22543598,6.485518
317,1747638626280,1.6003373,-1.2454386,-0.055033702,-4.1539903,0.91237676,6.1764293
318,1747638626290,1.5478798999999999,-1.0267825,0.080782153,-3.84585615,-0.09284878300000002,5.77937865
319,1747638626300,1.46551995,-0.971009425,0.0945100865,-3.733861175,-0.34008919150000005,5.740589825
320,1747638626310,1.38316,-0.91523635,0.10823802,-3.6218662,-0.5873296,5.701801
321,1747638626320,1.2838249,-0.9813987,0.11823861,-3.6704285,-0.5115846,6.0316586
322,1747638626330,1.2385479,-1.02678245,0.13935265,-3.74082865,-0.49967306499999997,6.0973246
323,1747638626340,1.1932709,-1.0721662,0.16046669,-3.8112288,-0.48776153,6.1629906
324,1747638626350,1.3328826,-1.2966914,0.1533931,-4.154601,-0.44133714,6.4751334
325,1747638626360,1.5288544000000002,-1.3788151499999999,0.35021860000000005,-4.3209425,-0.43064732,6.41924095
326,1747638626370,1.7248262,-1.4609389,0.5470441,-4.487284,-0.4199575,6.3633485
327,1747638626380,1.7946168,-1.4309067,0.73519534,-4.358319,-0.6270347,6.157493
328,1747638626390,1.75043745,-1.40400725,0.814331095,-4.0782454999999995,-0.9089407,5.9327013
329,1747638626400,1.7062580999999999,-1.3771078,0.89346685,-3.798172,-1.1908467,5.7079096
330,1747638626410,1.5645882,-1.33860705,0.949903025,-3.5495571000000004,-1.4052541,5.65904165
331,1747638626420,1.4229183,-1.3001063,1.0063392,-3.3009422,-1.6196615,5.6101737
332,1747638626430,1.3162658,-1.3216015,0.9706969,-2.904655,-1.8798825,5.5997896
333,1747638626440,1.28929775,-1.3416027000000001,0.8957839999999999,-2.5844183000000003,-2.07107765,5.64560315
334,1747638626450,1.2623297,-1.3616039,0.8208711,-2.2641816,-2.2622728,5.6914167
335,1747638626460,1.1164066,-1.3642869,0.6270793,-2.0809276,-2.6844447,6.001727
336,1747638626470,1.1133577,-1.3888158,0.59401333,-2.1036817,-2.58392215,6.173375
337,1747638626480,1.1103088,-1.4133447,0.56094736,-2.1264358,-2.4833996,6.345023
338,1747638626490,1.4995692,-1.5041426,0.61098075,-2.3501585,-2.02221,6.9479294
339,1747638626500,1.67186585,-1.527208,0.7354392750000001,-2.447035025,-2.0626784999999996,6.9435007749999995
340,1747638626510,1.8441625,-1.5502734,0.8598978,-2.54391155,-2.103147,6.939072149999999
341,1747638626520,1.8441625,-1.5502734,0.8598978,-2.5457823,-2.080851,6.9027267
342,1747638626530,1.90151335,-1.44093775,0.97057495,-2.1909564,-1.94554845,6.896312849999999
343,1747638626540,1.9588642,-1.3316021,1.0812521,-1.8361305,-1.8102459,6.889899
344,1747638626550,2.2665956,-1.1675986,0.78108215,-1.6311148,-1.5188717,7.30894
345,1747638626560,2.40887525,-1.08852385,0.7010317450000001,-1.79871605,-1.2699514,7.4109516499999994
346,1747638626570,2.5511549,-1.0094491,0.62098134,-1.9663173,-1.0210311,7.5129633
347,1747638626580,3.1310058,-0.77224016,0.7237313,-3.0404923,-0.32771957,7.4427156
348,1747638626590,3.2836519500000003,-0.34101074,1.14849695,-3.5560854500000003,-0.7079719850000001,7.1773026
349,1747638626600,3.4362981,0.09021868,1.5732626,-4.0716786,-1.0882244,6.9118896
350,1747638626610,3.6200740500000004,0.30498732,1.7511693,-4.0131137,-1.2012311,6.8227058
351,1747638626620,3.80385,0.51975596,1.929076,-3.9545488,-1.3142378,6.733522
352,1747638626630,4.5950397,1.1391366,2.2373104,-3.4641912,-1.2110047,5.933312
353,1747638626640,4.98185335,1.48422535,2.2802626999999998,-3.4227681,-0.6074876035,5.159025
354,1747638626650,5.368667,1.8293141,2.323215,-3.381345,-0.003970507,4.384738
355,1747638626660,5.017,2.5658205,3.3555312,-4.1962914,0.9093225,2.4361353
356,1747638626670,4.951234,2.6107316000000003,3.6866939,-4.2735637,0.7737144250000001,2.07081045
357,1747638626680,4.885468,2.6556427,4.0178566,-4.350836,0.63810635,1.7054856
358,1747638626690,4.16503,2.8352568,5.681307,-2.5881598,0.38949147,0.054365408
359,1747638626700,4.295113499999999,2.79365385,5.805277650000001,-1.8473166,0.366890135,-0.11331216599999999
360,1747638626710,4.425197,2.7520509,5.9292483,-1.1064734,0.3442888,-0.28098974
361,1747638626720,5.1465807,2.0906708,5.5407195,1.6151565,1.7767256,-1.7770311
362,1747638626730,4.96099065,1.4382089249999999,5.13767775,3.3292702499999995,2.2418858,-2.9834927
363,1747638626740,4.7754006,0.78574705,4.734636,5.043384,2.707046,-4.1899543
364,1747638626750,4.4784017,0.39063254,4.209697,6.1000733,2.5665512,-4.8600535
365,1747638626760,4.10659635,0.10180472000000002,3.0719476500000003,6.65775785,2.5689945,-5.2982029
366,1747638626770,3.734791,-0.1870231,1.9341983,7.215442400000001,2.5714378,-5.7363523
367,1747638626780,3.3299198,-0.21873227,1.243792,6.0221906,3.1970217,-5.96332
368,1747638626790,3.2183889,-0.220805565,1.18644115,5.469526549999999,3.1057001,-5.986226650000001
369,1747638626800,3.106858,-0.22287886,1.1290903,4.9168625,3.0143785,-6.0091333
370,1747638626810,3.0039862499999996,-0.19652061,1.2612474,4.100312349999999,2.79687865,-5.98011815
371,1747638626820,2.9011145,-0.17016236,1.3934045,3.2837622,2.5793788,-5.951103
372,1747638626830,2.8830645,-0.31074983,1.5842388,2.9616165,2.730869,-6.075105
373,1747638626840,2.88733305,-0.35540183000000003,1.5338395500000002,3.03423105,2.8414705500000004,-6.1823087999999995
374,1747638626850,2.8916016,-0.40005383,1.4834403,3.1068456,2.9520721,-6.2895126
375,1747638626860,2.4332821,-0.59116256,1.1805872,3.466329,3.66432,-6.8093433
376,1747638626870,2.0748924,-0.71049875,1.079178825,3.95451065,3.6123979999999998,-6.91501995
377,1747638626880,1.7165027,-0.82983494,0.97777045,4.4426923,3.560476,-7.0206966
378,1747638626890,1.5315223,-0.95234215,0.7564161,4.8857093,3.1194441,-7.031692
379,1747638626900,1.4342757499999998,-0.988213125,0.6600232800000001,5.02776935,2.87018035,-7.0301647
380,1747638626910,1.3370292,-1.0240841,0.56363046,5.1698294,2.6209166,-7.0286374
381,1747638626920,1.1344564,-1.021889,0.26907057,5.2421384,1.4816864,-6.867985
382,1747638626930,1.13604185,-1.0041973725,0.0936030195,4.776672850000001,1.04645773,-6.694198999999999
383,1747638626940,1.1376273000000001,-0.986505745,-0.081864531,4.3112073,0.61122906,-6.520413
384,1747638626950,1.2381821,-0.9647819,-0.24513626,3.877582,0.69186085,-6.539349
385,1747638626960,1.19779855,-0.9745538,-0.223168515,3.33797485,0.9447516250000001,-6.617232
386,1747638626970,1.157415,-0.9843257,-0.20120077,2.7983677,1.1976424,-6.695115
387,1747638626980,1.067851885,-0.9931067,-0.105051864,2.51894335,1.3182847,-6.695115
388,1747638626990,0.97828877,-1.0018877,-0.008902958,2.239519,1.438927,-6.695115
389,1747638627000,0.82892036,-0.9708798,0.12043386,2.0345032,1.4053304,-6.574778
390,1747638627010,0.72873158,-0.92330085,0.23647721,2.0101838,1.2223817000000001,-6.3301336500000005
391,1747638627020,0.6285428,-0.8757219,0.35252056,1.9858644,1.039433,-6.0854893
392,1747638627030,0.74422026,-0.733183,0.2080609,2.1042924,0.35039726,-5.3438444
393,1747638627040,0.78437508,-0.71927975,0.190483665,1.99151475,0.40140301,-5.25191185
394,1747638627050,0.8245299,-0.7053765,0.17290643,1.8787371,0.45240876,-5.1599793
395,1747638627060,0.80745566,-0.63336015,0.33227548,1.5291798,0.587406,-5.0756826
396,1747638627070,0.63392418,-0.544894625,0.5728992900000001,1.75969825,0.40690063,-4.7226128
397,1747638627080,0.4603927,-0.4564291,0.8135231,1.9902167,0.22639526,-4.369543
398,1747638627090,0.54119015,-0.439111,0.724463,2.5522726,0.024128467,-3.9272897
399,1747638627100,0.659062875,-0.439232965,0.5387356999999999,2.79962755,0.13411915349999998,-3.60384605
400,1747638627110,0.7769356,-0.43935493,0.3530084,3.0469825,0.24410984,-3.2804024
401,1747638627120,0.769496125,-0.446062625,0.331299815,3.02953515,0.21601086,-3.2071007
402,1747638627130,0.76205665,-0.45277032,0.30959123,3.0120878,0.18791188,-3.133799
403,1747638627140,0.4794487,-0.49085182,0.30251765,3.1329591,-0.09193251,-2.913818
404,1747638627150,0.3414376,-0.477680325,0.25943587,3.22050115,-0.11667182499999999,-2.8218854
405,1747638627160,0.2034265,-0.46450883,0.21635409,3.3080432,-0.14141114,-2.7299528
406,1747638627170,-0.36252114,-0.63558584,-0.33934906,3.1903026,0.21478917,-1.9810541
407,1747638627180,-0.4433033,-0.70586434,-0.43232704499999997,3.0077356,0.28198237,-1.7782528
408,1747638627190,-0.52408546,-0.77614284,-0.52530503,2.8251686,0.34917557,-1.5754515
409,1747638627200,-0.83547556,-1.1190287,-0.8862408,1.9915148,0.22639526,-1.3482163
410,1747638627210,-0.9731207799999999,-1.22129075,-0.960925,1.6896417000000001,0.311608455,-1.3631820000000001
411,1747638627220,-1.110766,-1.3235528,-1.0356092,1.3877686,0.39682165,-1.3781477
412,1747638627230,-1.9720054,-1.5907636,-0.9682577,0.85503346,1.2507861,-1.7904696
413,1747638627240,-2.2178886,-1.6972942,-0.9309079499999999,0.9089025550000001,1.2529241,-1.7248035499999999
414,1747638627250,-2.4637718,-1.8038248,-0.8935582,0.96277165,1.2550621,-1.6591375
415,1747638627260,-2.5447826,-2.007373,-1.1444571,1.5304015,-0.013744064,-0.89985436
416,1747638627270,-2.5890839999999997,-2.0170078,-1.2635494,1.6668495,-0.066276927,-0.78959643
417,1747638627280,-2.6333854,-2.0266426,-1.3826417,1.8032975,-0.11880979,-0.6793385
418,1747638627290,-2.7456481,-2.0776517,-1.9209963,1.9148535,-0.29045787,-0.36597386
419,1747638627300,-2.7373395499999997,-2.02700855,-2.075609,1.169658,-0.503032735,0.14381637000000003
420,1747638627310,-2.729031,-1.9763654,-2.2302217,0.4244625,-0.7156076,0.6536066
421,1747638627320,-2.612134,-1.97331635,-2.22644085,0.117588105,-0.56259034,0.9083299
422,1747638627330,-2.495237,-1.9702673,-2.22266,-0.18928629,-0.40957308,1.1630532
423,1747638627340,-2.0852437,-1.9739261,-1.8602304,-1.5688084,0.49089214,2.2466962
424,1747638627350,-1.9159959500000001,-1.95830025,-1.75408095,-2.173337225,0.44736926749999995,2.9293561500000003
425,1747638627360,-1.7467482,-1.9426744,-1.6479315,-2.77786605,0.40384639499999997,3.6120161
426,1747638627370,-1.0077722,-1.7550108,-1.2022958,-3.4698415,0.35955995,5.007802
427,1747638627380,-0.7900918,-1.76598715,-1.0955212799999998,-3.68478335,0.34825928500000003,5.4219947
428,1747638627390,-0.5724114,-1.7769635,-0.98874676,-3.8997252,0.33695862,5.8361874
429,1747638627400,-0.0045124586,-1.9299905,-0.44795296,-4.448037,1.2410126,6.2387357
430,1747638627410,0.0040398697,-1.87215175,-0.25137137249999997,-4.32342425,1.3008756,6.23232185
431,1747638627420,0.012592198,-1.814313,-0.054789785,-4.1988115,1.3607386,6.225908
432,1747638627430,0.3940169,-1.6840007,-0.12043386,-3.6049914,0.30152947,6.397556
433,1747638627440,0.6747954700000001,-1.6792443499999998,-0.21438752,-3.72059425,-0.03600181499999999,6.527361
434,1747638627450,0.95557404,-1.674488,-0.30834118,-3.8361971,-0.3735331,6.657166
435,1747638627460,1.252817,-1.7835797,-0.3032189,-4.22126,-0.23120569,6.8685193
436,1747638627470,1.3412901750000001,-1.879423675,-0.1690571165,-4.4704856500000005,-0.08674031299999999,6.9854965
437,1747638627480,1.42976335,-1.9752676500000002,-0.034895333,-4.7197113,0.057725064,7.1024737
438,1747638627490,1.5964346,-2.2208917,0.5831438,-5.2374806,0.28320405,7.728058
439,1747638627500,1.65061455,-2.28581935,0.77289575,-5.019713599999999,0.176267605,7.7781473000000005
440,1747638627510,1.7047945,-2.350747,0.9626477,-4.8019466,0.06933116,7.8282366
441,1747638627520,1.7988702,-2.3363405999999998,1.17644065,-4.0458323,-0.5186093700000001,7.686176550000001
442,1747638627530,1.8929459,-2.3219342,1.3902336,-3.289718,-1.1065499,7.5441165
443,1747638627540,1.9420036,-2.1742733,0.91651684,-1.7151828,-2.6978834,6.829425
444,1747638627550,1.90649845,-2.1455976999999997,0.82549022,-1.63794875,-2.9043497,6.758872
445,1747638627560,1.8709933,-2.1169221,0.7344636,-1.5607147,-3.110816,6.688319
446,1747638627570,1.7370222,-2.0686269,0.63854337,-1.6553961,-3.2757447,6.6877084
447,1747638627580,1.6413457999999999,-2.10120495,0.620493535,-1.85789195,-3.1263926,6.9955754500000005
448,1747638627590,1.5456694,-2.133783,0.6024437,-2.0603878,-2.9770405,7.3034425
449,1747638627600,1.8959033,-2.2555585,0.5616791,-2.9426804,-2.225622,8.617452
450,1747638627610,2.0392806500000003,-2.2832583,0.5603375500000001,-3.1520482000000003,-2.0747427,8.6672355
451,1747638627620,2.182658,-2.3109581,0.558996,-3.361416,-1.9238634,8.717019
452,1747638627630,2.516976,-2.3453503,0.89261305,-3.8468106,-1.737555,8.223454
453,1747638627640,2.4949016,-2.24176195,1.094682825,-3.7726308,-1.83651225,7.99194335
454,1747638627650,2.4728272,-2.1381736,1.2967526,-3.698451,-1.9354695,7.7604327
455,1747638627660,2.56579,-1.7166854,1.2840688,-2.7669854,-1.9996085,7.747605
456,1747638627670,2.7108746999999997,-1.53414435,1.07137345,-2.5436062,-1.9751746,7.576835
457,1747638627680,2.8559594,-1.3516033,0.8586781,-2.320227,-1.9507407,7.406065
458,1747638627690,3.0944183,-1.1395177,0.5346044,-2.5582283,-1.8224628,7.04933
459,1747638627700,3.2059339500000004,-1.0653365750000001,0.48457098,-2.8657135,-1.86827635,6.9033375
460,1747638627710,3.3174496,-0.99115545,0.43453756,-3.1731987,-1.9140899,6.757345
461,1747638627720,3.4597445,-0.8339815,0.4223417,-4.6798534,-1.9226418,6.494681
462,1747638627730,3.692563,-0.33001924,1.1744893,-6.109847,-1.1193776,6.437261
463,1747638627740,3.8807144,-0.13772145,1.8856283,-6.6070004,-0.20371756,6.2448444
464,1747638627750,3.8807144,-0.13772145,1.8856283,-6.6070004,-0.20371756,6.2448444
465,1747638627760,4.1225576,-0.008140719,2.619482,-6.374649,0.84457266,5.814197
466,1747638627770,4.194574,0.17687008,3.1073458,-5.807019,1.5983582,5.3114696
467,1747638627780,4.7192693,0.9348716,4.2743654,-4.609453,2.2440238,4.485528
468,1747638627790,4.7192693,0.9348716,4.2743654,-0.28152424,-1.4883293,1.9296665
469,1747638627800,4.8051586,1.5198448,4.268999,-0.28152424,-1.4883293,1.9296665
470,1747638627810,4.69314,1.9293504,3.8770556,0.65001786,-3.1578512,1.2638429
471,1747638627820,5.251038,2.3771813,3.3120832,1.189625,-3.763201,0.79165804
472,1747638627830,5.6191847,2.20561635,3.3968901000000002,1.36562535,-2.32309035,0.10747091999999991
473,1747638627840,5.9873314,2.0340514,3.481697,1.5416257,-0.8829797,-0.5767162
474,1747638627850,6.0012345,1.3180343,3.4982834,2.0021284,1.0449306,-1.7935239
475,1747638627860,5.6886095999999995,1.1668364000000002,3.4599732000000003,2.40494395,2.4514446000000003,-2.8191746
476,1747638627870,5.3759847,1.0156385,3.421663,2.8077595,3.8579586,-3.8448253
477,1747638627880,4.5533147,0.22470824,3.2774475,4.2707386,5.173113,-4.8441715
478,1747638627890,4.51134565,0.089746093,3.22960925,4.5854013,4.5414968,-5.13096425
479,1747638627900,4.4693766,-0.045216054,3.181771,4.900064,3.9098806,-5.417757
480,1747638627910,3.8265343,-0.49036402,2.785437,5.3729362,0.6161158,-6.4135146
481,1747638627920,3.854607525,-0.56552846,2.421985875,5.39662545,-0.24460614999999997,-6.663503725
482,1747638627930,3.88268075,-0.6406929,2.0585347499999997,5.4203147000000005,-1.1053281,-6.91349285
483,1747638627940,4.0620356,-0.6165299,1.1354321,4.713145,0.46279314,-7.264425
484,1747638627950,4.0287258999999995,-0.6282531,1.0090223,4.3209046,1.21413532,-7.3132925
485,1747638627960,3.9954162,-0.6399763,0.8826125,3.9286642,1.9654775,-7.36216
486,1747638627970,3.0971014,-0.7270851,1.1310416,2.125443,4.444983,-7.324288
487,1747638627980,2.9021053,-0.809330725,1.2699064500000001,2.0241951,4.39580965,-7.29710515
488,1747638627990,2.7071092,-0.89157635,1.4087713,1.9229472,4.3466363,-7.2699223
489,1747638628000,2.1433568,-1.0987836,1.6725671,2.744155,3.3191912,-7.447068
490,1747638628010,1.8536752499999998,-1.21165605,1.46269205,3.632365,2.5907177,-7.55305
491,1747638628020,1.5639937,-1.3245285,1.252817,4.520575,1.8622442,-7.659032
492,1747638628030,1.4298852,-1.3427003,1.10236613,4.839589999999999,1.6863202,-7.55213365
493,1747638628040,1.2957767,-1.3608721,0.95191526,5.158605,1.5103962,-7.4452353
494,1747638628050,1.2386699,-1.4138325,0.53875095,5.609716,1.2825502,-7.121486
495,1747638628060,1.28931305,-1.4135886,0.420390385,5.51625635,1.2529241,-7.097663
496,1747638628070,1.3399562,-1.4133447,0.30202982,5.4227967,1.223298,-7.07384
497,1747638628080,1.3204124,-1.406515,0.18168743,4.941487,1.1481637999999998,-7.228384699999999
498,1747638628090,1.2185924,-1.3929699750000002,0.22880146,4.6640478750000005,1.020038575,-7.3139032749999995
499,1747638628100,1.1167723999999999,-1.3794249500000002,0.27591549,4.386608750000001,0.89191335,-7.3994218499999995
500,1747638628110,0.88310033,-1.2937646,0.300048,4.113064,0.2679329,-7.235104
501,1747638628120,0.828188565,-1.2764312,0.276022215,3.9787919499999997,0.12312391149999999,-7.1563048
502,1747638628130,0.7732768,-1.2590978,0.25199643,3.8445199,-0.021685077,-7.0775056
503,1747638628140,0.63000625,-1.1317123,0.29053524,3.1877828,-0.22326468,-6.644415
504,1747638628150,0.650388525,-1.025806775,0.22854992,2.68154315,-0.08918370349999999,-6.32249835
505,1747638628160,0.6707708,-0.91990125,0.1665646,2.1753035,0.044897273,-6.0005817
506,1747638628170,0.72275555,-0.8583732,0.13680676,1.5397933,0.38216132,-5.748302
507,1747638628180,0.7024952250000001,-0.81542863,0.194645495,1.1814931499999999,0.476231785,-5.598606
508,1747638628190,0.6822349,-0.77248406,0.25248423,0.823193,0.57030225,-5.44891
509,1747638628200,0.5536299,-0.64192766,0.8337987,-0.14690876,0.6826982,-4.4605594
510,1747638628210,0.5331256200000001,-0.6205697050000001,1.08663355,-0.089603655,0.549533475,-4.25195505
511,1747638628220,0.51262134,-0.59921175,1.3394684,-0.03229855,0.41636875,-4.0433507
512,1747638628230,0.47749737,-0.48865658,1.9388326,1.5615547,0.027182704,-3.7159367
513,1747638628240,0.491400615,-0.609090415,1.70479455,3.6115198499999996,0.020463384,-3.55589465
514,1747638628250,0.50530386,-0.72952425,1.4707565,5.661485,0.013744064,-3.3958526
515,1747638628260,0.46284711500000003,-0.79309505,1.18180673,6.1041585000000005,-0.233954498,-3.37019705
516,1747638628270,0.42039037,-0.85666585,0.89285696,6.546832,-0.48165306,-3.3445415
517,1747638628280,0.32861674,-0.9054797,0.07186395,7.1879926,-1.1566393,-3.042783
518,1747638628290,0.309088155,-0.79638795,-0.668316475,6.46116065,-1.36402195,-2.394025
519,1747638628300,0.28955957,-0.6872962,-1.4084969,5.7343287,-1.5714046,-1.745267
520,1747638628310,0.083602436,-0.4623136,-1.8694992,1.1746593,0.9013815,-0.40384638
521,1747638628320,-0.021220746999999998,-0.51903945,-1.6343636,0.469932445,1.5442982,-0.326230605
522,1747638628330,-0.12604393,-0.5757653,-1.399228,-0.23479441,2.1872149,-0.24861483
523,1747638628340,-1.0512199,-1.0043269,-0.21290876,0.40392274,2.5146291,-1.0397384
524,1747638628350,-1.26609525,-1.0899874,-0.27990962,0.92169217,2.0827601,-1.1292275
525,1747638628360,-1.4809706,-1.1756479,-0.34691048,1.4394616,1.6508911,-1.2187166
526,1747638628370,-2.0915854,-1.5034109,-1.55006,3.2744467,-1.2342169,-2.0427496
527,1747638628380,-2.4173970000000002,-1.4686222500000001,-2.0820727,2.71804115,-1.9669664,-2.110859
528,1747638628390,-2.7432086,-1.4338336,-2.6140854,2.1616356,-2.6997159,-2.1789684
529,1747638628400,-2.8808389,-1.4931663,-2.5435631,1.0506573,-2.4638524,-1.6872364
530,1747638628410,-2.83848885,-1.5833393,-2.24522245,0.5341095775,-2.08268375,-1.1506071325
531,1747638628420,-2.7961388,-1.6735123,-1.9468818,0.017561855,-1.7015151,-0.6139778650000001
532,1747638628430,-2.7208598999999998,-1.6719268500000002,-1.8757344,-0.28056979249999997,-1.26048335,-0.025082932500000044
533,1747638628440,-2.645581,-1.6703414,-1.804587,-0.57870144,-0.8194516,0.563812
534,1747638628450,-1.9754201,-1.634699,-1.8785548,-1.8030684,0.33329353,1.5601039
535,1747638628460,-1.8997602,-1.62518625,-1.8352291,-2.06569455,0.344594215,1.6163018500000002
536,1747638628470,-1.8241003,-1.6156735,-1.7919034,-2.3283207,0.3558949,1.6724998
537,1747638628480,-1.3138267,-1.5949101,-1.3843491,-3.406848,-0.0387888,1.9351641
538,1747638628490,-1.1994907499999998,-1.56586875,-1.23792285,-3.5214963,-0.14477079999999998,1.9751745499999998
539,1747638628500,-1.0851548,-1.5368274,-1.0914966,-3.6361446,-0.2507528,2.015185
540,1747638628510,-0.8479153,-1.47533,-0.6665938,-3.6997492,-0.54945713,2.1801138
541,1747638628520,-0.791303775,-1.4281092499999999,-0.5516480500000001,-3.4972342000000003,-0.70629215,2.414259275
542,1747638628530,-0.73469225,-1.3808885,-0.4367023,-3.2947192000000003,-0.86312717,2.64840475
543,1747638628540,-0.7061388,-1.1963807,-0.26733267,-2.8454792,-0.7663079,3.2473404
544,1747638628550,-0.6064378500000001,-1.16733945,-0.30236519500000003,-2.7196065000000003,-0.665823525,3.57047855
545,1747638628560,-0.5067369,-1.1382982,-0.33739772,-2.5937338,-0.56533915,3.8936167
546,1747638628570,-0.13945936,-1.027499,-0.42401865,-2.6952872,-0.09743014,4.502021
547,1747638628580,0.06553737000000001,-1.0262794,-0.37851294999999996,-2.9088547,0.0785320525,4.6741271
548,1747638628590,0.2705341,-1.0250598,-0.33300725,-3.1224222,0.254494245,4.8462332
549,1747638628600,0.35986856,-1.0211571,-0.16900377,-3.3801234,-0.30328566,4.863642
550,1747638628610,0.40805735,-1.027377,-0.00963470999999999,-3.2589084,-0.82006243,5.0267765
551,1747638628620,0.45624614,-1.0335969,0.14973435,-3.1376934,-1.3368392,5.189911
552,1747638628630,0.61098075,-1.0675318,0.13827026,-2.8111954,-1.4052541,5.734787
553,1747638628640,0.701885475,-1.1136626,0.09226147900000001,-2.80249085,-1.32431685,5.905518799999999
554,1747638628650,0.7927902,-1.1597934,0.046252698,-2.7937863,-1.2433796,6.0762506
555,1747638628660,0.99095725,-1.2530153,-0.009878623999999996,-3.0134240500000002,-0.8930587,6.39419655
556,1747638628670,1.1891243,-1.3462372,-0.066009946,-3.2330618,-0.5427378,6.7121425
557,1747638628680,1.4282845,-1.6974162,0.11726294,-4.7701826,0.19707459,6.6003575
558,1747638628690,1.38363255,-1.76245045,0.296770355,-4.9605378,0.089832721,6.513617
559,1747638628700,1.3389806,-1.8274847,0.47627777,-5.150893,-0.017409148,6.4268765
560,1747638628710,1.2576953,-1.9163314,1.0478356,-4.756515,-1.6117204,6.1996417
561,1747638628720,1.2943133,-1.89241225,1.09187775,-4.2156479000000004,-2.2726953500000002,6.0973246
562,1747638628730,1.3309313,-1.8684931,1.1359199,-3.6747808,-2.9336703,5.9950075
563,1747638628740,1.47368355,-1.7646609,0.896881575,-3.1215057,-3.3258343,5.907046
564,1747638628750,1.589726925,-1.72811145,0.7534433574999999,-2.76354935,-3.51916745,5.77724085
565,1747638628760,1.7057703,-1.691562,0.61000514,-2.405593,-3.7125006,5.6474357
566,1747638628770,1.700892,-1.6276255,0.7078767,-2.3881073,-4.083285,5.182581
567,1747638628780,1.61352405,-1.5568439,0.8078062500000001,-2.13609465,-4.308382,5.1444030000000005
568,1747638628790,1.5261561,-1.4860623,0.9077358,-1.884082,-4.533479,5.106225
569,1747638628800,1.5105455,-1.4231013,0.90261364,-0.7326349,-4.9158697,5.162423
570,1747638628810,1.6191494,-1.2996184999999998,0.69688517,-0.01763820000000005,-5.33403285,5.418368
571,1747638628820,1.7277533,-1.1761357,0.4911567,0.6973585,-5.752196,5.674313
572,1747638628830,1.997647,-0.9220965,0.14241683,0.7466081,-5.623918,6.0316586
573,1747638628840,2.31736085,-0.732466525,-0.17362293499999998,0.5546875099999999,-5.30623935,6.2857711
574,1747638628850,2.6370747,-0.54283655,-0.4896627,0.36276692,-4.9885607,6.5398836
575,1747638628860,2.9413912,-0.08549279,-0.3588624,-2.535169,-2.614808,7.5667176
576,1747638628870,3.2891553499999997,0.17465958000000004,0.33739774999999994,-3.5589108,-2.04362765,7.5560278
577,1747638628880,3.6369195,0.43481195,1.0336579,-4.5826526,-1.4724473,7.545338
578,1747638628890,4.0088315,0.6927843,1.6572002,-4.537144,-1.5145957,6.8581347
579,1747638628900,4.3871157499999995,1.1152175,2.1400486,-3.6386642499999997,-1.7372496000000002,5.72528035
580,1747638628910,4.7654,1.5376507,2.622897,-2.7401845,-1.9599035,4.592426
581,1747638628920,4.7752785,1.75229735,2.50453645,-2.37256895,-2.11475325,4.0771764
582,1747638628930,4.785157,1.966944,2.3861759,-2.0049534,-2.269603,3.5619268
583,1747638628940,4.87996465,2.2572354,1.9939882,-2.0227062499999997,-1.9745637999999999,2.2998781
584,1747638628950,4.882472325,2.32783405,2.13175545,-2.269583925,-1.6074445499999999,1.8258415499999998
585,1747638628960,4.88498,2.3984327,2.2695227,-2.5164616,-1.2403253,1.351805
586,1747638628970,4.654357,2.4709063,3.4411764,-2.1277337,0.3406237,-0.099568106
587,1747638628980,4.623120350000001,2.42050715,3.535877,-1.9224127,0.78043375,-0.289274353
588,1747638628990,4.5918837,2.370108,3.6305776,-1.7170917,1.2202438,-0.4789806
589,1747638629000,4.603104,1.9205693,3.929528,-0.9531508,2.5665512,-1.6347036
590,1747638629010,4.48138175,1.64278635,4.06167735,0.40949670000000005,2.5344816000000003,-2.7871052
591,1747638629020,4.359659499999999,1.3650034,4.1938267,1.7721442,2.502412,-3.9395068
592,1747638629030,4.261925,1.201625,4.165761,1.7721442,2.502412,-3.9395068
593,1747638629040,3.95710565,0.74159815,3.1755357,3.6027771,2.1365145500000002,-5.16398825
594,1747638629050,3.6522863,0.2815713,2.1853104,5.43341,1.7706171,-6.3884697
595,1747638629060,3.444378,0.1729674,1.615704,5.5287023,1.7602327,-6.707943
596,1747638629070,3.31703815,0.16722774,1.3130949,5.38198415,1.7962726999999998,-6.7684169999999995
597,1747638629080,3.1896983,0.16148808,1.0104858,5.235266,1.8323127,-6.828891
598,1747638629090,3.031427,0.16735733,0.68003964,4.372903,2.211649,-6.795294
599,1747638629100,2.80825835,0.068754013,0.62561577,3.74579185,2.5235246499999997,-6.782466250000001
600,1747638629110,2.5850897,-0.029849304,0.5711919,3.1186807,2.8354003,-6.7696385
601,1747638629120,2.50991775,-0.0676716295,0.5515565849999999,3.07008015,2.81524225,-6.7904072499999995
602,1747638629130,2.4347458,-0.105493955,0.53192127,3.0214796,2.7950842,-6.811176
603,1747638629140,2.0420704,-0.25193545,0.37425965,2.8301318,2.634966,-6.9052463
604,1747638629150,1.827317,-0.311115725,0.352047975,2.7728267000000004,2.58579285,-6.92845845
605,1747638629160,1.6125636,-0.370296,0.3298363,2.7155216,2.5366197,-6.9516706
606,1747638629170,1.1918073,-0.40029776,0.19220634,2.58842705,2.3038867,-6.7638351
607,1747638629180,1.1204312,-0.392980245,0.15180764,2.493383025,2.2681521499999997,-6.634793849999999
608,1747638629190,1.0490551,-0.38566273,0.11140894,2.398339,2.2324176,-6.5057526
609,1747638629200,0.8991988,-0.35663664,-0.060399864,1.7877209,2.6978834,-5.8081646
610,1747638629210,0.8808898000000001,-0.36102714999999996,-0.0523506145,1.6983081,2.7599225,-5.735473799999999
611,1747638629220,0.8625808,-0.36541766,-0.044301365,1.6088953,2.8219616,-5.662783
612,1747638629230,0.8738315,-0.40618226,0.040642615,1.4244958,2.9771168,-5.452575
613,1747638629240,0.8777874999999999,-0.442602055,0.07847256250000001,1.5645325250000002,2.6609651750000003,-5.509842150000001
614,1747638629250,0.8817435,-0.47902184999999997,0.11630251,1.70456925,2.34481355,-5.5671093
615,1747638629260,0.81452924,-0.5040233,-0.041099958,1.8880525,2.0363357,-5.6548424
616,1747638629270,0.76547152,-0.50877967,-0.062945744,1.8731249,2.0369465499999997,-5.6600344499999995
617,1747638629280,0.7164138,-0.51353604,-0.08479153,1.8581973,2.0375574,-5.6652265
618,1747638629290,0.43600106,-0.4230125,-0.079425365,1.6076736,2.1646137,-5.142265
619,1747638629300,0.449050605,-0.40263021,-0.0978563175,1.48397705,2.25135395,-4.89151225
620,1747638629310,0.46210015,-0.38224792,-0.11628727,1.3602805,2.3380942,-4.6407595
621,1747638629320,0.617322625,-0.40238629000000004,-0.100417445,1.1633968000000001,2.38176975,-4.4181056
622,1747638629330,0.7725451,-0.42252466,-0.08454762,0.9665131,2.4254453,-4.1954517
623,1747638629340,1.0146323,-0.46938714,0.32081142,0.9503256,2.0925336,-4.4245195
624,1747638629350,0.997802115,-0.47999753,0.46992071,1.1715287,1.8976733499999998,-4.5839505
625,1747638629360,0.98097193,-0.49060792,0.61903,1.3927318,1.7028131,-4.7433815
626,1747638629370,0.624884,-0.5506419,1.0239011,2.8775487,0.5733565,-5.3523965
627,1747638629380,0.44990429,-0.68645775,0.8420917649999999,4.07664185,-0.5014674000000001,-5.47731475
628,1747638629390,0.27492458,-0.8222736,0.66028243,5.275735,-1.5762913,-5.602233
629,1747638629400,0.13168451,-0.86401385,0.1826631,5.9044495,-2.314195,-5.5197687
630,1747638629410,0.01997067825,-0.8081797900000001,-0.18224387499999997,5.89635575,-2.4800780749999998,-5.2259512
631,1747638629420,-0.09174315350000001,-0.75234573,-0.54715085,5.888262,-2.6459611499999998,-4.9321337
632,1747638629430,-0.18185512675,-0.673949385,-0.907789275,5.1767015,-2.304459375,-4.23821105
633,1747638629440,-0.2719671,-0.59555304,-1.2684277,4.465141,-1.9629576,-3.5442884
634,1747638629450,-0.28199816,-0.5948213,-1.3750802,3.227106,-1.5121524,-2.7287312
635,1747638629460,-0.22415942,-0.7837042,-1.4658477,1.2531532,-0.070552856,-1.5198643
636,1747638629470,-0.35996002,-0.8743650199999999,-1.327486,0.22975495,0.8653033219999999,-1.1240353
637,1747638629480,-0.49576062,-0.96502584,-1.1891243,-0.7936433,1.8011595,-0.7282063
638,1747638629490,-0.6303569099999999,-0.98211527,-1.00949488,-1.0603544999999999,1.92729945,-0.7190436
639,1747638629500,-0.7649532,-0.9992047,-0.82986546,-1.3270657,2.0534394,-0.7098809
640,1747638629510,-1.1598238,-1.2698606,-0.41401803,-0.80547845,1.9654775,-0.6939988
641,1747638629520,-1.3335839,-1.3697902499999999,-0.6048675649999999,-0.245980545,1.38120205,-0.70957545
642,1747638629530,-1.507344,-1.4697199,-0.7957171,0.31351736,0.7969266,-0.7251521
643,1747638629540,-1.507344,-1.4697199,-0.7957171,0.31351736,0.7969266,-0.7251521
644,1747638629550,-1.70124255,-1.45153285,-0.893695375,0.5752272300000001,0.24773675000000006,-0.75997038
645,1747638629560,-1.8951411,-1.4333458,-0.99167365,0.8369371,-0.3014531,-0.79478866
646,1747638629570,-2.3117201,-1.4660611,-1.2679398,0.98025715,-1.3649383,-0.8632035
647,1747638629580,-2.3688272,-1.4809553,-1.3418923,0.864348875,-1.48802395,-0.7908181000000001
648,1747638629590,-2.4259343,-1.4958495,-1.4158448,0.7484406,-1.6111096,-0.7184327
649,1747638629600,-2.5606372,-1.4880137,-1.2884288,-0.17370969,-1.5402514,-0.12155861
650,1747638629610,-2.55185625,-1.42639425,-1.06806535,-0.35721202500000004,-1.433658575,0.23853586
651,1747638629620,-2.5430753,-1.3647748,-0.8477019,-0.5407143600000001,-1.32706575,0.59863033
652,1747638629630,-2.4730406499999997,-1.3296355499999999,-0.85928795,-0.62014358,-1.108076975,1.1175450649999998
653,1747638629640,-2.403006,-1.2944963,-0.870874,-0.6995728,-0.8890882,1.6364598
654,1747638629650,-2.1848226,-1.2710803,-0.9977716,-0.8485432,-0.37841988,2.2986183
655,1747638629660,-1.95907775,-1.2359258,-1.0439023,-1.2993103,-0.030504189999999987,2.84994615
656,1747638629670,-1.7333329,-1.2007713,-1.090033,-1.7500774,0.3174115,3.401274
657,1747638629680,-1.0548787,-1.1309806,-1.1036925,-2.5389104,0.8464052,4.283948
658,1747638629690,-0.923453325,-1.108647,-1.05182968,-2.72086645,0.8879428149999999,4.4384925
659,1747638629700,-0.79202795,-1.0863134,-0.99996686,-2.9028225,0.92948043,4.593037
660,1747638629710,-0.38910806,-1.0082296,-0.5509163,-3.2168744,0.006413896,5.1166096
661,1747638629720,-0.23146166999999998,-0.9834567999999999,-0.493565375,-3.0400532250000003,-0.18646112699999998,5.2523702
662,1747638629730,-0.07381528,-0.958684,-0.43621445,-2.86323205,-0.37933615,5.3881308
663,1747638629740,-0.07381528,-0.958684,-0.43621445,-2.5825095,-0.4278985,5.602233
664,1747638629750,0.130449675,-0.9942576999999999,-0.5647128,-2.6968524499999997,-0.272437875,5.780295000000001
665,1747638629760,0.33471463,-1.0298314,-0.69321115,-2.8111954,-0.11697725,5.958357
666,1747638629770,0.6331772,-1.1404933,-0.83937824,-3.289718,-0.117588095,6.0927434
667,1747638629780,0.705666175,-1.1729495,-0.78911617,-3.5807103500000004,-0.2901524475,6.16573955
668,1747638629790,0.77815515,-1.2054057,-0.7388541,-3.8717027,-0.4627168,6.2387357
669,1747638629800,0.9433782,-1.3054725,-0.31224382,-4.5832634,-1.338061,6.526445
670,1747638629810,1.1192115999999999,-1.3290256999999999,-0.058067405000000016,-4.463002899999999,-1.6547853,6.85111025
671,1747638629820,1.295045,-1.3525789,0.19610901,-4.3427424,-1.9715096,7.1757755
672,1747638629830,1.38582775,-1.3695463499999998,0.21050009,-4.27173135,-1.9174496,7.269845950000001
673,1747638629840,1.4766105,-1.3865138,0.22489117,-4.2007203,-1.8633896,7.3639164
674,1747638629850,1.7985196,-1.4828913,0.15241744,-4.2082033,-0.953838,7.4671497
675,1747638629860,1.8436594,-1.5091275999999998,0.14558777,-4.3131926499999995,-0.71285875,7.3669708499999995
676,1747638629870,1.8887992,-1.5353639,0.1387581,-4.418182,-0.4718795,7.266792
677,1747638629880,1.8993181,-1.547316,0.47725347,-4.866162,-0.4651602,6.4317636
678,1747638629890,1.81646265,-1.4895992,0.683103885,-4.55802785,-0.9394830999999999,5.8587888
679,1747638629900,1.7336072,-1.4318824,0.8889543,-4.2498937,-1.413806,5.285814
680,1747638629910,1.5454255,-1.2871788,1.1161627,-3.36951,-2.2873175,4.657787
681,1747638629920,1.49552935,-1.2554544,1.12030925,-2.95111765,-2.6065234,4.4476553
682,1747638629930,1.4456332,-1.22373,1.1244558,-2.5327253,-2.9257293,4.2375236
683,1747638629940,1.40645405,-1.2012744,1.0276971000000001,-1.8507526,-3.3572929,3.9708889000000003
684,1747638629950,1.3672749,-1.1788188,0.9309384,-1.1687799,-3.7888565,3.7042542
685,1747638629960,1.2667508,-1.0973201,0.5160362,-0.16248538,-4.2445483,3.4434223
686,1747638629970,1.2273277,-1.0684007,0.41561876999999997,-0.120107845,-4.09947215,3.54237965
687,1747638629980,1.1879046,-1.0394813,0.31520134,-0.07773031,-3.954396,3.641337
688,1747638629990,1.1020155,-0.9867649,0.17168686,-0.7413395,-3.199389,4.6186924
689,1747638630000,1.1999938,-0.96662655,0.24637109,-1.1616024,-2.7696197,5.1901782
690,1747638630010,1.2979721,-0.9464882,0.32105532,-1.5818653,-2.3398504,5.761664
691,1747638630020,1.5159116,-0.91621196,0.5807046,-2.008695,-1.9996085,6.345634
692,1747638630030,1.7894795,-0.86131548,0.7685052,-2.1635447,-2.02556955,6.565844500000001
693,1747638630040,2.0630474,-0.806419,0.9563058,-2.3183944,-2.0515306,6.786055
694,1747638630050,2.8322995,-0.32221392,1.2228153,-2.0155668,-3.0650024,5.919263
695,1747638630060,2.9334487,-0.216902898,1.21853145,-1.9822375,-3.1621271,5.721043
696,1747638630070,3.0345979,-0.111591876,1.2142476,-1.9489082,-3.2592518,5.522823
697,1747638630080,3.1942108,0.27056456,1.3179733,-2.0660381,-3.158462,5.0610223
698,1747638630090,3.4158090999999997,0.427494445,1.4836232,-2.2451690500000003,-2.75190505,5.00692415
699,1747638630100,3.6374074,0.58442433,1.6492731,-2.4243,-2.3453481,4.952826
700,1747638630110,4.023741,0.7247374,1.8448638,-3.1315086,-0.30572906,4.425665
701,1747638630120,4.07053485,0.82730435,2.002830275,-3.34755755,0.23445080750000002,4.08771365
702,1747638630130,4.1173287,0.9298713000000001,2.1607967500000003,-3.5636064999999997,0.774630675,3.7497623
703,1747638630140,4.049108,1.4129483,3.0685327,-3.5850625,0.95086014,2.1501822
704,1747638630150,3.9201370000000004,1.57158565,3.2917163499999997,-3.26948355,0.733398495,1.7082343
705,1747638630160,3.791166,1.730223,3.5149,-2.9539046,0.51593685,1.2662864
706,1747638630170,3.6642382,2.0452719,3.6400905,-1.3681451,0.17569494,-0.02687728
707,1747638630180,3.83433975,1.87626805,3.4259316,-0.706444831,0.486616195,-0.65181219
708,1747638630190,4.0044413,1.7072642,3.2117727,-0.044744562,0.79753745,-1.2767471
709,1747638630200,4.1501508000000005,1.5182593,3.1176971499999997,-0.00019088949999999938,1.009196025,-1.5696484
710,1747638630210,4.2958603,1.3292544,3.0236216,0.044362783,1.2208546,-1.8625497
711,1747638630220,4.614324,0.6014985,3.1141756,0.12720895,2.194545,-3.2071009
712,1747638630230,4.48265475,0.48094269,3.1832345999999996,0.357765625,2.4184205,-3.7104389500000003
713,1747638630240,4.3509855,0.36038688,3.2522936,0.5883223,2.642296,-4.213777
714,1747638630250,3.71232,0.026038107,2.7837296,1.8899614,3.5830772,-5.236946
715,1747638630260,3.5591861,-0.14729517899999997,2.583428275,2.3264117,3.640496875,-5.4625205
716,1747638630270,3.4060522,-0.320628465,2.38312695,2.762862,3.69791655,-5.688095
717,1747638630280,3.025573,-0.63851285,2.0232887,3.6975348,2.7412534,-6.142909
718,1747638630290,2.91991125,-0.6835307500000001,1.9494581500000001,3.94206465,2.42758335,-6.2269005
719,1747638630300,2.8142495,-0.72854865,1.8756276,4.1865945,2.1139133,-6.310892
720,1747638630310,2.5792053,-0.79224133,1.4631951,4.887618,1.5830871,-6.441613
721,1747638630320,2.34565515,-0.713791635,1.10724447,4.903499999999999,1.6194324500000001,-6.4022135
722,1747638630330,2.112105,-0.63534194,0.75129384,4.919382,1.6557778,-6.362814
723,1747638630340,2.01924895,-0.60494384,0.60389194,4.779498,1.7504591500000002,-6.3136408500000005
724,1747638630350,1.9263929,-0.57454574,0.45649004,4.639614,1.8451405,-6.2644677
725,1747638630360,1.6684511,-0.50012064,0.31178647,3.82398,2.0461092,-6.1062584
726,1747638630370,1.59437665,-0.49024202,0.31922593499999996,3.6199189,2.00640415,-6.090681699999999
727,1747638630380,1.5203022,-0.4803634,0.3266654,3.4158578,1.9666991,-6.075105
728,1747638630390,1.275044,-0.5218597,0.31861615,3.1803763,1.7706171,-6.059834
729,1747638630400,1.22793755,-0.52381105,0.299209535,3.18690465,1.7657303500000001,-6.049144
730,1747638630410,1.1808311,-0.5257624,0.27980292,3.193433,1.7608436,-6.038454
731,1747638630420,0.9958508,-0.52893335,0.063326865,3.1055474,1.7015914,-6.06411
732,1747638630430,0.97973705,-0.519893175,-0.007073585000000007,3.0410648499999997,1.6600538,-6.0512820000000005
733,1747638630440,0.9636233,-0.510853,-0.077474035,2.9765823,1.6185162,-6.038454
734,1747638630450,0.980484,-0.4613074,-0.37837574,2.3422937,1.6973155,-5.8839097
735,1747638630460,0.97729785,-0.443867365,-0.33652877999999997,1.8136054499999998,1.7608435999999998,-5.822214150000001
736,1747638630470,0.9741117,-0.42642733,-0.29468182,1.2849172,1.8243717,-5.7605186
737,1747638630480,0.9328898,-0.43154958,-0.1665646,1.0063709,1.8536924,-5.6585073
738,1747638630490,0.92616685,-0.43959884,-0.0552776185,0.965253235,1.8274259499999999,-5.51980685
739,1747638630500,0.9194439,-0.4476481,0.056009363,0.92413557,1.8011595,-5.3811064
740,1747638630510,0.953744675,-0.45325818500000004,0.09151448649999999,0.995490135,1.8130709999999999,-5.30658295
741,1747638630520,0.98804545,-0.45886827,0.12701961,1.0668447,1.8249825,-5.2320595
742,1747638630530,1.2318401,-0.46767974,-0.041587792,1.1851964,2.2171464,-5.1679206
743,1747638630540,1.26210105,-0.4736557,-0.008887713499999998,1.1615261000000001,2.2479942,-5.1755563
744,1747638630550,1.292362,-0.47963166,0.023812365,1.1378558,2.278842,-5.183192
745,1747638630560,1.3345901,-0.516707,0.19684075,1.3148488,1.6185162,-5.225951
746,1747638630570,1.2841908499999999,-0.511340825,0.236858325,1.38868495,1.4520602999999999,-5.2421385
747,1747638630580,1.2337916,-0.50597465,0.2768759,1.4625211,1.2856044,-5.258326
748,1747638630590,1.0121932,-0.507926,0.39011422,1.8818676,0.9252045,-5.1514277
749,1747638630600,0.9592327825,-0.552654215,0.344905795,2.05195045,0.92428825,-5.07049035
750,1747638630610,0.906272365,-0.59738243,0.29969737,2.2220333,0.923372,-4.989553
751,1747638630620,0.8955401,-0.70244956,-0.05308236,2.718652,1.0376004,-4.533861
752,1747638630630,0.82831055,-0.72551493,-0.11787273000000001,2.5438734,1.0259943,-4.4495641500000005
753,1747638630640,0.761081,-0.7485803,-0.1826631,2.3690948,1.0143882,-4.3652673
754,1747638630650,0.32544583,-0.8862102,-0.35691106,1.5272709,1.4627501,-3.714715
755,1747638630660,-0.09858808499999999,-0.93185315,-0.52932968,0.4745901749999999,2.0158723,-2.5476531
756,1747638630670,-0.522622,-0.9774961,-0.7017483,-0.57809055,2.5689945,-1.3805912
757,1747638630680,-0.70394355,-0.98066694,-0.9067602,-1.8261279,3.764499,-0.24800399
758,1747638630690,-0.7733683,-0.95589417,-0.77338352,-2.45075735,5.096795,0.401021205
759,1747638630700,-0.84279305,-0.9311214,-0.64000684,-3.0753868,6.429091,1.0500464
760,1747638630710,-0.80352247,-0.9218526,-0.4672224,-2.6841393,6.389997,0.847856
761,1747638630720,-0.835856705,-0.904275335,-0.55434635,-2.1464028,6.0247101999999995,0.542126945
762,1747638630730,-0.86819094,-0.88669807,-0.6414703,-1.6086663,5.6594234,0.23639789
763,1747638630740,-1.03658487,-0.9336825049999999,-1.2003444500000002,-0.5061251500000001,4.4941942,-0.437710205
764,1747638630750,-1.2049788,-0.98066694,-1.7592186,0.596416,3.328965,-1.1118183
765,1747638630760,-2.3261113,-1.12098,-2.9045293,0.8755732,-0.5012002,-2.181412
766,1747638630770,-2.5046430500000003,-1.1207361,-2.80482825,0.8182299,-1.0167553,-2.2418858
767,1747638630780,-2.6831748,-1.1204922,-2.7051272,0.7608866,-1.5323104,-2.3023596
768,1747638630790,-3.23153,-1.1109794,-2.3834622,1.2101648,-2.2873175,-2.2382207
769,1747638630800,-3.2353793,-1.11963845,-2.4301417499999998,1.5279199,-2.46602855,-1.37051215
770,1747638630810,-3.2392285999999997,-1.1282975,-2.4768213,1.845675,-2.6447396,-0.5028036
771,1747638630820,-2.916725,-1.0543603,-2.796657,1.6182871,-2.6032019,0.14599249
772,1747638630830,-2.6098321,-0.97931017,-2.92526215,1.1023693275,-2.44800845,0.63314317
773,1747638630840,-2.3029392,-0.90426004,-3.0538673,0.586451555,-2.292815,1.12029385
774,1747638630850,-2.0393567,-0.799071,-2.4613326,-1.329509,-1.4180819,2.5827386
775,1747638630860,-1.95454995,-0.7908998,-2.26182405,-1.49401785,-1.3912046,2.87716695
776,1747638630870,-1.8697432,-0.7827286,-2.0623155,-1.6585267,-1.3643273,3.1715953
777,1747638630880,-1.173483,-0.71562105,-1.4424318,-1.6896799,-1.5622419,4.2705097
778,1747638630890,-0.86268745,-0.704278925,-1.24743565,-1.50180615,-1.5805673,4.495912349999999
779,1747638630900,-0.5518919,-0.6929368,-1.0524395,-1.3139324,-1.5988927,4.721315
780,1747638630910,-0.44267825,-0.6956199000000001,-1.01669045,-1.2332624,-1.6352381,4.782705
781,1747638630920,-0.3334646,-0.698303,-0.9809414,-1.1525924,-1.6715835,4.844095
782,1747638630930,0.038447365,-0.70732784,-1.0797886,-1.1955808,-1.7729841,5.1312695
783,1747638630940,0.1427827175,-0.71745037,-1.10161915,-1.3585243,-1.71861875,5.241833
784,1747638630950,0.24711807,-0.7275729,-1.1234497,-1.5214678,-1.6642534,5.3523965
785,1747638630960,0.47578993,-0.7876069,-1.0124066,-2.2504377,-1.4370182,5.6547656
786,1747638630970,0.5757195500000001,-0.83081065,-0.8318168,-2.5532652000000002,-1.5014626,5.8313005
787,1747638630980,0.67564917,-0.8740144,-0.651227,-2.8560927,-1.565907,6.0078354
788,1747638630990,1.0065831,-0.9906676,-0.22342768,-2.9688704,-1.9947218,6.1275616
789,1747638631000,1.1099428,-1.02629465,-0.207923725,-2.8847643,-1.9400509000000001,6.1104578
790,1747638631010,1.2133025,-1.0619217,-0.19241977,-2.8006582,-1.88538,6.093354
791,1747638631020,1.4792937,-1.1280537,-0.16705243,-2.716514,-1.7558805,5.8826118
792,1747638631030,1.5548316,-1.1821117,-0.19145935,-3.029306,-2.0328996999999998,5.71096375
793,1747638631040,1.6303695,-1.2361697,-0.21586627,-3.342098,-2.3099189,5.5393157
794,1747638631050,1.6359795,-1.306936,-0.14945993,-3.756405,-2.3471806,5.522212
795,1747638631060,1.59265385,-1.36294535,0.02490999499999999,-3.90846785,-2.3254955,5.53595615
796,1747638631070,1.5493282,-1.4189547,0.19927992,-4.0605307,-2.3038104,5.5497003
797,1747638631080,1.5083501,-1.4719151,0.5162801,-4.3545775,-1.7625997,5.6162825
798,1747638631090,1.4918705499999998,-1.4780131,0.60291625,-4.22000025,-1.60164145,5.57871525
799,1747638631100,1.475391,-1.4841111,0.6895524,-4.085423,-1.4406832,5.541148
800,1747638631110,1.4874801,-1.48472085,0.73446355,-3.7053231999999996,-1.49260525,5.280889
801,1747638631120,1.4995692,-1.4853306,0.7793747,-3.3252234,-1.5445273,5.02063
802,1747638631130,1.4361204,-1.4250526,0.76791066,-2.5507455,-2.634966,4.1996512
803,1747638631140,1.4203725500000002,-1.42334525,0.70799863,-2.40372215,-2.7834019,4.1205466
804,1747638631150,1.4046247,-1.4216379,0.6480866,-2.2566988,-2.9318378,4.041442
805,1747638631160,1.2884593,-1.3811476,0.5304578,-2.0971913,-3.2085516,3.9913523
806,1747638631170,1.19170065,-1.3209765,0.58976005,-2.022553425,-3.137693325,4.155059400000001
807,1747638631180,1.094942,-1.2608054,0.6490623,-1.9479155499999998,-3.06683505,4.318766500000001
808,1747638631190,1.0717393,-1.1836971,0.5407023,-1.7918441,-2.642296,4.800114
809,1747638631200,1.1168944,-1.1912585500000001,0.47138422,-1.8429262,-2.31240035,4.9885985
810,1747638631210,1.1620495,-1.19882,0.40206614,-1.8940083,-1.9825047,5.177083
811,1747638631220,1.5622863,-1.3791964,0.49432763,-2.8137152,-1.1401464,5.402486
812,1747638631230,1.5891323499999999,-1.3730832,0.57364629,-3.0087281,-1.4302989,5.384771499999999
813,1747638631240,1.6159784,-1.36697,0.65296495,-3.203741,-1.7204514,5.367057
814,1747638631250,1.8809938,-1.272056,1.0004852,-3.4499125,-3.046677,5.5161033
815,1747638631260,1.97386515,-1.21885165,1.22391285,-3.3611106499999996,-2.7418261,5.57138515
816,1747638631270,2.0667365,-1.1656473,1.4473405,-3.2723088,-2.4369752,5.626667
817,1747638631280,2.1872923,-1.0741175,1.7106487,-2.877854,-1.9922783,5.696914
818,1747638631290,2.30065265,-1.00786368,1.7605601,-2.58999235,-1.8933211,5.6959978499999995
819,1747638631300,2.414013,-0.94160986,1.8104715,-2.3021307,-1.7943639,5.6950817
820,1747638631310,2.76421625,-0.75417513,1.67672895,-1.9968216,-1.76229435,5.5493946
821,1747638631320,3.1144195,-0.5667404,1.5429864,-1.6915125,-1.7302248,5.4037075
822,1747638631330,4.095727,0.11829959,1.4580729,-3.4268532,-2.05825,4.308993
823,1747638631340,4.1984768,0.26692104499999997,1.6309793,-3.96550585,-1.8539215000000002,4.0405256000000005
824,1747638631350,4.3012266,0.4155425,1.8038857,-4.5041585,-1.649593,3.7720582
825,1747638631360,4.426661,0.72010297,3.6705801,-5.5371776,0.2850366,2.4349136
826,1747638631370,4.236787,0.799909505,4.18795785,-5.2066327999999995,0.58526805,2.0537066999999998
827,1747638631380,4.046913,0.87971604,4.7053356,-4.876088,0.8854995,1.6724998
828,1747638631390,3.6803672,1.1230228,5.494833,-1.831091,0.54403585,1.219862
829,1747638631400,4.169549575,1.1754954,5.43675025,-0.930282175,0.7121715424999999,0.7722636675
830,1747638631410,4.65873195,1.227968,5.378667500000001,-0.02947335000000001,0.880307235,0.324665335
831,1747638631420,5.3315916,0.9519458,5.0963035,1.2718604,2.0173993,-1.4978738
832,1747638631430,5.2538583,0.745607535,5.07727825,1.6179817,2.38696195,-2.1096374
833,1747638631440,5.176125,0.53926927,5.058253,1.964103,2.7565246,-2.721401
834,1747638631450,4.407117,-0.19848719,4.7961335,3.819628,3.59224,-4.1997275
835,1747638631460,4.100239350000001,-0.614700495,4.30035755,4.878245325,3.468696125,-4.729026825
836,1747638631470,3.7933617,-1.0309138,3.8045816,5.93686265,3.34515225,-5.25832615
837,1747638631480,3.6466763,-1.1849166,3.193723,7.3263493,2.6575673,-5.9382753
838,1747638631490,3.6482616500000002,-1.2641133500000001,2.6339952,7.648323275,2.320074225,-6.2760739
839,1747638631500,3.649847,-1.3433101,2.0742674,7.97029725,1.9825811500000001,-6.613872499999999
840,1747638631510,3.495631,-1.2732755,1.1761967,7.6571994,1.9190531,-7.150196
841,1747638631520,3.36664475,-1.16662295,0.8977353299999999,7.0637232,2.1817174,-7.1651618
842,1747638631530,3.2376585,-1.0599704,0.61927396,6.470247,2.4443817,-7.1801276
843,1747638631540,3.05962975,-0.981871315,0.52629596,5.58512935,2.8707912,-7.03841115
844,1747638631550,2.881601,-0.90377223,0.43331796,4.7000117,3.2972007,-6.8966947
845,1747638631560,2.3302884,-0.9096263,0.54753196,3.6569898,3.2495546,-6.703056
846,1747638631570,2.2535308499999998,-0.94196048,0.544483005,3.632365,3.0986753,-6.6795383
847,1747638631580,2.1767733,-0.97429466,0.54143405,3.6077402,2.947796,-6.6560206
848,1747638631590,2.0474365,-1.0248158,0.40621272,3.7299097,2.3252664,-6.714662
849,1747638631600,1.9949639499999998,-1.0416613,0.29798994500000003,3.59907385,2.2150084999999997,-6.7998752
850,1747638631610,1.9424914,-1.0585068,0.18976717,3.468238,2.1047506,-6.8850884
851,1747638631620,1.8412202,-1.08706035,0.18401988000000002,3.468238,2.1047506,-6.8850884
852,1747638631630,1.7578846000000001,-1.084247725,0.21398352,3.4031064,2.009153,-7.036884049999999
853,1747638631640,1.674549,-1.0814351,0.24394716,3.3379748,1.9135554,-7.1886797
854,1747638631650,1.412674,-1.0963445,0.193182,3.4732013,1.4157149,-7.323677
855,1747638631660,1.3246962500000001,-1.0929144000000002,0.20391434,3.4778589,1.16465665,-7.3172630000000005
856,1747638631670,1.2367185,-1.0894843,0.21464668,3.4825165,0.9135984,-7.310849
857,1747638631680,1.0341457,-1.0021316,0.07530928,3.4657183,0.13782242,-6.880202
858,1747638631690,1.2098648,-0.9751635750000001,-0.19284661,2.85135865,0.50555246,-6.67709525
859,1747638631700,1.3855838999999999,-0.94819555,-0.4610025,2.236999,0.8732825,-6.4739885
860,1747638631710,1.5034719,-0.95551306,-0.5074991,1.402658,1.3442458,-6.679233
861,1747638631720,1.407193425,-0.96002553,-0.3552112625,1.1702688,1.4566417,-6.74428815
862,1747638631730,1.31091495,-0.964538,-0.202923425,0.9378796,1.5690376,-6.8093433
863,1747638631740,1.0297552,-0.94234157,0.18339485,0.64688724,1.0907441,-6.826447
864,1747638631750,0.9085896,-0.892064235,0.28480321,0.8344173699999999,0.7880693,-6.6712918000000005
865,1747638631760,0.787424,-0.8417869,0.38621157,1.0219475,0.4853945,-6.5161366
866,1747638631770,0.820002125,-0.7867531999999999,0.23027259,1.38398905,0.54159245,-6.14901755
867,1747638631780,0.85258025,-0.7317195,0.07433361,1.7460306,0.5977904,-5.7818985
868,1747638631790,0.9697212,-0.60848063,-0.3210248,1.6201197,1.3631821,-5.0512486
869,1747638631800,0.9410457299999999,-0.5356410149999999,-0.36776533499999997,1.40235265,1.5934715,-4.6841295
870,1747638631810,0.91237026,-0.4628014,-0.41450587,1.1845856,1.8237609,-4.3170104
871,1747638631820,0.77425253,-0.5284454,-0.31931743,0.7578324,2.070543,-3.5436776
872,1747638631830,0.702373315,-0.559194165,-0.28088529500000003,0.7291607499999999,2.1414014,-3.3863845
873,1747638631840,0.6304941,-0.58994293,-0.24245316,0.7004891,2.2122598,-3.2290914
874,1747638631850,-0.08479153,-0.7544343,-0.5074991,1.1920685,2.5225701,-2.376883
875,1747638631860,-0.29979645499999996,-0.800862305,-0.7429396875000001,0.986308365,2.5124911,-2.156214425
876,1747638631870,-0.51480138,-0.84729031,-0.978380275,0.78054823,2.5024121,-1.93554585
877,1747638631880,-0.97337997,-1.0621656,-1.4177961,-0.6080221,2.8225725,-1.3347776
878,1747638631890,-1.028169735,-1.13624005,-1.4492766,-0.77749405,2.95787515,-1.2663627499999999
879,1747638631900,-1.0829595,-1.2103145,-1.4807571,-0.946966,3.0931778,-1.1979479
880,1747638631910,-1.3063719,-1.3643021499999999,-1.28795625,-1.2899566999999998,3.2272588,-1.06875368
881,1747638631920,-1.5297843,-1.5182898,-1.0951554,-1.6329474,3.3613398,-0.93955946
882,1747638631930,-1.9971592,-1.4126129,-0.67662483,-0.2777828,1.1206757,-0.6115345
883,1747638631940,-2.057803,-1.39956335,-0.819636265,0.10636376999999997,0.83327205,-0.4875325
884,1747638631950,-2.1184468,-1.3865138,-0.9626477,0.49051034,0.5458684,-0.3635305
885,1747638631960,-2.272907,-1.3030334,-1.6654935,1.2356677,0.5257104,0.20829892
886,1747638631970,-2.288106075,-1.31596855,-1.82980185,1.19846325,0.6414659600000001,0.4028537725
887,1747638631980,-2.30330515,-1.3289037000000001,-1.9941102000000002,1.1612588000000001,0.7572215200000001,0.597408625
888,1747638631990,-2.2983048,-1.4482552,-2.2272944,1.0219475,0.63749546,0.88572854
889,1747638632000,-2.3029392,-1.5029231,-2.2631502,1.0219475,0.63749546,0.88572854
890,1747638632010,-2.28597175,-1.5113382,-2.26461375,0.852036505,-0.53292607,0.9347490350000001
891,1747638632020,-2.2690043,-1.5197533,-2.2660773,0.6821255100000001,-1.7033475999999999,0.98376953
892,1747638632030,-2.2104337,-1.4087102,-2.2268066,0.021303298,-3.1236439,1.3499725
893,1747638632040,-2.2791420000000002,-1.35843285,-2.1488295500000003,-0.22792238099999998,-3.03751435,1.6431792
894,1747638632050,-2.3478503,-1.3081555,-2.0708525,-0.47714806,-2.9513848,1.9363859
895,1747638632060,-2.1982381,-1.328919,-1.753578,-1.2261232,-2.017323,4.0139537
896,1747638632070,-1.62948535,-1.4061491,-1.6196067,-1.7426327,-1.3884557700000002,5.19720285
897,1747638632080,-1.0607326,-1.4833792,-1.4856354,-2.2591422,-0.75958854,6.380452
898,1747638632090,-0.7926529499999999,-1.51792395,-1.4515938,-2.4594619499999997,-0.5482354,6.602495
899,1747638632100,-0.5245733,-1.5524687,-1.4175522,-2.6597817,-0.33688226,6.824538
900,1747638632110,0.26053348,-1.5856413,-1.2030275,-3.25329615,0.011911523,6.9378505
901,1747638632120,0.42563459,-1.5782018500000001,-1.0313406649999999,-3.628852725,0.035734566499999995,6.80697655
902,1747638632130,0.5907357,-1.5707624,-0.85965383,-4.0044093,0.05955761,6.6761026
903,1747638632140,0.9216696,-1.5051183,-0.3427639,-4.157045,-0.19150062,6.4830747
904,1747638632150,0.9852404,-1.47949185,-0.252468995,-4.0807271499999995,-0.47585001,6.328835850000001
905,1747638632160,1.0488112,-1.4538654,-0.16217409,-4.0044093,-0.7601994,6.174597
906,1747638632170,1.4758788,-1.3955388,0.022348866,-3.6305707,-1.2733111,5.8123646
907,1747638632180,1.5224974,-1.3868797499999999,0.053707403,-3.60189905,-1.3649382,5.67614555
908,1747638632190,1.569116,-1.3782207,0.08506594,-3.5732274,-1.4565653,5.5399265
909,1747638632200,1.7091851,-1.366726,0.15583226,-3.5077903,-1.8029157,5.03048
910,1747638632210,1.6511024,-1.3525789000000001,0.21562233,-3.5187093000000003,-1.899735,4.83497075
911,1747638632220,1.5930197,-1.3384318,0.2754124,-3.5296283,-1.9965543,4.6394615
912,1747638632230,1.5537492,-1.355506,0.37011307,-3.4866397,-2.0637474,4.560662
913,1747638632240,1.5727823,-1.377466075,0.395792915,-3.417022275,-2.192178075,4.5175973
914,1747638632250,1.5918154,-1.39942615,0.42147276,-3.34740485,-2.32060875,4.4745326
915,1747638632260,1.6037521,-1.4828913,0.39596823,-3.3078144,-2.5848765,4.365802
916,1747638632270,1.6223049999999999,-1.54623345,0.46406671499999996,-3.3766492,-2.75041615,4.45620735
917,1747638632280,1.6408579,-1.6095756,0.5321652,-3.445484,-2.9159558,4.5466127
918,1747638632290,1.6381748,-1.6234788500000001,0.63380222,-3.45296685,-3.0894364,4.603116
919,1747638632300,1.6354917,-1.6373821,0.73543924,-3.4604497,-3.262917,4.6596193
920,1747638632310,1.778,-1.6337234,0.98045355,-3.1252472,-3.9611154,5.065909
921,1747638632320,1.84561075,-1.57966535,0.950558475,-2.9158983999999997,-3.64362755,5.129131750000001
922,1747638632330,1.9132215,-1.5256073,0.9206634,-2.7065495999999998,-3.3261397,5.1923545
923,1747638632340,1.9346861,-1.3005941,0.81547445,-2.5476148,-2.6117537,5.0830126
924,1747638632350,1.8703835,-1.22212915,0.718715725,-2.5334699,-2.558571875,5.0037171
925,1747638632360,1.8060809,-1.1436642,0.621957,-2.5193250000000003,-2.50539005,4.9244216000000005
926,1747638632370,1.7667799,-1.1392738,0.62342054,-2.768818,-3.1572404,4.7787347
927,1747638632380,1.766596925,-1.14617205,0.6287866950000001,-2.8373856,-3.3698152,4.8065280999999995
928,1747638632390,1.76641395,-1.1530703,0.63415285,-2.9059532,-3.58239,4.8343215
929,1747638632400,1.8065689,-1.1717452,0.7081206,-3.3265214,-3.482822,5.4605165
930,1747638632410,1.79973925,-1.1384352999999998,0.759236375,-3.34022735,-3.254976,5.56466575
931,1747638632420,1.7929096,-1.1051254,0.81035215,-3.3539333,-3.02713,5.668815
932,1747638632430,2.0508513,-0.95478135,0.946793,-3.2249682,-2.214016,6.1593256
933,1747638632440,2.2772059000000002,-0.950146875,0.99609465,-3.2090479,-2.22684375,5.9378933
934,1747638632450,2.5035605,-0.9455124,1.0453963,-3.1931276,-2.2396715,5.716461
935,1747638632460,2.6146038,-0.92990184,1.3470298,-3.1221168,-3.614765,4.9894767
936,1747638632470,2.5770254,-0.9095195549999999,1.42842175,-3.0102935000000004,-3.958672,4.88868685
937,1747638632480,2.539447,-0.88913727,1.5098137,-2.8984702,-4.302579,4.787897
938,1747638632490,2.52052815,-0.728182735,1.51981425,-2.40154595,-4.2133955,5.1101572
939,1747638632500,2.5016093,-0.5672282,1.5298148,-1.9046217,-4.124212,5.4324174
940,1747638632510,3.7967765,-0.48450997,1.1551894,-1.6037031,-1.6043904,6.1526065
941,1747638632520,4.05217255,-0.46498138499999997,1.2027836,-1.8878235499999998,-1.0915841,6.00814105
942,1747638632530,4.3075686,-0.4454528,1.2503778,-2.171944,-0.5787778,5.8636756
943,1747638632540,4.7326846,-0.20068243,2.0264597,-3.3408,0.019852536,4.852647
944,1747638632550,4.78735255,-0.063403085,2.44499015,-3.4006249000000004,-0.0844496335,4.0602254
945,1747638632560,4.8420205,0.07387626,2.8635206,-3.4604498,-0.188751803,3.2678038000000003
946,1747638632570,4.884492,0.15391143,3.2203403,-3.3084252,-0.108425386,2.8099737
947,1747638632580,4.6614305,0.344395115,3.58030035,-2.7679016499999998,0.05593070200000001,2.03935175
948,1747638632590,4.438369,0.5348788,3.9402604,-2.2273781,0.22028679,1.2687298
949,1747638632600,4.3902864,0.47142997,3.8597374,-0.20921518,0.5922928,-0.02687728
950,1747638632610,4.4193277,0.397111595,3.7578412,0.26400056,0.7642462999999999,-0.38517737
951,1747638632620,4.448369,0.32279322,3.655945,0.7372163,0.9361998,-0.74347746
952,1747638632630,4.381262,-0.08280971,3.1915276,2.1304824,1.1548831,-2.5314274
953,1747638632640,3.98383005,-0.290367555,2.8459587,2.6878042,1.0385167,-3.5879259
954,1747638632650,3.5863981,-0.4979254,2.5003898,3.245126,0.9221503,-4.6444244
955,1747638632660,3.41800425,-0.53942175,2.2864748,3.3962344,0.89344048,-4.8933447
956,1747638632670,3.2496104,-0.5809181,2.0725598,3.5473428,0.86473066,-5.142265
957,1747638632680,3.2737887,-0.7517512,1.4714884,3.39402,1.1939774,-5.5020537
958,1747638632690,3.23936585,-0.8067696499999999,1.316525,3.1220784999999998,1.4529766,-5.7094745499999995
959,1747638632700,3.204943,-0.8617881,1.1615616,2.850137,1.7119758,-5.9168954
960,1747638632710,3.101248,-0.8815758,1.0575922,2.2862487,2.3930705,-6.2168217
961,1747638632720,3.0122946500000003,-0.98847225,1.1487408000000001,2.04744555,2.931875925,-6.3024929499999995
962,1747638632730,2.9233413,-1.0953687,1.2398894,1.8086424,3.47068135,-6.3881642
963,1747638632740,3.0209386,-1.1968687,1.3384928,2.053821,3.4731247,-6.520413
964,1747638632750,3.09050045,-1.26569895,1.39242885,2.3366815499999998,3.24314085,-6.7390962
965,1747638632760,3.1600623,-1.3345292,1.4463649,2.6195421,3.013157,-6.9577794
966,1747638632770,3.094906,-1.400661,1.361177,3.5024455,2.6288576,-7.46295
967,1747638632780,2.9577486,-1.46935405,1.071129575,4.05171175,2.761755,-7.75554575
968,1747638632790,2.8205912,-1.5380471,0.78108215,4.600978,2.8946524,-8.0481415
969,1747638632800,2.7947208999999997,-1.5700154,0.687006525,4.665155,2.89923385,-8.10892125
970,1747638632810,2.7688506,-1.6019837,0.5929309,4.729332,2.9038153,-8.169701
971,1747638632820,2.7505262,-1.6234789,0.34544697,4.712801150000001,2.6444341,-8.3310025
972,1747638632830,2.64059605,-1.59626695,0.235257615,4.563429925,2.4723279,-8.47365425
973,1747638632840,2.5306659,-1.569055,0.12506826,4.4140587,2.3002217,-8.616306
974,1747638632850,2.2924662,-1.5340224500000001,-0.06796128585,4.2233977,2.418726,-8.671282
975,1747638632860,2.2010658999999997,-1.530546625,-0.13531277792500002,4.00719605,2.5161562,-8.641656000000001
976,1747638632870,2.1096656,-1.5270708,-0.20266427,3.7909944,2.6135864,-8.61203
977,1747638632880,1.8016906,-1.4956056,-0.16973552,3.1971745,2.0375574,-8.39518
978,1747638632890,1.74324205,-1.47815025,-0.174979725,3.1027604,1.79016425,-8.331613
979,1747638632900,1.6847935,-1.4606949,-0.18022393,3.0083463,1.5427711,-8.268046
980,1747638632910,1.5132285,-1.3342851,-0.2866326,2.63637855,1.11487265,-7.99255475
981,1747638632920,1.4681954,-1.3009753,-0.28931567,2.429816775,1.097616175,-7.825487875
982,1747638632930,1.4231623,-1.2676655,-0.29199874,2.223255,1.0803597,-7.658421
983,1747638632940,1.2086681,-1.1285415,-0.21928109,1.8182632,1.1518289,-7.0536823
984,1747638632950,1.21196095,-1.1043785000000002,-0.23208671,1.7765347,1.16954345,-6.93487265
985,1747638632960,1.2152538,-1.0802155,-0.24489233,1.7348062,1.187258,-6.816063
986,1747638632970,1.1334808,-1.0048147,-0.19632243,1.5272709,0.8427402,-6.5479007
987,1747638632980,1.0646658,-0.96601672,-0.17447664000000002,1.50016455,0.6885012500000001,-6.3982432
988,1747638632990,0.9958508,-0.92721874,-0.15263085,1.4730582,0.5342623,-6.2485857
989,1747638633000,0.875295,-0.8637699,-0.1167751,1.5316995,0.46951246,-5.692104
990,1747638633010,0.76144687,-0.8399727699999999,-0.12360477,1.675611275,0.5196019475,-5.422834825
991,1747638633020,0.64759874,-0.81617564,-0.13043444,1.81952305,0.569691435,-5.15356565
992,1747638633030,0.5470441,-0.82959104,-0.21391493,2.145372,0.62833273,-4.604719
993,1747638633040,0.45199284,-0.866681635,-0.33069004,2.2117634500000003,0.6442147650000001,-4.39978
994,1747638633050,0.35694158,-0.90377223,-0.44746515,2.2781549,0.6600968,-4.194841
995,1747638633060,0.08409027,-1.0358226,-0.8508729,2.022668,0.84884864,-3.822224
996,1747638633070,-0.21389968500000003,-1.172355,-0.9721603999999999,1.131670915,0.9835404700000001,-3.5745253999999997
997,1747638633080,-0.51188964,-1.3088874,-1.0934479,0.24067383,1.1182323,-3.3268268
998,1747638633090,-0.7910522,-1.5236559,-0.92993236,-0.49150297,1.4499223,-3.1838887
999,1747638633100,-1.12174225,-1.6664234,-0.81962103,-0.839495035,1.8497219,-3.02838985
1000,1747638633110,-1.4524323,-1.8091909,-0.7093097,-1.1874871,2.2495215,-2.872891
