id,timestamp,acc_x,acc_y,acc_z,gyro_x,gyro_y,gyro_z
0,1747638695030,-0.03719729,0.38794947,0.79132664,-0.19241689,0.011911522,0.10323319
1,1747638695040,-0.044026957000000005,0.393696755,0.893100885,-0.18275787,-0.306034469,0.096208445
2,1747638695050,-0.050856624,0.39944404,0.99487513,-0.17309885,-0.62398046,0.0891837
3,1747638695060,-0.058189367,0.408834845,1.018169215,-0.118275305,-0.7198834999999999,0.0696365875
4,1747638695070,-0.06552211,0.41822565,1.0414633,-0.06345176,-0.81578654,0.050089475
5,1747638695080,-0.09064553,0.4150547,1.1159188,0.15217732,-1.1291511,-0.047646087
6,1747638695090,-0.089060075,0.416152325,1.016827665,0.25621224,-1.02255827,-0.1084253935
7,1747638695100,-0.08747462,0.41724995,0.91773653,0.36024716,-0.91596544,-0.1692047
8,1747638695110,-0.07918145,0.418225615,0.891622185,0.308859645,-0.79501769,-0.18264333500000002
9,1747638695120,-0.07088828,0.41920128,0.86550784,0.25747213,-0.67406994,-0.19608197
10,1747638695130,-0.020123126,0.4150547,0.94874436,-0.09208523,-0.369868,-0.20341213
11,1747638695140,-0.01268366725,0.40700544,0.970468195,-0.12073777999999999,-0.383001225,-0.21807247000000002
12,1747638695150,-0.0052442085,0.39895618,0.99219203,-0.14939033,-0.39613445,-0.23273281
13,1747638695160,0.009665198,0.48850408,0.9824048,-0.039094225,-0.56900424,-0.11545013
14,1747638695170,0.0127141565,0.49545574,0.9481193299999999,-0.009811734000000003,-0.53357509,-0.07574506
15,1747638695180,0.015763115,0.5024074,0.91383386,0.019470757,-0.49814594,-0.03603999
16,1747638695190,0.0052442085,0.4109081,0.9109068,0.13721156,-0.30450734,0.01343864
17,1747638695200,0.0003658749500000001,0.40346865,0.8993208,0.15744588,-0.28343312,0.035123718
18,1747638695210,-0.0045124586,0.3960292,0.8877348,0.1776802,-0.2623589,0.056808796
19,1747638695220,0.03088595,0.41993302,0.81571835,0.20577917,0.006413896,0.114839286
20,1747638695230,0.039301075,0.427494435,0.785945275,0.14251830000000001,0.19214963300000001,0.167372153
21,1747638695240,0.0477162,0.43505585,0.7561722,0.07925743,0.37788537,0.21990502
22,1747638695250,0.06628435,0.43334848,0.8184319,-0.2391467,0.75844324,0.4086568
23,1747638695260,0.05151215000000001,0.41272226,0.832823,-0.30393469,0.86564692,0.413238165
24,1747638695270,0.03673995,0.39209604,0.8472141,-0.36872268,0.9728506,0.41781953
25,1747638695280,0.023934324,0.3598838,0.8910275999999999,-0.361888825,0.9985062,0.38300124
26,1747638695290,0.011128698,0.32767156,0.9348411,-0.35505497,1.0241618,0.34818295
27,1747638695300,-0.00060979166,0.3594112,0.94069517,-0.34321982,0.97712654,0.3243599
28,1747638695310,-0.015366750329999998,0.4038193,0.90958056,-0.33730222750000005,0.946278745,0.24036839999999998
29,1747638695320,-0.030123709,0.4482274,0.87846595,-0.33138463500000004,0.91543095,0.15637689999999999
30,1747638695330,-0.045002624,0.3606308,0.94045126,-0.2914505,0.5849626,0.0904054
31,1747638695340,-0.055384327,0.36453346499999995,0.94203668,-0.25938102,0.47836975000000004,0.072385404
32,1747638695350,-0.06576603,0.36843613,0.9436221,-0.22731154,0.3717769,0.054365408
33,1747638695360,-0.08601111,0.3738023,0.9965825,-0.03603999,-0.00030542363,-0.017714571
34,1747638695370,-0.08430370000000001,0.37807084999999996,0.9902254500000001,0.062420949999999996,-0.22387552681499998,-0.0403159205
35,1747638695380,-0.08259629,0.3823394,0.9838684,0.16088189,-0.44744563,-0.06291727
36,1747638695390,-0.0813767,0.37770495,0.9375242,0.26678755,-0.728740775,-0.07818844750000001
37,1747638695400,-0.07479095,0.37441207499999996,0.9288499,0.230365775,-0.6931589375,-0.09651386675000001
38,1747638695410,-0.0682052,0.3711192,0.9201756,0.193944,-0.6575771,-0.114839286
39,1747638695420,-0.0135373755,0.41103007,0.8584495249999999,0.14843589,-0.55251133,-0.14599249
40,1747638695430,-0.00890295875,0.41292042500000004,0.8483193625,0.104798486,-0.44194798,-0.14660334
41,1747638695440,-0.004268542,0.41481078,0.8381892,0.061161082,-0.33138463,-0.14721419
42,1747638695450,-0.008171208,0.40724936,0.84379923,-0.15630054,0.13721156,-0.13133216
43,1747638695460,-0.008171208,0.40724936,0.84379923,-0.15630054,0.13721156,-0.13133216
44,1747638695470,-0.039148625,0.41749385,0.9389877,-0.26907822,0.55136603,-0.09101624
45,1747638695480,-0.037807084500000004,0.41785975,0.9605743,-0.24941657,0.557169065,-0.082769805
46,1747638695490,-0.036465544,0.41822565,0.9821609,-0.22975492,0.5629721,-0.07452337
47,1747638695500,-0.055765446,0.4104203,1.0039,-0.090214505,0.4038464,-0.050089474999999994
48,1747638695510,-0.057594823,0.4129814,1.0026804,0.009792645000000003,0.24575149,-0.0351237175
49,1747638695520,-0.0594242,0.4155425,1.0014608,0.109799795,0.08765658,-0.02015796
50,1747638695530,-0.06844912,0.4150547,0.9206634,0.23502348,-0.25686127,0.015271181
51,1747638695540,-0.0651562435,0.41529859999999996,0.8973694,0.221317595,-0.27976805,0.023823042500000002
52,1747638695550,-0.061863367,0.4155425,0.8740754,0.20761171,-0.30267483,0.032374904
53,1747638695560,-0.05625328,0.42676273,0.8433114,-0.0092390645,-0.24647687,0.07452337
54,1747638695570,-0.05625328,0.423713765,0.82927095,-0.05253286224999999,-0.2015796,0.08307523
55,1747638695580,-0.05625328,0.4206648,0.8152305,-0.09582666,-0.15668233,0.09162709
56,1747638695590,-0.046953958,0.40895677,0.8452627,-0.28091338,0.12125318,0.102011494
57,1747638695600,-0.049027248999999995,0.406151745,0.8888323499999999,-0.30924143,0.14816864,0.07146912999999999
58,1747638695610,-0.05110054,0.40334672,0.932402,-0.33756948,0.1750841,0.040926766
59,1747638695620,-0.07040045,0.4004197,0.9443538,-0.30389652,0.111479625,0.018936265
60,1747638695630,-0.069058908,0.39577003499999996,0.93616738,-0.282402325,0.0772721785,0.0054976255000000005
61,1747638695640,-0.067717366,0.39112037,0.92798096,-0.26090813,0.043064732,-0.007941014
62,1747638695650,-0.066985615,0.39404738,0.90505284,-0.22105035,-0.083380654,-0.061084725
63,1747638695660,-0.066985615,0.39404738,0.90505284,-0.22105035,-0.083380654,-0.061084725
64,1747638695670,-0.046710044,0.37770495,0.82013935,-0.34818295,0.014965758,-0.028098974
65,1747638695680,-0.035733793,0.376607325,0.816343375,-0.40800780000000003,0.12373474899999999,-0.0051922015
66,1747638695690,-0.024757542,0.3755097,0.8125474,-0.46783265,0.23250374,0.017714571
67,1747638695700,-0.027440626,0.36843613,0.8477019,-0.7880693,0.94108653,0.09651387
68,1747638695710,-0.041603036,0.372704665,0.886377925,-0.83758613,1.0437088650000002,0.100789798
69,1747638695720,-0.055765446,0.3769732,0.92505395,-0.88710296,1.1463312,0.105065726
70,1747638695730,-0.15116736,0.3574599,1.1368957,-0.796163,0.8934405,0.043981
71,1747638695740,-0.15299673,0.3497765,1.1332369,-0.7270227499999999,0.74958595,0.0219905
72,1747638695750,-0.1548261,0.3420931,1.1295781,-0.6578825,0.6057314,0.0
73,1747638695760,-0.13019052,0.3064508,1.081496,-0.18989713,0.21356747,-0.046424393
74,1747638695770,-0.11432069,0.291190765,1.0686904,-0.0902144985,0.23372543499999998,-0.032680329
75,1747638695780,-0.09845086,0.27593073,1.0558848,0.009468133,0.2538834,-0.018936265
76,1747638695790,-0.08235237,0.31596357,0.99292374,0.23624517,0.41087115,0.15576605
77,1747638695800,-0.10810082499999998,0.313158535,0.898101155,0.06116108000000001,0.526321275,0.167677575
78,1747638695810,-0.13384928,0.3103535,0.80327857,-0.11392301,0.6417714,0.1795891
79,1747638695820,-0.12043386,0.34331274,0.699553,-0.35436776,1.1542722,0.18142164
80,1747638695830,-0.138117815,0.365753055,0.77911555,-0.55781808,1.44564635,0.16492876499999998
81,1747638695840,-0.15580177,0.38819337,0.8586781,-0.7612684,1.7370205,0.14843589
82,1747638695850,-0.007683375,0.32937896,0.97142863,-0.82357484,1.5494905,-0.28098974
83,1747638695860,0.048935782,0.35526463,1.1913195,-0.82357484,1.5494905,-0.28098974
84,1747638695870,0.048935782,0.35526463,1.1913195,-0.7675296,1.1548831,-0.7330931
85,1747638695880,0.056009363,0.3020603,1.1537259,0.12972869,-0.47920966,-3.3011713
86,1747638695890,0.056009363,0.3020603,1.1537259,0.12972869,-0.47920966,-3.3011713
87,1747638695900,-0.09796303,0.18248017,0.8184319,-0.014202199,-0.40651885,-3.8637617
88,1747638695910,-0.19681026,0.15976542,0.8255055,-0.22601348,-0.0827698,-4.0238037
89,1747638695920,-0.19681026,0.15976542,0.8255055,-0.22601348,-0.0827698,-4.0238037
90,1747638695930,-0.31565866,0.16049717,0.87749016,-0.5843518,0.41636875,-3.5003076
91,1747638695940,-0.314683005,0.216506535,0.8529613,-0.62420955,0.646047325,-3.22325015
92,1747638695950,-0.31370735,0.2725159,0.82843244,-0.6640673,0.8757259,-2.9461927
93,1747638695960,-0.31370735,0.2725159,0.82843244,-0.54136336,1.2782743,-2.5967882
94,1747638695970,-0.176306031,0.30442324499999995,0.8004811350000001,-0.30767612,1.4832135499999999,-2.54150645
95,1747638695980,-0.038904712,0.33633059,0.7725298300000001,-0.07398888,1.6881528,-2.4862247
96,1747638695990,0.1153116,0.23251356,0.7364149,0.46554196,1.635009,-3.274905
97,1747638696000,0.114457895,0.18662674,0.7797406,0.6552863999999999,1.51497755,-3.6475218500000004
98,1747638696010,0.11360419,0.14073992,0.8230663,0.84503084,1.3949461,-4.0201387
99,1747638696020,-0.037929043,-6.0979168e-05,0.8879787,1.2823975,0.88916457,-4.8692164
100,1747638696030,-0.2537952865,0.026038105416,0.66650234,0.621957061,1.5406331349999998,-4.3832873
101,1747638696040,-0.46966153,0.05213719,0.44502598,-0.038483378,2.1921017,-3.8973582
102,1747638696050,-0.54140353,0.31279266,0.45673394,-0.65162134,2.739421,-2.7916484
103,1747638696060,-0.616819515,0.412249655,0.454172835,-0.89401317,3.0598485,-2.2162302
104,1747638696070,-0.6922355,0.51170665,0.45161173,-1.136405,3.380276,-1.640812
105,1747638696080,-0.5511602,0.29962116,0.77547204,-1.0472976,2.2250874,-0.17653486
106,1747638696090,-0.505898425,0.263018395,0.79157057,-0.9475768,1.484740585,-0.07818844999999999
107,1747638696100,-0.46063665,0.22641563,0.8076691,-0.847856,0.74439377,0.02015796
108,1747638696110,-0.39325467,0.18809025,0.7517817,-0.41980478,-1.6838005,0.28098974
109,1747638696120,-0.370326485,0.16746404999999998,0.7852287499999999,0.005764875000000003,-2.49565475,0.40041037
110,1747638696130,-0.3473983,0.14683785,0.8186758,0.43133453,-3.307509,0.519831
111,1747638696140,-0.31860089999999996,0.09643856099999999,0.82940813,0.642229545,-3.32858315,0.5222744
112,1747638696150,-0.2898035,0.046039272,0.84014046,0.85312456,-3.3496573,0.5247178
113,1747638696160,-0.1768091,-0.09061504,0.9709408,2.184619,-3.2757447,0.31764057
114,1747638696170,-0.214021635,-0.0394840095,1.02060835,2.61236465,-3.3627905,0.240979235
115,1747638696180,-0.25123417,0.011647021,1.0702759,3.0401103,-3.4498363,0.1643179
116,1747638696190,-0.48795533,0.3545329,1.3294373,2.4694264,-5.0557537,-0.7581378
117,1747638696200,-0.48795533,0.3545329,1.3294373,2.4694264,-5.0557537,-0.7581378
118,1747638696210,-0.4425563,0.5126824,0.6495501,0.30733252,-2.6978834,-1.4025817
119,1747638696220,-0.4425563,0.5126824,0.6495501,0.30733252,-2.6978834,-1.4025817
120,1747638696230,-0.6509831,0.43871462,2.542374,-1.1332744,-0.89886177,-0.9297859
121,1747638696240,-0.60948676,0.44895914,2.5826201,-1.2248251,-0.28068432,-0.5889331
122,1747638696250,-0.60948676,0.44895914,2.5826201,-1.2248251,-0.28068432,-0.5889331
123,1747638696260,-0.52164626,0.40944463,2.8325434,-1.233606,1.4065522,-0.72270864
124,1747638696270,-0.585948805,0.3420169125,2.804965525,-1.3317233499999999,1.9834974499999998,-0.80914354
125,1747638696280,-0.65025135,0.274589195,2.7773876499999997,-1.4298407,2.5604427,-0.89557844
126,1747638696290,-0.8828259,0.22004333,2.7315009,-1.6840296,4.1804857,-0.4398864
127,1747638696300,-1.0864810999999999,0.15769213,2.61435985,-1.258803525,4.0189167,0.1688611
128,1747638696310,-1.2901363,0.09534093,2.4972188,-0.83357745,3.8573477,0.7776086
129,1747638696320,-1.1712879,-0.32879966,2.0262158,0.8101362,1.9728075,0.8790092
130,1747638696330,-1.1201568499999999,-0.30549037,2.0161999,1.21764765,1.25933795,0.7708892300000001
131,1747638696340,-1.0690258,-0.28218108,2.006184,1.6251591,0.5458684,0.66276926
132,1747638696350,-0.8733132,-0.1662597,1.6130209,2.5868617499999997,-1.385096125,0.84205295
133,1747638696360,-0.67892683,-0.178104905,1.3664211499999999,2.8091338749999997,-1.8569757125,1.049893725
134,1747638696370,-0.48454046,-0.18995011,1.1198214,3.031406,-2.3288553,1.2577345
135,1747638696380,-0.39447424,-0.16747929,0.9218831,2.7622514,-2.5505927,2.1660643
136,1747638696390,-0.33675745,-0.14686833,0.8570926999999999,2.6578728,-2.46629575,2.3285879
137,1747638696400,-0.27904066,-0.12625737,0.7923023,2.5534942,-2.3819988,2.4911115
138,1747638696410,0.06506477,-6.0979168e-05,0.65906286,2.4737787,-1.9684553,2.5674675
139,1747638696420,0.08933448,0.021891520416,0.49066888,2.6868498499999998,-1.38082025,2.24948325
140,1747638696430,0.11360419,0.04384402,0.3222749,2.899921,-0.7931852,1.931499
141,1747638696440,0.0594242,0.035306938,0.25297207,3.0065138,0.019241689,1.6706673
142,1747638696450,0.0594242,0.035306938,0.25297207,3.0065138,0.019241689,1.6706673
143,1747638696460,-0.12726352,0.13049541,0.3884068,3.0950103,2.1359038,1.2888877
144,1747638696470,-0.13842270899999998,0.11749160324999999,0.6218350825,2.9697485,1.9153878999999998,1.3453911
145,1747638696480,-0.149581898,0.1044877965,0.855263365,2.8444867,1.694872,1.4018945
146,1747638696490,-0.006326586000000002,0.0396974375,0.8763774,2.0787132,-0.36070532,1.0384403
147,1747638696500,0.073045427,0.09607267875,0.85094145,1.8404064500000001,-1.2800304599999999,0.614817745
148,1747638696510,0.15241744,0.15244792,0.8255055,1.6020997,-2.1993556,0.19119519
149,1747638696520,0.064089105,-0.043508638,1.0419511,2.985287,-1.6251591,-0.45760095
150,1747638696530,0.046024026499999995,-0.01861389185,0.9589889,3.0152185,-1.82490615,-0.57274565
151,1747638696540,0.027958948,0.0062808543,0.8760267,3.04515,-2.0246532,-0.68789035
152,1747638696550,-0.074059196,0.17394307,0.5433854,2.7908847,-2.4748476,-0.86747944
153,1747638696560,-0.040993244,0.325491545,0.337534955,2.3444699499999997,-1.8991240999999999,-0.76119202
154,1747638696570,-0.007927292,0.47704002,0.13168451,1.8980552,-1.3234006,-0.6549046
155,1747638696580,0.13387977,0.428714,0.1153116,1.2488009,0.2862583,-0.35436776
156,1747638696590,0.114960978,0.331223575,0.286632585,0.8874083500000001,1.57671135,-0.36963895
157,1747638696600,0.096042186,0.23373315,0.45795357,0.5260158,2.8671644,-0.38491014
158,1747638696610,-0.27147925,0.39355955,0.73129267,0.5920637,2.7259822,-0.4802023
159,1747638696620,-0.322488325,0.435543705,0.689323755,0.71824183,2.21164885,-0.44568943000000005
160,1747638696630,-0.3734974,0.47752786,0.64735484,0.84441996,1.6973155,-0.41117656
161,1747638696640,-0.251722,0.4252992,0.37547922,1.1764919,0.15798037,-0.12033691
162,1747638696650,-0.10029548399999999,0.42932384,0.33203156,1.26964605,0.29481015499999996,-0.05314371150000001
163,1747638696660,0.051131032,0.43334848,0.2885839,1.3628002,0.43163994,0.014049487
164,1747638696670,0.075903816,0.46958533999999996,0.246980865,1.461223,0.76149744,-0.07941014
165,1747638696680,0.028987970000000002,0.54787497,0.0260609725,1.4222815,0.87542045,-0.32042757
166,1747638696690,-0.017927876,0.6261646,-0.19485892,1.38334,0.98934346,-0.561445
167,1747638696700,-0.2839495,0.67421615,-0.37764397,0.7702784,1.0895225,-0.7025507
168,1747638696710,-0.2839495,0.67421615,-0.37764397,0.7702784,1.0895225,-0.7025507
169,1747638696720,-0.70467526,0.6754358,0.16241801,-0.09025268,1.2458993,-0.09468132
170,1747638696730,-0.65037331,0.69984267,0.270290155,0.012560547499999991,1.1866471,0.15454435500000002
171,1747638696740,-0.59607136,0.72424954,0.3781623,0.115373775,1.1273949,0.40377003
172,1747638696750,0.016982697,0.87898415,-0.011098208,0.902985,0.31618983,0.43736663
173,1747638696760,0.047975358499999995,0.9154649749999999,-0.146670154,0.8802309150000001,0.3198549,0.252585338
174,1747638696770,0.07896802,0.9519458,-0.2822421,0.85747683,0.32351997,0.067804046
175,1747638696780,-0.26562527,0.9861246,-0.37764397,0.5110501,0.8928296,-0.44049722
176,1747638696790,-0.434141185,0.96171768,-0.32908930999999997,0.43190719,0.5892385250000001,-0.39346199000000004
177,1747638696800,-0.6026571,0.93731076,-0.28053465,0.35276428,0.28564745,-0.34642676
178,1747638696810,-0.60314494,0.88678956,-0.3254153,0.24808034,-0.00335966,-0.30794337
179,1747638696820,-0.63962572,0.89422903,-0.33396765,0.190469805,-0.054670830000000004,-0.28255502499999996
180,1747638696830,-0.6761065,0.9016685,-0.34252,0.13285927,-0.105982,-0.25716668
181,1747638696840,-0.6888207,0.8702032,-0.28955957,-0.4485146,-0.22937314,0.092848785
182,1747638696850,-0.59460788,0.831511915,-0.131897935,-0.65536275,-0.24403346999999997,0.0656660815
183,1747638696860,-0.50039506,0.79282063,0.0257637,-0.8622109,-0.2586938,0.038483378
184,1747638696870,-0.51260613,0.776112345,0.08872469,-0.8603402,-0.25625042,0.019241689
185,1747638696880,-0.5248172,0.75940406,0.15168568,-0.8584695,-0.25380704,0.0
186,1747638696890,-0.59558356,0.74403733,0.35349622,-0.56251395,-0.6062659,0.2247918
187,1747638696900,-0.57251818,0.760501685,0.317015435,-0.49864223500000004,-0.74889875,0.29442838
188,1747638696910,-0.5494528,0.77696604,0.28053465,-0.43477052,-0.8915316,0.36406496
189,1747638696920,-0.4486542,0.8048031,0.11457986,-0.46714544,-0.99598646,0.47646087
190,1747638696930,-0.4486542,0.8048031,0.11457986,-0.46714544,-0.99598646,0.47646087
191,1747638696940,-0.4486542,0.8048031,0.11457986,-0.46714544,-0.99598646,0.47646087
192,1747638696950,-0.31492692,0.75062305,0.19366984,-1.61676,-0.044897273,0.72141063
193,1747638696960,-0.30090171,0.721337825,0.28896504,-1.61676,-0.040621341500000005,0.709193665
194,1747638696970,-0.2868765,0.6920526,0.38426024,-1.61676,-0.03634541,0.6969767
195,1747638696980,-0.27904066,0.66714257,0.5404583,-1.1544249,-0.51097375,0.4966188
196,1747638696990,-0.287105155,0.669337835,0.48896142,-0.973728685,-0.809983475,0.44072629
197,1747638697000,-0.29516965,0.6715331,0.43746454,-0.79303247,-1.1089932,0.38483378
198,1747638697010,-0.20754258,0.72376174,0.08018761,-0.6765133,-1.9678445,0.34451786
199,1747638697020,-0.13921543,0.69472042,0.05687832,-1.0808942,-1.92752855,0.34237987999999997
200,1747638697030,-0.07088828,0.6656791,0.03356903,-1.4852751,-1.8872126,0.3402419
201,1747638697040,-0.03597771,0.5980837,0.11921428,-1.8653748,-1.4070866,0.40804598
202,1747638697050,-0.03597771,0.5980837,0.11921428,-1.8653748,-1.4070866,0.40804598
203,1747638697060,-0.07918145,0.55244076,0.28907174,-2.1656826,-0.9184089,0.51066834
204,1747638697070,-0.081750195,0.49076796,0.5137189950000001,-2.179865675,-0.808761785,0.5951179525
205,1747638697080,-0.08431894,0.42909516000000003,0.73836625,-2.19404875,-0.6991146699999999,0.6795675649999999
206,1747638697090,-0.04402696,0.4062737,0.9436221,-1.6435609,-1.073564,0.56136864
207,1747638697100,0.002942243500000004,0.404322375,0.911287925,-1.4937124499999999,-1.18504365,0.517693055
208,1747638697110,0.049911447,0.40237105,0.87895375,-1.343864,-1.2965233,0.47401747
209,1747638697120,0.14851476,0.43603155,0.624884,-1.3077476,-1.4669497,0.2932067
210,1747638697130,0.13997768,0.44017814,0.58169552,-1.5600657,-1.24276875,0.30175854999999996
211,1747638697140,0.1314406,0.44432473,0.53850704,-1.8123838,-1.0185878,0.3103104
212,1747638697150,0.0623512,0.36868006,0.6815032,-1.9899876,-1.069899,0.2870982
213,1747638697160,0.0533262825,0.35977711,0.83855505,-1.82486795,-1.15572305,0.327414125
214,1747638697170,0.044301365,0.35087416,0.9956069,-1.6597483,-1.2415471,0.36773005
215,1747638697180,0.16314976,0.27934557,0.9087116,-1.3825,-0.9239065,0.47401747
216,1747638697190,0.20915853,0.29570323499999995,0.85331198,-1.394946,-0.5867188,0.52227442
217,1747638697200,0.2551673,0.3120609,0.79791236,-1.407392,-0.2495311,0.57053137
218,1747638697210,0.26882666,0.29010838,0.7925463,-1.9077524,0.5134935,0.37444937
219,1747638697220,0.26882666,0.29010838,0.7925463,-1.9077524,0.5134935,0.37444937
220,1747638697230,-0.005488125,0.23495273,1.2247665,-2.0037317,-0.5347968,0.11667182
221,1747638697240,-0.047822912499999995,0.236172315,1.27393105,-1.8049391,-0.8741224000000001,0.141411135
222,1747638697250,-0.0901577,0.2373919,1.3230956,-1.6061465,-1.213448,0.16615045
223,1747638697260,0.103359684,0.20101783,0.9943873,-0.9176453,-1.6703619,0.34879377
224,1747638697270,0.232711742,0.20699378499999999,0.86905985,-0.91455288,-1.4287717500000001,0.324359885
225,1747638697280,0.3620638,0.21296974,0.7437324,-0.91146046,-1.1871816,0.299926
226,1747638697290,0.36657627,0.1999202,0.77423725,-1.2045908,-0.6893411700000001,0.165845025
227,1747638697300,0.33161995499999997,0.18839514000000002,0.858441845,-1.37704065,-0.46974156,0.0658187875
228,1747638697310,0.29666364,0.17687008,0.94264644,-1.5494905,-0.25014195,-0.03420745
229,1747638697320,-0.04183171,0.19711517,1.1705866,-1.2965233,-0.7931852,-0.10934166
230,1747638697330,-0.08954790500000001,0.20979883,1.1205532,-1.1706506,-0.96636035,-0.065971505
231,1747638697340,-0.1372641,0.22248249,1.0705198,-1.0447779,-1.1395355,-0.02260135
232,1747638697350,0.019421864,0.20565225,0.7139746,-0.68025476,-1.2934691,0.3616216
233,1747638697360,0.209768347,0.15744821250000002,0.6729661,-1.06905903,-0.72965707,0.42087376499999996
234,1747638697370,0.40011483,0.109244175,0.6319576,-1.4578633,-0.16584504,0.48012593
235,1747638697380,0.42965922,0.078022845,0.82843244,-1.8865254,0.33940202,0.387888
236,1747638697390,0.42965922,0.078022845,0.82843244,-1.8865254,0.33940202,0.387888
237,1747638697400,0.336666,0.06899793,1.0880818,-1.884082,0.06139015,0.07941014
238,1747638697410,0.1569298955,0.079486345,1.2114579,-1.470672025,-0.40209020000000006,0.0806318375
239,1747638697420,-0.022806209,0.08997476,1.334834,-1.05726205,-0.86557055,0.081853535
240,1747638697430,-0.14677685,0.092170015,1.2306206,-0.7756233,-1.0393566,0.11911522
241,1747638697440,-0.129946602,0.1102350875,0.9685168749999999,-0.383383007,-0.9434536,0.27121618999999997
242,1747638697450,-0.113116354,0.12830016,0.70641315,0.008857286,-0.8475506,0.42331716
243,1747638697460,0.21464668,0.014817937,0.27882725,-0.97437775,1.2477319,0.8093726
244,1747638697470,0.294941,-0.0516798465,0.44551382500000003,-1.4033834250000001,1.7116704,0.8273926
245,1747638697480,0.37523532,-0.11817763,0.6122004,-1.8323891,2.1756089,0.8454126
246,1747638697490,0.34788615,-0.1691867,1.6630543,-2.249216,2.1169674,0.263886
247,1747638697500,0.1566859715,-0.152356455,1.67929005,-1.958529,1.87354485,0.1395785905
248,1747638697510,-0.034514207,-0.13552621,1.6955258,-1.667842,1.6301223,0.015271181
249,1747638697520,-0.1414107,-0.08768804,1.3455664,-0.07398888,1.0223292,0.105065726
250,1747638697530,-0.14202049,-0.059134545499999996,1.155082675,0.06463527,1.1188430999999999,0.249836533
251,1747638697540,-0.14263028,-0.030581051,0.96459895,0.20325942,1.215357,0.39460734
252,1747638697550,0.10189619,-0.040825553,0.61976177,-0.50830126,1.2068051,0.4990622
253,1747638697560,0.11496098,-0.0427768865,0.6721123849999999,-0.91890513,1.13747395,0.40560257
254,1747638697570,0.12802577,-0.04472822,0.724463,-1.329509,1.0681428,0.31214294
255,1747638697580,-0.023781875,-0.043752555,1.1649765,-1.728316,1.031492,0.049478628
256,1747638697590,-0.1035883625,-0.06279330250000001,1.2308645500000002,-1.3849816499999998,0.84212932,0.156682314
257,1747638697600,-0.18339485,-0.08183405,1.2967526,-1.0416473,0.65276664,0.263886
258,1747638697610,0.016982697,-0.055460554,1.3177294,-0.75508356,0.19890714,0.2932067
259,1747638697620,0.016982697,-0.055460554,1.3177294,-0.75508356,0.19890714,0.2932067
260,1747638697630,0.111896776,-0.0132629685,1.2696472,-0.712706,-0.6881194,0.020768806
261,1747638697640,0.021845788000000005,0.03067252075,1.1573998,-0.88187255,-0.9003888500000001,-0.11361759200000002
262,1747638697650,-0.0682052,0.07460801,1.0451524,-1.0510391,-1.1126583,-0.24800399
263,1747638697660,-0.13921544,-0.044484302,1.1005216,-1.5295615,0.28320405,-0.12461284
264,1747638697670,-0.13921544,-0.044484302,1.1005216,-1.5295615,0.28320405,-0.12461284
265,1747638697680,-0.17984281,-0.051557886,1.13604195,-1.53295935,0.6042042750000001,-0.044591849
266,1747638697690,-0.22047018,-0.05863147,1.1715623,-1.5363572,0.9252045,0.035429142
267,1747638697700,-0.13517557,-0.061573715,1.28638605,-1.4550763500000001,0.5721347999999999,0.059863031
268,1747638697710,-0.04988096,-0.06451596,1.4012098,-1.3737955,0.2190651,0.08429692
269,1747638697720,-0.0032928751,-0.16138138,1.2720864,-1.3469945,-0.38941512,-0.07941014
270,1747638697730,-0.013171500550000001,-0.167113415,1.2706229,-1.3155359,-0.32161108,-0.11422843499999999
271,1747638697740,-0.023050126,-0.17284545,1.2691594,-1.2840773,-0.25380704,-0.14904673
272,1747638697750,-0.029148044,-0.22897679,1.0163398,-0.96567315,0.8311341,0.059252184
273,1747638697760,0.007454701499999997,-0.19481320000000002,0.9893718,-0.937612355,0.9572740500000001,0.077577602
274,1747638697770,0.044057447,-0.16064961,0.9624038,-0.90955156,1.083414,0.09590302
275,1747638697780,0.07994369,-0.14820987,0.9760631,-1.0073634,0.62588936,-0.08185353
276,1747638697790,0.045902069,-0.21007323499999997,0.9445825999999999,-1.0363405,0.40812231499999996,-0.185697565
277,1747638697800,0.011860448,-0.2719366,0.9131021,-1.0653176,0.19035527,-0.2895416
278,1747638697810,-0.07966928,-0.33416584,0.6971138,-1.0043093,0.12247488,-0.1563769
279,1747638697820,-0.074303115,-0.34075159,0.6397629300000001,-1.0258034500000002,0.12801068499999999,-0.11514470800000001
280,1747638697830,-0.06893695,-0.34733734,0.58241206,-1.0472976,0.13354649,-0.073912516
281,1747638697840,0.05552153,-0.4552095,0.5287199,-1.5893482,0.23311459,0.023823043
282,1747638697850,0.07785515500000001,-0.4702256,0.64575415,-1.7351498,0.157025925,-0.022601348500000003
283,1747638697860,0.10018878,-0.4852417,0.7627884,-1.8809514,0.08093726,-0.06902574
284,1747638697870,-0.032562874,-0.5833572,1.1173823,-2.0822256,-0.26174805,-0.30542362
285,1747638697880,-0.087352657,-0.60469993,1.2339134999999999,-1.9320717,-0.23212196000000002,-0.147214185
286,1747638697890,-0.14214244,-0.62604266,1.3504447,-1.7819178,-0.20249587,0.01099525
287,1747638697900,-0.1445816,-0.59799224,1.3199246,-1.6560069,-0.24097924,0.15393351
288,1747638697910,-0.1445816,-0.59799224,1.3199246,-1.6560069,-0.24097924,0.15393351
289,1747638697920,-0.19949335,-0.50036454,1.4770983,-1.6423392,-0.18783553,0.27243787
290,1747638697930,-0.07381528,-0.4608196,1.6154602,-1.4578633,0.31435728,0.39216393
291,1747638697940,-0.07381528,-0.4608196,1.6154602,-1.4578633,0.31435728,0.39216393
292,1747638697950,-0.006219875,-0.47085062,1.7892509,-1.2161205,0.6350521,0.25166908
293,1747638697960,-0.0451398275,-0.39421506,1.7709419,-0.779021125,0.88366695,0.145076229
294,1747638697970,-0.08405978,-0.3175795,1.7526329,-0.34192175,1.1322818,0.038483378
295,1747638697980,-0.3320011,-0.18726702,1.273306,0.23319094,0.9013815,-0.14843589
296,1747638697990,-0.37251412500000003,-0.1720069875,1.1857627750000002,0.219485055,0.71476767,-0.13805148499999997
297,1747638698000,-0.41302715,-0.15674695500000002,1.09821955,0.20577917,0.52815384,-0.12766708
298,1747638698010,-0.4542948,-0.19507235,1.0673488,-0.007330167,-0.14202198,0.021379653
299,1747638698020,-0.35349624,-0.27622037499999996,1.2515974,-0.021685078500000003,-0.215323655,0.2394521265
300,1747638698030,-0.25269768,-0.3573684,1.435846,-0.03603999,-0.28862533,0.4575246
301,1747638698040,-0.08162062,-0.36419806,1.5654572,0.39078954,-0.5775561,0.47462833
302,1747638698050,-0.02365992,-0.38860497,1.5423917999999999,0.52880282,-0.6313106500000001,0.42942562500000003
303,1747638698060,0.03430078,-0.41301188,1.5193264,0.6668161,-0.6850652,0.38422292
304,1747638698070,0.046740532,-0.41642675,1.2454995,0.9067264,-0.32344362,0.19547112
305,1747638698080,-0.0036587510000000018,-0.442784995,1.2833218,0.89176065,0.28408216000000003,0.13988402
306,1747638698090,-0.054058034,-0.46914324,1.3211441,0.8767949,0.89160794,0.08429692
307,1747638698100,-0.10921369,-0.4671919,1.3336145,1.0680665,0.8457944,0.07330167
308,1747638698110,-0.10921369,-0.4671919,1.3336145,1.0680665,0.8457944,0.07330167
309,1747638698120,-0.20095685,-0.36639333,1.135676,1.3235533,0.33695862,0.04459185
310,1747638698130,-0.2281688,-0.35332854,1.123968,1.2906820749999999,0.203297603,0.046729815
311,1747638698140,-0.25538075,-0.34026375,1.11226,1.25781085,0.069636586,0.04886778
312,1747638698150,-0.266357,-0.39444375,1.2286692,1.3746355,-0.05283829,0.04886778
313,1747638698160,-0.27013771,-0.455697325,1.28162965,1.532291325,-0.005631250000000004,0.08124268500000001
314,1747638698170,-0.27391842,-0.5169509,1.3345901,1.68994715,0.041575789999999994,0.11361759
315,1747638698180,-0.2736745,-0.40740183,1.2618419,1.9416543,0.12247488,0.20524468
316,1747638698190,-0.27893395,-0.391166115,1.25306095,1.94787735,0.049784053499999995,0.19669282
317,1747638698200,-0.2841934,-0.3749304,1.24428,1.9541004,-0.022906773,0.18814096
318,1747638698210,-0.3278545,-0.35029483,1.7218688,1.8575102,-0.14324369,0.14538164
319,1747638698220,-0.27869003999999997,-0.47572896499999995,1.94773555,2.1865278,-0.24525518000000002,0.15546062
320,1747638698230,-0.22952558,-0.6011631,2.1736023,2.5155454,-0.34726667,0.1655396
321,1747638698240,-0.246965625,-0.6012850750000001,2.0880638,2.8856425,0.18424681,0.26571855
322,1747638698250,-0.2569052325,-0.5823052875000001,1.9294951500000002,3.0604211,0.6991910549999999,0.35734564
323,1747638698260,-0.26684484,-0.5633255,1.7709265,3.2351997,1.2141353,0.44897273
324,1747638698270,-0.43719015,-0.35614884,1.1915634,3.2906342,1.9105011,0.6340594
325,1747638698280,-0.46696323500000003,-0.30196885,1.1534972,3.2382922499999998,1.8787371,0.733016685
326,1747638698290,-0.49673632,-0.24778886,1.115431,3.1859503,1.8469731,0.83197397
327,1747638698300,-0.44036105,-0.06768687,0.9460613,3.1242547,0.9612445,1.1331216
328,1747638698310,-0.26074691699999997,-0.073906745,0.881149,3.0036886999999997,0.7669950999999999,1.2360494
329,1747638698320,-0.081132784,-0.08012662,0.8162367,2.8831227,0.5727457,1.3389772
330,1747638698330,0.073845774,0.009207855,0.8225785,2.9884174,0.85617876,1.243685
331,1747638698340,0.073845774,0.009207855,0.8225785,2.9884174,0.85617876,1.243685
332,1747638698350,0.09018819,0.11293342,0.54119015,2.9716191,0.80120254,1.1404518
333,1747638698360,0.139245925,0.1175678375,0.628923925,2.6422961999999997,0.97712652,1.0396619999999999
334,1747638698370,0.18830366,0.122202255,0.7166577,2.3129733,1.1530505,0.9388722
335,1747638698380,0.22001283,0.1536675,0.96508676,2.1404088,1.0382112,0.6927008
336,1747638698390,0.188044505,0.13084605,1.00560738,2.122656,0.9875109,0.54059982
337,1747638698400,0.15607618,0.1080246,1.046128,2.1049032,0.9368106,0.38849884
338,1747638698410,-0.056741115,0.09363351,0.79742455,2.1877494,1.5702592,0.27976805
339,1747638698420,-0.1000515675,0.111698585,0.77277374,2.152244,1.5357463500000001,0.299315155
340,1747638698430,-0.14336202,0.12976366,0.74812293,2.1167386,1.5012335,0.31886226
341,1747638698440,-0.24611193,0.14952092,0.8477019,1.8980552,1.12373,0.38483378
342,1747638698450,-0.265518545,0.15671646,0.89139345,1.9189384999999999,1.005836425,0.395523605
343,1747638698460,-0.28492516,0.163912,0.935085,1.9398218,0.88794285,0.40621343
344,1747638698470,-0.300048,0.20296915,0.84282357,2.0525994,0.6057314,0.4575246
345,1747638698480,-0.29870646,0.20614007499999998,0.886377965,2.0095729,0.596874135,0.46668730999999997
346,1747638698490,-0.29736492,0.209311,0.92993236,1.9665464,0.58801687,0.47585002
347,1747638698500,-0.40084654,0.18077274,0.9599645,1.9453958,0.5214345,0.5082249
348,1747638698510,-0.40084654,0.18077274,0.9599645,1.9453958,0.5214345,0.5082249
349,1747638698520,-0.3766683,0.16586334,1.0246329,1.9828103,0.55991787,0.599852
350,1747638698530,-0.20827435,0.2591005,0.8408722,1.9783815,0.66559446,0.56075776
351,1747638698540,-0.0986947845,0.35037105,0.8191483749999999,1.6852512499999999,1.08035973,0.32008395
352,1747638698550,0.010884781,0.4416416,0.79742455,1.392121,1.495125,0.07941014
353,1747638698560,-0.0456124195,0.42212827500000005,0.835628025,1.3251186,1.76603575,-0.04428643
354,1747638698570,-0.10210962,0.40261495,0.8738315,1.2581162,2.0369465,-0.167983
355,1747638698580,-0.37569264,0.37258273,0.744952,1.6593666,2.8494496,-0.14110571
356,1747638698590,-0.46178,0.44171023249999997,0.4716814775,1.8285331,2.5913285,-0.024433888
357,1747638698600,-0.54786736,0.510837735,0.198410955,1.9976996,2.3332074,0.092237934
358,1747638698610,-0.4721007,0.6024742,-0.009146876,1.6407357,0.89954895,0.38666633
359,1747638698620,-0.3882696,0.62090515,0.045520952,1.5416639,0.769133075,0.384833785
360,1747638698630,-0.3044385,0.6393361,0.10018878,1.4425921,0.6387172,0.38300124
361,1747638698640,-0.19241977,0.54951376,0.3984074,1.294309,0.5373165,0.27060533
362,1747638698650,-0.18180939499999998,0.5564653799999999,0.34898378,1.35783715,0.89069165,0.20738264499999998
363,1747638698660,-0.17119902,0.563417,0.29956016,1.4213653,1.2440668,0.14415996
364,1747638698670,-0.25220984,0.6407996,0.06552211,1.1784008,1.3521868,0.09529217
365,1747638698680,-0.33238222,0.6760607750000001,0.15985688999999997,1.09769255,1.28346645,0.080631835
366,1747638698690,-0.4125546,0.71132195,0.25419167,1.0169843,1.2147461,0.0659715
367,1747638698700,-0.47844255,0.64762926,0.4355132,0.6843016,0.024128467,0.13011047
368,1747638698710,-0.42718956,0.62907633,0.5455806,0.7179363999999999,-0.1542389415,0.19547112
369,1747638698720,-0.37593657,0.6105234,0.655648,0.7515712,-0.33260635,0.26083177
370,1747638698730,-0.17228138999999998,0.570993675,0.2846964825,1.1147963,-0.042453885,0.23639789
371,1747638698740,-0.21761177999999998,0.6251660375,0.08798531625,0.9478059000000001,0.3292848575,0.068414892
372,1747638698750,-0.26294217,0.6793384,-0.10872585,0.7808155,0.7010236,-0.099568106
373,1747638698760,-0.35032532,0.6925404,-0.091865115,0.33413345,0.78165543,-0.16370706
374,1747638698770,-0.35032532,0.6925404,-0.091865115,0.33413345,0.78165543,-0.16370706
375,1747638698780,-0.4862479,0.62418276,0.4013344,-0.1350736,0.31130302,-0.20096874
376,1747638698790,-0.48588202999999996,0.6117430049999999,0.5678989999999999,0.09576938999999998,0.0594430675,-0.1406475775
377,1747638698800,-0.48551616,0.59930325,0.7344636,0.32661238,-0.19241688499999998,-0.080326415
378,1747638698810,-0.46380752,0.57247245,0.6319576,0.42133188,-0.2715216,-0.06536066
379,1747638698820,-0.42304295999999997,0.592595545,0.45002625,0.52632126,-0.31061582499999996,-0.023517621000000002
380,1747638698830,-0.3822784,0.61271864,0.2680949,0.63131064,-0.34971005,0.018325418
381,1747638698840,-0.42231122,0.7188834,-0.111165024,0.2131857,0.07910472,0.040926766
382,1747638698850,-0.427677395,0.7209566999999999,-0.017683961999999998,0.07082011000000002,0.093154205,0.0311532095
383,1747638698860,-0.43304357,0.72303,0.0757971,-0.07154548,0.10720369,0.021379653
384,1747638698870,-0.39767563,0.70790714,0.3354464,-0.21982865,-0.37292224,-0.10995251
385,1747638698880,-0.36557011500000003,0.69179342,0.317381315,-0.16374524,-0.61512317,-0.212918445
386,1747638698890,-0.3334646,0.6756797,0.29931623,-0.10766183,-0.8573241,-0.31588438
387,1747638698900,-0.44133672,0.6573859,0.27882725,-0.00671932,-1.0375241,-0.4062898
388,1747638698910,-0.517118585,0.67959755,0.25039571,0.039399645,-1.0805888000000001,-0.340585535
389,1747638698920,-0.59290045,0.7018092,0.22196417,0.08551861,-1.1236535,-0.27488127
390,1747638698930,-0.5233537,0.708395,0.26858276,-0.14507623,-0.6954496,0.10934166
391,1747638698940,-0.50004441,0.693013,0.285550205,-0.15099381,-0.6306997999999999,0.109952505
392,1747638698950,-0.47673512,0.677631,0.30251765,-0.15691139,-0.56595,0.11056335
393,1747638698960,-0.50210243,0.66104466,0.026739366,-0.06467345,-0.37170056,0.099568106
394,1747638698970,-0.512362215,0.6827684949999999,-0.163378427,-0.196769175,-0.6166503,0.135608098
395,1747638698980,-0.522622,0.70449233,-0.35349622,-0.3288649,-0.86160004,0.17164809
396,1747638698990,-0.47929627,0.675694915,-0.32762582500000004,-0.5291846250000001,-0.91993597,0.180199945
397,1747638699000,-0.43597054,0.6468975,-0.30175543,-0.72950435,-0.9782719,0.1887518
398,1747638699010,-0.4032857,0.605889,0.07750452,-0.9519291,-0.6465818,0.28770906
399,1747638699020,-0.33684129,0.590575625,0.1769463,-0.9078526524999999,-0.6780404425,0.25105823
400,1747638699030,-0.27039688,0.57526225,0.27638808000000004,-0.863776205,-0.709499085,0.2144074
401,1747638699040,-0.27172315,0.59832764,0.15753968,-0.88779014,-0.7272137,0.052532863
402,1747638699050,-0.26708874000000005,0.59503475,0.149246515,-0.97624847,-0.6633801500000001,0.0140494865
403,1747638699060,-0.26245433,0.59174186,0.14095335,-1.0647068,-0.5995466,-0.02443389
404,1747638699070,-0.26611307,0.6229632,0.2563869,-1.3357702,-0.5470137,-0.23761958
405,1747638699080,-0.28515382,0.61332845,0.29896561499999996,-1.4332767,-0.48928865,-0.24494974
406,1747638699090,-0.30419457,0.6036937,0.34154433,-1.5307832,-0.4315636,-0.2522799
407,1747638699100,-0.339593,0.5468307,0.6126882,-1.6329474,-0.14751962,-0.21440738
408,1747638699110,-0.32762583,0.53268355,0.7524067249999999,-1.37780415,-0.64169506,-0.30485096500000003
409,1747638699120,-0.31565866,0.5185364,0.89212525,-1.1226609,-1.1358705,-0.39529455
410,1747638699130,-0.38349798,0.5739359,0.6893085,-0.9363525,-1.6624209,-0.4490491
411,1747638699140,-0.38166861,0.563676165,0.65563275,-1.0267197000000001,-1.5613256500000001,-0.39559995
412,1747638699150,-0.37983924,0.55341643,0.621957,-1.1170869,-1.4602304,-0.3421508
413,1747638699160,-0.36569205,0.5536604,0.64268994,-1.1532032,-0.68689775,-0.22662434
414,1747638699170,-0.36569205,0.5536604,0.64268994,-1.1532032,-0.68689775,-0.22662434
415,1747638699180,-0.47624728,0.5473185,0.5990289,-1.272853,0.367501,0.0555871
416,1747638699190,-0.380952105,0.5543921,0.69286055,-1.3170631,0.34673219,0.063528115
417,1747638699200,-0.28565693,0.5614657,0.7866922,-1.3612732,0.32596338,0.07146913
418,1747638699210,-0.36544815,0.56049,0.96728206,-1.2497935,-1.1987877,-0.48081315
419,1747638699220,-0.40131915,0.53218045,1.0078027299999999,-1.21646415,-1.3695195500000001,-0.462487725
420,1747638699230,-0.43719015,0.5038709,1.0483234,-1.1831348,-1.5402514,-0.4441623
421,1747638699240,-0.44572723,0.4250553,1.0971067,-0.54006535,-1.5323104,-0.087962
422,1747638699250,-0.4108319,0.4932605,0.75153776,-0.49894767500000003,-1.0531007000000001,0.080020995
423,1747638699260,-0.37593657,0.5614657,0.40596882,-0.45783,-0.573891,0.24800399
424,1747638699270,-0.3190735,0.57003325,0.32154313,-0.95689225,-0.07177455,0.33291176
425,1747638699280,-0.3190735,0.57003325,0.32154313,-0.95689225,-0.07177455,0.33291176
426,1747638699290,-0.009634708,0.5126824,0.981917,-1.4267101,0.25082916,0.263886
427,1747638699300,-0.130678354,0.48778765,1.0420882,-1.3896393,-0.25468512,-0.09533036
428,1747638699310,-0.251722,0.4628929,1.1022594,-1.3525685,-0.7601994,-0.45454672
429,1747638699320,-0.42694563,0.32401282,1.2088815,-0.83663166,-1.3069077,-0.131943
430,1747638699330,-0.41058798500000004,0.32096386,1.1277487499999999,-0.61886463,-1.3288982,-0.022906767999999994
431,1747638699340,-0.39423034,0.3179149,1.046616,-0.4010976,-1.3508887,0.086129464
432,1747638699350,-0.22586684,0.44359294,0.3776745,-0.21234578,-0.8713736,0.3775036
433,1747638699360,-0.09419757150000002,0.46495089,0.35497499,-0.78432789,-0.55312219,0.22295925
434,1747638699370,0.037471697,0.48630884,0.33227548,-1.35631,-0.23487078,0.0684149
435,1747638699380,0.055277612,0.43139714,0.6736979,-1.8198667,-0.06688777,-0.211964
436,1747638699390,0.055277612,0.43139714,0.6736979,-1.8198667,-0.06688777,-0.211964
437,1747638699400,-0.30712157,0.21906766,1.327486,-1.7121285,-0.46210596,-0.51257724
438,1747638699410,-0.363252905,0.191611795,1.388389,-1.4547709,-0.59099473,-0.42156097000000003
439,1747638699420,-0.41938424,0.16415593,1.449292,-1.1974133,-0.7198835,-0.3305447
440,1747638699430,-0.26074693,0.2019935,1.0749103,-0.351618965,-1.2226108,-0.012827792499999997
441,1747638699440,-0.17154965,0.27131157,0.8297588,-0.4953971325,-1.279725,-0.11972606625000001
442,1747638699450,-0.08235237,0.34062964,0.5846073,-0.6391753,-1.3368392,-0.22662434
443,1747638699460,0.048447948,0.43603155,0.28565693,-1.5962203,-0.89275324,-0.3989596
444,1747638699470,0.05614656899999999,0.37429014,0.470530515,-1.80493915,-0.76752957,-0.47592635000000005
445,1747638699480,0.06384519,0.31254873,0.6554041,-2.013658,-0.6423059,-0.5528931
446,1747638699490,-0.20827435,0.16196068,1.3336145,-1.9619651,-0.3051182,-0.61825377
447,1747638699500,-0.25708816,0.1420814675,1.2839469499999998,-1.5806436499999998,-0.39277479000000004,-0.44320786
448,1747638699510,-0.30590197,0.122202255,1.2342794,-1.1993222,-0.48043138,-0.26816195
449,1747638699520,-0.2060791,0.19272466,1.1559211,-0.48898324,-1.157861,0.059252184
450,1747638699530,-0.16264668999999998,0.21139953,0.99229872,-0.46031159,-1.4550382000000002,0.049478627
451,1747638699540,-0.11921428,0.2300744,0.82867634,-0.43163994,-1.7522154,0.03970507
452,1747638699550,-0.043539125,0.269345,0.7388541,-0.8030351,-1.4412941,0.13499725
453,1747638699560,-0.043539125,0.269345,0.7388541,-0.8030351,-1.4412941,0.13499725
454,1747638699570,0.11701902,0.17272349,0.9631355,-1.2042854,-0.95200545,0.1007898
455,1747638699580,0.08505069,0.154658415,1.01572995,-1.3855924499999999,-0.36738644500000006,0.022601350000000006
456,1747638699590,0.05308236,0.13659334,1.0683244,-1.5668995,0.21723256,-0.0555871
457,1747638699600,-0.22537899,0.037014354,1.1942465,-1.1812259,0.67353547,0.16981554
458,1747638699610,-0.238916365,0.081559637,1.2010762000000001,-0.9862129,0.14144932,0.13041588999999998
459,1747638699620,-0.25245374,0.12610492,1.2079059,-0.7911999,-0.39063683,0.09101624
460,1747638699630,-0.22537899,0.16610725,0.74202496,-0.48776153,-1.7729841,0.23639789
461,1747638699640,0.007454715000000001,0.128894715,0.728853465,-0.869999165,-1.376544275,0.23395450499999998
462,1747638699650,0.24028842,0.09168218,0.71568197,-1.2522368,-0.98010445,0.23151112
463,1747638699660,0.20879267,0.03652652,0.8623369,-1.4990191,-0.16279079,0.073912516
464,1747638699670,0.042715905,0.01640339545,0.9626476500000001,-1.5046313,0.24895842999999998,0.016492874999999997
465,1747638699680,-0.12336086,-0.0037197291,1.0629584,-1.5102435,0.66070765,-0.040926766
466,1747638699690,-0.19778593,-0.00030489583,1.1398226,-1.3052279,0.38826978,0.092237934
467,1747638699700,-0.130922275,0.023720896085000002,1.09578045,-1.1843564500000001,0.08280798,0.090099967
468,1747638699710,-0.06405862,0.047746688,1.0517383,-1.063485,-0.22265382,0.087962
469,1747638699720,-0.031968330832,0.074226894,0.90787315,-1.1413681,-0.7079719600000001,-0.05864134
470,1747638699730,0.000121958336,0.1007071,0.764008,-1.2192512,-1.1932901,-0.20524468
471,1747638699740,0.14192902,-0.03887422,0.9460613,-1.9937291,-0.29900974,-0.28648737
472,1747638699750,0.12057106499999999,-0.06254938,1.05710435,-2.0155286500000003,0.077921195,-0.329284845
473,1747638699760,0.09921311,-0.08622454,1.1681474,-2.0373282,0.45485213,-0.37208232
474,1747638699770,-0.12653178,-0.084761046,1.1537259,-1.8373522,1.0259943,-0.37330404
475,1747638699780,-0.126287855,-0.066452048,1.18410875,-1.75916375,0.37937431,-0.49241926999999996
476,1747638699790,-0.12604393,-0.04814305,1.2144916,-1.6809753,-0.26724568,-0.6115345
477,1747638699800,-0.17998001,-0.06988213,1.2057105,-1.6516546,-0.6875086,-0.63719004
478,1747638699810,-0.18778535000000002,-0.094532955,1.24354815,-1.6314203,-0.7000309499999999,-0.60115007
479,1747638699820,-0.19559069,-0.11918378,1.2813858,-1.611186,-0.7125533,-0.5651101
480,1747638699830,-0.1738821,-0.17577244,1.4131618,-1.1027321,-0.58061033,-0.27610296
481,1747638699840,-0.16740306500000002,-0.16906473500000002,1.3389654,-0.994306675,-0.49234289999999997,-0.19791451
482,1747638699850,-0.16092403,-0.16235703,1.264769,-0.88588125,-0.40407547,-0.11972606
483,1747638699860,-0.12604393,-0.12991612,1.0853987,-0.80181336,-0.3307738,-0.032374904
484,1747638699870,-0.0797912365,-0.14394131999999998,1.13067575,-0.9329546799999999,-0.63161607,-0.051922017
485,1747638699880,-0.033538543,-0.15796652,1.1759528,-1.064096,-0.93245834,-0.07146913
486,1747638699890,-0.027440626,-0.19068186,1.2142476,-0.92703706,-1.2525423,-0.01099525
487,1747638699900,-0.027440626,-0.19068186,1.2142476,-0.92703706,-1.2525423,-0.01099525
488,1747638699910,0.11945819,-0.26144817,1.1529942,-0.7394306,-1.353332,0.10262234
489,1747638699920,0.16876747,-0.26992428,1.07551251,-0.73011517,-1.0359969,0.118504365
490,1747638699930,0.21807674999999999,-0.27840039,0.9980308200000001,-0.72079974,-0.7186618,0.13438639
491,1747638699940,0.21830542,-0.25803334,0.84282357,-0.9226848,-0.2495311,0.0030542363
492,1747638699950,0.24320016,-0.253642845,0.885402265,-0.98903805,-0.284043975,-0.04428642685
493,1747638699960,0.2680949,-0.24925235,0.92798096,-1.0553913,-0.31855685,-0.09162709
494,1747638699970,0.18562058,-0.31733558,1.0719832,-1.2472738,-0.6606313,-0.32932302
495,1747638699980,0.17097034,-0.33172667,1.1057809,-1.2304373000000002,-0.63619742,-0.32290913
496,1747638699990,0.1563201,-0.34611776,1.1395786,-1.2136008,-0.61176354,-0.31649524
497,1747638700000,0.046252698,-0.3893215,1.0705198,-0.8223531,-0.49936762,-0.20646638
498,1747638700010,0.0460087825,-0.3776135,0.9149467,-0.8363643999999999,-0.5546493100000001,-0.17286978
499,1747638700020,0.045764867,-0.3659055,0.7593736,-0.8503757,-0.609931,-0.13927318
500,1747638700030,0.06969919,-0.3746865,0.7605932,-1.0510391,-0.5830537,-0.14293826
501,1747638700040,0.06969919,-0.3746865,0.7605932,-1.0510391,-0.5830537,-0.14293826
502,1747638700050,0.055033702,-0.40520656,1.0417072,-1.1918393,-0.609931,-0.1655396
503,1747638700060,0.039666947,-0.45886827,1.2042471,-1.0765419,-1.0472976,-0.10628742
504,1747638700070,0.039666947,-0.45886827,1.2042471,-1.0765419,-1.0472976,-0.10628742
505,1747638700080,0.10262794,-0.47133848,1.1076256,-0.67216104,-1.0039275,0.008551862
506,1747638700090,0.106896482,-0.45851762500000004,1.03623423,-0.64975059,-0.8594621,0.055892526000000005
507,1747638700100,0.111165024,-0.44569677,0.96484286,-0.62734014,-0.7149967,0.10323319
508,1747638700110,0.14997827,-0.45228252,0.8247738,-0.7201889,-0.4266768,0.13927318
509,1747638700120,0.17609259500000002,-0.43728164,0.802806025,-0.74259935,-0.51250085,0.11270132199999999
510,1747638700130,0.20220692,-0.42228076,0.78083825,-0.7650098,-0.5983249,0.086129464
511,1747638700140,0.22342768,-0.4293543,0.7671789,-1.0242381,-0.94039935,-0.03420745
512,1747638700150,0.242346465,-0.44094036000000003,0.8095137,-1.07875625,-0.9468132549999999,-0.0555871025
513,1747638700160,0.26126525,-0.45252642,0.8518485,-1.1332744,-0.95322716,-0.076966755
514,1747638700170,0.18927933,-0.5313725,1.2555001,-1.0983797,-0.72477025,-0.19180603
515,1747638700180,0.13973375999999998,-0.5235519,1.29626465,-0.99804805,-0.599241155,-0.15179554
516,1747638700190,0.09018819,-0.5157313,1.3370292,-0.8977164,-0.47371206,-0.11178505
517,1747638700200,0.016250947,-0.43374482,1.3367853,-0.5120427,-0.37414396,0.10017895
518,1747638700210,0.0629762335,-0.40165452999999995,1.24415795,-0.36437038499999996,-0.59924118,0.12125317999999999
519,1747638700220,0.10970152,-0.36956424,1.1515306,-0.21669807,-0.8243384,0.14232741
520,1747638700230,0.16095452,-0.35200223,1.0919845,-0.22601348,-0.7962394,0.12766708
521,1747638700240,0.22123241999999999,-0.383238805,1.1666687,-0.272781475,-0.49814593500000004,0.068720318
522,1747638700250,0.28151032,-0.41447538,1.2413529,-0.31954947,-0.20005247,0.009773556
523,1747638700260,0.25736257,-0.4235003,1.309924,-0.19928892,0.051616594,-0.023212196
524,1747638700270,0.25736257,-0.4235003,1.309924,-0.19928892,0.051616594,-0.023212196
525,1747638700280,0.20513393,-0.43886706,1.3319069,0.003206948,0.1622563,0.00061084726
526,1747638700290,0.19097151499999998,-0.4408184,1.27797085,0.193104094,0.16943375249999998,0.045813543629999995
527,1747638700300,0.1768091,-0.44276974,1.2240348,0.38300124,0.176611205,0.09101624
528,1747638700310,0.20123126,-0.46914324,1.075642,0.5577799,0.23922306,0.11667182
529,1747638700320,0.21110988,-0.4730459,1.0441615,0.60015745,0.25296712,0.115144705
530,1747638700330,0.2209885,-0.47694856,1.012681,0.642535,0.26671118,0.11361759
531,1747638700340,0.2371175,-0.46353313,0.8496532,0.6232169,0.33085015,0.06536066
532,1747638700350,0.20722246,-0.476582675,0.8442870499999999,0.54563931,0.407206055,0.0238230445
533,1747638700360,0.17732742,-0.48963222,0.8389209,0.46806172,0.48356196,-0.017714571
534,1747638700370,0.11433593,-0.4466724,0.8818807,0.46558016,0.44232978,-0.00824643825
535,1747638700380,0.0976276425,-0.443257565,0.89810118,0.44998446000000003,0.3456632,0.0077883023749999985
536,1747638700390,0.080919355,-0.43984273,0.91432166,0.43438876,0.24899662,0.023823043
537,1747638700400,0.1694916,-0.4366718,1.2125403,0.4630986,0.22334103,0.054365408
538,1747638700410,0.155100515,-0.45302947,1.2325567,0.5007802299999999,0.40659521499999995,0.059557609
539,1747638700420,0.14070943,-0.46938714,1.2525731,0.53846186,0.5898494,0.06474981
540,1747638700430,0.0477162,-0.4288665,1.3123631,0.84251106,0.97468317,0.17103723
541,1747638700440,-0.008659042499999998,-0.36114913,1.2107260499999999,0.98739643,0.653377505,0.254112455
542,1747638700450,-0.065034285,-0.29343176,1.109089,1.1322818,0.33207184,0.33718768
543,1747638700460,0.038203448,-0.2675461,1.1327491,1.0487484,0.06627693,0.3695626
544,1747638700470,0.038203448,-0.2675461,1.1327491,1.0487484,0.06627693,0.3695626
545,1747638700480,0.20367043,-0.35102656,1.3731289,1.0537878,0.53975993,0.39827242
546,1747638700490,0.121683925,-0.424476,1.298216,1.3353884,1.1041827,0.41293275
547,1747638700500,0.121683925,-0.424476,1.298216,1.3353884,1.1041827,0.41293275
548,1747638700510,-0.030367626,-0.2455936,0.8235541,1.9011858,0.78715307,0.76172656
549,1747638700520,0.013918493999999997,-0.20799994,0.66064827,1.8317019,0.462182315,0.7461499300000001
550,1747638700530,0.058204614,-0.17040628,0.49774244,1.762218,0.13721156,0.7305733
551,1747638700540,0.35864896,-0.2602286,0.66613644,0.9584193,0.04550812,0.51860934
552,1747638700550,0.35779527,-0.29036754,0.80378167,0.8615236749999999,0.11640458,0.41110022
553,1747638700560,0.35694158,-0.32050648,0.9414269,0.76462805,0.18730104,0.3035911
554,1747638700570,0.32398233,-0.3700521,1.2169613,0.7995227,0.5849626,0.211964
555,1747638700580,0.30640508499999997,-0.39482490000000003,1.19938405,0.85747683,0.65673715,0.14202199000000001
556,1747638700590,0.28882784,-0.4195977,1.1818068,0.91543096,0.7285117,0.07207998
557,1747638700600,0.09433477,-0.35078266,1.1366518,1.1472476,0.8824452,0.054976255
558,1747638700610,0.042837864249999996,-0.35285595000000003,1.1033419000000002,1.1575174000000001,0.8296069,0.06841489249999999
559,1747638700620,-0.0086590415,-0.35492924,1.070032,1.1677872,0.7767686,0.08185353
560,1747638700630,0.005518615,-0.28437635,1.0629584,1.2226108,0.3638359,0.14782503
561,1747638700640,0.0516341105,-0.277180805,1.1609365999999999,1.1029992499999999,0.4661528,0.127056225
562,1747638700650,0.097749606,-0.26998526,1.2589148,0.9833877,0.5684697,0.10628742
563,1747638700660,0.039666947,-0.31831124,1.3489811,0.9590302,0.7853205,0.047646087
564,1747638700670,-0.05526237650000001,-0.287928385,1.3470298,1.2478464,0.8986327000000001,0.2052446835
565,1747638700680,-0.1501917,-0.25754553,1.3450785,1.5366626,1.0119449,0.36284328
566,1747638700690,-0.143483985,-0.237651065,1.21645815,1.61920335,0.83296663,0.4123219
567,1747638700700,-0.13677627,-0.2177566,1.0878378,1.7017441,0.65398836,0.46180052
568,1747638700710,0.039910864,-0.06841862,0.8950522,1.6905198,0.4786752,0.51860934
569,1747638700720,0.039423032,-0.062183504,0.9405579,1.5064256999999999,0.3734567475,0.436450375
570,1747638700730,0.0389352,-0.055948388,0.9860636,1.3223316,0.268238295,0.35429141
571,1747638700740,0.05137495,-0.09476163,1.3584939,1.4251066,0.16408885,0.30053684
572,1747638700750,0.059439447,-0.11368041000000001,1.34873725,1.5032950999999999,0.320465745,0.32619242000000004
573,1747638700760,0.067503944,-0.13259919,1.3389806,1.5814836,0.47684264,0.351848
574,1747638700770,0.10823802,-0.03594722,1.1395786,1.7809252,0.68391985,0.26205346
575,1747638700780,0.0547897809,-0.0004421000000000008,1.0719832500000002,1.72888865,0.63902259,0.214407385
576,1747638700790,0.0013415418,0.03506302,1.0043879,1.6768521,0.59412533,0.16676131
577,1747638700800,-0.0031709166,0.0432342285,0.9991437000000001,1.6295115,0.40048674,0.13866232
578,1747638700810,-0.04276164329999999,0.025733208,1.1215898499999999,1.65692325,0.34123455,0.15607147
579,1747638700820,-0.08235237,0.0082321875,1.244036,1.684335,0.28198236,0.17348062
580,1747638700830,-0.03500204,0.042380523,1.2394016,1.9460067,0.33940202,0.299926
581,1747638700840,0.006113161000000006,0.0542257265,1.18131895,2.01705585,0.331766425,0.29290125
582,1747638700850,0.047228362,0.06607093,1.1232363,2.088105,0.32413083,0.2858765
583,1747638700860,0.040886533,0.065583095,1.0097541,2.0463383,0.6069531,0.20585553
584,1747638700870,-0.0038874220000000015,0.046054516,1.0775934,2.05943335,0.522045335,0.178061975
585,1747638700880,-0.048661377,0.026525937,1.1454327,2.0725284,0.43713757,0.15026842
586,1747638700890,-0.041343875,0.04530752,1.103479,2.179045,0.22211933,0.15882029
587,1747638700900,-0.041343875,0.04530752,1.103479,2.179045,0.22211933,0.15882029
588,1747638700910,-0.021830542,0.10851243,0.92554176,2.1279628,0.2746522,0.16676131
589,1747638700920,-0.02841629225,0.11883315,0.932020805,1.9653247,0.5067741649999999,0.0803264187
590,1747638700930,-0.0350020425,0.12915387,0.9384998499999999,1.8026866,0.73889613,-0.0061084726
591,1747638700940,-0.10137787,0.16025324,0.93191415,1.8026866,0.73889613,-0.0061084726
592,1747638700950,-0.10803221999999998,0.1816111975,0.90152365,1.7796271,0.881528965,0.0021379652000000004
593,1747638700960,-0.11468656999999999,0.202969155,0.87113315,1.7565676,1.0241618,0.010384403
594,1747638700970,-0.23757485,0.22053115,0.8486776,1.710525,1.0082798,0.07330167
595,1747638700980,-0.24916089,0.231766565,0.8323351999999999,1.7482066500000002,0.8497649,0.10628742499999999
596,1747638700990,-0.26074693,0.24300198,0.8159928,1.7858883,0.69125,0.13927318
597,1747638701000,-0.26074693,0.24300198,0.8159928,1.7858883,0.69125,0.13927318
598,1747638701010,-0.14104482,0.262408605,0.7962203,1.7491229000000001,0.356772963,0.207077225
599,1747638701020,-0.02134271,0.28181523,0.7764478,1.7123575,0.022295926,0.27488127
600,1747638701030,0.06799178,0.34550798,0.8374574,1.4814954999999999,0.737674425,0.069636586
601,1747638701040,-0.04012428999999999,0.35806969,0.8850516500000001,1.42123155,0.9059628625,0.012827793000000004
602,1747638701050,-0.14824036,0.3706314,0.9326459,1.3609676,1.0742513,-0.043981
603,1747638701060,-0.2680644,0.37941238,0.95362276,1.4351093,0.5580853,0.014660334
604,1747638701070,-0.2680644,0.37941238,0.95362276,1.4351093,0.5580853,0.014660334
605,1747638701080,-0.23025733,0.34721538,0.9331337,1.5323104,0.28686914,0.14415996
606,1747638701090,-0.11615006750000001,0.40638043,0.722008625,1.6952156999999999,0.29419931,0.203106715
607,1747638701100,-0.11377950375000001,0.45061318,0.6610065625,1.4754443,0.373304035,0.130874026
608,1747638701110,-0.11140894,0.49484593,0.6000045,1.2556729,0.45240876,0.058641337
609,1747638701120,-0.14775252,0.4680151,0.7398297,1.1135745,0.57152396,-0.002443389
610,1747638701130,-0.17923301,0.45897494,0.77009065,1.1085732,0.60512058,-0.00030542359999999975
611,1747638701140,-0.2107135,0.44993478,0.8003516,1.1035719,0.6387172,0.0018325418
612,1747638701150,-0.20632301,0.45775537,0.76252925,1.10173935,0.696747675,0.0018325418
613,1747638701160,-0.20193252,0.46557596,0.7247069,1.0999068,0.75477815,0.0018325418
614,1747638701170,-0.31980523,0.5443915,0.519695,0.93849045,0.68514156,0.06963659
615,1747638701180,-0.32982106499999997,0.5503674700000001,0.5303206,0.8746187249999999,0.62314058,0.115755555
616,1747638701190,-0.3398369,0.55634344,0.5409462,0.810747,0.5611396,0.16187452
617,1747638701200,-0.294194,0.5014317,0.76791066,0.8312868,0.13843326,0.2907633
618,1747638701210,-0.187419475,0.5179113,0.7391132300000001,0.8612183,0.05379273700000001,0.281906015
619,1747638701220,-0.08064495,0.5343909,0.7103158,0.8911498,-0.030847786,0.27304873
620,1747638701230,0.1797666,0.61174303,0.57314324,0.5833591,0.6014555,-0.10140064
621,1747638701240,0.1797666,0.61174303,0.57314324,0.5833591,0.6014555,-0.10140064
622,1747638701250,0.023812365,0.66714257,0.49627897,0.0742943,1.7767256,-0.71904355
623,1747638701260,-0.15653352,0.6859547,0.49188846,-0.1026987,2.1420124,-0.79784286
624,1747638701270,-0.15653352,0.6859547,0.49188846,-0.1026987,2.1420124,-0.79784286
625,1747638701280,-0.3605698,0.6835155,0.5568008,-0.30328566,2.2122598,-0.8070056
626,1747638701290,-0.50858147,0.6467755500000001,0.70981275,-0.355322215,1.9917439,-0.597484985
627,1747638701300,-0.65659314,0.6100356,0.8628247,-0.40735877,1.771228,-0.38796437
628,1747638701310,-0.41914034,0.56244135,1.1125039,0.5677825,0.5330406,0.2455606
629,1747638701320,-0.327138,0.58697024,1.0225749,0.74939503,0.40567893499999996,0.25411246
630,1747638701330,-0.23513566,0.61149913,0.9326459,0.93100756,0.27831727,0.26266432
631,1747638701340,-0.1606801,0.7069315,0.556313,1.1378558,0.51960194,0.027488127
632,1747638701350,-0.25745405,0.7108341499999999,0.42720483,1.0328664,0.72606832,-0.0384833765
633,1747638701360,-0.354228,0.7147368,0.29809666,0.927877,0.9325347,-0.10445488
634,1747638701370,-0.45380697,0.690833,0.31593305,0.39888325,1.3772315,-0.14965758
635,1747638701380,-0.48845838499999994,0.64726335,0.44856273999999996,0.27427041500000005,1.33019625,-0.04520269800000001
636,1747638701390,-0.5231098,0.6036937,0.58119243,0.14965758,1.283161,0.059252184
637,1747638701400,-0.4674663,0.5543921,0.7464155,0.41323817,0.90626824,0.17653486
638,1747638701410,-0.4674663,0.5543921,0.7464155,0.41323817,0.90626824,0.17653486
639,1747638701420,-0.42133558,0.59247357,0.7005287,0.71789825,0.53914905,0.19852535
640,1747638701430,-0.33712333,0.725957,0.31446958,0.93971217,0.3381803,0.22601348
641,1747638701440,-0.24146225999999998,0.81943808,0.184873596,0.5739673599999999,0.7056049,0.211047725
642,1747638701450,-0.14580119,0.91291916,0.055277612,0.20822255,1.0730295,0.19608197
643,1747638701460,-0.09942654,0.99002725,-0.03280679,-0.39804333,1.7858883,0.11178505
644,1747638701470,-0.09942654,0.99002725,-0.03280679,-0.39804333,1.7858883,0.11178505
645,1747638701480,-0.1724186,0.9329202,0.13363585,-1.5725499,3.2092388,-0.0659715
646,1747638701490,-0.25342943,0.81785255,0.29225789,-1.8245626000000001,3.3085015,-0.22238657
647,1747638701500,-0.33444026,0.7027849,0.45087993,-2.0765753,3.4077642,-0.37880164
648,1747638701510,-0.66464245,0.41407904,1.2335476,-1.1961917,1.686931,-0.48325655
649,1747638701520,-0.683805125,0.39479437,1.2783216,-0.79337609,1.31248165,-0.416368775
650,1747638701530,-0.7029678,0.3755097,1.3230956,-0.39056048,0.9380323,-0.349481
651,1747638701540,-0.66122764,0.4855771,0.7051936,1.8737739,-0.69422793,0.083686076
652,1747638701550,-0.61302357,0.55353838,0.4431966,2.0180102,-0.904053915,0.115450133
653,1747638701560,-0.5648195,0.62149966,0.1811996,2.1622465,-1.1138799,0.14721419
654,1747638701570,-0.48844314,0.7869667,-0.44648945,1.5914862,-1.0888352,0.13133216
655,1747638701580,-0.42584802,0.69947682,-0.385586515,0.89550209,-0.856102415,0.092848784
656,1747638701590,-0.3632529,0.61198694,-0.32468358,0.19951798,-0.62336963,0.054365408
657,1747638701600,-0.33102542,0.5597583,-0.2133966,0.036879905,-0.41568157,0.018936265
658,1747638701610,-0.3682532,0.56416405,-0.18447723,-0.09865182750000001,-0.272132455,0.0207688075
659,1747638701620,-0.40548098,0.5685698,-0.15555786,-0.23418356,-0.12858334,0.02260135
660,1747638701630,-0.40206614,0.6217436,-0.028660208,-0.5070796,-0.22021043,0.067193195
661,1747638701640,-0.40206614,0.6217436,-0.028660208,-0.5070796,-0.22021043,0.067193195
662,1747638701650,-0.37813184,0.6561664,0.07015654,-0.66658705,-0.55251133,0.046424393
663,1747638701660,-0.2885839,0.67714316,0.19098675,-0.8448018,-1.3728793,-0.0775776
664,1747638701670,-0.2885839,0.67714316,0.19098675,-0.8448018,-1.3728793,-0.0775776
665,1747638701680,-0.20510343,0.6034498,0.26175308,-0.9762103,-1.3502779,-0.32077116
666,1747638701690,-0.23963289,0.5841651750000001,0.29177009,-0.971552585,-1.1566393000000001,-0.34092912
667,1747638701700,-0.27416235,0.56488055,0.3217871,-0.96689487,-0.9630007,-0.36108708
668,1747638701710,-0.48941877,0.5897905,0.33495858,-0.88588125,-0.47493374,-0.25899923
669,1747638701720,-0.469158455,0.6498245,0.31677153999999996,-0.874046075,-0.535102185,-0.18111621
670,1747638701730,-0.44889814,0.7098585,0.2985845,-0.8622109,-0.59527063,-0.10323319
671,1747638701740,-0.44889814,0.7098585,0.2985845,-0.99682635,-1.0265288,-0.08490777
672,1747638701750,-0.37032646999999996,0.6459218499999999,0.4213508,-1.180004225,-1.36432735,-0.13652436499999998
673,1747638701760,-0.2917548,0.5819852,0.5441171,-1.3631821,-1.7021259,-0.18814096
674,1747638701770,-0.32883018,0.41017637,0.8584342,-0.8684721,-1.7290032,-0.33359897
675,1747638701780,-0.36508229000000003,0.439339655,0.76228532,-0.7017871499999999,-1.63157305,-0.269421825
676,1747638701790,-0.4013344,0.46850294,0.66613644,-0.5351022,-1.5341429,-0.20524468
677,1747638701800,-0.36203334,0.5841804,0.29273048,-0.79181075,-1.0289721,-0.004886778
678,1747638701810,-0.281373135,0.58759525,0.39987089000000003,-1.2930873250000001,-1.0604308,-0.098957254
679,1747638701820,-0.20071293,0.5910101,0.5070113,-1.7943639,-1.0918895,-0.19302773
680,1747638701830,-0.20120077,0.46996644,0.8010833,-1.9874679,-1.1407572,-0.3048128
681,1747638701840,-0.220485435,0.40602976999999996,0.97886805,-1.9205038,-1.23268975,-0.33997469
682,1747638701850,-0.2397701,0.3420931,1.1566528,-1.8535397,-1.3246223,-0.37513658
683,1747638701860,-0.4176768,0.2915719,1.4138935,-0.70331424,-1.8969861,-0.25289077
684,1747638701870,-0.4176768,0.2915719,1.4138935,-0.70331424,-1.8969861,-0.25289077
685,1747638701880,-0.24367274,0.54951376,0.34813008,-0.19241689,-1.8371232,0.14171657
686,1747638701890,-0.162036885,0.5897905299999999,0.211109885,-0.57030227,-1.4382399000000001,0.159431135
687,1747638701900,-0.08040103,0.6300673,0.07408969,-0.94818765,-1.0393566,0.1771457
688,1747638701910,-0.020610958,0.4370072,0.7993759,-2.4822543,0.41392538,-0.098957255
689,1747638701920,-0.111881529,0.31767097,1.282834,-2.14701365,-0.005764870000000033,-0.2770574175
690,1747638701930,-0.2031521,0.19833474,1.7662921,-1.811773,-0.42545512,-0.45515758
691,1747638701940,-0.2031521,0.19833474,1.7662921,-0.80181336,-1.4706148,-0.5638884
692,1747638701950,-0.2812511675,0.27209666499999996,1.3199322,-0.31781236386,-1.7399984499999999,-0.43375883
693,1747638701960,-0.35935023499999996,0.34585858999999997,0.8735723000000001,0.16618863228,-2.0093821,-0.30362926
694,1747638701970,-0.16433886,0.5151215,-0.045277033,-0.47027603,-0.9654441,0.12216945
695,1747638701980,-0.06026266499999999,0.470698185,0.04539899349999999,-1.005836365,-0.537851015,0.129499625
696,1747638701990,0.04381353,0.42627487,0.13607502,-1.5413967,-0.11025793,0.1368298
697,1747638702000,0.115555525,0.23202574,0.8711179,-2.405593,0.6161158,-0.37452573
698,1747638702010,-0.15776835250000004,0.154902335,1.2359715,-1.9024456500000002,0.02050154999999998,-0.42308809000000003
699,1747638702020,-0.43109223,0.07777893,1.6008251,-1.3992983,-0.5751127,-0.47165045
700,1747638702030,-0.43109223,0.07777893,1.6008251,-1.3992983,-0.5751127,-0.47165045
701,1747638702040,-0.42035988,0.12830016,1.4912456,-0.66528904,-1.3288982,-0.24617144
702,1747638702050,-0.2090061,0.35697204,0.77791125,-0.014202199,-2.2836525,0.07330167
703,1747638702060,0.088968605,0.40115148,0.3954804,-0.71201885,-1.6935741,0.12216945
704,1747638702070,0.088968605,0.40115148,0.3954804,-0.71201885,-1.6935741,0.12216945
705,1747638702080,0.17461385,0.37453404,0.6253719,-1.4379344,-0.9807153,-0.02260135
706,1747638702090,0.13301080999999998,0.29887414,0.9495981,-1.67097265,-0.57999948,-0.15668232499999998
707,1747638702100,0.09140777,0.22321424,1.2738243,-1.9040109,-0.17928366,-0.2907633
708,1747638702110,-0.27172315,0.112201676,1.721137,-0.94070476,-0.6166503,-0.49547347
709,1747638702120,-0.361652195,0.136593343,1.6672009499999998,-0.55033519,-1.0066763,-0.434388755
710,1747638702130,-0.45158124,0.16098501,1.6132649,-0.15996562,-1.3967023,-0.37330404
711,1747638702140,-0.33468416,0.34648362,0.59195524,0.47180316,-2.3288553,0.114839286
712,1747638702150,-0.11968686,0.37247600000000003,0.397812835,-0.6055023199999999,-1.28155761,0.110563353
713,1747638702160,0.09531044,0.39846838,0.20367043,-1.6828078,-0.23425992,0.10628742
714,1747638702170,0.27004623,0.28962055,0.58631474,-2.0703905,0.5086067,-0.1551552
715,1747638702180,0.197328575,0.1891878625,1.04867402,-2.0385882,0.56999685,-0.25567775000000004
716,1747638702190,0.12461092,0.088755175,1.5110333,-2.0067859,0.631387,-0.3562003
717,1747638702200,-0.4125546,0.041404855,1.8138863,-0.53136075,-0.6221479,-0.3189386
718,1747638702210,-0.447571865,0.062884765,1.71284385,-0.09521581500000004,-1.15663925,-0.1982581
719,1747638702220,-0.48258913,0.084364675,1.6118014,0.34092912,-1.6911306,-0.0775776
720,1747638702230,0.008933448,0.3164514,0.177053,0.7602758,-2.4265907,0.31947312
721,1747638702240,0.160116059,0.29302015000000003,0.244297785,-0.4980314,-1.066806535,0.16004198363
722,1747638702250,0.31129867,0.2695889,0.31154257,-1.7563386,0.29297763,0.00061084726
723,1747638702260,0.14558776,0.08094984,1.0478356,-2.0921519,0.923372,-0.17348062
724,1747638702270,0.035886240000000014,0.0375021855,1.26527205,-1.9600561500000002,0.9163472500000001,-0.21593451000000002
725,1747638702280,-0.07381528,-0.005945469,1.4827085,-1.8279604,0.9093225,-0.2583884
726,1747638702290,-0.29541358,-0.02643447,1.6076548,-0.10392039,-1.0204203,0.047646087
727,1747638702300,-0.21938780000000002,0.06617764,1.156912025,0.18859908499999997,-1.541473,0.0684148935
728,1747638702310,-0.14336202,0.15878975,0.70616925,0.48111856,-2.0625257,0.0891837
729,1747638702320,0.1167751,0.24446549,0.039179116,0.47989687,-2.8530385,0.27976805
730,1747638702330,0.1167751,0.24446549,0.039179116,0.47989687,-2.8530385,0.27976805
731,1747638702340,0.43722063,0.08631601,0.4601488,-1.9420362,-0.067498624,0.09345963
732,1747638702350,0.34081256,-0.039118133,1.061007,-2.0735211,0.66925955,-0.09651387
733,1747638702360,0.34081256,-0.039118133,1.061007,-2.0735211,0.66925955,-0.09651387
734,1747638702370,-0.04524654,-0.15796652,1.598142,-1.2342169,0.8097544,-0.04703524
735,1747638702380,-0.0642263055,-0.10385513874999999,1.51303035,-0.6385262820000001,0.16618862499999998,-0.08338065
736,1747638702390,-0.083206071,-0.0497437575,1.4279187,-0.042835664,-0.47737715,-0.11972606
737,1747638702400,-0.24952675,0.024330689,0.90115017,0.9166527,-2.9208424,-0.23090026
738,1747638702410,-0.250624375,0.048127806999999995,0.61646891,0.8905008,-3.2036648000000003,-0.1429382575
739,1747638702420,-0.251722,0.071924925,0.33178765,0.8643489,-3.4864872,-0.054976255
740,1747638702430,0.07994369,0.069973595,-0.065034285,-0.21234578,-2.2225678,0.45202696
741,1747638702440,0.234907005,0.018964521499999998,0.0784649425,-0.9644133400000001,-1.3426423,0.41384900999999996
742,1747638702450,0.38987032,-0.032044552,0.22196417,-1.7164809,-0.4627168,0.37567106
743,1747638702460,0.22854991,-0.12259862,1.3216319,-2.3389342,0.3717769,0.18691926
744,1747638702470,0.175482795,-0.10672879,1.4687899500000001,-1.7544679,-0.31057765,0.23670331500000003
745,1747638702480,0.12241568,-0.09085896,1.615948,-1.1700016,-0.9929322,0.28648737
746,1747638702490,0.12607443,-0.08573671,1.3946241,-0.57434916,-1.8676655,0.3567348
747,1747638702500,0.10410668499999999,-0.074394585,1.24856375,-0.36532485000000003,-2.1920254,0.4150707
748,1747638702510,0.08213894,-0.06305246,1.1025034,-0.15630054,-2.5163853,0.4734066
749,1747638702520,0.25394774,-0.08037054,0.8207491250000001,-0.4123600875,-2.238602525,0.5583143749999999
750,1747638702530,0.42575654,-0.09768862,0.53899485,-0.668419635,-1.9608197500000002,0.6432221499999999
751,1747638702540,0.5167679,-0.10134738,0.5245733,-1.589959,-0.99171054,0.60534966
752,1747638702550,0.5602155849999999,-0.13038871,0.7173742000000001,-1.76756285,-0.8490777,0.579083205
753,1747638702560,0.60366327,-0.15943004,0.9101751,-1.9451667,-0.70644486,0.55281675
754,1747638702570,0.63244545,-0.19531627,1.2506217,-1.8753774,-0.5763344,0.4043809
755,1747638702580,0.532881705,-0.183105195,1.3312819,-1.6737978500000001,-0.63772455,0.35948362
756,1747638702590,0.43331796,-0.17089412,1.4119421,-1.4722183,-0.6991147,0.31458634
757,1747638702600,0.4030418,-0.16113745,1.2884593,-0.98342592,-1.0766183,0.35765107
758,1747638702610,0.40622795,-0.157112825,1.2085308499999998,-0.84959311,-1.14075725,0.40422817499999997
759,1747638702620,0.4094141,-0.1530882,1.1286024,-0.7157603,-1.2048962,0.45080528
760,1747638702630,0.5157923,-0.15479562,0.9101751,-0.97995174,-0.9825478,0.40926766
761,1747638702640,0.50188905,-0.17493398500000001,0.9297037,-1.10238842,-0.9645277999999999,0.37139513999999996
762,1747638702650,0.4879858,-0.19507235,0.9492323,-1.2248251,-0.9465078,0.33352262
763,1747638702660,0.51286525,-0.27437577,1.1300659,-1.2559783,-0.68628687,0.3891097
764,1747638702670,0.5399552750000001,-0.28548922,1.1619123,-1.098990565,-0.69392246,0.36406496
765,1747638702680,0.5670453,-0.29660267,1.1937587,-0.94200283,-0.70155805,0.33902022
766,1747638702690,0.65003794,-0.2892547,1.1903439,-0.80181336,-0.8609892,0.27976805
767,1747638702700,0.65003794,-0.2892547,1.1903439,-0.80181336,-0.8609892,0.27976805
768,1747638702710,0.5951262,-0.26120427,0.97947794,-0.68216366,-0.6465818,0.15698774
769,1747638702720,0.51227076,-0.25364285,0.82280719,-0.6527093825,-0.4100312065,0.168288415
770,1747638702730,0.42941532,-0.24608143,0.66613644,-0.623255105,-0.173480613,0.17958909
771,1747638702740,0.37596706,-0.23754434,0.56850874,-0.5954997,-0.118198946,0.19486028
772,1747638702750,0.38133322000000003,-0.242544625,0.52068585,-0.6812092,-0.357651073,0.18355960500000001
773,1747638702760,0.38669938,-0.24754491,0.47286296,-0.7669187,-0.5971032,0.17225893
774,1747638702770,0.47091162,-0.40667006,0.5909796,-1.3818892,-0.9825478,0.27121618
775,1747638702780,0.49018102999999996,-0.43093978,0.702129375,-1.40555955,-0.9681929,0.28831989999999996
776,1747638702790,0.50945044,-0.4552095,0.81327915,-1.4292299,-0.953838,0.30542362
777,1747638702800,0.6258597,-0.5015842,1.0017048,-1.2603306,-0.9232956,0.33352262
778,1747638702810,0.627932975,-0.51208785,1.0031683,-1.2323080000000002,-0.7849387,0.32252736
779,1747638702820,0.63000625,-0.5225915,1.0046318,-1.2042854,-0.6465818,0.3115321
780,1747638702830,0.54801975,-0.50292569,1.0629431,-1.10395365,-0.0565033715,0.23364909
781,1747638702840,0.50605086,-0.48420507999999995,1.0814884500000002,-1.029506675,-0.10964708074999999,0.18401773999999999
782,1747638702850,0.46408197,-0.46548447,1.1000338,-0.9550597,-0.16279079,0.13438639
783,1747638702860,0.3061764,-0.4410623,0.95337886,-0.80860907,-0.6282564,0.12522368
784,1747638702870,0.362917515,-0.44764808,1.08161798,-0.814526635,-0.66887775,0.17531316
785,1747638702880,0.41965863,-0.45423386,1.2098571,-0.8204442,-0.7094991,0.22540264
786,1747638702890,0.5192071,-0.4410623,1.4046247,-0.62795097,-0.49387002,0.38239038
787,1747638702900,0.533857365,-0.4072646,1.41889375,-0.30641625025,-0.22387552650000003,0.38544460999999997
788,1747638702910,0.54850763,-0.3734669,1.4331628,0.0151184695,0.046118967,0.38849884
789,1747638702920,0.548141745,-0.34149858,1.4038776,0.12415470475,0.1423655835,0.37719817
790,1747638702930,0.54777586,-0.30953026,1.3745924,0.23319094,0.2386122,0.3658975
791,1747638702940,0.5726553,-0.28315675,1.0632023,0.34161633,0.22517358,0.25289077
792,1747638702950,0.5757118999999999,-0.3247750325,1.0337341125,0.33195731500000003,0.27617932,0.237008735
793,1747638702960,0.5787685,-0.366393315,1.004265925,0.3222983,0.32718506,0.2211267
794,1747638702970,0.5865891,-0.4115484,0.9082237,0.54281414,0.6509341,0.1563769
795,1747638702980,0.6001264749999999,-0.39360529,0.88637795,0.5546492949999999,0.6610130999999999,0.12552911
796,1747638702990,0.61366385,-0.37566218,0.8645322,0.56648445,0.6710921,0.09468132
797,1747638703000,0.63293326,-0.36663726,0.8701422,0.3846047,0.7016344,-0.15149012
798,1747638703010,0.6338022050000001,-0.40067889,1.00473845,0.34501416,0.8048676,-0.19211146
799,1747638703020,0.63467115,-0.43472052,1.1393347,0.30542362,0.9081008,-0.2327328
800,1747638703030,0.4792048,-0.43886706,1.1700988,0.398272425,1.4529766,-0.37024981
801,1747638703040,0.311054735,-0.41006966,1.075276175,0.6471926625,1.399222,-0.313097405
802,1747638703050,0.14290467,-0.38127226,0.98045355,0.8961129,1.3454674,-0.255945
803,1747638703060,0.12656227,-0.3627346,0.9660624,0.91733986,0.8146412,-0.13927318
804,1747638703070,0.236492455,-0.38799522,0.9832738,0.91577458,0.5901548249999999,-0.080937265
805,1747638703080,0.34642264,-0.41325584,1.0004852,0.9142093,0.36566845,-0.02260135
806,1747638703090,0.51213354,-0.424476,1.1505549,0.93726873,0.73523104,0.102011494
807,1747638703100,0.48736076,-0.43362287,1.1111471,1.1447277649999998,1.10723702,0.0277935505
808,1747638703110,0.46258798,-0.44276974,1.0717393,1.3521868,1.479243,-0.046424393
809,1747638703120,0.3679178,-0.4105727,0.9480126,1.4412941,1.6264572,-0.014049487
810,1747638703130,0.30239569,-0.38397055,0.89041775,1.37276465,1.3433294999999998,0.030847786500000002
811,1747638703140,0.23687358,-0.3573684,0.8328229,1.3042352,1.0602018,0.07574506
812,1747638703150,0.32739717,-0.41081664,0.9548423,1.2332243,0.65643173,0.09773556
813,1747638703160,0.368649575,-0.44400455,1.01158335,1.25097705,0.589238515,0.10903623500000001
814,1747638703170,0.40990198,-0.47719246,1.0683244,1.2687298,0.5220453,0.12033691
815,1747638703180,0.450041505,-0.48329038999999996,1.0990732,1.3544011,0.78073915,0.129499615
816,1747638703190,0.49018103,-0.48938832,1.129822,1.4400724,1.039433,0.13866232
817,1747638703200,0.13705069,-0.29047427,1.0282917,1.6793718,1.4163257,0.33352262
818,1747638703210,0.134123685,-0.270473095,0.9289719000000001,1.6939939499999999,1.21138645,0.37841989
819,1747638703220,0.13119668,-0.25047192,0.8296521,1.7086161,1.0064472,0.42331716
820,1747638703230,0.25565517,-0.122110784,0.72739,1.5410149,0.50433075,0.32374904
821,1747638703240,0.25431362,-0.17054349200000002,0.99546965,1.3257294499999999,0.805478475,0.34024192
822,1747638703250,0.25297207,-0.2189762,1.2635493,1.110444,1.1066262,0.3567348
823,1747638703260,0.25748452499999996,-0.23240686,1.32370525,1.110444,1.1066262,0.3567348
824,1747638703270,0.22240626249999998,-0.218739905,1.247877675,1.39551875,1.13441975,0.366813775
825,1747638703280,0.187328,-0.20507295,1.1720501,1.6805935,1.1622133,0.37689275
826,1747638703290,0.11140894,-0.079638794,0.8450188,1.6737214,0.6106182,0.41354358
827,1747638703300,0.186337095,-0.09134679700000001,0.92153245,1.5799564,0.53670567,0.43095272500000004
828,1747638703310,0.26126525,-0.1030548,0.9980461,1.4861914,0.46279314,0.44836187
829,1747638703320,0.4423429,-0.13064787,1.1044546,1.3864706,0.62161344,0.23517619
830,1747638703330,0.402935115,-0.143575445,1.12469975,1.3534465999999998,0.99881162,0.15637689500000002
831,1747638703340,0.36352733,-0.15650302,1.1449449,1.3204226,1.3760098,0.0775776
832,1747638703350,0.21025616,-0.10768921,1.1134796,1.3964732,1.3008755,0.046424393
833,1747638703360,0.13729459,-0.107567255,1.1391061,1.43510925,1.18970135,0.1356080965
834,1747638703370,0.06433302,-0.1074453,1.1647326,1.4737453,1.0785272,0.2247918
835,1747638703380,0.053814117,-0.10378654,1.3111435,1.6289005,0.7517239,0.33291176
836,1747638703390,0.112872444,-0.097200796,1.2794344,1.6289005,0.7517239,0.33291176
837,1747638703400,0.26882666,-0.0415573,1.1568967,1.7454197,0.6545992,0.38177955
838,1747638703410,0.30081022,-0.02643447,0.9963386,1.8413227,0.73523104,0.26449686
839,1747638703420,0.30081022,-0.02643447,0.9963386,1.8413227,0.73523104,0.26449686
840,1747638703430,0.12095218,0.06875401,0.74080545,1.6238611,1.3338614,0.13438639
841,1747638703440,0.055414819000000004,0.07253471750000001,0.736171025,1.5572024,1.24559395,0.151795545
842,1747638703450,-0.010122542,0.076315425,0.7315366,1.4905437,1.1573265,0.1692047
843,1747638703460,-0.029148044,0.053387266,1.0160959,1.4743562,0.6949151,0.31886226
844,1747638703470,-0.029148044,0.053387266,1.0160959,1.4743562,0.6949151,0.31886226
845,1747638703480,0.11384811,0.047746688,1.2511096,1.6731106,0.3326827,0.40926766
846,1747638703490,0.13593781,0.0575186015,1.2234098,1.75007735,0.41759045,0.371700555
847,1747638703500,0.15802751,0.067290515,1.19571,1.8270441,0.5024982,0.33413345
848,1747638703510,0.09067602,0.14464259,0.9524031,1.8799587,0.8079218,0.2736596
849,1747638703520,0.0657812765,0.171366705,0.925557035,1.8210883500000001,0.868701115,0.23639790500000002
850,1747638703530,0.040886533,0.19809082,0.89871097,1.762218,0.92948043,0.19913621
851,1747638703540,-0.03378246,0.1653755,1.0251209,1.6301223,0.92764795,0.20707722
852,1747638703550,-0.0202450845,0.17453762,1.04550315,1.66066465,0.8952730250000001,0.16889927
853,1747638703560,-0.006707709,0.18369974,1.0658854,1.691207,0.8628981,0.13072132
854,1747638703570,-0.05552153,0.221019,1.0927162,1.7167099,0.77004933,0.10934166
855,1747638703580,-0.008537082500000001,0.21406736999999998,1.11322045,1.8425826,0.685141565,0.19150063
856,1747638703590,0.038447365,0.20711574,1.1337247,1.9684553,0.6002338,0.2736596
857,1747638703600,0.093359105,0.24056281,1.0595435,2.0164068,0.70041275,0.32741413
858,1747638703610,0.093359105,0.24056281,1.0595435,2.0164068,0.70041275,0.32741413
859,1747638703620,0.22196417,0.37868062,0.80254686,1.8874416,0.7407287,0.14415996
860,1747638703630,0.20671938,0.40320949500000003,0.785960495,1.8494164,0.59320907,0.0711637091
861,1747638703640,0.19147459,0.42773837,0.76937413,1.8113912,0.44568944,-0.0018325418
862,1747638703650,0.28882784,0.3574599,0.8235541,1.6518837,0.35467318,-0.034818295
863,1747638703660,0.31042970999999997,0.35611835000000003,0.87956348,1.67154535,0.44965994,-0.0445918515
864,1747638703670,0.33203158,0.3547768,0.93557286,1.691207,0.5446467,-0.054365408
865,1747638703680,0.17732742,0.43334848,0.8845638,1.8581973,0.8824452,-0.080020994
866,1747638703690,0.1353432625,0.46031650999999996,0.883832065,1.8547613,0.83388285,-0.072690827
867,1747638703700,0.093359105,0.48728454,0.88310033,1.8513253,0.7853205,-0.06536066
868,1747638703710,-0.073327444,0.5287808,0.71543807,1.8107803,0.455463,-0.09651387
869,1747638703720,-0.10492990699999999,0.54292797,0.701397635,1.76469955,0.49333552,-0.0491732059
870,1747638703730,-0.13653237,0.55707514,0.6873572,1.7186188,0.53120804,-0.0018325418
871,1747638703740,-0.19632243,0.57320416,0.7261704,1.5902644,0.75355643,0.19241689
872,1747638703750,-0.19083431,0.5860098,0.7272680300000001,1.6270297999999999,0.598706665,0.25411246
873,1747638703760,-0.18534619,0.59881544,0.72836566,1.6637952,0.4438569,0.31580803
874,1747638703770,-0.15360652,0.6163774,0.71202326,1.7348062,0.3626142,0.3268033
875,1747638703780,-0.15360652,0.6163774,0.71202326,1.7348062,0.3626142,0.3268033
876,1747638703790,-0.14702077,0.64250696,0.67930794,1.7921495,0.24960746,0.31336465
877,1747638703800,-0.16973552,0.7152246,0.59732145,1.6612755,0.031458635,0.2455606
878,1747638703810,-0.16973552,0.7152246,0.59732145,1.6612755,0.031458635,0.2455606
879,1747638703820,-0.06576603,0.6383604,0.6902842,1.52666,0.16286714,0.08551861
880,1747638703830,-0.091758405,0.6177342,0.70005608,1.52604915,0.22364645500000002,0.04306472863
881,1747638703840,-0.11775078,0.597108,0.70982796,1.5254383,0.28442577,0.00061084726
882,1747638703850,-0.20485951,0.61174303,0.61024904,1.565296,0.51288265,0.035429142
883,1747638703860,-0.19559068000000002,0.590278365,0.59706227,1.55254465,0.497000605,0.0671931985
884,1747638703870,-0.18632185,0.5688137,0.5838755,1.5397933,0.48111856,0.098957255
885,1747638703880,-0.19742005,0.57698492,0.522378025,1.6728052,0.369944365,0.069636588
886,1747638703890,-0.179903785,0.621819845,0.40743230249999995,1.5486505,0.18390319975,0.0042759314999999964
887,1747638703900,-0.16238752,0.66665477,0.29248658,1.4244958,-0.0021379655,-0.061084725
888,1747638703910,-0.06064378,0.67324054,0.24050182,1.2207782,0.054059982,-0.13560809
889,1747638703920,-0.006219872500000001,0.6705574400000001,0.26661615,1.10208295,0.256594031,-0.174702315
890,1747638703930,0.048204035,0.66787434,0.29273048,0.9833877,0.45912808,-0.21379654
891,1747638703940,0.05039928,0.745013,0.37328398,0.65559185,1.1945882,-0.44355148
892,1747638703950,-0.022928167500000006,0.775639775,0.58084181,0.626003925,1.1099858500000002,-0.48844874
893,1747638703960,-0.096255615,0.80626655,0.78839964,0.596416,1.0253835,-0.533346
894,1747638703970,-0.096255615,0.80626655,0.78839964,0.596416,1.0253835,-0.533346
895,1747638703980,-0.17081789749999998,0.79612875,0.8220753999999999,1.0740222,0.30454555000000005,-0.41327634999999996
896,1747638703990,-0.24538018,0.78599095,0.85575116,1.5516284,-0.4162924,-0.2932067
897,1747638704000,-0.22367159,0.74574476,0.42429304,1.6101934,-0.3631487,-0.21562909
898,1747638704010,-0.22367159,0.74574476,0.42429304,1.6101934,-0.3631487,-0.21562909
899,1747638704020,-0.19071235,0.7686729,0.22318375,1.5029896,-0.054059982,-0.16370706
900,1747638704030,-0.16898852,0.79088455,0.161686265,1.30549505,0.301491289,-0.202801285
901,1747638704040,-0.14726469,0.8130962,0.10018878,1.1080005,0.65704256,-0.24189551
902,1747638704050,-0.31980523,0.859227,0.32447016,0.70171076,0.8280798,-0.31405184
903,1747638704060,-0.34482194,0.837747065,0.43941589999999997,0.72851168,0.5889331,-0.29782622000000003
904,1747638704070,-0.36983865,0.81626713,0.55436164,0.7553126,0.3497864,-0.2816006
905,1747638704080,-0.38032708,0.74623257,0.5157923,1.0979979,-0.40407547,-0.054365408
906,1747638704090,-0.349944205,0.7561112050000001,0.47736017,1.13071645,-0.345739555,0.003665082
907,1747638704100,-0.31956133,0.76598984,0.43892804,1.163435,-0.28740364,0.061695572
908,1747638704110,-0.12384869,0.81943804,0.23050125,1.0886825,0.09743014,-0.02687728
909,1747638704120,-0.19742006499999998,0.7962507,0.20206971499999998,0.99083243,0.38181771999999997,-0.060779299999999994
910,1747638704130,-0.27099144,0.77306336,0.17363818,0.89298236,0.6662053,-0.09468132
911,1747638704140,-0.42694563,0.69741875,0.08116327,0.9995752,0.34245625,0.007941014
912,1747638704150,-0.45135255500000004,0.687646825,-0.15801226499999999,1.0141973,-0.052494689999999955,0.183865027
913,1747638704160,-0.47575948,0.6778749,-0.3971878,1.0288194,-0.44744563,0.35978904
914,1747638704170,-0.39669997,0.68104583,-0.6041206,0.8438091,-0.741874,0.5283829
915,1747638704180,-0.39669997,0.68104583,-0.6041206,0.8438091,-0.741874,0.5283829
916,1747638704190,-0.17095509,0.6790945,-0.6626911,0.06925481,-0.60076827,0.71285874
917,1747638704200,-0.037685126,0.6832715,-0.4425868,-0.26403874,-0.47859883,0.62489676
918,1747638704210,-0.037685126,0.6832715,-0.4425868,-0.26403874,-0.47859883,0.62489676
919,1747638704220,-0.038904708,0.75062305,-0.37447307,-0.6466582,-0.60687673,0.28526568
920,1747638704230,-0.064287289,0.7657459099999999,-0.252209835,-0.8729962,-0.706902975,0.19501299100000002
921,1747638704240,-0.08966987,0.78086877,-0.1299466,-1.0993342,-0.80692922,0.104760302
922,1747638704250,-0.07088828,0.7491596,0.124580435,-1.2298646,-0.77241635,0.092848785
923,1747638704260,-0.07442507,0.74428125,0.17095509750000001,-1.248839,-0.6789567249999999,0.0922379375
924,1747638704270,-0.07796186,0.7394029,0.21732976,-1.2678134,-0.5854971,0.09162709
925,1747638704280,-0.16019227,0.671777,0.30077976,-1.3176739,0.1738624,0.13988402
926,1747638704290,-0.201688595,0.687159,0.30701488,-1.3086639,0.18088714,0.10934166000000001
927,1747638704300,-0.24318492,0.702541,0.31325,-1.2996539,0.18791188,0.0787993
928,1747638704310,-0.40109047,0.7806248,0.31861615,-1.3164521,-0.63802993,0.108730815
929,1747638704320,-0.369731935,0.78221025,0.35814588999999997,-1.32110985,-1.028361315,0.1695101125
930,1747638704330,-0.3383734,0.7837957,0.39767563,-1.3257676,-1.4186927,0.23028941
931,1747638704340,-0.11457986,0.72668874,0.56460613,-1.292171,-1.2959125,0.3115321
932,1747638704350,-0.10175899,0.712175695,0.5765732800000001,-1.23856915,-1.1282349200000001,0.34146361999999997
933,1747638704360,-0.08893812,0.69766265,0.58854043,-1.1849673,-0.96055734,0.37139514
934,1747638704370,-0.12677568,0.74476904,0.34788615,-1.0952492,-0.39491275,0.47279578
935,1747638704380,0.020992079999999996,0.7845427199999999,0.375707895,-1.4778304,0.040964944999999975,0.40193749
936,1747638704390,0.16875984,0.8243164,0.40352964,-1.8604116,0.47684264,0.3310792
937,1747638704400,0.15485659499999999,0.852382075,0.564362195,-1.90805775,0.36872267000000003,0.175924003
938,1747638704410,0.14095335,0.88044775,0.72519475,-1.9557039,0.2606027,0.020768806
939,1747638704420,0.0026983250000000014,0.847259825,0.881865475,-1.8083369999999999,-0.20856616499999997,-0.069025742
940,1747638704430,-0.1355567,0.8140719,1.0385362,-1.6609701,-0.67773503,-0.15882029
941,1747638704440,-0.40231007,0.6300673,1.090521,-0.5799231,-2.097955,0.41171107
942,1747638704450,-0.33762641000000004,0.6354334500000001,0.9438508250000001,-0.42602778,-2.19202545,0.514944235
943,1747638704460,-0.27294275,0.6407996,0.79718065,-0.27213246,-2.2860959,0.6181774
944,1747638704470,0.045764867,0.7762343,0.02625153,-0.75874865,-0.69361705,0.8875611
945,1747638704480,0.0853098585,0.7631847700000001,0.14009963,-1.0684481749999999,-0.215896325,0.8582404
946,1747638704490,0.12485485,0.75013524,0.25394773,-1.3781477,0.2618244,0.8289197
947,1747638704500,-0.0059759584,0.7576966,0.89212525,-1.4703094,-0.5158605,0.0684149
948,1747638704510,-0.19217584920000003,0.71559052,0.878328725,-1.3843326,-1.21925115,0.26541313499999997
949,1747638704520,-0.37837574,0.67348444,0.8645322,-1.2983558,-1.9226418,0.46241137
950,1747638704530,-0.14628904,0.5014317,1.0695442,-1.0067526,-2.6117537,0.73362756
951,1747638704540,-0.05221342000000001,0.476049125,1.0793008,-0.72824445,-2.7241497,0.7995990550000001
952,1747638704550,0.0418622,0.45066655,1.0890574,-0.4497363,-2.8365457,0.86557055
953,1747638704560,0.3295924,0.6586055,0.3217871,-0.2192178,-1.901873,0.85029936
954,1747638704570,0.38413827,0.694110625,0.4137894,-0.81208325,-0.9651386989999999,0.7369872049999999
955,1747638704580,0.43868414,0.72961575,0.5057917,-1.4049487,-0.028404398,0.62367505
956,1747638704590,0.47847307,0.72303,0.7947415,-1.5507121,-0.11697725,0.23761958
957,1747638704600,0.47847307,0.72303,0.7947415,-1.5507121,-0.11697725,0.23761958
958,1747638704610,0.20757309,0.6576298,0.89041775,-1.4173948,-0.49570256,-0.11911522
959,1747638704620,0.15156371999999999,0.6133437,0.9057845250000001,-1.2943472,-0.64261133,-0.061390151799999994
960,1747638704630,0.09555435,0.5690576,0.9211513,-1.1712996,-0.7895201,-0.0036650836
961,1747638704640,0.090919934,0.53634226,0.8084008,-0.93138933,-0.9886563,0.11850437
962,1747638704650,0.16255521699999997,0.55282188,0.618664125,-0.9370014950000001,-0.769973,0.247393145
963,1747638704660,0.2341905,0.5693015,0.42892745,-0.94261366,-0.5512897,0.37628192
964,1747638704670,0.4369767,0.5548799,0.62342054,-1.54384,0.3717769,0.18447587
965,1747638704680,0.38487,0.56538358,0.69101592,-1.5631580500000002,0.24407165,0.030236937500000005
966,1747638704690,0.3327633,0.57588726,0.7586113,-1.5824761,0.1163664,-0.124001995
967,1747638704700,0.10579886,0.49679726,0.8889543,-1.467866,-0.62092626,-0.26877278
968,1747638704710,0.062366446,0.46190194500000004,0.85405895,-1.3195828,-0.86129463,-0.18875179749999998
969,1747638704720,0.018934032,0.42700663,0.8191636,-1.1712996,-1.101663,-0.108730815
970,1747638704730,0.049911447,0.43749505,0.62951845,-0.88588125,-1.3710467,0.20219044
971,1747638704740,0.049911447,0.43749505,0.62951845,-0.88588125,-1.3710467,0.20219044
972,1747638704750,0.16168626,0.45679495,0.4748143,-1.0828031,-0.9385668,0.40560257
973,1747638704760,0.40868238,0.40359062,0.76181275,-1.7077762,0.48172942,0.3811687
974,1747638704770,0.426000465,0.41176182,0.837823305,-1.7382804,0.548311785,0.239757555
975,1747638704780,0.44331855,0.41993302,0.91383386,-1.7687846,0.61489415,0.09834641
976,1747638704790,0.04552095,0.44066596,1.0685683,-1.6609701,-0.52196896,-0.2895416
977,1747638704800,0.04552095,0.44066596,1.0685683,-1.6609701,-0.52196896,-0.2895416
978,1747638704810,-0.09479212,0.3149879,1.132993,-1.0366842,-2.2366173,0.18814096
979,1747638704820,-0.014131925000000004,0.314743965,1.0102419,-0.88870645,-2.27846025,0.32008395999999995
980,1747638704830,0.06652827,0.31450003,0.8874908,-0.7407287,-2.3203032,0.45202696
981,1747638704840,0.39060205,0.38355896,0.5143288,-1.1289221,-1.173743,0.700031
982,1747638704850,0.46748152499999995,0.38075391999999997,0.73287813,-1.58190355,-0.75775602,0.426065985
983,1747638704860,0.544361,0.37794888,0.95142746,-2.034885,-0.34176904,0.15210097
984,1747638704870,0.44283074,0.3447762,1.1303098,-2.1532366,-0.21043688,-0.007941014
985,1747638704880,0.38779702,0.32439392,1.21414095,-2.1382708,-0.23090026,-0.037261682000000004
986,1747638704890,0.3327633,0.30401164,1.2979721,-2.123305,-0.25136364,-0.06658235
987,1747638704900,0.20757309,0.23934323,1.4231623,-1.2466629,-0.9025268,0.16676131
988,1747638704910,0.211353795,0.23397706000000001,1.32945255,-1.0170607,-1.0601254,0.222348405
989,1747638704920,0.2151345,0.22861089,1.2357428,-0.7874585,-1.217724,0.2779355
990,1747638704930,0.24419107,0.22690348,0.8093765,-0.49829865,-1.3832636,0.5161659
991,1747638704940,0.34253522000000003,0.22958657,0.70615403,-0.7319859,-1.1865708000000001,0.5125008499999999
992,1747638704950,0.44087937,0.23226966,0.60293156,-0.96567315,-0.989878,0.5088358
993,1747638704960,0.47774127,0.21126233,0.6495501,-1.2859099,-0.5586198,0.45569205
994,1747638704970,0.44894387,0.19199291000000002,0.7802284500000001,-1.3868524,-0.388498845,0.42942562500000003
995,1747638704980,0.42014647,0.17272349,0.9109068,-1.4877949,-0.21837789,0.4031592
996,1747638704990,0.37840623500000004,0.170406285,0.9397042,-1.45507635,-0.173786045,0.3811687
997,1747638705000,0.336666,0.16808908,0.9685016,-1.4223578,-0.1291942,0.3591782
998,1747638705010,0.2607774,0.14952092,1.0307308,-1.1906177,-0.46088424,0.4715741
999,1747638705020,0.31166453,0.115845175,1.0458688999999999,-1.0064853999999999,-0.78066277,0.5412106649999999
1000,1747638705030,0.36255166,0.08216943,1.061007,-0.8223531,-1.1004413,0.61084723
