id,timestamp,acc_x,acc_y,acc_z,gyro_x,gyro_y,gyro_z
0,1747638479680,-0.005732042,0.48216227,1.0404875,0.1752368,-0.29962057,0.01099525
1,1747638479690,-0.017805916999999997,0.469234705,1.0236573,0.38239037,-0.589162185,0.014354910499999998
2,1747638479700,-0.029879792,0.45630714,1.0068271,0.58954394,-0.8787038,0.017714571
3,1747638479710,-0.023903834,0.45226727,0.9847374,0.6689922699999999,-0.9642224,0.0280989745
4,1747638479720,-0.017927876,0.4482274,0.9626477,0.7484406,-1.049741,0.038483378
5,1747638479730,0.0035367915,0.43993422,0.88358814,0.9210813,-1.205507,0.13621894
6,1747638479740,0.0035367915,0.43993422,0.88358814,0.9210813,-1.205507,0.13621894
7,1747638479750,0.0418622,0.43237278,0.79742455,0.97216344,-1.2189457,0.17286977
8,1747638479760,0.107384315,0.38833058,0.708227275,0.86530334,-0.960862735,0.1823379
9,1747638479770,0.17290643,0.34428838,0.61903,0.75844324,-0.70277977,0.19180603
10,1747638479780,0.1504661,0.31132913,0.62683535,0.68552333,-0.62398046,0.19180603
11,1747638479790,0.14766106,0.23786448,0.602672375,0.666510715,-0.7742488949999999,0.269078215
12,1747638479800,0.14485602,0.16439983,0.5785094,0.6474981,-0.92451733,0.3463504
13,1747638479810,0.18586451,0.075339764,0.56363046,0.66994673,-1.1951227,0.42209545
14,1747638479820,0.250532925,0.022867189500000003,0.5568007800000001,0.779937415,-1.5591876500000001,0.463327625
15,1747638479830,0.31520134,-0.029605385,0.5499711,0.8899281,-1.9232526,0.5045598
16,1747638479840,0.4355132,-0.13162352,0.44063547,1.0550096,-2.2488341,0.5436541
17,1747638479850,0.4529685,-0.14467307000000001,0.41732618499999996,1.0705862000000002,-2.2521937999999997,0.5867188000000001
18,1747638479860,0.4704238,-0.15772262,0.3940169,1.0861628,-2.2555535,0.6297835
19,1747638479870,0.5797594,-0.12869653,0.29370615,0.9789591,-2.393605,0.84968853
20,1747638479880,0.5797594,-0.12869653,0.29370615,0.80830365,-2.6111429,1.0433271
21,1747638479890,0.98121583,0.010427438,0.28834,0.45935714,-2.9220643,1.2540694
22,1747638479900,0.98121583,0.010427438,0.28834,0.06681142,-3.0674458,1.2925528
23,1747638479910,0.98121583,0.010427438,0.28834,-0.4341597,-2.9373355,1.1819894
24,1747638479920,1.3219063,0.11903133,0.40816402,-0.95880115,-2.5555558,0.9736905
25,1747638479930,1.2711413,0.25446606,0.69443077,-1.6553961,-2.0069387,0.6377245
26,1747638479940,1.2711413,0.25446606,0.69443077,-1.6553961,-2.0069387,0.6377245
27,1747638479950,1.1852217,0.37331447,0.8960279,-1.988766,-1.7516046,0.58885676
28,1747638479960,1.14715535,0.456901655,1.0739345999999999,-2.0102601499999997,-1.8490347,0.617872
29,1747638479970,1.109089,0.54048884,1.2518413,-2.0317543,-1.9464648,0.64688724
30,1747638479980,0.961428,0.73815286,1.5173751,-1.4335822,-2.7241497,0.7782194
31,1747638479990,0.945451475,0.773551255,1.53359555,-1.235744,-2.8680041999999997,0.831668525
32,1747638480000,0.92947495,0.80894965,1.549816,-1.0379058,-3.0118587,0.88511765
33,1747638480010,0.9231332,0.8709349,1.5210339,-0.6615476,-3.0240757,0.9822424
34,1747638480020,0.8400338,0.9598883,1.39192575,-0.369333535,-2.5509363499999997,0.96727663
35,1747638480030,0.7569344,1.0488417,1.2628176,-0.07711947,-2.077797,0.95231086
36,1747638480040,0.6817471,1.0610375,1.207662,0.0013744063,-1.8994296,0.87778753
37,1747638480050,0.619152,1.0549396,1.1959539000000001,0.04653892564999999,-1.8911831499999998,0.839914965
38,1747638480060,0.5565569,1.0488417,1.1842458,0.091703445,-1.8829367,0.8020424
39,1747638480070,0.28492516,1.0034426,0.9838684,0.42942563,-2.1944687,0.6267293
40,1747638480080,0.28492516,1.0034426,0.9838684,0.42942563,-2.1944687,0.6267293
41,1747638480090,0.24077624,0.9380426,0.8711179,0.4388174,-2.0961223,0.555871
42,1747638480100,0.156579255,0.90192763,0.8398813,0.37586195,-1.85086715,0.44011544999999996
43,1747638480110,0.07238227,0.86581266,0.8086447,0.3129065,-1.605612,0.3243599
44,1747638480120,-0.15653352,0.76037973,0.8216028,0.22883865,-1.393648,0.1783674
45,1747638480130,-0.17337901500000003,0.751964615,0.8130505,0.146870585,-1.13831385,0.018630845000000007
46,1747638480140,-0.19022451,0.7435495,0.8044982,0.06490252,-0.8829797,-0.14110571
47,1747638480150,-0.26562527,0.6905891,0.80718124,-0.050318543,-0.51524967,-0.36841726
48,1747638480160,-0.334211575,0.6591085999999999,0.85233632,-0.0992245015,-0.330773795,-0.50921756
49,1747638480170,-0.40279788,0.6276281,0.8974914,-0.14813046,-0.14629792,-0.65001786
50,1747638480180,-0.5204267,0.61515784,1.0253648,0.03000787,0.37605286,-0.7679114
51,1747638480190,-0.505410585,0.64505287,1.08088635,0.10758547500000001,0.486616195,-0.744088335
52,1747638480200,-0.49039447,0.6749479,1.1364079,0.18516308,0.59717953,-0.72026527
53,1747638480210,-0.20412776,0.8099253,1.2347672,0.5266267,0.64910156,-0.7056049
54,1747638480220,-0.06928757499999999,0.91461125,1.2744189000000001,0.73038245,0.71262968,-0.7529456
55,1747638480230,0.06555261,1.0192972,1.3140706,0.9341382,0.7761578,-0.8002863
56,1747638480240,0.27615940499999997,1.1797639,1.3565426,1.042869,0.85037575,-0.8228876350000001
57,1747638480250,0.4867662,1.3402306,1.3990146,1.1515998,0.9245937,-0.84548897
58,1747638480260,0.70616925,1.4478588,1.4146252,1.3341668,1.3631821,-1.0678374
59,1747638480270,1.092975375,1.59526075,1.58899515,1.3631438999999999,1.6878473999999999,-1.39555695
60,1747638480280,1.4797815,1.7426627,1.7633651,1.392121,2.0125127,-1.7232765
61,1747638480290,1.86452955,1.7976963,2.0476806,1.73759325,2.2892264,-2.32068515
62,1747638480300,2.0304233750000003,1.7581055499999998,2.1162516,1.963931225,2.34756235,-2.5549449749999997
63,1747638480310,2.1963172,1.7185148,2.1848226,2.1902692,2.4058983,-2.7892048
64,1747638480320,2.2761085,1.4217292,2.1243007,3.4775534,2.8427305,-3.334157
65,1747638480330,2.2761085,1.4217292,2.1243007,3.4775534,2.8427305,-3.334157
66,1747638480340,2.2726934,1.2260166,2.057437,4.0276976,2.8299026,-3.417843
67,1747638480350,2.22119655,0.8586018999999999,1.6541513,4.9314845,2.41021235,-3.47648435
68,1747638480360,2.1696997,0.4911872,1.2508656,5.8352714,1.9905221,-3.5351257
69,1747638480370,2.0906403,0.2769064,0.85038495,6.0602155,1.6050775,-3.5839937
70,1747638480380,1.9285882,0.0560551,0.46002682500000003,5.9517901,1.32072811,-3.656989875
71,1747638480390,1.7665361,-0.1647962,0.0696687,5.8433647,1.0363787199999999,-3.72998605
72,1747638480400,1.5930197,-0.2809615,-0.13897152,5.286959,0.7376744,-3.8509338
73,1747638480410,1.1693517,-0.413362525,-0.29675511,4.45143465,1.0925766499999998,-3.7076900999999998
74,1747638480420,0.7456837,-0.54576355,-0.4545387,3.6159103,1.4474789,-3.5644464
75,1747638480430,0.5135971,-0.60604143,-0.38645548,3.1535754,1.5158938,-3.241919
76,1747638480440,0.23624857100000002,-0.6796280450000001,-0.32786974,3.0373617,1.22451965,-2.9618075
77,1747638480450,-0.041099958,-0.75321466,-0.269284,2.921148,0.9331455,-2.681696
78,1747638480460,-0.21607967,-0.8554462,-0.34764224,2.867546,0.34795386,-2.2296689
79,1747638480470,-0.369472785,-0.89340575,-0.53140297,2.36878925,0.10143881500000002,-1.5736189
80,1747638480480,-0.5228659,-0.9313653,-0.7151637,1.8700325,-0.14507623,-0.9175689
81,1747638480490,-0.5355495,-0.9403902,-0.62317663,0.6612422,-0.20127417,0.1575986
82,1747638480500,-0.491614035,-0.9491712,-0.590842415,0.36028537,-0.287098205,0.4187358
83,1747638480510,-0.44767857,-0.9579522,-0.5585082,0.05932854,-0.37292224,0.679873
84,1747638480520,-0.2329404,-0.99822897,-0.43597054,-0.6815528,-0.49448085,1.2607888
85,1747638480530,-0.11945819,-1.00701,-0.38032708,-0.6815528,-0.49448085,1.2607888
86,1747638480540,-0.03670946,-1.0160348,-0.29882842,-1.3208045,-0.47982052,1.6621153
87,1747638480550,-0.06015595,-0.9606353,-0.12677568,-1.682197,-1.1725214,2.0768807
88,1747638480560,-0.06015595,-0.9606353,-0.12677568,-1.682197,-1.1725214,2.0768807
89,1747638480570,-0.060887698,-0.9230721,-0.1753456,-1.7500774,-1.5121524,2.3903217
90,1747638480580,0.019040746000000004,-0.9084218749999999,-0.208167635,-1.8547612999999998,-1.60255775,2.7186521
91,1747638480590,0.09896919,-0.89377165,-0.24098967,-1.9594452,-1.6929631,3.0469825
92,1747638480600,0.22659859,-0.86401385,-0.2133966,-2.0697796,-1.901262,3.4226534
93,1747638480610,0.50371842,-0.8311765499999999,-0.24464842,-2.1974848,-2.1373545,3.7784720500000004
94,1747638480620,0.78083825,-0.79833925,-0.27590024,-2.32519,-2.373447,4.1342907
95,1747638480630,1.0871061,-0.7141575,-0.23684308,-2.4467487,-2.3838315,4.2118683
96,1747638480640,1.35568885,-0.50306288,-0.1879073,-2.799703875,-2.3554270749999997,4.296317975
97,1747638480650,1.6242716,-0.29196826,-0.13897152,-3.15265905,-2.32702265,4.38076765
98,1747638480660,1.91688,-0.0017683958,0.045277033,-3.3109448,-2.3471806,4.4720893
99,1747638480670,2.2446279000000002,0.3573379271,0.24100491649999997,-3.5607813999999998,-2.41162505,4.68710765
100,1747638480680,2.5723758,0.71644425,0.4367328,-3.810618,-2.4760695,4.902126
101,1747638480690,3.3601656,1.4339557,1.2506217,-3.9521055,-2.2237895,5.1715856
102,1747638480700,3.3601656,1.4339557,1.2506217,-3.9521055,-2.2237895,5.1715856
103,1747638480710,3.5854225,1.5659755,1.5217656,-3.499086,-2.1339948,4.9076233
104,1747638480720,3.5751781,1.8734629,1.9856951,-1.9501299,-2.0558064,3.952258
105,1747638480730,3.5751781,1.8734629,1.9856951,-1.9501299,-2.0558064,3.952258
106,1747638480740,3.2608304,1.9849938,2.0230448,0.55839074,-2.7528596,3.1660976
107,1747638480750,2.8605937,2.0619952,1.8785699,0.782858005,-2.83135345,3.1674720250000004
108,1747638480760,2.460357,2.1389966,1.734095,1.00732527,-2.9098473,3.16884645
109,1747638480770,1.9227341,1.9713346,0.93776816,1.684335,-2.9892573,3.136777
110,1747638480780,1.79425105,1.8666333000000002,0.74582098,1.5880502,-2.65752915,2.9058767999999997
111,1747638480790,1.665768,1.761932,0.5538738,1.4917654,-2.325801,2.6749766
112,1747638480800,1.2096437,1.5291137,0.47627777,1.1391538,-2.0496979,2.1666753
113,1747638480810,0.8291642,1.36536935,0.441123295,0.8120069000000001,-1.85819735,1.79894525
114,1747638480820,0.4486847,1.201625,0.40596882,0.48486,-1.6666968,1.4312152
115,1747638480830,-0.13970327,0.91096777,0.55436164,-0.17309885,-1.1651912,0.87167907
116,1747638480840,-0.37959531,0.887292635,0.62134725,-0.331041045,-1.1184614,0.748593335
117,1747638480850,-0.61948735,0.8636175,0.68833286,-0.48898324,-1.0717316,0.6255076
118,1747638480860,-0.7439763,0.77818567,0.9565497,-0.7718819,-0.8903099,0.5387673
119,1747638480870,-0.694796625,0.736704585,1.0944388,-0.89962535,-0.517387635,0.340547355
120,1747638480880,-0.64561695,0.6952235,1.2323279,-1.0273688,-0.14446537,0.14232741
121,1747638480890,-0.5089321,0.79452807,1.3462981,-0.61794835,-0.022906773,-0.38429928
122,1747638480900,-0.452572115,0.85506511,1.2861421499999999,-0.517654865,0.036345411,-0.49486264
123,1747638480910,-0.39621213,0.91560215,1.2259862,-0.41736138,0.095597595,-0.605426
124,1747638480920,-0.023781875,1.1232667,1.024389,-0.36994436,0.74683714,-0.9517764
125,1747638480930,-0.023781875,1.1232667,1.024389,-0.36994436,0.74683714,-0.9517764
126,1747638480940,0.36328337,1.2619029,0.90139407,-0.3768164,1.2116919,-1.2779688
127,1747638480950,0.5407022850000001,1.3471975,0.879182385,-0.34596861,1.565067,-1.6576104
128,1747638480960,0.7181212,1.4324921,0.8569707,-0.31512082,1.9184421,-2.037252
129,1747638480970,0.7666911,1.5467061,0.82623726,-0.27091077,2.054661,-2.2883103
130,1747638480980,1.0132908999999999,1.7080112,0.90688218,-0.22169938,2.164919,-2.51523995
131,1747638480990,1.2598907,1.8693163,0.9875271,-0.17248799,2.275177,-2.7421696
132,1747638481000,1.7130877,2.0060012,1.0958872,-0.029778805,2.2715118,-2.9785676
133,1747638481010,1.95653185,2.0928812,1.1663028500000001,0.0883056075,2.4153664,-3.24065925
134,1747638481020,2.199976,2.1797612,1.2367185,0.20639002,2.559221,-3.5027509
135,1747638481030,2.7146707,2.090183,1.5081062,0.89733464,3.0021615,-4.0818343
136,1747638481040,2.73554075,2.0108643,1.4836993,1.1378557200000001,3.10967065,-4.21988565
137,1747638481050,2.7564108,1.9315456,1.4592924,1.3783768,3.2171798,-4.357937
138,1747638481060,2.7239394,1.525211,1.2330598,2.1310933,3.2190123,-4.5210333
139,1747638481070,2.7100285250000002,1.28055495,1.0466617249999999,2.37035455,3.24344625,-4.5463834
140,1747638481080,2.69611765,1.0358989,0.86026365,2.6096158,3.2678802,-4.5717335
141,1747638481090,2.656824175,0.919428685,0.789245775,2.71617055,3.26146625,-4.59005905
142,1747638481100,2.6175307,0.80295847,0.7182279,2.8227253,3.2550523,-4.6083846
143,1747638481110,2.4078844,0.4309093,0.43429363,3.3018584,2.8744946,-4.622434
144,1747638481120,2.1598211,0.2078474985,0.299697365,3.5252377,2.6740985,-4.57967465
145,1747638481130,1.9117578,-0.015214303,0.1651011,3.748617,2.4737024,-4.5369153
146,1747638481140,1.6169541,-0.15381996,0.013293459,3.8445199,2.1817174,-4.4911017
147,1747638481150,1.3417856000000001,-0.265228905,-0.1127504855,3.80183695,2.009153,-4.39458795
148,1747638481160,1.0666171,-0.37663785,-0.23879443,3.759154,1.8365886,-4.2980742
149,1747638481170,0.48847362,-0.6255548,-0.37813184,3.2345126,1.4548091,-3.4856472
150,1747638481180,0.383162585,-0.64569315,-0.39205033,3.1310884999999997,1.3818128500000002,-3.31735875
151,1747638481190,0.27785155,-0.6658315,-0.40596882,3.0276644,1.3088166,-3.1490703
152,1747638481200,0.087017275,-0.6851009,-0.42987266,2.366575,1.0504283,-2.2351665
153,1747638481210,-0.031099377499999997,-0.710361535,-0.36313095500000003,2.11734935,1.0030876,-1.8368940500000002
154,1747638481220,-0.14921603,-0.73562217,-0.29638925,1.8681237,0.9557469,-1.4386216
155,1747638481230,-0.21656752,-0.7373296,-0.21022569,1.6986135,0.8225822,-0.9713235
156,1747638481240,-0.230486015,-0.743442775,-0.201688595,1.64443895,0.7080483200000001,-0.75966493
157,1747638481250,-0.24440451,-0.74955595,-0.1931515,1.5902644,0.59351444,-0.54800636
158,1747638481260,-0.0755227,-0.78175294,-0.26660094,0.8824452,-0.26968905,0.21013145
159,1747638481270,-0.0755227,-0.78175294,-0.26660094,0.8824452,-0.26968905,0.21013145
160,1747638481280,-0.11506769,-0.76248354,-0.2998041,0.6381827,-0.4627168,0.32802498
161,1747638481290,-0.140435025,-0.75197989,-0.308950965,0.280531615,-0.5442648999999999,0.57144761
162,1747638481300,-0.16580236,-0.74147624,-0.31809783,-0.07711947,-0.625813,0.81487024
163,1747638481310,-0.016220458,-0.78541166,-0.21757366,-1.2291774,-0.54518116,1.8093296
164,1747638481320,0.049911451,-0.80347678,-0.15740247200000002,-1.4176619499999998,-0.5625903050000001,1.9837264500000003
165,1747638481330,0.11604336,-0.8215419,-0.097231284,-1.6061465,-0.57999945,2.1581233
166,1747638481340,0.28638867,-0.8556901,0.039179116,-1.864764,-0.63619745,2.445298
167,1747638481350,0.38773604,-0.85093375,0.08627789799999999,-1.9657065,-0.769972975,2.7528596
168,1747638481360,0.48908341,-0.8461774,0.13337668,-2.066649,-0.9037485,3.0604212
169,1747638481370,0.5309456,-0.8449578,0.14388034,-1.8286476,-1.6031686,3.596745
170,1747638481380,0.59695557,-0.8126236,0.043691571,-1.7924931000000002,-1.7082343500000001,3.7421267
171,1747638481390,0.66296554,-0.7802894,-0.056497198,-1.7563386,-1.8133001,3.8875084
172,1747638481400,1.007071,-0.7744354,-0.38057098,-2.0548139,-2.1003983,4.96321
173,1747638481410,1.007071,-0.7744354,-0.38057098,-2.0548139,-2.1003983,4.96321
174,1747638481420,1.3443466,-0.8069068,-0.47527164,-2.5002742,-2.1504877,5.437304
175,1747638481430,1.7178592999999998,-0.8035987,-0.37448832,-2.9495141499999997,-2.1352165999999997,5.659041650000001
176,1747638481440,2.091372,-0.8002906,-0.273705,-3.3987541,-2.1199455,5.8807793
177,1747638481450,2.4952674,-0.7258655,-0.061131615,-3.6455364,-2.2622728,5.845961
178,1747638481460,2.6401082000000002,-0.5325768,0.0562532825,-3.4617096,-2.6407309,5.837714650000001
179,1747638481470,2.784949,-0.3392881,0.17363818,-3.2778828,-3.019189,5.8294683
180,1747638481480,2.8381534,-0.24071527,0.11823861,-3.1644943,-3.1682358,6.062201
181,1747638481490,2.98933605,-0.1189246245,0.17522364,-3.1685410999999997,-3.1428856,6.416187
182,1747638481500,3.1405187,0.002866021,0.23220867,-3.1725879,-3.1175354,6.770173
183,1747638481510,3.7513773,0.43578765,0.65345275,-2.7407954,-2.8970194,6.8355336
184,1747638481520,3.782492,0.5266923450000001,0.716535725,-2.6009112500000002,-2.8945761,6.674269799999999
185,1747638481530,3.8136067,0.61759704,0.7796187,-2.4610271,-2.8921328,6.513006
186,1747638481540,3.5646899,1.0034426,0.8594099,-1.9183658,-3.2800207,5.8923855
187,1747638481550,3.4897616,1.09056665,0.869181825,-1.6245864499999998,-3.3453813500000003,5.63277525
188,1747638481560,3.4148333,1.1776907,0.87895375,-1.3308071,-3.410742,5.373165
189,1747638481570,3.2205689499999997,1.42040305,0.8336767,-0.710797135,-3.3624852,4.71154125
190,1747638481580,3.120509775,1.501238475,0.75698015,-0.5995847675,-3.2186306,4.470562125
191,1747638481590,3.0204506,1.5820739,0.6802836,-0.4883724,-3.074776,4.229583
192,1747638481600,2.3349228,1.6865313,0.68564975,-0.65719527,-2.0167122,3.0030015
193,1747638481610,2.1903259999999998,1.7011816,0.74800095,-0.70831555,-1.89332105,2.8127226
194,1747638481620,2.0457292,1.7158319,0.81035215,-0.75943583,-1.7699299,2.6224437
195,1747638481630,1.6364673,1.653816,1.0431706,-0.6341358,-1.7345008,1.9211147
196,1747638481640,1.6364673,1.653816,1.0431706,-0.6341358,-1.7345008,1.9211147
197,1747638481650,1.3199246,1.651133,1.0456402,-0.5207473,-1.594006,1.3799039
198,1747638481660,1.13506625,1.62331125,1.0725931,-0.499902125,-1.3686033,1.073564015
199,1747638481670,0.9502079,1.5954895,1.099546,-0.47905695,-1.1432006,0.76722413
200,1747638481680,0.56070346,1.5430473,1.2520853,-0.41797224,-0.81212145,0.43492326
201,1747638481690,0.50957242,1.5269335499999999,1.24415795,-0.20829891685,-0.577861515,0.09193252000000002
202,1747638481700,0.45844138,1.5108198,1.2362306,0.0013744063,-0.34360158,-0.25105822
203,1747638481710,0.3940169,1.479812,1.1490915,0.16462334,-0.21043688,-0.5822138
204,1747638481720,0.396578035,1.4415018,1.0595283,0.16993007,-0.03875062499999998,-0.8772530000000001
205,1747638481730,0.39913917,1.4031916,0.9699651,0.1752368,0.13293563,-1.1722922
206,1747638481740,0.55509335,1.3255956,0.91724867,-0.044744562,0.5580853,-1.7923023
207,1747638481750,0.65173009,1.2871483000000001,0.925557085,-0.068720316,0.7080483,-1.97494565
208,1747638481760,0.74836683,1.248701,0.9338655,-0.09269607,0.8580113,-2.157589
209,1747638481770,0.9567936,1.1911061,0.877978,-0.075286925,1.0266051,-2.4025385
210,1747638481780,1.0558848,1.1863497,0.8495465,-0.0734162025,1.2999593,-2.7620604
211,1747638481790,1.154976,1.1815933,0.821115,-0.07154548,1.5733135,-3.1215823
212,1747638481800,1.5454255,1.1715927,0.8459944,-0.13011047,1.8952299,-3.613925
213,1747638481810,1.5454255,1.1715927,0.8459944,-0.13011047,1.8952299,-3.613925
214,1747638481820,1.7189418,1.1891547,0.8857834,-0.104531236,1.9715859,-3.7874057
215,1747638481830,2.0524369,1.2086833000000001,0.93616743,0.105142082,2.18354985,-4.041518099999999
216,1747638481840,2.385932,1.2282119,0.98655146,0.3148154,2.3955138,-4.2956305
217,1747638481850,2.6641493,1.216016,0.9067602,0.48486,2.7204847,-4.5002646
218,1747638481860,2.9102764,1.1995364,0.841604,0.75031135,3.1972891,-4.75010105
219,1747638481870,3.1564035,1.1830568,0.7764478,1.0157627,3.6740935,-4.9999375
220,1747638481880,3.5824957,0.9560924,0.32764107,1.3983058,3.8781166,-5.731198
221,1747638481890,3.5734708499999996,0.8815453499999999,0.203060627,1.3419169499999999,3.9831823,-5.923004000000001
222,1747638481900,3.564446,0.8069983,0.078480184,1.2855281,4.088248,-6.11481
223,1747638481910,3.3579702,0.5309761,0.07015654,1.1260206,4.4181056,-6.3096704
224,1747638481920,3.29525325,0.35075216499999995,0.21611017,1.3073277,4.76445605,-6.4153471
225,1747638481930,3.2325363,0.17052823,0.3620638,1.4886348,5.1108065,-6.5210238
226,1747638481940,3.14247,-0.013019053,0.3942608,2.0189266,4.9147243,-6.588217
227,1747638481950,2.9172129,-0.2626677615,0.295428825,2.82020545,4.35152315,-6.6398335
228,1747638481960,2.6919558,-0.51231647,0.19659685,3.6214843,3.788322,-6.69145
229,1747638481970,2.1060069,-0.81544393,-0.41328633,4.1903358,2.4236128,-6.319444
230,1747638481980,2.1060069,-0.81544393,-0.41328633,4.1903358,2.4236128,-6.319444
231,1747638481990,1.7279972,-0.8703556,-0.6685451,3.8732297,2.1713328,-6.027459
232,1747638482000,1.4514871,-0.93014574,-0.7344636,3.3510318,2.0381682,-5.667059
233,1747638482010,1.1966857,-0.90011346,-0.7190664,2.9154975,1.9599798,-5.370111
234,1747638482020,0.5043282,-0.8530071,-0.38913855,2.4874463,1.9050035,-5.03781
235,1747638482030,0.5043282,-0.8530071,-0.38913855,1.8793479,1.774893,-4.306626
236,1747638482040,0.5043282,-0.8530071,-0.38913855,1.8793479,1.774893,-4.306626
237,1747638482050,0.072138354,-1.0221329,-0.17876044,1.9310409,0.97407234,-3.0959265
238,1747638482060,-0.02353796300000001,-1.03214865,-0.281617045,1.85006545,0.52139633,-2.4083798
239,1747638482070,-0.11921428,-1.0421644,-0.38447365,1.76909,0.06872032,-1.7208331
240,1747638482080,-0.106012285,-1.0116444,-0.47966215,1.00576,-0.2403684,-0.73431474
241,1747638482090,-0.106012285,-1.0116444,-0.47966215,1.00576,-0.2403684,-0.73431474
242,1747638482100,-0.106012285,-1.0116444,-0.47966215,1.00576,-0.2403684,-0.73431474
243,1747638482110,-0.332245,-0.8854785,-0.38889465,0.38208497,-0.24342263,-0.11728267
244,1747638482120,-0.38788849999999997,-0.82654215,-0.325430575,0.089221885,-0.39643987999999997,0.375060215
245,1747638482130,-0.443532,-0.7676058,-0.2619665,-0.2036412,-0.54945713,0.8674031
246,1747638482140,-0.3939864,-0.75321466,-0.21144526,-0.40178478,-0.6807893,1.3120999
247,1747638482150,-0.2799629785,-0.7452721375,-0.18582638499999998,-0.545066655,-0.8002099,1.6505093
248,1747638482160,-0.165939557,-0.7373296149999999,-0.16020751,-0.68834853,-0.9196305,1.9889187
249,1747638482170,-0.0086590415,-0.7463545,-0.19827376,-1.1824476,-1.2189457,2.697578
250,1747638482180,0.017699202749999997,-0.7506383000000001,-0.2135338,-1.3242023,-1.1981769,2.835324
251,1747638482190,0.044057447,-0.7549221,-0.22879384,-1.465957,-1.1774081,2.97307
252,1747638482200,0.18684018,-0.82715195,-0.23903833,-1.7121285,-1.1205993,3.1972508
253,1747638482210,0.18684018,-0.82715195,-0.23903833,-1.7121285,-1.1205993,3.1972508
254,1747638482220,0.42990315,-0.96770895,-0.07966928,-2.391238,-1.0949438,3.9992933
255,1747638482230,0.42990315,-0.96770895,-0.07966928,-2.5314274,-1.2800305,4.412226
256,1747638482240,0.615981075,-1.0215230750000002,-0.047335077499999996,-2.5398647,-1.5375026,4.77816165
257,1747638482250,0.802059,-1.0753372,-0.015000875,-2.548302,-1.7949747,5.1440973
258,1747638482260,1.5727748,-1.1756479,-0.007927292,-2.1581998,-2.4766803,5.9950075
259,1747638482270,1.7459251,-1.1570949499999998,-0.056375241,-2.1183419,-2.4904243,6.0814426
260,1747638482280,1.9190754,-1.138542,-0.10482319,-2.078484,-2.5041683,6.1678777
261,1747638482290,2.12297445,-1.04019788,-0.129092905,-2.2277216500000003,-2.4030731,6.34868835
262,1747638482300,2.3268735,-0.94185376,-0.15336262,-2.3769593,-2.3019779,6.529499
263,1747638482310,3.121493,-0.52356714,0.13753851,-2.8772433,-2.2036314,7.1556177
264,1747638482320,3.30990355,-0.37663782500000004,0.210500085,-2.861513975,-2.24929225,7.1747066749999995
265,1747638482330,3.4983141,-0.22970851,0.28346166,-2.8457846499999997,-2.2949531,7.19379565
266,1747638482340,3.930016,0.16269243,0.25565517,-2.652986,-2.7351449,7.216091
267,1747638482350,4.0565629,0.29826435500000004,0.316298945,-2.66386675,-2.6865826,7.03619665
268,1747638482360,4.1831098,0.43383628,0.37694272,-2.6747475,-2.6380203,6.8563023
269,1747638482370,4.251681,0.7125416,0.6646729,-2.5644896,-2.6080887,6.485518
270,1747638482380,4.1921347,0.8659194,0.8231729999999999,-2.2769332,-2.65756735,6.1061818500000005
271,1747638482390,4.1325884,1.0192972,0.9816731,-1.9893768,-2.707046,5.7268457
272,1747638482400,3.4292245,1.3321813,1.0478356,-0.6423059,-2.4357533,4.489193
273,1747638482410,3.4292245,1.3321813,1.0478356,-0.6423059,-2.4357533,4.489193
274,1747638482420,3.4292245,1.3321813,1.0478356,-0.6423059,-2.4357533,4.489193
275,1747638482430,3.02167025,1.4570056500000002,0.8259933349999999,-0.17340427000000003,-2.02068265,4.027087
276,1747638482440,2.614116,1.58183,0.60415107,0.29549736,-1.605612,3.564981
277,1747638482450,1.8321801,1.5520722,0.3764549,0.2680856,-1.5054331,3.0860767
278,1747638482460,1.6729482,1.5180306,0.362780325,0.021952329999999992,-1.5985873000000002,2.57078885
279,1747638482470,1.5137163,1.483989,0.34910575,-0.22418094,-1.6917415,2.055501
280,1747638482480,1.0717393,1.3992889,0.46600276,-0.41484165,-1.62577,1.8191031
281,1747638482490,0.95472035,1.3659789999999998,0.52335368,-0.62046811,-1.4532056500000001,1.53566995
282,1747638482500,0.8377014,1.3326691,0.5807046,-0.82609457,-1.2806413,1.2522368
283,1747638482510,0.64076906,1.2550733,0.7334879,-0.8977164,-1.1884034,0.94070476
284,1747638482520,0.545580595,1.2004054000000002,0.8654010999999999,-0.77123285,-1.19970405,0.73179501
285,1747638482530,0.45039213,1.1457375,0.9973143,-0.6447493,-1.2110047,0.52288526
286,1747638482540,0.2839495,1.1242424,0.9956069,0.061848287,-0.9813261,-0.17531316
287,1747638482550,0.253810545,1.1362096,0.95008597,0.0995299235,-0.82617092,-0.29232859
288,1747638482560,0.22367159,1.1481768,0.90456504,0.13721156,-0.67101574,-0.40934402
289,1747638482570,0.33203158,1.2055277,0.89456433,-0.041003123,-0.24525517,-0.7697439
290,1747638482580,0.49432764,1.2282119,0.9871764650000001,-0.13259203149999998,0.07792121500000002,-1.1405282
291,1747638482590,0.6566237,1.2508961,1.0797886,-0.22418094,0.4010976,-1.5113125
292,1747638482600,0.6566237,1.2508961,1.0797886,-0.22418094,0.4010976,-1.5113125
293,1747638482610,0.7701059,1.2750744,1.1937587,-0.18058172,0.7737144,-1.8857619
294,1747638482620,0.8778561,1.3063109499999999,1.2107261500000002,-0.06780404500000001,0.9664367500000001,-2.2150086
295,1747638482630,0.9856063,1.3375475,1.2276936,0.04497363,1.1591591,-2.5442553
296,1747638482640,1.4575851,1.6091793,1.0922284,0.10483666,1.8384212,-3.3506498
297,1747638482650,1.4575851,1.6091793,1.0922284,0.10483666,1.8384212,-3.3506498
298,1747638482660,1.6155973499999998,1.7538981,1.0871061499999999,-0.04566083000000001,2.0436658000000003,-3.62675285
299,1747638482670,1.7736096,1.8986169,1.0819839,-0.19615832,2.2489104,-3.9028559
300,1747638482680,3.497826,2.2087874,0.9018819,-1.2404017,4.3741245,-5.234503
301,1747638482690,3.497826,2.2087874,0.9018819,-1.427321,5.33777425,-5.742766
302,1747638482700,3.497826,2.2087874,0.9018819,-1.6142403,6.301424,-6.251029
303,1747638482710,3.803606,1.7138804,1.6789393,-1.310191,6.9916816,-6.7103863
304,1747638482720,3.7290437,1.5078928500000002,1.9481166499999998,0.085175,6.7751363,-6.791017999999999
305,1747638482730,3.6544814,1.3019053,2.217294,1.480541,6.558591,-6.8716497
306,1747638482740,4.047157,0.16220458,1.1161627,4.8582973,4.4914074,-7.0500174
307,1747638482750,4.0099444,0.012363524999999986,0.85954713,5.09568785,4.270891450000001,-7.14744735
308,1747638482760,3.9727318,-0.13747753,0.60293156,5.3330784,4.0503755,-7.2448773
309,1747638482770,3.210096,-0.8552023,-0.66220325,4.4757543,3.4810658,-7.801359
310,1747638482780,3.210096,-0.8552023,-0.66220325,4.4757543,3.4810658,-7.801359
311,1747638482790,2.6661007,-1.0470427,-0.7844665,3.6918845,3.4297547,-7.638263
312,1747638482800,2.2365787,-1.10049095,-0.718456535,3.3195921750000004,3.244667925,-7.254803775
313,1747638482810,1.8070567,-1.1539392,-0.65244657,2.9472998500000003,3.05958115,-6.87134455
314,1747638482820,1.6469558,-1.1461035,-0.66147155,2.4376624,2.4144502,-5.883299
315,1747638482830,1.54922145,-1.1142571000000001,-0.623771175,1.8887015999999999,1.9544822000000002,-5.10320885
316,1747638482840,1.4514871,-1.0824107,-0.5860708,1.3397408,1.4945142,-4.3231187
317,1747638482850,1.306753,-1.0499698,-0.44331855,1.0388222,1.2849935,-4.0048676
318,1747638482860,1.1070005,-1.0228798,-0.320308325,0.96093912,1.00186582,-3.7015818
319,1747638482870,0.907248,-0.9957898,-0.1972981,0.88305604,0.71873814,-3.398296
320,1747638482880,0.5026208,-1.0653365,-0.113116354,0.7615738,0.37788537,-2.0684052
321,1747638482890,0.457115075,-1.06826355,-0.0845628585,0.750960325,0.37544198500000003,-1.84544595
322,1747638482900,0.41160935,-1.0711906,-0.056009363,0.74034685,0.3729986,-1.6224867
323,1747638482910,0.2080609,-1.0658244,-0.07357136,0.95719767,0.12743801,-0.47836977
324,1747638482920,0.16327171,-1.0375147999999998,-0.12970269,0.979302685,0.11396118999999999,-0.2517072535
325,1747638482930,0.11848252,-1.0092052,-0.18583402,1.0014077,0.10048437,-0.025044737
326,1747638482940,-0.005000292,-0.93990237,-0.42694563,0.9142093,0.111479625,0.40132666
327,1747638482950,-0.0113421255,-0.933438585,-0.4491573,0.704535975,0.1157555525,0.74706618
328,1747638482960,-0.017683959,-0.9269748,-0.47136897,0.49486265,0.12003148,1.0928057
329,1747638482970,0.067503944,-0.9145046,-0.45770964,-0.26281703,-0.24708772,1.8026103
330,1747638482980,0.115692727,-0.925862,-0.41926227,-0.412970935,-0.39155311,1.92752855
331,1747638482990,0.16388151,-0.9372194,-0.3808149,-0.56312484,-0.5360185,2.0524468
332,1747638483000,0.21123183,-0.9713676,-0.26343,-1.0017895,-0.7650862,2.5021067
333,1747638483010,0.21123183,-0.9713676,-0.26343,-1.0017895,-0.7650862,2.5021067
334,1747638483020,0.20171909,-1.0001804,-0.10555494,-1.2435323,-0.8170082,2.9663506
335,1747638483030,0.233199585,-1.01207895,-0.10720137625000001,-1.3441693749999999,-0.988503575,3.411811
336,1747638483040,0.26468008,-1.0239775,-0.1088478125,-1.44480645,-1.1599989499999999,3.8572714
337,1747638483050,0.69125986,-1.0541164,-0.061131615,-1.5494905,-1.4926053,4.5698247
338,1747638483060,0.98144448,-1.0432468,-0.019391374500000003,-1.55914945,-1.90401095,5.1327586
339,1747638483070,1.2716291,-1.0323772,0.022348866,-1.5688084,-2.3154166,5.6956925
340,1747638483080,1.655249,-0.9755142,0.05137495,-1.5749933,-2.643518,6.0646443
341,1747638483090,1.9339543,-0.852153375,0.0355203655,-1.716748,-2.7311745,6.3541858
342,1747638483100,2.2126596,-0.72879255,0.019665781,-1.8585027,-2.818831,6.6437273
343,1747638483110,3.1502752,-0.13211136,0.12238518,-2.9513848,-2.4803452,7.3767443
344,1747638483120,3.35088145,0.009070654999999983,0.19975251500000002,-3.2102696,-2.3774175499999997,7.47967195
345,1747638483130,3.5514877,0.15025267,0.27711985,-3.4691544,-2.2744899,7.5825996
346,1747638483140,3.8690062,0.32303715,0.5028647,-3.7770214,-2.1559854,7.558166
347,1747638483150,4.0283754,0.480698775,0.8923691499999999,-3.4992576,-2.14880795,6.922121325
348,1747638483160,4.1877446,0.6383604,1.2818736,-3.2214938,-2.1416304999999998,6.28607665
349,1747638483170,3.9166005,0.9565802,1.6086304,-2.8741126,-2.209129,6.031048
350,1747638483180,3.7427183499999996,1.0966646,1.6151095,-2.8741126,-2.209129,6.031048
351,1747638483190,3.5688362,1.236749,1.6215886,-2.8741126,-2.209129,6.031048
352,1747638483200,3.3338225,1.6701889,1.0602753,-0.8067765,-2.5194395,5.417146
353,1747638483210,3.2339995999999998,1.7134993,1.0557628000000001,-0.7133168750000001,-2.33007685,5.049072499999999
354,1747638483220,3.1341767,1.7568097,1.0512503,-0.61985725,-2.1407142,4.680999
355,1747638483230,2.8557153499999997,1.79060745,1.0334292,-0.38120686000000004,-2.1181128,4.1700251999999995
356,1747638483240,2.577254,1.8244052,1.0156081,-0.14255647,-2.0955114,3.6590514
357,1747638483250,2.340045,1.8354119,0.87627065,0.040010497,-1.7644323,2.5442553
358,1747638483260,1.98484135,1.7981840999999998,0.687006545,-0.0503567215,-1.57842935,2.3166765
359,1747638483270,1.6296377,1.7609563,0.49774244,-0.14072394,-1.3924264,2.0890977
360,1747638483280,1.3592256,1.7016541,0.5235976,-0.27717194,-1.1682454,1.6578394
361,1747638483290,1.13652973,1.62405815,0.5578984,-0.28152422,-1.05401695,1.31332158
362,1747638483300,0.91383386,1.5464622,0.5921992,-0.2858765,-0.9397885,0.96880376
363,1747638483310,0.70909625,1.4605426,0.5763141,-0.17684028,-0.7534801,0.5326588
364,1747638483320,0.495547205,1.4075821,0.52067061,-0.142251055,-0.632226925,0.2602209275
365,1747638483330,0.28199816,1.3546216,0.46502712,-0.10766183,-0.51097375,-0.012216945
366,1747638483340,0.10262794,1.2680008,0.45234346,-0.23166382,-0.56900424,-0.66101307
367,1747638483350,0.07944061,1.2589606500000001,0.48394592999999997,-0.27404136,-0.5274666100000001,-0.816779135
368,1747638483360,0.05625328,1.2499205,0.5155484,-0.3164189,-0.48592898,-0.9725452
369,1747638483370,0.064820856,1.2252849,0.57728976,-0.38865158,-0.34115818,-1.2663627
370,1747638483380,0.12631835,1.1935452,0.65906286,-0.43790114,-0.1615691,-1.5888901
371,1747638483390,0.34349567,1.198942,0.8186758,-0.45347774,-0.019241689,-1.849111
372,1747638483400,0.41293567499999995,1.2034544,0.86905985,-0.44473499,0.3011858755,-2.2492159
373,1747638483410,0.48237568,1.2079668,0.9194439,-0.43599224,0.62161344,-2.6493208
374,1747638483420,0.6654047,1.2216262,0.9853319,-0.37437302,0.79753745,-2.8765562
375,1747638483430,0.8191484,1.2208944000000002,0.9954697,-0.25254717,1.001865875,-3.2253881
376,1747638483440,0.9728921,1.2201626,1.0056075,-0.13072132,1.2061943,-3.57422
377,1747638483450,1.1493354,1.2594638,0.96679425,-0.034741938,1.4236559,-4.0207496
378,1747638483460,1.36886035,1.3665889,0.920190875,-0.060932014,1.6875419,-4.3506069499999995
379,1747638483470,1.5883853,1.473714,0.8735875,-0.08712209,1.9514279,-4.6804643
380,1747638483480,1.9488332,1.7233932,0.84257966,-0.36811182,2.8182964,-5.036588
381,1747638483490,2.15591845,1.8092976,0.84465295,-0.5949270600000001,3.3414872,-5.1007272
382,1747638483500,2.3630037,1.895202,0.84672624,-0.8217423,3.864678,-5.1648664
383,1747638483510,2.878674,1.8349241,1.0588118,-1.4248776,5.8805504,-5.624834
384,1747638483520,2.878674,1.8349241,1.0588118,-1.4248776,5.8805504,-5.624834
385,1747638483530,2.8679419,1.7409552,1.1442132,-1.506502,6.81026,-5.920561
386,1747638483540,2.7566547,1.4295651,2.0393872,-0.46157146,8.402815,-6.0085225
387,1747638483550,2.7566547,1.4295651,2.0393872,-0.46157146,8.402815,-6.0085225
388,1747638483560,2.9972785,1.1076561,2.3176045,0.99392486,7.613524,-5.672557
389,1747638483570,3.27695945,0.716078375,2.13370675,2.49931968,6.5857735,-5.4461997
390,1747638483580,3.5566404,0.32450065,1.949809,4.0047145,5.558023,-5.2198424
391,1747638483590,3.3487012,-0.40371257,0.45380697,6.375489,3.4034882,-5.7000446
392,1747638483600,3.1557785,-0.528186285,0.09860332499999996,6.2963845,3.2681855,-5.7476908
393,1747638483610,2.9628558,-0.65266,-0.25660032,6.21728,3.1328828,-5.795337
394,1747638483620,2.4755104,-0.81666344,-0.7308048,5.7997656,3.0632463,-5.723257
395,1747638483630,1.9049283,-0.8857223949999999,-0.9420214,4.6829078,2.98444705,-5.1258099999999995
396,1747638483640,1.3343462,-0.95478135,-1.153238,3.56605,2.9056478,-4.528363
397,1747638483650,1.1754649,-1.0240841,-0.9331032,2.276246,2.3234339,-3.7880166
398,1747638483660,1.08419432,-1.0877921000000002,-0.6480561,1.84349885,2.01648315,-3.4835092000000003
399,1747638483670,0.99292374,-1.1515001,-0.363009,1.4107517,1.7095324,-3.1790018
400,1747638483680,0.570704,-1.2339745,0.08238286,1.6232502,0.69613683,-2.1478152
401,1747638483690,0.5284911800000001,-1.2825444,0.031373784,1.6790281999999999,0.361048919,-1.8967570500000002
402,1747638483700,0.48627836,-1.3311143,-0.019635292,1.7348062,0.025961008,-1.6456989
403,1747638483710,0.36523473,-1.4009049,-0.31712216,1.1871053,-0.6801784,-0.7929561
404,1747638483720,0.36523473,-1.4009049,-0.31712216,1.1871053,-0.6801784,-0.7929561
405,1747638483730,0.31325,-1.3799281,-0.2531855,0.26121357,-0.7461499,-0.1227803
406,1747638483740,0.31325,-1.3799281,-0.2531855,-0.07011381249999998,-0.710873485,0.12216945
407,1747638483750,0.31325,-1.3799281,-0.2531855,-0.401441195,-0.67559707,0.3671192
408,1747638483760,0.2388249,-1.3208698,-0.07601053,-0.91146046,-0.7302679,0.9126058
409,1747638483770,0.17952266,-1.2736414,-0.050627953,-1.01549538,-1.08883525,1.3524158
410,1747638483780,0.12022042,-1.226413,-0.025245376,-1.1195303,-1.4474026,1.7922258
411,1747638483790,0.13802634,-1.1985761,-0.049911447,-1.173743,-1.8493401,2.267465
412,1747638483800,0.20098734499999998,-1.2012591499999998,-0.052960405,-1.2622395,-2.13674375,2.7803095
413,1747638483810,0.26394835,-1.2039422,-0.056009363,-1.350736,-2.4241474,3.293154
414,1747638483820,0.7100719,-1.2190956,-0.12726352,-1.9862462,-2.7736282,4.75369
415,1747638483830,0.7100719,-1.2190956,-0.12726352,-1.9862462,-2.7736282,4.75369
416,1747638483840,0.7100719,-1.2190956,-0.12726352,-1.9862462,-2.7736282,4.75369
417,1747638483850,1.6179298,-1.1195166,0.09067602,-2.7096422,-3.0094154,6.3633485
418,1747638483860,1.8689200000000001,-1.04739345,0.17926351000000001,-2.7691616,-3.10745635,6.6232641
419,1747638483870,2.1199102,-0.9752703,0.267851,-2.828681,-3.2054973,6.8831797
420,1747638483880,2.7017431,-0.8286154,0.39060205,-2.7962296,-3.7375453,7.3883505
421,1747638483890,3.080134125,-0.5441170975,0.37693509000000003,-2.8697604,-3.936376,7.526401999999999
422,1747638483900,3.45852515,-0.259618795,0.36326813,-2.9432912,-4.1352067,7.6644535
423,1747638483910,3.8446147,0.33474514,0.54753196,-4.0748096,-3.6966186,8.102507
424,1747638483920,3.8446147,0.33474514,0.54753196,-4.0748096,-3.6966186,8.102507
425,1747638483930,4.137467,0.64226305,0.98999685,-4.5682974,-3.2519217,8.275988
426,1747638483940,4.380164000000001,0.875325425,1.536659825,-4.19820035,-3.1667085,7.898446
427,1747638483950,4.622861,1.1083878,2.0833228,-3.8281033,-3.0814953,7.520904
428,1747638483960,3.8333638,1.7792807,2.0615835,-0.87221354,-3.6135433,5.5875726
429,1747638483970,3.55150285,1.8496811,1.7917964999999998,-0.413619955,-3.5848335000000002,5.3502583
430,1747638483980,3.2696419,1.9200815,1.5220095,0.04497363,-3.5561237,5.112944
431,1747638483990,2.9245608,2.0262463,1.1735137,0.4711923,-3.1975563,4.781789
432,1747638484000,2.78386665,2.12129745,0.877353065,0.37742725,-3.1315847999999997,4.695354
433,1747638484010,2.6431725,2.2163486,0.58119243,0.2836622,-3.0656133,4.608919
434,1747638484020,2.5003898,2.1372895,0.43502536,-0.3986542,-2.6062562,3.7873294
435,1747638484030,2.1500644500000003,2.0623613,0.5348330299999999,-0.75474,-2.2372663,3.11570285
436,1747638484040,1.7997391,1.9874331,0.6346407,-1.1108258,-1.8682764,2.4440763
437,1747638484050,1.1012838,1.8124534,0.8581903,-1.0790616,-1.4974921,1.4892457
438,1747638484060,0.877246325,1.76219125,0.912614225,-0.9295186,-1.4730582,1.2632322
439,1747638484070,0.65320885,1.7119291,0.96703815,-0.7799756,-1.4486243,1.0372187
440,1747638484080,0.4782291,1.6862874,0.96898943,-0.33069745,-1.3117945,0.3695626
441,1747638484090,0.36596647,1.6801896,0.9304506,-0.33069745,-1.3117945,0.3695626
442,1747638484100,0.25541124,1.664091,0.88139284,-0.2702999,-0.8371662,-0.5925982
443,1747638484110,-0.057960697,1.5715857,0.96655035,-0.36811182,-0.5207473,-0.937116
444,1747638484120,-0.057960697,1.5715857,0.96655035,-0.36811182,-0.5207473,-0.937116
445,1747638484130,-0.059912033,1.5486574,1.1068939,-0.4130091,-0.21104772,-1.2358204
446,1747638484140,0.024162993500000007,1.5081368,1.2042624,-0.32077117,0.07608865999999997,-1.4905437
447,1747638484150,0.10823802,1.4676162,1.3016309,-0.22853324,0.36322504,-1.745267
448,1747638484160,0.4979864,1.3675493,1.4314555,0.12720895,0.69552594,-2.2522702
449,1747638484170,0.63880255,1.3580366000000001,1.3555669,0.418812155,0.95819027,-2.7385428000000003
450,1747638484180,0.7796187,1.3485239,1.2796783,0.71041536,1.2208546,-3.2248154
451,1747638484190,1.0190228,1.3980694,1.0817399,0.8874084,1.7364097,-3.8539882
452,1747638484200,1.2113359,1.4229641,1.03672205,0.88523222,2.0045717,-4.0311339
453,1747638484210,1.403649,1.4478588,0.9917042,0.88305604,2.2727337,-4.2082796
454,1747638484220,1.7726339,1.4864283,0.96459895,0.93849045,2.6490154,-4.450175
455,1747638484230,2.14139025,1.5282752,0.927874275,1.061843425,2.9236295,-4.686573
456,1747638484240,2.5101466,1.5701221,0.8911496,1.1851964,3.1982436,-4.922971
457,1747638484250,3.265465,1.6491816,0.487498,1.507342,3.5262685,-5.863141
458,1747638484260,3.36992225,1.6141643499999998,0.41781404,1.46217745,3.6957785999999997,-6.0192125
459,1747638484270,3.4743795,1.5791471,0.34813008,1.4170129,3.8652887,-6.175284
460,1747638484280,3.7745495,1.1161932,0.3293485,1.350965,4.442539,-6.747648
461,1747638484290,3.7745495,1.1161932,0.3293485,1.350965,4.442539,-6.747648
462,1747638484300,3.558348,0.4426173,0.5350922,1.6973919,4.4150515,-7.171576
463,1747638484310,3.4338741500000003,0.336223895,0.58511035,2.11796015,4.0839720999999995,-7.26045415
464,1747638484320,3.3094003,0.22983049,0.6351285,2.5385284,3.7528927,-7.3493323
465,1747638484330,2.8940408,-0.13162352,0.5014012,3.7784722,2.5256243,-7.0854464
466,1747638484340,2.7825099,-0.217649885,0.38145517500000004,4.01838245,2.16950035,-6.94922735
467,1747638484350,2.670979,-0.30367625,0.26150915,4.2582927,1.8133764,-6.8130083
468,1747638484360,2.5191712,-0.43374482,-0.10579886,4.395962,0.931313,-6.558285
469,1747638484370,2.29147505,-0.508063185,-0.36778060500000004,3.9190049,0.5565582099999999,-6.46543635
470,1747638484380,2.0637789,-0.58238155,-0.62976235,3.4420478,0.18180342,-6.3725877
471,1747638484390,1.3675189,-0.7258655,-0.46673456,1.4619102,0.2966427,-5.975537
472,1747638484400,1.2652721,-0.822883375,-0.35776478,1.139153785,0.3586437,-5.805683200000001
473,1747638484410,1.1630253,-0.91990125,-0.248795,0.81639737,0.4206447,-5.6358294
474,1747638484420,0.8037664,-1.1639398,0.18510225,0.34528142,0.31252474,-4.9993267
475,1747638484430,0.7093248999999999,-1.2131043,0.23574546000000002,0.54529571,0.186957445,-4.298074
476,1747638484440,0.6148834,-1.2622688,0.28638867,0.74531,0.06139015,-3.5968213
477,1747638484450,0.1768091,-1.2996185,0.44526988,0.74531,0.06139015,-3.5968213
478,1747638484460,0.02013836499999999,-1.28094365,0.33300723,0.9203941,-0.0012216950000000018,-2.99296065
479,1747638484470,-0.13653237,-1.2622688,0.22074458,1.0954782,-0.06383354,-2.3891
480,1747638484480,-0.31468302,-1.3105948,-0.21976891,0.95719767,-0.4407263,-0.97804284
481,1747638484490,-0.31468302,-1.3105948,-0.21976891,0.95719767,-0.4407263,-0.97804284
482,1747638484500,-0.3795953,-1.3276994,-0.38889465,0.5621322,-0.60137916,-0.37880164
483,1747638484510,-0.4066853,-1.34367595,-0.428180475,0.08234984999999995,-0.60137916,0.189019055
484,1747638484520,-0.4337753,-1.3596525,-0.4674663,-0.3974325,-0.60137916,0.75683975
485,1747638484530,-0.408408,-1.3337973,-0.20388384,-1.4030398,-0.49997848,2.4752295
486,1747638484540,-0.39705825,-1.33282165,-0.19107059250000002,-1.4709584,-0.539988965,2.83746195
487,1747638484550,-0.3857085,-1.331846,-0.178257345,-1.538877,-0.57999945,3.1996944
488,1747638484560,-0.09771912,-1.3452613,-0.09284078,-1.6721944,-0.8090672,4.5221786
489,1747638484570,0.07189443499999999,-1.3477005,-0.060994412,-1.64230105,-0.9862129,4.925375799999999
490,1747638484580,0.24150799,-1.3501397,-0.029148044,-1.6124077,-1.1633586,5.328573
491,1747638484590,0.7175113500000001,-1.2986581,-0.023919079000000003,-1.4398433,-1.594006,5.8551235
492,1747638484600,0.9217153250000001,-1.2497147,-0.11634062949999999,-1.28529895,-1.9669282,6.26897265
493,1747638484610,1.1259193,-1.2007713,-0.20876218,-1.1307546,-2.3398504,6.6828218
494,1747638484620,1.6037521,-1.1453718,-0.4220673,-1.5351355,-2.385664,7.498914
495,1747638484630,1.8739203,-1.0770446,-0.331528485,-1.78126885,-2.2949531,7.8535485000000005
496,1747638484640,2.1440885,-1.0087174,-0.24098967,-2.0274022,-2.2042422,8.208183
497,1747638484650,3.055605,-0.70708394,0.13363585,-2.0049534,-2.4607983,8.727404
498,1747638484660,3.055605,-0.70708394,0.13363585,-2.0049534,-2.4607983,8.727404
499,1747638484670,3.4341028,-0.47865596,0.20391434,-1.4629028,-2.8316588,8.572248
500,1747638484680,3.80603015,-0.02631251499999998,0.0798064875,-1.53047775,-2.68776605,8.496808999999999
501,1747638484690,4.1779575,0.42603093,-0.044301365,-1.5980527,-2.5438733,8.42137
502,1747638484700,4.3258624,0.7149807,0.032837283,-1.8815622,-2.2524993,8.161759
503,1747638484710,4.308528900000001,0.90814745,0.2277114415,-2.0155286500000003,-2.1211671,7.78269035
504,1747638484720,4.2911954,1.1013142,0.4225856,-2.1494951,-1.9898349,7.4036217
505,1747638484730,3.6635063,1.4073381,0.8364817,-1.5071129,-1.9757855,6.466582
506,1747638484740,3.57065035,1.4334524499999999,0.90480885,-1.34042795,-1.99044585,6.3279195
507,1747638484750,3.4777944,1.4595668,0.973136,-1.173743,-2.0051062,6.189257
508,1747638484760,2.8737957,1.5376507,0.94020736,-0.15500249,-1.6886872,4.9387765
509,1747638484770,2.66036865,1.5762200499999999,0.92323988,0.030962319999999988,-1.5979763999999999,4.68710725
510,1747638484780,2.4469416,1.6147894,0.9062724,0.21692713,-1.5072656,4.435438
511,1747638484790,1.8041297,1.7890373,0.74178106,0.48799062,-1.4883293,4.053659
512,1747638484800,1.7232255,1.83650955,0.70456853,0.61603946,-1.45625985,3.7366291499999997
513,1747638484810,1.6423213,1.8839818,0.667356,0.7440883,-1.4241904,3.4195993
514,1747638484820,1.2674825,2.241015,0.5436293,0.7608866,-1.0729532,2.2943423
515,1747638484830,1.2059698,2.30787865,0.5314182000000001,0.71854725,-1.0717314999999998,1.9971651
516,1747638484840,1.1444571,2.3747423,0.5192071,0.6762079,-1.0705098,1.6999879
517,1747638484850,0.9987778,2.4389226,0.37694272,0.24067383,-0.8029587,0.7818845
518,1747638484860,0.9987778,2.4389226,0.37694272,0.24067383,-0.8029587,0.7818845
519,1747638484870,0.96508676,2.414775,0.49993768,-0.62795097,-0.22448637,-0.37696913
520,1747638484880,0.9360454300000001,2.3311878000000004,0.67223431,-0.893058685,0.034856475,-0.959412015
521,1747638484890,0.9070041,2.2476006,0.84453094,-1.1581664,0.29419932,-1.5418549
522,1747638484900,0.8735875,2.18342,1.0043879,-1.1139563,0.7517239,-2.3420649
523,1747638484910,1.0975030000000001,2.1011743999999997,1.244158,-0.81674095,0.8561788,-2.60625625
524,1747638484920,1.3214185,2.0189288,1.4839281,-0.5195256,0.9606337,-2.8704476
525,1747638484930,1.763853,1.9576751,1.4614878,-0.016721943,1.1218973,-3.3109448
526,1747638484940,2.1326092,2.0072207,1.34471265,0.2536924785,1.4028871,-3.7571686499999997
527,1747638484950,2.5013654,2.0567663,1.2279375,0.5241069,1.6838769,-4.2033925
528,1747638484960,3.4228826,1.9210571,1.0707637,0.6145123,2.5335653,-5.257715
529,1747638484970,3.4228826,1.9210571,1.0707637,0.6145123,2.5335653,-5.257715
530,1747638484980,3.4228826,1.9210571,1.0707637,0.6145123,2.5335653,-5.257715
531,1747638484990,3.5119731,1.0344505,0.76132494,1.4382398,3.8274162,-7.2534294
532,1747638485000,3.49159095,0.875447375,0.7095840849999999,1.61145325,3.8820870000000003,-7.3346722
533,1747638485010,3.4712088,0.71644425,0.65784323,1.7846667,3.9367578,-7.415915
534,1747638485020,3.4719405,-0.07549221,0.28126642,2.4351425,3.6148415,-7.56374
535,1747638485030,3.4719405,-0.07549221,0.28126642,2.4351425,3.6148415,-7.56374
536,1747638485040,3.3743126,-0.2953831,0.12897095,3.1803763,2.956348,-7.843508
537,1747638485050,3.09867165,-0.5283235,-0.08431893500000001,3.30873065,2.5024504,-7.928416
538,1747638485060,2.8230307,-0.7612639,-0.29760882,3.437085,2.0485528,-8.013324
539,1747638485070,2.634605,-1.0035952,-0.45600224,3.215271,1.6704382,-7.930859
540,1747638485080,2.36701315,-1.1195165999999999,-0.53164687,2.69250025,1.4728291,-7.793113
541,1747638485090,2.0994213,-1.235438,-0.6072915,2.1697295,1.27522,-7.655367
542,1747638485100,1.2391577,-1.3547741,0.020641448,0.71171343,1.4786321,-6.768417
543,1747638485110,1.0879751,-1.37637605,0.176336514,0.679911195,1.4987901,-6.4697125
544,1747638485120,0.9367925,-1.397978,0.33203158,0.64810896,1.5189481,-6.171008
545,1747638485130,0.520945,-1.5797873,0.5292077,0.8331957,1.3448566,-5.7574644
546,1747638485140,0.34229129999999997,-1.5505021,0.519573,1.172445,1.01225025,-4.9999757
547,1747638485150,0.1636376,-1.5212169,0.5099383,1.5116943,0.6796439,-4.242487
548,1747638485160,0.030642033,-1.5224364,0.35691106,1.7447325,0.43347248,-3.3769164
549,1747638485170,0.0421061145,-1.4846141,0.07480619,1.6008016,0.290534225,-2.5705598
550,1747638485180,0.053570196,-1.4467918,-0.20729868,1.4568707,0.14759597,-1.7642032
551,1747638485190,-0.055033702,-1.3777328,-0.49893156,0.023212196,0.48722705,-0.46554196
552,1747638485200,-0.12128756600000001,-1.358936,-0.46379231,-0.283662202,0.53487314,-0.14816862999999997
553,1747638485210,-0.18754143,-1.3401392,-0.42865306,-0.5905366,0.58251923,0.1692047
554,1747638485220,-0.24952675,-1.3120582,-0.3044385,-0.90336674,0.5226562,0.67437536
555,1747638485230,-0.24952675,-1.3120582,-0.3044385,-0.90336674,0.5226562,0.67437536
556,1747638485240,-0.120189935,-1.3237967,-0.2016886,-1.1232717,-0.1927223,1.8013886
557,1747638485250,-0.007317497499999992,-1.32306495,-0.27844612999999996,-1.1865326,-0.571753,2.4568658
558,1747638485260,0.10555494,-1.3223332,-0.35520366,-1.2497935,-0.9507837,3.112343
559,1747638485270,0.16095452,-1.3169366,-0.43938538,-1.3937243,-1.2311627,3.641337
560,1747638485280,0.248444385,-1.35282285,-0.46647538,-1.5933950499999998,-1.42510665,4.228972000000001
561,1747638485290,0.33593425,-1.3887091,-0.49356538,-1.7930658,-1.6190506,4.816607
562,1747638485300,0.6366225,-1.4565483,-0.40792012,-1.9937291,-2.2427256,5.941864
563,1747638485310,0.9637604499999999,-1.49449265,-0.42133554500000003,-1.955093,-2.6144644,6.48857235
564,1747638485320,1.2908984,-1.532437,-0.43475097,-1.9164569,-2.9862032,7.0352807
565,1747638485330,2.2668395,-1.4889894,-0.5599717,-2.105896,-3.3044546,7.778147
566,1747638485340,2.43169665,-1.44153235,-0.5689966,-2.2479561500000003,-3.33285905,7.8526705
567,1747638485350,2.5965538,-1.3940753,-0.5780215,-2.3900163,-3.3612635,7.927194
568,1747638485360,2.8352263,-1.2610493,-0.52140236,-2.7719486,-3.2372613,8.070132
569,1747638485370,3.2202717,-0.880043785,-0.16899613049999995,-2.9909755000000002,-3.1886989999999997,8.2817905
570,1747638485380,3.6053171,-0.49903827,0.18341009900000002,-3.2100024,-3.1401367,8.493449
571,1747638485390,4.398336,0.09899968,0.58976,-3.0810373,-3.1047075,8.717019
572,1747638485400,4.51852585,0.238962115,0.7696181,-2.90625865,-2.93519735,8.435724
573,1747638485410,4.6387157,0.37892455,0.9494762,-2.73148,-2.7656872,8.154429
574,1747638485420,4.48911885,0.564042075,1.07991055,-2.2308143,-2.6780307,7.582943200000001
575,1747638485430,4.339522,0.7491596,1.2103449,-1.7301486,-2.5903742,7.0114574
576,1747638485440,3.428005,1.3927032,0.92700535,-0.059099473,-2.537765,5.7787676
577,1747638485450,3.3085468000000002,1.5501057,0.878328725,0.0708201035,-2.4861483499999997,5.66698265
578,1747638485460,3.1890886,1.7075082,0.8296521,0.20073968,-2.4345317,5.5551977
579,1747638485470,3.1505194,1.9113005,0.70616925,-0.055358034,-2.0075495,4.960767
580,1747638485480,3.1474702,2.0324661,0.72726804,-0.273735932,-1.65783945,4.4733108
581,1747638485490,3.144421,2.1536317,0.74836683,-0.49211383,-1.3081294,3.9858546
582,1747638485500,2.673906,2.2851944,1.007071,-0.7718819,-0.7308788,2.9156504
583,1747638485510,2.3704432,2.321797,1.2093846,-0.6914791250000001,-0.587940515,2.29315885
584,1747638485520,2.0669804,2.3583996,1.4116982,-0.61107635,-0.44500223,1.6706673
585,1747638485530,1.3938923,2.3825476,1.406332,0.21448374,-0.0943759,0.1887518
586,1747638485540,1.28858125,2.366693,1.3566645,0.36402678499999996,0.07089646000000001,-0.11243407000000002
587,1747638485550,1.1832702,2.3508384,1.306997,0.51356983,0.23616882,-0.41361994
588,1747638485560,0.98145974,2.2476006,1.1002777,0.9079481,0.41881216,-1.32928
589,1747638485570,1.03647817,2.18061495,1.00120175,0.95532695,0.48600538,-1.6783792499999999
590,1747638485580,1.0914966,2.1136293,0.9021258,1.0027058,0.5531986,-2.0274785
591,1747638485590,1.3711928,1.9659684999999998,0.76996869,0.857476825,0.85892758,-2.7874105
592,1747638485600,1.4208527,1.9424153,0.751240465,0.8188407375,0.92016502,-2.9181509
593,1747638485610,1.4705126,1.9188621,0.73251224,0.78020465,0.98140246,-3.0488913
594,1747638485620,2.3698332,1.8241613,0.8887104,0.051234815,1.7327446,-4.249206
595,1747638485630,2.64866055,1.7972085,0.94972005,0.0004581359999999979,1.9395164,-4.4248247
596,1747638485640,2.9274879,1.7702557,1.0107297,-0.050318543,2.1462882,-4.6004434
597,1747638485650,3.9207473,1.3104422,1.252817,0.29984966,3.1194441,-5.8374853
598,1747638485660,3.9949436499999997,1.1218032199999999,1.30858245,0.62539308,3.2917030499999997,-6.3435723500000005
599,1747638485670,4.06914,0.93316424,1.3643479,0.9509365,3.463962,-6.8496594
600,1747638485680,3.97858585,0.74694907,1.27380905,1.4512966999999999,3.44074985,-7.3407805
601,1747638485690,3.8880317,0.5607339,1.1832702,1.9516569,3.4175377,-7.8319016
602,1747638485700,3.4385235,-0.50304765,0.09018819,2.8631938,2.6722276,-8.613863
603,1747638485710,3.3524973,-0.754175075,-0.030733504999999994,2.6843683,2.6710059499999996,-8.675253000000001
604,1747638485720,3.2664711,-1.0053025,-0.1516552,2.5055428,2.6697843,-8.736643
605,1747638485730,2.956514,-1.2874227,-0.24538018,2.108034,2.7247605,-8.769629
606,1747638485740,2.62094565,-1.3948070000000001,-0.221705015,1.6833805499999999,2.95783695,-8.463251
607,1747638485750,2.2853773,-1.5021913,-0.19802985,1.2587271,3.1909134,-8.156873
608,1747638485760,1.7043067,-1.6607982,0.22537899,1.1877161,3.1652577,-6.9321237
609,1747638485770,1.6334184500000002,-1.7308479499999998,0.259298665,1.371543,3.0177381,-6.703666849999999
610,1747638485780,1.5625302,-1.8008977,0.29321834,1.5553699,2.8702185,-6.47521
611,1747638485790,1.4380717,-1.9126726,0.24784984,1.9167624,2.6123648,-6.199107
612,1747638485800,0.952418375,-2.0571474,-0.07808382000000003,2.22142245,2.1960723,-5.5866945
613,1747638485810,0.46676505,-2.2016222,-0.40401748,2.5260825,1.7797798,-4.974282
614,1747638485820,-0.36764342,-2.0883842,-0.85038495,1.9335606,1.5360518,-3.4007394
615,1747638485830,-0.36764342,-2.0883842,-0.85038495,1.9335606,1.5360518,-3.4007394
616,1747638485840,-0.7063827,-2.0002692,-0.97118473,1.3677634,1.366847,-2.261433
617,1747638485850,-0.8703861,-1.9629498,-1.0702454,0.23693238,0.70346695,0.12155861
618,1747638485860,-0.8703861,-1.9629498,-1.0702454,0.23693238,0.70346695,0.12155861
619,1747638485870,-0.82962155,-1.971487,-1.090277,-0.404839,0.22883865,1.4965758
620,1747638485880,-0.5775337,-1.9190145,-1.030487,-1.2622395,-0.7864658,3.1905315
621,1747638485890,-0.5775337,-1.9190145,-1.030487,-1.2622395,-0.7864658,3.1905315
622,1747638485900,0.038691282,-1.7935802,-0.7620262,-1.7538189,-1.3508887,4.028614
623,1747638485910,0.2739489,-1.7525718,-0.5355495,-2.475993,-1.7882553,5.3603373
624,1747638485920,0.2739489,-1.7525718,-0.5355495,-2.475993,-1.7882553,5.3603373
625,1747638485930,0.49018103,-1.7166854,-0.30492634,-2.434837,-1.9562384,5.8471828
626,1747638485940,0.7347227350000001,-1.7047336,-0.25574664,-2.1030707,-2.25834055,6.5148387
627,1747638485950,0.97926444,-1.6927818,-0.20656694,-1.7713044,-2.5604427,7.1824946
628,1747638485960,1.8509921,-1.6456753,-0.24391668,-1.3856306,-3.3478248,8.196578
629,1747638485970,2.139698,-1.58112885,-0.27771438000000004,-1.3622657,-3.4754918999999997,8.2430025
630,1747638485980,2.4284039,-1.5165824,-0.31151208,-1.3389008,-3.603159,8.289427
631,1747638485990,3.161526,-1.1834532,-0.33861732,-1.3718866,-3.590331,8.243002
632,1747638486000,3.22765795,-0.88157582,-0.22989146,-1.51520665,-3.2992623500000002,8.141601000000001
633,1747638486010,3.2937899,-0.57969844,-0.1211656,-1.6585267,-3.0081937,8.0402
634,1747638486020,3.4663305,-0.45228252,-0.013537374,-1.6934214,-2.874418,8.228342
635,1747638486030,3.75247525,-0.35186506,0.041008488,-1.6367270999999999,-2.7769879,8.084792799999999
636,1747638486040,4.03862,-0.2514476,0.09555435,-1.5800328,-2.6795578,7.9412436
637,1747638486050,4.050572,0.17052823,0.41035932,-1.2161205,-2.405822,7.365138
638,1747638486060,4.0763202,0.330247915,0.400358735,-1.043518,-2.45102465,7.2108989999999995
639,1747638486070,4.1020684,0.4899676,0.39035815,-0.8709155,-2.4962273,7.05666
640,1747638486080,4.172835,0.6161335,0.34325173,-0.7569161,-2.4766803,6.7353544
641,1747638486090,4.136247,0.8923996,0.3217871,-0.68834853,-2.385664,6.1312265
642,1747638486100,3.4763308,1.1840324,0.39621213,-0.7476007,-1.8499509,4.721315
643,1747638486110,3.3234408,1.21906495,0.468213265,-0.70552859,-1.836970425,4.571199249999999
644,1747638486120,3.1705508,1.2540975,0.5402144,-0.66345648,-1.82398995,4.4210835
645,1747638486130,2.9252927,1.2872702,0.5365557,-0.39491275,-1.7919204,3.676155
646,1747638486140,2.53688585,1.3729307,0.48054631999999997,-0.277133765,-1.6404303,3.1120376
647,1747638486150,2.148479,1.4585912,0.42453694,-0.15935478,-1.4889402,2.5479202
648,1747638486160,2.0184104,1.4734701,0.40865192,-0.21295662,-1.4009782,2.2778494
649,1747638486170,1.8624562500000001,1.4297938,0.48431181,-0.255334145,-1.2629267,1.8187977
650,1747638486180,1.7065021,1.3861175,0.5599717,-0.29771167,-1.1248752,1.359746
651,1747638486190,1.1320173,1.3475481,0.8189197,0.15530792,-1.1089932,0.40926766
652,1747638486200,1.04196628,1.36939385,0.80756235,0.25281441,-1.0928057500000001,0.261442625
653,1747638486210,0.95191526,1.3912396,0.796205,0.3503209,-1.0766183,0.11361759
654,1747638486220,0.85599506,1.4571277,0.76156884,0.33970743,-0.6221479,-0.27976805
655,1747638486230,0.911707155,1.47702215,0.8675963449999999,0.326306965,-0.49203745,-0.444429545
656,1747638486240,0.9674192500000001,1.4969166,0.97362385,0.3129065,-0.361927,-0.60909104
657,1747638486250,1.0104858,1.5049659,1.0395119,0.4942518,-0.0943759,-1.2010021
658,1747638486260,1.118236,1.4972824999999998,1.0736907,0.707971965,0.060206634999999994,-1.60080155
659,1747638486270,1.2259862,1.4895991,1.1078695,0.92169213,0.21478917,-2.000601
660,1747638486280,1.4800254,1.3927032,0.8630686,1.0282086,0.7346202,-3.0617192
661,1747638486290,1.54483105,1.3745162,0.834881015,0.9525017499999999,0.8152520299999999,-3.2932303000000003
662,1747638486300,1.6096367,1.3563292,0.80669343,0.8767949,0.89588386,-3.5247414
663,1747638486310,1.7587308,1.3592561,0.7735207,0.4892123,1.2074159,-4.125815
664,1747638486320,1.7587308,1.3592561,0.7735207,0.4892123,1.2074159,-4.125815
665,1747638486330,2.9206278,1.3182782,1.0790569,0.5260158,1.8121548,-4.74216
666,1747638486340,3.11989245,1.2448135,1.0795447,0.639098935,1.9251615,-4.950764250000001
667,1747638486350,3.3191571,1.1713488,1.0800325,0.75218207,2.0381682,-5.1593685
668,1747638486360,3.6249673,0.93974996,0.985088,1.1260206,2.2647927,-5.951103
669,1747638486370,3.6286261,0.70449232,0.75129387,1.2821302,2.4031495,-6.59279815
670,1747638486380,3.6322849,0.46923468,0.51749974,1.4382398,2.5415063,-7.2344933
671,1747638486390,3.4070282,0.029209021,0.08116327,0.9035958,2.9703975,-7.820296
672,1747638486400,3.44131375,-0.11929049950000001,0.039057155749999996,0.7724545249999999,3.06080295,-7.89543
673,1747638486410,3.4755993,-0.26779002,-0.0030489585,0.64131325,3.1512084,-7.970564
674,1747638486420,3.2435126,-0.7441593,-0.04600878,0.35276428,3.4053206,-8.319358
675,1747638486430,3.2435126,-0.7441593,-0.04600878,0.35276428,3.4053206,-8.319358
676,1747638486440,2.933586,-1.0460671,0.059912033,0.39078954,3.6954732,-8.172754
677,1747638486450,2.81998175,-1.1856637,0.1398404715,0.66555627,3.71349325,-8.005993
678,1747638486460,2.7063775,-1.3252603,0.21976891,0.940323,3.7315133,-7.839232
679,1747638486470,2.305165,-1.5941783,0.022348866,1.3322579,3.5916293,-7.735388
680,1747638486480,2.1116323,-1.6710578,-0.14189851700000003,1.8082988,3.10199705,-7.4883002
681,1747638486490,1.9180996,-1.7479373,-0.3061459,2.2843397,2.6123648,-7.2412124
682,1747638486500,1.5949712,-1.8514189,-0.5260368,2.165988,2.3344293,-6.762919
683,1747638486510,1.256109935,-1.8505653,-0.6180391000000001,1.8868308,2.33656715,-6.2052154999999996
684,1747638486520,0.91724867,-1.8497117,-0.7100414,1.6076736,2.338705,-5.647512
685,1747638486530,0.41551206,-1.7872385,-0.7918145,1.0879953,2.3826861,-4.6096063
686,1747638486540,0.08116328,-1.7304973000000001,-0.773139625,0.7530983,2.24494005,-3.6768043
687,1747638486550,-0.2531855,-1.6737561,-0.75446475,0.4182013,2.107194,-2.7440023
688,1747638486560,-0.5758263,-1.6644872,-0.6905281,0.35841462,1.0705862,-0.7385907
689,1747638486570,-0.5418913750000001,-1.6748537,-0.758611325,0.35963632,0.66559445,-0.14633610000000008
690,1747638486580,-0.50795645,-1.6852202,-0.82669455,0.36085802,0.2606027,0.4459185
691,1747638486590,-0.43231183,-1.6837567,-0.9716726,0.18890451,-0.3075616,1.2522368
692,1747638486600,-0.23586741,-1.6718048,-1.1322612,-0.5276193,-0.9856021,2.5393684
693,1747638486610,-0.23586741,-1.6718048,-1.1322612,-0.5276193,-0.9856021,2.5393684
694,1747638486620,-0.10552445,-1.6576272,-1.1332369,-1.9769309,-1.565907,4.137345
695,1747638486630,0.036389324999999986,-1.68154625,-0.943363,-2.12613025,-1.6636425,4.38993035
696,1747638486640,0.1783031,-1.7054653,-0.7534891,-2.2753296,-1.761378,4.6425157
697,1747638486650,0.47578993,-1.7323266,-0.408408,-2.49722,-1.9739529,5.366446
698,1747638486660,0.73411293,-1.71816425,-0.268079675,-2.2675795,-2.5048173,6.135502499999999
699,1747638486670,0.99243593,-1.7040019,-0.12775135,-2.037939,-3.0356817,6.904559
700,1747638486680,1.4014537,-1.6376262,-0.13628843,-1.5999616,-3.482211,7.4195037
701,1747638486690,1.85721195,-1.5268269499999998,-0.19156605,-1.40804105,-3.5976612,7.622037649999999
702,1747638486700,2.3129702,-1.4160277,-0.24684367,-1.2161205,-3.7131114,7.8245716
703,1747638486710,2.9343176,-0.6687586,-0.22513509,-1.682197,-3.5542912,7.5984817
704,1747638486720,3.0208317,-0.48255868,-0.15154847500000002,-1.8784699,-3.4333434,7.65132
705,1747638486730,3.1073458,-0.29635876,-0.07796186,-2.0747428,-3.3123956,7.7041583
706,1747638486740,3.2610745,-0.05424097,0.08848077,-2.365735,-2.9941442,7.8319016
707,1747638486750,3.57608525,0.27942942,0.5204953,-2.4255217,-2.6025529,7.7145808
708,1747638486760,3.891096,0.61309981,0.95250983,-2.4853084,-2.2109616,7.59726
709,1747638486770,3.9890742,0.82797515,1.1576285,-1.8610225,-2.2671597,6.8263707
710,1747638486780,3.69378265,1.139136625,1.22084865,-1.22921555,-2.1489607,6.30226375
711,1747638486790,3.3984911,1.4502981,1.2840688,-0.5974086,-2.0307617,5.7781568
712,1747638486800,3.4187362,1.8253809,1.0336579,0.22257747,-2.2280655,4.74697
713,1747638486810,3.4187362,1.8253809,1.0336579,0.22257747,-2.2280655,4.74697
714,1747638486820,2.9994738,2.3195868,0.75397694,0.08674031,-1.6673076,3.7500677
715,1747638486830,2.86158465,2.40829615,0.79339992,-0.144732625,-1.31912465,3.15662955
716,1747638486840,2.7236955,2.4970055,0.8328229,-0.37620556,-0.9709417,2.5631914
717,1747638486850,2.2563512,2.6329587,1.2462312,-0.5132644,-0.1835596,0.9309312
718,1747638486860,2.17886185,2.63356835,1.32042765,-0.37307495999999996,-0.09254335905,0.5653391299999999
719,1747638486870,2.1013725,2.634178,1.3946241,-0.23288552,-0.0015271181,0.19974706
720,1747638486880,1.946394,2.5739002,1.3650796,0.21944688,0.053449135,-0.53884363
721,1747638486890,1.9306537499999998,2.460837175,1.1807700749999999,0.60951104,0.0800209925,-1.1948936149999998
722,1747638486900,1.9149135,2.3477741500000002,0.9964605499999999,0.9995752,0.10659285,-1.8509436
723,1747638486910,1.8853844,2.246381,0.8257494,1.2805649,0.29053423,-2.7421696
724,1747638486920,1.8853844,2.246381,0.8257494,1.2805649,0.29053423,-2.7421696
725,1747638486930,1.9473698,1.8961776,0.519695,1.1971079,0.6625402,-3.9120185
726,1747638486940,2.0593885,1.7789148,0.44953845000000003,1.0257271000000001,0.74225578,-4.30754225
727,1747638486950,2.1714072,1.661652,0.3793819,0.8543463,0.82197136,-4.703066
728,1747638486960,2.371785,1.5679269,0.37182048,0.6843016,0.99789536,-4.945572
729,1747638486970,2.6257173,1.08459075,0.39537369,0.63787722,1.2990430800000001,-5.740933500000001
730,1747638486980,2.8796496,0.6012546,0.4189269,0.59145284,1.6001908,-6.536295
731,1747638486990,2.7200367,0.36819223,0.38011363,0.8899281,1.5678159,-7.378042
732,1747638487000,2.5283335,0.07814481500000003,0.25626494499999997,0.9055047,1.5711755,-7.40766825
733,1747638487010,2.3366303,-0.2119026,0.13241626,0.9210813,1.5745351,-7.4372945
734,1747638487020,2.2500093,-0.46865538,0.064302534,0.9453625,1.5207806,-7.4605064
735,1747638487030,2.1202914,-0.58652811,-0.017577246000000005,0.859996585,1.5620128,-7.3765152
736,1747638487040,1.9905735,-0.70440084,-0.099457026,0.77463067,1.603245,-7.292524
737,1747638487050,1.8756276,-0.8859663,-0.043081783,0.34902287,1.8726286,-6.646858
738,1747638487060,1.8457326,-0.8996256300000001,0.0003658735000000024,0.356505735,1.8912594500000002,-6.5323242
739,1747638487070,1.8158376,-0.91328496,0.04381353,0.3639886,1.9098903,-6.4177904
740,1747638487080,1.608173,-1.0209132,0.12604393,0.7596649,1.483519,-6.1649
741,1747638487090,1.608173,-1.0209132,0.12604393,0.7596649,1.483519,-6.1649
742,1747638487100,1.3885261,-1.1295171,-0.01695221,1.2113864,0.8574005,-5.644458
743,1747638487110,0.878222,-1.2698606,-0.32322007,1.2113864,0.8574005,-5.644458
744,1747638487120,0.878222,-1.2698606,-0.32322007,1.1216683,0.7608866,-5.192965
745,1747638487130,0.28590083,-1.2429993,-0.40645662,0.5066978,0.86045474,-3.7550309
746,1747638487140,0.18511750999999999,-1.2259251999999998,-0.40035871,0.397661565,0.842434735,-3.4022665
747,1747638487150,0.08433419,-1.2088511,-0.3942608,0.28862533,0.82441473,-3.0495021
748,1747638487160,-0.12336086,-1.1819898,-0.41377413,0.15278818,0.7523348,-2.3988736
749,1747638487170,-0.269543165,-1.235438,-0.400114805,0.13908229,0.5541148499999999,-1.77153345
750,1747638487180,-0.41572547,-1.2888862,-0.38645548,0.1253764,0.3558949,-1.1441933
751,1747638487190,-0.49698022,-1.4031001,-0.5467697,0.10728005,-1.0534061,0.7947123
752,1747638487200,-0.46891457,-1.40895415,-0.6392751,-0.01733279,-1.2216945,1.1670237
753,1747638487210,-0.44084892,-1.4148082,-0.7317805,-0.14194563,-1.3899829,1.5393351
754,1747638487220,-0.35398406,-1.375751,-0.83791476,-0.87221354,-1.377766,2.6523752
755,1747638487230,-0.284787955,-1.3659943,-0.7576356799999999,-1.27720527,-1.3658545,3.2015268499999996
756,1747638487240,-0.21559185,-1.3562376,-0.6773566,-1.682197,-1.353943,3.7506785
757,1747638487250,-0.10602752925,-1.38259585,-0.603648,-1.9219163750000001,-1.486954975,4.232636875
758,1747638487260,0.0035367915,-1.4089541,-0.5299394,-2.1616357500000003,-1.61996695,4.71459525
759,1747638487270,0.4425868,-1.4611828,-0.26904008,-2.2977784,-1.8505617,5.422033
760,1747638487280,0.7348294500000001,-1.45630445,-0.155938973,-2.10620135,-2.1294135499999998,5.905824
761,1747638487290,1.0270721,-1.4514261,-0.042837866,-1.9146243,-2.4082654,6.389615
762,1747638487300,1.4673417,-1.3657504,-0.059180282,-1.4067812,-3.0136914,6.9357123
763,1747638487310,1.6884522,-1.30876535,-0.142035726,-1.24166155,-3.1508265499999997,7.17516445
764,1747638487320,1.9095627,-1.2517803,-0.22489117,-1.0765419,-3.2879617,7.4146166
765,1747638487330,2.5138054,-0.93063354,-0.30126756,-1.3226371,-2.8249395,8.031038
766,1747638487340,2.66084135,-0.8554614700000001,-0.23733091,-1.4008637,-2.7369774500000004,8.151986
767,1747638487350,2.8078773,-0.7802894,-0.17339426,-1.4790903,-2.6490154,8.272934
768,1747638487360,3.6886604,-0.52015233,-0.023050126,-1.5494905,-2.7101002,8.175809
769,1747638487370,3.8232565999999997,-0.23937373750000002,0.038447366999999996,-1.5627382250000001,-2.5964444249999996,7.72832505
770,1747638487380,3.9578528,0.041404855,0.09994486,-1.5759859500000002,-2.48278865,7.2808411
771,1747638487390,3.8955932,0.48923588,0.22611076,-1.5956094,-2.4155955,7.1189666
772,1747638487400,3.8630151,0.63602799,0.35973135,-1.52830165,-2.18103015,6.814764800000001
773,1747638487410,3.830437,0.7828201,0.49335194,-1.4609939,-1.9464648,6.510563
774,1747638487420,3.3914173,1.1305842,0.7559283,-0.77623415,-1.6801354,5.494724
775,1747638487430,3.3914173,1.1305842,0.7559283,-0.77623415,-1.6801354,5.494724
776,1747638487440,3.2461956,1.2301632,0.7671789,-0.38491014,-1.7308357,5.023073
777,1747638487450,3.1737218,1.3236443,0.6834545,0.12720895,-1.7149537,3.8991144
778,1747638487460,2.9797165,1.4434683,0.5838755,0.12720895,-1.7149537,3.8991144
779,1747638487470,2.9797165,1.4434683,0.5838755,0.12720895,-1.7149537,3.8991144
780,1747638487480,2.5292024499999997,1.5193569,0.49601976000000003,0.02661003499999999,-1.3875396,3.0512202000000004
781,1747638487490,2.0786884,1.5952455,0.40816402,-0.07398888,-1.0601255,2.203326
782,1747638487500,1.8507483,1.5462183,0.47432646,-0.1525591,-0.87442786,1.7567967
783,1747638487510,1.6102311500000002,1.5157134,0.5303206,-0.1098761475,-0.72660283,1.356997185
784,1747638487520,1.369714,1.4852085,0.58631474,-0.067193195,-0.5787778,0.95719767
785,1747638487530,1.14153,1.51643,0.6212253,0.053678203,-0.5201364,0.55281675
786,1747638487540,1.0813741000000001,1.5564475500000001,0.60377002,0.10353861149999999,-0.466687285,0.22723517
787,1747638487550,1.0212182,1.5964651,0.58631474,0.15339902,-0.41323817,-0.09834641
788,1747638487560,1.0429572,1.6125941,0.6700391,0.12911785,-0.017409148,-0.9261208
789,1747638487570,1.0303802499999999,1.6112525500000001,0.7465527000000001,0.18394138999999998,0.07700493100000001,-1.1817604
790,1747638487580,1.0178033,1.609911,0.8230663,0.23876493,0.17141901,-1.4374
791,1747638487590,1.2169613,1.5423156,0.8494093,0.5266267,0.4145362,-2.1172729
792,1747638487600,1.27114125,1.5247383,0.8369696,0.5887804125,0.5988593600000001,-2.4527999
793,1747638487610,1.3253212,1.507161,0.8245299,0.650934125,0.78318252,-2.7883269
794,1747638487620,1.6130515,1.3653541,0.8113278,0.7391252,1.1945882,-3.5442884
795,1747638487630,1.67430505,1.31497005,0.8002296,0.7711946700000001,1.3109546,-3.7440355
796,1747638487640,1.7355586,1.264586,0.7891314,0.80326414,1.427321,-3.9437826
797,1747638487650,1.8925951,1.21150365,0.80878192,0.88114717,1.60599385,-4.2091958
798,1747638487660,2.0496316,1.1584213,0.82843244,0.9590302,1.7846667,-4.474609
799,1747638487670,2.4271843,1.1142418,0.8316034,1.143506,1.9679208,-4.7965255
800,1747638487680,2.88025965,1.212342,0.8418479,1.2678135,2.20218075,-4.94312875
801,1747638487690,3.333335,1.3104422,0.8520924,1.392121,2.4364407,-5.089732
802,1747638487700,4.262657,0.81431586,0.49579114,1.2438377,3.4095967,-5.990808
803,1747638487710,4.2959668,0.462770935,0.29079441500000003,1.0030112,4.19606235,-6.561339350000001
804,1747638487720,4.3292766,0.11122601,0.08579769,0.7621847,4.982528,-7.1318707
805,1747638487730,3.51612,-0.3632224,0.228306,0.393614695,6.2947047000000005,-7.8089949999999995
806,1747638487740,3.3650593,-0.51428305,0.35095034999999997,0.4996730475,6.35578935,-7.8067045
807,1747638487750,3.2139986,-0.6653437,0.4735947,0.6057314,6.416874,-7.804414
808,1747638487760,3.0065472,-1.3777328,0.41450587,2.1815646,4.5622654,-7.5423603
809,1747638487770,2.86829235,-1.4816870500000001,0.30457569,2.4591184000000004,4.236989250000001,-7.544498150000001
810,1747638487780,2.7300375,-1.5856413,0.19464551,2.7366722,3.9117131,-7.546636
811,1747638487790,2.0362163,-1.6749758,-0.30980465,3.0538545,2.9758952,-7.3163466
812,1747638487800,2.0362163,-1.6749758,-0.30980465,3.0538545,2.9758952,-7.3163466
813,1747638487810,1.5095698,-1.7213504,-0.6683012,2.4631653,2.804858,-6.726879
814,1747638487820,1.36228985,-1.70462685,-0.6777072500000001,1.9161134,2.65913275,-6.1679155
815,1747638487830,1.2150099,-1.6879033,-0.6871133,1.3690615,2.5134075,-5.608952
816,1747638487840,0.6524771,-1.7494009,-0.41523767,0.74905145,1.9783052,-4.5106487
817,1747638487850,0.4894493,-1.7187741,-0.313951255,0.786465855,1.69303955,-4.0851936
818,1747638487860,0.3264215,-1.6881473,-0.21266484,0.82388026,1.4077739,-3.6597385
819,1747638487870,-0.002561125,-1.6627495,-0.28297383,1.0575293,0.82441473,-2.669479
820,1747638487880,-0.1322638125,-1.6144387500000001,-0.391074665,1.11265825,0.540370765,-2.03511405
821,1747638487890,-0.2619665,-1.566128,-0.4991755,1.1677872,0.2563268,-1.4007491
822,1747638487900,-0.3073655,-1.5036548,-0.8062056,0.54472303,-0.5445703,0.703696
823,1747638487910,-0.270274925,-1.5021913,-0.81730382,0.32974298,-0.6468872299999999,1.05737655
824,1747638487920,-0.23318435,-1.5007278,-0.82840204,0.11476293,-0.74920416,1.4110571
825,1747638487930,-0.10503662,-1.4606949,-0.78568614,-0.6615476,-1.0949438,2.4367461
826,1747638487940,-0.09467016,-1.44592275,-0.7758074699999999,-0.8852704,-1.23024645,2.71345985
827,1747638487950,-0.0843037,-1.4311506,-0.7659288,-1.1089932,-1.3655491,2.9901736
828,1747638487960,0.048204035,-1.4194425,-0.69101596,-1.7064781,-1.681357,3.7121952
829,1747638487970,0.048204035,-1.4194425,-0.69101596,-2.1090264,-1.9647902,4.2668443
830,1747638487980,0.38035756,-1.5941783,-0.38621157,-2.3819225,-2.2647161,4.867307
831,1747638487990,0.63721703,-1.7202375,-0.190605639,-2.4015459999999997,-2.50145765,5.738719
832,1747638488000,0.8940765,-1.8462967,0.005000292,-2.4211695,-2.7381992,6.610131
833,1747638488010,1.325809,-1.9126726,0.18071176,-2.078484,-3.1694574,7.374912
834,1747638488020,1.8013245,-1.8519068,0.154841355,-1.6575720999999999,-3.6254549000000003,7.729547
835,1747638488030,2.27684,-1.791141,0.12897095,-1.2366602,-4.0814524,8.084182
836,1747638488040,3.164453,-1.09171,-0.3634968,-1.538877,-3.7418213,8.060359
837,1747638488050,3.164453,-1.09171,-0.3634968,-1.538877,-3.7418213,8.060359
838,1747638488060,3.164453,-1.09171,-0.3634968,-1.538877,-3.7418213,8.060359
839,1747638488070,3.4895024,-0.35151443,0.35130098,-2.6161826,-2.59465,8.19841
840,1747638488080,3.84898995,-0.14199,0.6110874900000001,-2.6551241,-2.6933019,8.312333
841,1747638488090,4.2084775,0.06753443,0.870874,-2.6940656,-2.7919538,8.426256
842,1747638488100,4.2084775,0.06753443,0.870874,-2.5183706,-2.6667302,8.259495
843,1747638488110,4.2428849,0.35648421499999994,1.042073,-2.08157655,-2.6325227,7.6986988499999995
844,1747638488120,4.2772923,0.645434,1.213272,-1.6447825,-2.5983152,7.1379027
845,1747638488130,3.5378282,1.3341328,1.1417739,-0.21417832,-2.3001454,5.687752
846,1747638488140,3.5378282,1.3341328,1.1417739,-0.21417832,-2.3001454,5.687752
847,1747638488150,3.40093,1.3992889,0.989509,0.14904673,-2.145601,5.163645
848,1747638488160,3.1942259999999996,1.54010505,0.861620435,0.29454291499999996,-1.94707565,4.63949975
849,1747638488170,2.987522,1.6809212,0.73373187,0.4400391,-1.7485503,4.1153545
850,1747638488180,2.4552348,1.8654137,0.58878434,0.31977853,-1.3240114,2.6187785
851,1747638488190,2.3201659,1.91410555,0.56730442,0.243117205,-1.25437485,2.3050702999999997
852,1747638488200,2.185097,1.9627974,0.5458245,0.16645588,-1.1847383,1.9913621
853,1747638488210,1.7890068,2.084329,0.6949186,0.008857286,-0.93245834,1.3927318
854,1747638488220,1.7221278999999998,2.08201175,0.7085931750000001,0.011644276,-0.77088925,0.9630007199999999
855,1747638488230,1.655249,2.0796945,0.72226775,0.014431266,-0.60932016,0.53326964
856,1747638488240,1.3951119,1.964017,0.72275555,0.3016822,-0.28618193,-0.9389486
857,1747638488250,1.35361555,1.9249751,0.693714225,0.34936645,-0.23120567999999997,-1.1991695
858,1747638488260,1.3121192,1.8859332,0.6646729,0.3970507,-0.17622943,-1.4593904
859,1747638488270,1.2574514,1.6438154,0.69882125,0.48989952,0.031458635,-2.5503638
860,1747638488280,1.3043139,1.5930655,0.695528375,0.517922135,0.0418430375,-2.7510269999999997
861,1747638488290,1.3511764,1.5423156,0.6922355,0.54594475,0.05222744,-2.9516902
862,1747638488300,1.5178629,1.4495664,0.6834545,0.57152396,0.27159795,-3.631029
863,1747638488310,1.5178629,1.4495664,0.6834545,0.57152396,0.27159795,-3.631029
864,1747638488320,2.2211967,1.174032,0.9043211,0.8649597,0.8048676,-4.5717335
865,1747638488330,2.5711563,1.0546957,0.961428,1.0973871,0.9019923,-4.9015913
866,1747638488340,2.5711563,1.0546957,0.961428,1.0973871,0.9019923,-4.9015913
867,1747638488350,2.9348054,0.922188,0.9633794,1.4693931,0.9184852,-5.433028
868,1747638488360,3.0898906999999998,0.8196819799999999,0.81817273,1.73075935,0.85831675,-5.96328175
869,1747638488370,3.244976,0.71717596,0.67296606,1.9921256,0.7981483,-6.4935355
870,1747638488380,3.3145227,0.64714146,0.4806683,1.9460067,0.87755847,-6.946173
871,1747638488390,3.57077235,0.38674515,0.330446115,1.4628264850000001,1.281939335,-7.394534999999999
872,1747638488400,3.827022,0.12634884,0.18022393,0.97964627,1.6863202,-7.842897
873,1747638488410,3.8390045,-0.33758068,0.29468182,0.54037076,2.1975994,-8.549724
874,1747638488420,3.599951,-0.70255624,0.39340711,0.74317205,2.11116445,-8.7528305
875,1747638488430,3.3608975,-1.0675318,0.4921324,0.94597334,2.0247295,-8.955937
876,1747638488440,3.0912168,-1.2976673,0.4057249,1.3379083,1.7535135,-8.967544
877,1747638488450,2.97468565,-1.3462371499999999,0.34325174999999997,1.46156665,1.70525655,-8.9400555
878,1747638488460,2.8581545,-1.394807,0.2807786,1.585225,1.6569996,-8.912567
879,1747638488470,2.122624,-1.6210396,-0.1355567,1.7017441,1.6765467,-8.258884
880,1747638488480,1.97997835,-1.6239667,-0.151304565,1.6167218,1.6511965499999999,-8.066467
881,1747638488490,1.8373327,-1.6268938,-0.16705243,1.5316995,1.6258464,-7.87405
882,1747638488500,1.4831964,-1.7340342,-0.19388327,1.226963,1.3014865,-7.2088375
883,1747638488510,1.4831964,-1.7340342,-0.19388327,1.226963,1.3014865,-7.2088375
884,1747638488520,1.0680805,-1.7469617,-0.16534501,1.0307283,1.6496694,-5.828323
885,1747638488530,0.17046726,-1.6014959,-0.09210903,1.2107756,1.5733135,-5.1489844
886,1747638488540,0.17046726,-1.6014959,-0.09210903,1.2107756,1.5733135,-5.1489844
887,1747638488550,-0.16705243,-1.5439011,-0.19071235,1.4998591,1.2703333,-4.3927555
888,1747638488560,-0.471003115,-1.430053,-0.42975067499999997,1.637567,0.8005917250000001,-3.4147508
889,1747638488570,-0.7749538,-1.3162049,-0.668789,1.7752749,0.33085015,-2.4367461
890,1747638488580,-0.79300356,-1.2913253,-0.85233635,1.5453672,-0.18172707,-1.508869
891,1747638488590,-0.70161103,-1.34331005,-0.9960794749999999,1.15190522,-0.385139205,-0.941391935
892,1747638488600,-0.6102185,-1.3952948,-1.1398226,0.75844324,-0.58855134,-0.37391487
893,1747638488610,-0.74861073,-1.4345958,-1.0346335,-1.3152305,-0.23731416,1.3878449
894,1747638488620,-0.743854365,-1.44557205,-0.95604663,-1.6644442499999998,-0.22021044,1.8191030499999998
895,1747638488630,-0.739098,-1.4565483,-0.87745976,-2.013658,-0.20310672,2.2503612
896,1747638488640,-0.42353082,-1.4858184,-0.39157772,-2.5769355,-0.60321164,3.6278982
897,1747638488650,-0.252819635,-1.475208,-0.26100608000000003,-2.3714807999999996,-1.0375240700000001,4.1634585
898,1747638488660,-0.08210845,-1.4645976,-0.13043444,-2.1660261,-1.4718365000000002,4.6990188
899,1747638488670,0.064820856,-1.430175,-0.10262794,-2.0018227,-1.6355436,4.9454956
900,1747638488680,0.183059468,-1.4100518,-0.17046726,-1.7827958499999998,-1.8444533,5.4235218
901,1747638488690,0.30129808,-1.3899286,-0.23830658,-1.563769,-2.053363,5.901548
902,1747638488700,1.0710076,-1.5280465,-0.46624672,-1.6329474,-2.4449162,7.241747
903,1747638488710,1.3060212999999998,-1.5434285,-0.48455571000000003,-1.8015031000000001,-2.5228374000000002,7.48307
904,1747638488720,1.541035,-1.5588105,-0.5028647,-1.9700588,-2.6007586,7.724393
905,1747638488730,2.346387,-1.4682564,-0.23318435,-2.2890738,-2.6416854,7.900316800000001
906,1747638488740,2.4966091500000003,-1.3850351,-0.135800612,-2.3236630500000004,-2.71345995,7.893597400000001
907,1747638488750,2.6468313,-1.3018138,-0.038416874,-2.3582523,-2.7852345,7.886878
908,1747638488760,3.033622,-0.9345362,0.05332628,-1.9270704,-2.6032019,7.9320807
909,1747638488770,3.033622,-0.9345362,0.05332628,-1.9270704,-2.6032019,7.9320807
910,1747638488780,3.1383233,-0.56478906,0.0015854583,-1.8323891,-2.570827,8.064024
911,1747638488790,3.3935973500000003,-0.50121828,0.01562591115,-1.9940726500000001,-2.41288485,8.239032
912,1747638488800,3.6488714,-0.4376475,0.029666364,-2.1557562,-2.2549427,8.41404
913,1747638488810,3.775525,0.08143768,0.7256826,-1.3931135,-2.2360065,7.660177
914,1747638488820,3.72758025,0.17051298999999998,0.7477723000000001,-1.06627205,-2.22898175,7.6036738
915,1747638488830,3.6796355,0.2595883,0.769862,-0.7394306,-2.221957,7.5471706
916,1747638488840,3.8453465,0.53048825,0.51262134,-0.30641624,-2.2366173,7.401178
917,1747638488850,3.8387455,0.739387625,0.46796937000000005,-0.009506299999999968,-2.0472546,6.58172635
918,1747638488860,3.8321445,0.948287,0.4233174,0.28740364,-1.8578919,5.7622747
919,1747638488870,3.5292912,1.2035763,0.40523705,0.35841462,-1.5341429,4.500799
920,1747638488880,3.2647483499999996,1.2907003,0.3890166,0.33692044,-1.4306043,4.290972849999999
921,1747638488890,3.0002055,1.3778243,0.37279615,0.31542626,-1.3270657,4.0811467
922,1747638488900,2.3322396,1.5708538,0.45209953,0.18333054,-0.9507837,2.9761243
923,1747638488910,2.24743295,1.6090421,0.481018915,0.19268414,-0.91260578,2.77698805
924,1747638488920,2.1626263,1.6472304,0.5099383,0.20203774,-0.87442786,2.5778518
925,1747638488930,2.07381,1.7438822,0.45039213,0.12598725,-0.6502469,1.4299934
926,1747638488940,2.03426505,1.75339505,0.443318545,0.05058578999999999,-0.544570335,1.08639185
927,1747638488950,1.9947201,1.7629079,0.43624496,-0.02481567,-0.43889377,0.7427903
928,1747638488960,1.6965014,1.8175756,0.54216576,-0.27839363,-0.101706065,-0.3794125
929,1747638488970,1.6965014,1.8175756,0.54216576,-0.27839363,-0.101706065,-0.3794125
930,1747638488980,1.5996056,1.790257,0.60195583,-0.2914505,-0.008246438,-0.7917344
931,1747638488990,1.50345665,1.6960594,0.682981915,-0.15095562975,0.129232371,-1.3845617
932,1747638489000,1.4073077,1.6018618,0.764008,-0.0104607595,0.26671118,-1.977389
933,1747638489010,1.3941362,1.4971606,0.8323351,0.28671643,0.2722088,-2.416588
934,1747638489020,1.43695885,1.4274765999999999,0.7620413850000001,0.491732045,0.27831728499999997,-2.7312126
935,1747638489030,1.4797815,1.3577926,0.69174767,0.69674766,0.28442577,-3.0458372
936,1747638489040,2.0208497,1.2089424,0.5568008,0.6506287,0.59962296,-3.8698702
937,1747638489050,2.2070495,1.2029665,0.6089074999999999,0.6350521,0.67445173,-4.0274686
938,1747638489060,2.3932493,1.1969906,0.6610142,0.6194755,0.7492805,-4.185067
939,1747638489070,3.0267925,1.2040641,0.7984003,0.85999656,0.80242425,-4.7916384
940,1747638489080,3.3702881,0.9520829500000001,0.6424613,1.04783213,0.9047411249999999,-5.27730035
941,1747638489090,3.7137837,0.7001018,0.4865223,1.2356677,1.007058,-5.7629623
942,1747638489100,3.7137837,0.7001018,0.4865223,1.3534849,1.2520078,-6.526521
943,1747638489110,3.6976852,0.563676165,0.35241386,1.2762126999999999,1.44106505,-7.018558649999999
944,1747638489120,3.6815867,0.42725053,0.21830542,1.1989405,1.6301223,-7.5105963
945,1747638489130,3.7150033,-0.2321477,-0.010366458,0.5989357,2.0888686,-8.316915
946,1747638489140,3.7150033,-0.2321477,-0.010366458,0.5989357,2.0888686,-8.316915
947,1747638489150,3.5473413,-0.58823556,-0.006219875,0.41010758,2.3894055,-8.624247
948,1747638489160,3.29281425,-0.83178638,0.0580826525,0.41915576,2.41964235,-8.7061005
949,1747638489170,3.0382872,-1.0753372,0.12238518,0.42820394,2.4498792,-8.787954
950,1747638489180,2.5091708,-1.5078014,0.18315093,1.0188932,2.3777993,-8.533842
951,1747638489190,2.3875174,-1.5863882,0.16717439,1.1970697499999998,2.34389725,-8.44282575
952,1747638489200,2.265864,-1.664975,0.15119785,1.3752463,2.3099952,-8.3518095
953,1747638489210,1.7592186,-1.8155328,0.0015854583,2.0108328,1.8329235,-7.938189
954,1747638489220,1.459101975,-1.865505225,-0.21884661335,2.0535158,1.62004325,-7.6394848500000005
955,1747638489230,1.15898535,-1.91547765,-0.439278685,2.0961988,1.407163,-7.3407807
956,1747638489240,0.712755,-1.9775848,-0.56924057,1.8649931,1.3375264,-6.831945
957,1747638489250,0.5932968000000001,-1.9617149999999999,-0.567289235,1.56312,1.29568335,-6.217089
958,1747638489260,0.4738386,-1.9458452,-0.5653379,1.2612469,1.2538403,-5.602233
959,1747638489270,-0.16924767,-1.8313873,-0.56680137,0.7870767,1.2532295,-3.7446463
960,1747638489280,-0.31445432500000003,-1.7864914,-0.559102735,0.735345565,1.1472475,-3.21256015
961,1747638489290,-0.45966098,-1.7415955,-0.5514041,0.68361443,1.0412655,-2.680474
962,1747638489300,-0.8062056,-1.601252,-0.5936322,0.732864,0.3962108,-1.3482163
963,1747638489310,-0.7639775,-1.62260995,-0.7733683,0.58614612,-0.15114652500000003,-0.290496085
964,1747638489320,-0.7217494,-1.6439679,-0.9531044,0.43942824,-0.69850385,0.76722413
965,1747638489330,-0.69150376,-1.620064,-1.0539029,0.01885991,-0.8866448,1.5546063
966,1747638489340,-0.69150376,-1.620064,-1.0539029,0.01885991,-0.8866448,1.5546063
967,1747638489350,-0.6673255,-1.5897878,-1.1105222,-0.40422818,-0.9465078,2.1697295
968,1747638489360,-0.53872043,-1.56233195,-1.00742165,-1.12701319,-1.0329427,3.11658075
969,1747638489370,-0.41011536,-1.5348761,-0.9043211,-1.8497982,-1.1193776,4.063432
970,1747638489380,-0.0960117,-1.5280465,-0.6317137,-2.2504377,-1.3093511,4.750025
971,1747638489390,0.194767475,-1.51975335,-0.410359315,-2.3351927999999997,-1.5845378,5.2961605
972,1747638489400,0.48554665,-1.5114602,-0.18900493,-2.4199479,-1.8597245,5.842296
973,1747638489410,1.0019487,-1.4323702,-0.013293459,-1.8746903,-2.4039893,6.5850863
974,1747638489420,1.1741234,-1.38552295,-0.0511157895,-1.6762413,-2.43850215,6.78330615
975,1747638489430,1.3462981,-1.3386757,-0.08893812,-1.4777923,-2.473015,6.981526
976,1747638489440,1.5532614,-1.2847396,-0.1636376,-1.285299,-2.533489,7.2997775
977,1747638489450,1.7783813,-1.2359258,-0.17912631,-1.2410507499999999,-2.5478821,7.61562375
978,1747638489460,2.0035012,-1.187112,-0.19461502,-1.1968025,-2.5622752,7.93147
979,1747638489470,2.611189,-1.109272,-0.14165461,-1.166871,-2.509666,8.265603
980,1747638489480,2.9821405,-0.8709502,-0.20400580499999998,-1.2500607499999998,-2.4186497,8.1174725
981,1747638489490,3.353092,-0.6326284,-0.266357,-1.3332505,-2.3276334,7.969342
982,1747638489500,3.2933018,-0.11476279,-0.26391783,-2.037939,-1.5036005,7.788532
983,1747638489510,3.2933018,-0.11476279,-0.26391783,-2.037939,-1.5036005,7.788532
984,1747638489520,3.547829,0.08899909,0.49091277,-2.1750743,-1.3692142,7.7396636
985,1747638489530,3.5720074,0.26788148,0.6566237,-1.7943639,-1.5139849,7.5471706
986,1747638489540,3.5720074,0.26788148,0.6566237,-1.7943639,-1.5139849,7.5471706
987,1747638489550,3.689636,0.41871345,0.82672507,-0.41736138,-1.7259489,6.5447702
988,1747638489560,3.6507160499999998,0.6609227049999999,0.757285035,-0.03229855000000004,-1.82826585,6.0588411
989,1747638489570,3.6117961,0.90313196,0.687845,0.35276428,-1.9305828,5.572912
990,1747638489580,3.2872038,1.1274133,0.44746515,0.6381827,-1.801694,4.8697505
991,1747638489590,2.93455375,1.28897765,0.364182845,0.4342742375,-1.3815838,4.3461017
992,1747638489600,2.5819037,1.450542,0.28090054,0.230365775,-0.9614736,3.8224529
993,1747638489610,2.3207755,1.5503649,0.4738386,0.033749312,-0.60199,3.2015269
994,1747638489620,2.27501075,1.59709015,0.5391168150000001,0.096399336,-0.626423875,2.9623802
995,1747638489630,2.229246,1.6438154,0.60439503,0.15904936,-0.65085775,2.7232335
996,1747638489640,2.1860726,1.7636395,0.50871867,0.38834614,-0.7547018,1.6822734
997,1747638489650,2.1048026,1.7893879,0.426838905,0.267436565,-0.64688725,1.12762407
998,1747638489660,2.0235326,1.8151363,0.34495914,0.14652699,-0.5390727,0.57297474
999,1747638489670,1.6218325,1.7643713,0.4501482,-0.07834116,-0.3839175,0.025655584
1000,1747638489680,1.6218325,1.7643713,0.4501482,-0.32947573,-0.18600298,-0.6078694
