id,timestamp,acc_x,acc_y,acc_z,gyro_x,gyro_y,gyro_z
0,1747638588950,-0.3459348,0.921944,0.019665781,0.71110255,-0.6930062,0.75561804
1,1747638588960,-0.24562408,0.8845943,0.015000875,0.77272177,-0.8805363,0.8454126
2,1747638588970,-0.17876044,0.870691,0.0045124586,1.0624925,-1.4932162,0.907719
3,1747638588980,-0.17876044,0.870691,0.0045124586,1.0624925,-1.4932162,0.907719
4,1747638588990,-0.20914331,0.8922928999999999,0.0157478708,1.2631176000000002,-1.67983,0.78157907
5,1747638589000,-0.23952618,0.9138948,0.026983283,1.4637427,-1.8664438,0.65543914
6,1747638589010,-0.27686067,0.9363351,-0.0225622935,1.5799564,-1.817576,0.65635537
7,1747638589020,-0.31419516,0.9587754,-0.07210787,1.6961701,-1.7687082,0.6572716
8,1747638589030,-0.34325173,0.9519458,-0.15729576,1.7839794,-1.3985348,0.731795
9,1747638589040,-0.3523986,0.969888935,-0.19694747,1.7749694,-1.019504085,0.836555325
10,1747638589050,-0.36154547,0.98783207,-0.23659918,1.7659594,-0.64047337,0.94131565
11,1747638589060,-0.24611193,1.0429877,-0.18095568,1.7173207,-0.31489176,1.1178505
12,1747638589070,-0.21072876499999998,1.0423779,-0.155329185,1.7758857,-0.41110020999999997,1.0897515000000002
13,1747638589080,-0.1753456,1.0417681,-0.12970269,1.8344507,-0.50730866,1.0616525
14,1747638589090,-0.13604453,1.0490856,-0.0843037,2.309308,-1.2641484,0.74889874
15,1747638589100,-0.15006973499999998,1.0534761499999998,-0.15801226499999999,2.5332981,-1.57384795,0.624285905
16,1747638589110,-0.16409494,1.0578667,-0.23172083,2.7572882,-1.8835475,0.49967307
17,1747638589120,-0.13750802,1.0615253,-0.34520307,3.0818772,-2.045422,0.2870982
18,1747638589130,-0.14555727000000002,1.0682940250000001,-0.411883785,3.0634945,-1.7766492249999999,0.2374668675
19,1747638589140,-0.15360652,1.07506275,-0.47856450000000006,3.0451118,-1.50787645,0.187835535
20,1747638589150,-0.1972981,1.0732334,-0.57972896,2.8644154,-0.89641833,0.16187452
21,1747638589160,-0.24367275,1.0782489499999999,-0.593144355,2.6750146,-0.75470179,0.22143213
22,1747638589170,-0.2900474,1.0832645,-0.60655975,2.4856138,-0.61298525,0.28098974
23,1747638589180,-0.24623387000000002,1.08105395,-0.551282135,2.24570355,-0.751647575,0.42209547
24,1747638589190,-0.20242034,1.0788434,-0.49600452,2.0057933,-0.8903099,0.5632012
25,1747638589200,0.20830485,0.9614585,-0.34983748,2.0974205,-1.8206303,0.11972606
26,1747638589210,0.252240325,0.9673277499999999,-0.38095208999999997,2.16129225,-1.87682825,-0.07574506
27,1747638589220,0.2961758,0.973197,-0.4120667,2.225164,-1.9330262,-0.27121618
28,1747638589230,0.15534442999999998,0.9805145,-0.643909525,2.223942,-1.7106777,-0.6591805
29,1747638589240,0.013796539999999968,0.9698888999999999,-0.7106512125,2.00739675,-1.2165023,-0.7889855699999999
30,1747638589250,-0.12775135,0.9592633,-0.7773929,1.7908515,-0.7223269,-0.91879064
31,1747638589260,-0.49698022,1.0307918,-0.66927683,1.169009,-0.41140562,-0.12155861
32,1747638589270,-0.43694623,1.03213335,-0.64121118,1.1007850000000001,-0.48379101,0.146603345
33,1747638589280,-0.37691224,1.0334749,-0.61314553,1.032561,-0.5561764,0.4147653
34,1747638589290,0.20903657,0.9714896,-0.63586026,1.044396,-0.78096825,0.7910472
35,1747638589300,0.32093335,0.9401158000000001,-0.64744633,1.06619565,-0.7684458750000001,0.6297835199999999
36,1747638589310,0.43283013,0.908742,-0.6590324,1.0879953,-0.7559235,0.46851984
37,1747638589320,0.4320984,0.8448054,-0.67833227,1.0631033,-0.66368556,-0.2907633
38,1747638589330,0.2158662625,0.81344685,-0.6318356350000001,1.0634087,-0.573280155,-0.40319737
39,1747638589340,-0.000365875,0.7820883,-0.585339,1.0637141,-0.48287475,-0.51563144
40,1747638589350,-0.1604362,0.73989075,-0.50188905,1.1839747,-0.45477578,-0.28770906
41,1747638589360,-0.20973786,0.7452569,-0.47431123499999994,1.29644695,-0.45141612,-0.09773556300000003
42,1747638589370,-0.25903952,0.75062305,-0.44673342,1.4089192,-0.44805646,0.092237934
43,1747638589380,0.045277033,0.65201974,-0.5848512,1.774664,-0.42973104,0.9541434
44,1747638589390,0.3802356015,0.530732185,-0.72944805,1.73820405,-0.50639237,0.8493831000000001
45,1747638589400,0.71519417,0.40944463,-0.8740449,1.7017441,-0.5830537,0.7446228
46,1747638589410,0.749479715,0.38052524499999996,-0.9119891849999999,1.6008016,-0.5183039,0.5546493100000001
47,1747638589420,0.78376526,0.35160586,-0.94993347,1.4998591,-0.4535541,0.36467582
48,1747638589430,0.7371467,0.34087354,-0.9465186,1.3254622,-0.34115818,0.124001995
49,1747638589440,0.548385675,0.38381813499999995,-0.8602483249999999,1.14598765,-0.24494973999999997,0.025961007499999994
50,1747638589450,0.35962465,0.42676273,-0.77397805,0.9665131,-0.1487413,-0.07207998
51,1747638589460,0.10750628,0.457633405,-0.75226952,0.85904213,0.20558828499999998,0.49692426
52,1747638589470,0.077367321,0.4591655125,-0.75458671,0.793776915,0.3635113925,0.8620582299999999
53,1747638589480,0.047228362,0.46069762,-0.7569039,0.7285117,0.5214345,1.2271922
54,1747638589490,0.80352247,0.3389222,-0.88209414,0.2474695,0.5745782,2.0671072
55,1747638589500,1.002421235,0.28852292,-0.9001592350000001,0.091398025,0.54434125,1.86827635
56,1747638589510,1.20132,0.23812364,-0.91822433,-0.06467345,0.5141043,1.6694455
57,1747638589520,1.2274497,0.24373372,-0.81620616,-0.29771167,0.5055525,0.7562289
58,1747638589530,1.0743691,0.310361095,-0.7457980799999999,-0.190851585,0.404762685,0.48959407499999996
59,1747638589540,0.9212885,0.37698847,-0.6753899999999999,-0.0839915,0.30397287,0.22295925
60,1747638589550,0.69909567,0.4428612,-0.6475683,0.06306998,0.18363595,0.24128467
61,1747638589560,0.64028126,0.454096615,-0.6742924,0.1259872475,0.110448816875,0.3072561775
62,1747638589570,0.58146685,0.46533203,-0.7010165,0.188904515,0.037261683749999996,0.37322768500000003
63,1747638589580,0.6087855,0.46020976,-0.7461716,0.1783674,-0.07543964,0.52655035
64,1747638589590,0.655282135,0.43031473,-0.7631238,0.138471435,-0.079410147,0.539378125
65,1747638589600,0.70177877,0.4004197,-0.780076,0.09857547,-0.083380654,0.5522059
66,1747638589610,0.761324935,0.366362835,-0.7975312999999999,0.036269052499999996,-0.0473406645,0.449889
67,1747638589620,0.8208711,0.33230597,-0.8149866,-0.026037365,-0.011300675,0.3475721
68,1747638589630,0.82721287,0.2669058,-0.78202736,-0.09269607,0.12438377,-0.26877278
69,1747638589640,0.77047175,0.265686235,-0.761416405,-0.06341358,0.12682716,-0.405946165
70,1747638589650,0.71373063,0.26446667,-0.74080545,-0.03413109,0.12927055,-0.54311955
71,1747638589660,0.520945,0.31084132,-0.6963821,0.17584765,0.006413896,-0.76546794
72,1747638589670,0.48261959,0.30937781,-0.7051631,0.273048725,-0.022601349000000003,-0.74744797
73,1747638589680,0.44429418,0.3079143,-0.7139441,0.3702498,-0.051616594,-0.729428
74,1747638589690,0.35718548,0.3371843,-0.7215055,0.54785365,-0.038177952,-0.5064687
75,1747638589700,0.37182048,0.341224175,-0.72370075,0.580533975,-0.0390942245,-0.45790635999999996
76,1747638589710,0.38645548,0.34526405,-0.725896,0.6132143,-0.040010497,-0.40934402
77,1747638589720,0.5628987,0.34941062,-0.7984003,0.7815027,-0.055281676,-0.28465483
78,1747638589730,0.5929157,0.35367916,-0.8132792,0.80860905,-0.023823042699999998,-0.32134384000000005
79,1747638589740,0.6229327,0.3579477,-0.8281581,0.8357154,0.0076355906,-0.35803285
80,1747638589750,0.6378421,0.3662409,-0.86843485,0.9079481,0.21723256,-0.55594736
81,1747638589760,0.6224601,0.35319135,-0.8551261450000001,0.9686892500000001,0.2022668,-0.64085513
82,1747638589770,0.6070781,0.3401418,-0.84181744,1.0294304,0.18730104,-0.7257629
83,1747638589780,0.59988255,0.32841855,-0.860858145,1.06871545,0.124345595,-0.7569161
84,1747638589790,0.592687,0.3166953,-0.87989885,1.1080005,0.06139015,-0.7880693
85,1747638589800,0.5253355,0.31084132,-0.9418842,1.142208,-0.07666133,-0.8271635
86,1747638589810,0.5222713,0.31486592999999996,-0.9651935,1.0983033999999998,-0.153017235,-0.783182525
87,1747638589820,0.5192071,0.31889054,-0.9885028,1.0543988,-0.22937314,-0.73920155
88,1747638589830,0.5404583,0.3225493,-1.0241451,0.94910395,-0.28129515,-0.67628425
89,1747638589840,0.60305345,0.32279322499999996,-1.06660185,0.712935125,-0.218072465,-0.584351745
90,1747638589850,0.6656486,0.32303715,-1.1090586,0.4767663,-0.15484978,-0.49241924
91,1747638589860,0.796205,0.3342573,-1.0795447,-0.1537808,0.1830251,-0.56327754
92,1747638589870,0.8060989000000001,0.33559883999999995,-1.0492837499999998,-0.26186258,0.20562645499999999,-0.61794835
93,1747638589880,0.8159928,0.33694038,-1.0190228,-0.36994436,0.22822781,-0.67261916
94,1747638589890,0.8567268,0.32303715,-0.8757523,-0.5176167,0.16042376,-0.9884272
95,1747638589900,0.7611877,0.29777652499999996,-0.79289685,-0.420434715,0.066620529,-1.14174985
96,1747638589910,0.6656486,0.2725159,-0.7100414,-0.32325273,-0.027182701999999996,-1.2950725
97,1747638589920,0.5192071,0.31718314,-0.66976464,0.08926006,-0.26541314,-1.3714285
98,1747638589930,0.469798735,0.33390666999999996,-0.667081595,0.25063827000000005,-0.36650835,-1.29598885
99,1747638589940,0.42039037,0.3506302,-0.66439855,0.41201648,-0.46760356,-1.2205492
100,1747638589950,0.37718663,0.34892282,-0.85550725,0.7602758,-0.75409096,-0.81800085
101,1747638589960,0.41366741500000004,0.35550856,-0.889426925,0.7014054,-0.70308521,-0.765467975
102,1747638589970,0.4501482,0.3620943,-0.9233466,0.642535,-0.65207946,-0.7129351
103,1747638589980,0.5499711,0.3420931,-0.92554176,0.3203894,-0.33260635,-0.79356694
104,1747638589990,0.46833524000000004,0.36209428,-0.86599563,0.167410333,-0.153628095,-0.8909970700000001
105,1747638590000,0.38669938,0.38209546,-0.8064495,0.014431266,0.02535016,-0.9884272
106,1747638590010,0.32081139000000003,0.41491748,-0.79265295,0.0197380015,-0.047035240000000006,-0.962160785
107,1747638590020,0.2549234,0.4477395,-0.7788564,0.025044737,-0.11942064,-0.93589437
108,1747638590030,0.16436934,0.48606494,-0.77934426,0.08238802,-0.2935121,-0.8070056
109,1747638590040,0.106408644,0.52352137,-0.78314021,0.13098856,-0.4111002,-0.6619293749999999
110,1747638590050,0.048447948,0.5609778,-0.78693616,0.1795891,-0.5286883,-0.51685315
111,1747638590060,0.07433361,0.5827169,-0.8452627,0.01885991,-0.2287623,-0.087962
112,1747638590070,0.094212815,0.5698960200000001,-0.81829467,-0.045355410000000006,-0.149657578,-0.06933116
113,1747638590080,0.11409202,0.55707514,-0.79132664,-0.10957073,-0.070552856,-0.05070032
114,1747638590090,0.13119668,0.55609953,-0.6876011,-0.20982604,-0.26724568,-0.076355904
115,1747638590100,0.0556587355,0.5694082149999999,-0.707236385,-0.21950415,-0.5998519899999999,-0.154849782
116,1747638590110,-0.019879209,0.5827169,-0.72687167,-0.22918226,-0.9324583,-0.23334366
117,1747638590120,-0.019879209,0.5827169,-0.72687167,-0.23792501,-1.0210311,-0.2596101
118,1747638590130,-0.1783793045,0.60015697,-0.757025885,-0.3150062925,-0.820367825,-0.1965401135
119,1747638590140,-0.3368794,0.61759704,-0.7871801,-0.392087575,-0.61970455,-0.133470127
120,1747638590150,-0.44548333,0.6071086,-0.7434885,-0.49585527,-0.3710897,0.18386503
121,1747638590160,-0.453547805,0.6105234500000001,-0.72322815,-0.49459539500000005,-0.441948,0.26877279
122,1747638590170,-0.46161228,0.6139383,-0.7029678,-0.49333552,-0.5128063,0.35368055
123,1747638590180,-0.46466124,0.6097917,-0.7040654500000001,-0.486196235,-0.71744013,0.4459185
124,1747638590190,-0.4677102,0.6056451,-0.7051631,-0.47905695,-0.92207396,0.53815645
125,1747638590200,-0.41474983,0.5714967,-0.8010833,-0.69644225,-1.2409362,0.60412794
126,1747638590210,-0.440864145,0.5674568499999999,-0.8302466,-0.787420305,-1.11754505,0.56747712
127,1747638590220,-0.46697846,0.563417,-0.8594099,-0.87839836,-0.9941539,0.5308263
128,1747638590230,-0.7271156,0.597108,-0.88087463,-1.3681451,-0.30267483,0.57725066
129,1747638590240,-0.86573645,0.60613292,-0.8115717650000001,-1.7374786500000001,0.0073683374999999884,0.84296922
130,1747638590250,-1.0043573,0.61515784,-0.7422689,-2.1068122000000002,0.317411505,1.10868778
131,1747638590260,-1.0043573,0.61515784,-0.7422689,-2.4585838,0.17080817,1.5607147
132,1747638590270,-0.836817065,0.64897077,-0.5919247750000001,-2.45888925,0.018974450000000004,1.5988927
133,1747638590280,-0.66927683,0.6827837,-0.44158065,-2.4591947,-0.13285927,1.6370707
134,1747638590290,-0.28321773,0.73693323,-0.5418914,-2.3096135,-0.369868,1.199704
135,1747638590300,-0.313722565,0.7665843649999999,-0.56117605,-2.2993436000000003,-0.2217375475,1.04485423
136,1747638590310,-0.3442274,0.7962355,-0.5804607,-2.2890737,-0.073607095,0.89000446
137,1747638590320,-0.66952074,0.9165779,-0.53701305,-2.1930943,0.34245625,0.6493306
138,1747638590330,-0.7651970699999999,0.9796608499999999,-0.506142345,-1.89435185,0.163134399,0.8353336499999999
139,1747638590340,-0.8608734,1.0427438,-0.47527164,-1.5956094,-0.016187452,1.0213367
140,1747638590350,-0.7766764150000001,1.0290692,-0.48271110500000003,-1.42892445,-0.138051476,1.0677611
141,1747638590360,-0.69247943,1.0153946,-0.49015057,-1.2622395,-0.2599155,1.1141855
142,1747638590370,-0.44597113,1.008077,-0.53091514,-0.868128425,-0.40682428000000004,0.91230035
143,1747638590380,-0.422921,0.99368598,-0.54495557,-0.6956977275,-0.40239563,0.75180024
144,1747638590390,-0.39987087,0.97929496,-0.558996,-0.52326703,-0.39796698,0.59130013
145,1747638590400,-0.40596882,1.0146629,-0.5919248,0.06864396,-0.25136364,-0.102011494
146,1747638590410,-0.43257096,1.0118578500000002,-0.615234085,0.14965758,-0.26785652,-0.17836739699999998
147,1747638590420,-0.4591731,1.0090528,-0.63854337,0.2306712,-0.2843494,-0.2547233
148,1747638590430,-0.4721007,0.9580437,-0.71126103,0.4966952,-0.3283304,-0.5761053
149,1747638590440,-0.43964455,0.93412465,-0.739204735,0.48111857999999996,-0.305423635,-0.6371900500000001
150,1747638590450,-0.4071884,0.9102056,-0.76714844,0.46554196,-0.28251687,-0.6982748
151,1747638590460,-0.40401748,0.8379757,-0.7952293,0.27862272,-0.02535016,-0.89924353
152,1747638590470,-0.42340886499999997,0.8127150999999999,-0.75092795,0.1197642475,0.08769476000000001,-0.879390985
153,1747638590480,-0.44280025,0.7874545,-0.7066266,-0.039094225,0.20073968,-0.85953844
154,1747638590490,-0.4164572,0.78623486,-0.6375677,-0.120107844,0.20501561,-0.8045622
155,1747638590500,-0.3965017825,0.7706242125,-0.5946155,-0.131026737,0.20562645499999999,-0.77707405
156,1747638590510,-0.376546365,0.755013565,-0.5516633,-0.14194563,0.2062373,-0.7495859
157,1747638590520,-0.3495173525,0.7513548325,-0.51639446,-0.069369341,0.18394138,-0.67994933
158,1747638590530,-0.32248834,0.7476961,-0.48112562,0.003206948,0.16164546,-0.61031276
159,1747638590540,-0.29614532,0.7618432,-0.47600338,0.076126836,0.11025793,-0.5657209
160,1747638590550,-0.24196532999999998,0.76403847,-0.493458675,0.155575158,0.120680515,-0.5586961749999999
161,1747638590560,-0.18778534,0.76623374,-0.51091397,0.23502348,0.1311031,-0.55167145
162,1747638590570,-0.22415942,0.7806248,-0.55359936,0.29794076,0.515326,-0.5718294
163,1747638590580,-0.2822344625,0.78599861,-0.5412206075,0.316647955,0.68758495,-0.49089214000000003
164,1747638590590,-0.340309505,0.79137242,-0.528841855,0.33535515,0.8598439,-0.40995488
165,1747638590600,-0.35837457,0.78501534,-0.51188964,0.40323555,0.9013815,-0.21929416
166,1747638590610,-0.24367276,0.75841317,-0.45697789,0.560872335,0.734620195,-0.1598892675
167,1747638590620,-0.12897095,0.731811,-0.40206614,0.71850912,0.56785889,-0.100484375
168,1747638590630,-0.11043327,0.745013,-0.4494165,1.1347251,0.16897562,-0.19241689
169,1747638590640,-0.088221608,0.748915675,-0.495410015,1.20420895,0.15309359,-0.241590095
170,1747638590650,-0.066009946,0.75281835,-0.54140353,1.2736928,0.13721156,-0.2907633
171,1747638590660,-0.14360595,0.7320549,-0.7871801,1.215128,0.62833273,-0.51196635
172,1747638590670,-0.190712355,0.734494065,-0.80791302,1.11792685,0.779822865,-0.527237525
173,1747638590680,-0.23781876,0.73693323,-0.82864594,1.0207257,0.931313,-0.5425087
174,1747638590690,-0.37887883,0.727786365,-0.808156935,0.766193315,1.1524397,-0.39678346
175,1747638590700,-0.5199389,0.7186395,-0.78766793,0.51166093,1.3735664,-0.25105822
176,1747638590710,-0.42694563,0.71693206,-0.5301834,0.36215606,0.9881218,0.5173876
177,1747638590720,-0.246721705,0.69069578,-0.48002803,0.46993243,0.6784222400000001,0.5534276
178,1747638590730,-0.06649778,0.6644595,-0.42987266,0.5777088,0.36872268,0.5894676
179,1747638590740,0.20976834,0.6349456,-0.5377448,0.96498595,-0.36864632999999997,0.20860435
180,1747638590750,0.215744295,0.64128743,-0.60021795,1.065432125,-0.434312405,-0.037108964999999994
181,1747638590760,0.22172025,0.64762926,-0.6626911,1.1658783,-0.49997848,-0.28282228
182,1747638590770,0.010640865,0.6573859,-0.7666606,0.97155255,0.1543153,-0.8552625
183,1747638590780,-0.0722145775,0.66836215,-0.7639775,0.893631375,0.21692714999999999,-0.89069165
184,1747638590790,-0.15507002,0.6793384,-0.7612944,0.8157102,0.279539,-0.9261208
185,1747638590800,-0.4249943,0.67104524,-0.7454398,0.5621322,0.3846047,-0.68117106
186,1747638590810,-0.389977015,0.6749479199999999,-0.7182278799999999,0.4750673725,0.376816395,-0.3853300925
187,1747638590820,-0.35495973,0.6788506,-0.69101596,0.388002545,0.36902809000000003,-0.08948912499999999
188,1747638590830,-0.35495973,0.6788506,-0.69101596,0.36963895,0.33146098,0.03970507
189,1747638590840,-0.13421514499999998,0.6627521000000001,-0.6971138299999999,0.40919131,0.10846355800000002,0.152406395
190,1747638590850,0.08652944,0.6466536,-0.7032117,0.44874367,-0.114533864,0.26510772
191,1747638590860,0.2661436,0.6154018,-0.77983207,0.5577799,-0.25136364,-0.36169794
192,1747638590870,0.224296635,0.6195483500000001,-0.78850636,0.5549929,-0.21104772500000002,-0.5125772200000001
193,1747638590880,0.18244967,0.6236949,-0.79718065,0.5522059,-0.17073181,-0.6634565
194,1747638590890,-0.08893812,0.64909273,-0.8171818,0.4537068,0.057114217,-0.8625927
195,1747638590900,-0.20973786,0.643238765,-0.81693788,0.348412005,0.18878997849999998,-0.629554465
196,1747638590910,-0.3305376,0.6373848,-0.81669396,0.24311721,0.32046574,-0.39651623
197,1747638590920,-0.34543175,0.6482390499999999,-0.8346371050000001,0.18642295,0.371471495,-0.23399268
198,1747638590930,-0.3603259,0.6590933,-0.85258025,0.12972869,0.42247725,-0.07146913
199,1747638590940,-0.045978293,0.6097917,-0.80571777,-0.040697699999999996,0.402319285,0.27946262
200,1747638590950,0.0807973985,0.587458075,-0.7793594850000001,-0.08414421,0.23399268250000002,0.277171945
201,1747638590960,0.20757309,0.56512445,-0.7530012,-0.12759072,0.06566608,0.27488127
202,1747638590970,0.30763993,0.5139019,-0.7241886,-0.050318543,-0.10292777,0.014049487
203,1747638590980,0.2289310575,0.5145116875,-0.699484425,0.130053196,-0.16783029,-0.25689945149999993
204,1747638590990,0.150222185,0.5151214749999999,-0.67478025,0.310424935,-0.23273281,-0.52784839
205,1747638591000,-0.13116619,0.52097553,-0.705407,0.590842,-0.062000997,-0.5107447
206,1747638591010,-0.18498030999999998,0.5279271649999999,-0.7260332300000001,0.60389888,0.008857283999999993,-0.404419085
207,1747638591020,-0.23879443,0.5348788,-0.74665946,0.61695576,0.079715565,-0.29809347
208,1747638591030,-0.275138,0.56561226,-0.83206075,0.4337779,0.29969692,0.343907
209,1747638591040,-0.06514099000000001,0.519252855,-0.832914425,0.29297761,0.250523725,0.5314371
210,1747638591050,0.14485602,0.47289345,-0.8337681,0.15217732,0.20135053,0.7189672
211,1747638591060,0.14485602,0.47289345,-0.8337681,0.14064758500000002,0.14908491000000001,0.6554390999999999
212,1747638591070,0.14485602,0.47289345,-0.8337681,0.12911785,0.09681929,0.591911
213,1747638591080,0.37157655,0.40359062,-0.7927902,0.23658877,-0.0122169455,0.22387551
214,1747638591090,0.298721695,0.41420101,-0.79315605,0.344536935,-0.0056503373,0.06673505499999999
215,1747638591100,0.22586684,0.4248114,-0.7935219,0.4524851,0.0009162709,-0.0904054
216,1747638591110,-0.0638147,0.47923526,-0.8433114,0.52784836,0.15248275,0.08857285
217,1747638591120,-0.076498367,0.487162545,-0.8569707,0.49669516,0.229754925,0.2211267
218,1747638591130,-0.089182034,0.49508983,-0.87063,0.46554196,0.3070271,0.35368055
219,1747638591140,0.20269476,0.46703944,-0.8759962,0.15400986,0.4646257,0.81609195
220,1747638591150,0.28372083,0.44885239,-0.87087397,0.1010570415,0.40262469999999995,0.7800519450000001
221,1747638591160,0.3647469,0.43066534,-0.86575174,0.048104223,0.3406237,0.74401194
222,1747638591170,0.396837185,0.40981049999999997,-0.8352469499999999,-0.10392039,0.09376506,0.45569205
223,1747638591180,0.3876217075,0.41121302,-0.789367725,-0.1079672525,0.096819295,0.41354359500000004
224,1747638591190,0.37840623,0.41261554,-0.7434885,-0.112014115,0.09987353,0.37139514
225,1747638591200,0.10457927,0.45042264,-0.6412264,0.23815407,0.5263213,0.4263714
226,1747638591210,0.07675752599999999,0.44420276999999997,-0.6227954499999999,0.330353835,0.553504,0.49203747500000006
227,1747638591220,0.048935782,0.4379829,-0.6043645,0.4225536,0.5806867,0.55770355
228,1747638591230,0.16632068,0.38185155,-0.7022361,1.1123528,0.07543964,0.91199493
229,1747638591240,0.23222391,0.359274015,-0.76239205,1.2185639,-0.04001049499999999,0.916576295
230,1747638591250,0.29812714,0.33669648,-0.822548,1.324775,-0.15546063,0.92115766
231,1747638591260,0.4794487,0.28864488,-1.0126505,1.4880239,-0.35459682,0.64810896
232,1747638591270,0.38732442,0.32354021,-1.11442475,1.3011047,-0.268772785,0.459968
233,1747638591280,0.29520014,0.35843554,-1.216199,1.1141855,-0.18294875,0.27182704
234,1747638591290,0.12485485,0.42773837,-1.2252239,0.6873559,0.07849387,0.3683409
235,1747638591300,0.096301355,0.434202165,-1.20020725,0.398272422,0.198868965,0.52044185
236,1747638591310,0.06774786,0.44066596,-1.1751906,0.109188944,0.31924406,0.6725428
237,1747638591320,0.096301355,0.42286004,-1.11052215,0.026304607999999993,0.33329354499999997,0.73484925
238,1747638591330,0.12485485,0.40505412,-1.0458537,-0.056579728,0.34734303,0.7971557
239,1747638591340,0.4177073,0.30157247,-0.85258025,-0.06593333115,0.23403085,0.889699045
240,1747638591350,0.427951815,0.29791373499999996,-0.844759675,0.08859193942499999,0.08173899700000001,0.7899782375
241,1747638591360,0.43819633,0.294255,-0.8369391,0.24311721,-0.070552856,0.69025743
242,1747638591370,0.3620638,0.3149879,-0.93212754,0.52975726,-0.38697174,0.48928866
243,1747638591380,0.3258802925,0.32358595749999997,-0.991307845,0.440955355,-0.38391751,0.50120018
244,1747638591390,0.289696785,0.332184015,-1.05048815,0.35215345,-0.38086328,0.5131117
245,1747638591400,0.30227375,0.3179149,-1.0531712,0.17271706,-0.22143213,0.5748073
246,1747638591410,0.348145325,0.296922815,-1.0076654999999999,0.1063637785,-0.12339114675,0.605655075
247,1747638591420,0.3940169,0.27593073,-0.9621598,0.040010497,-0.0253501635,0.6365028500000001
248,1747638591430,0.41551206,0.28181523,-0.95188487,0.09857547,0.03939965,0.6340594
249,1747638591440,0.42978117000000005,0.289498595,-0.956656435,0.148435885,0.0311532115,0.6349757
250,1747638591450,0.44405028,0.29718196,-0.961428,0.1982963,0.022906773,0.635892
251,1747638591460,0.56436217,0.275199,-1.0492685,0.29984966,-0.18600298,0.6139015
252,1747638591470,0.6667462,0.24932858000000002,-1.1477498499999998,0.08517502500000002,-0.23548161,0.440420885
253,1747638591480,0.76913023,0.22345816,-1.2462312,-0.12949961,-0.28496024,0.26694027
254,1747638591490,0.7690082650000001,0.21260387,-1.2528169999999998,-0.240712005,-0.27029991,0.1688992775
255,1747638591500,0.7688863,0.20174958,-1.2594028,-0.3519244,-0.25563958,0.070858285
256,1747638591510,0.60219973,0.22836697,-1.1673852,-0.80990714,-0.055281676,-0.26327518
257,1747638591520,0.5377752650000001,0.23787973,-1.1230991000000001,-0.91207132,0.012522370000000005,-0.28530385
258,1747638591530,0.4733508,0.24739249,-1.078813,-1.0142355,0.080326416,-0.30733252
259,1747638591540,0.43136662,0.24251415,-1.0253648,-1.069059,0.15859123,-0.27243787
260,1747638591550,0.41610658,0.243001985,-0.95799803,-1.0534824,0.19004986000000001,-0.25655585000000003
261,1747638591560,0.40084654,0.24348982,-0.89063126,-1.0379058,0.22150849,-0.24067383
262,1747638591570,0.5070113,0.2388554,-0.70857793,-0.43599224,-0.024739314,-0.31832778
263,1747638591580,0.53800395,0.2461729,-0.7183346150000001,-0.18241426499999996,-0.14782504200000002,-0.38949148
264,1747638591590,0.5689966,0.2534904,-0.7280913,0.07116371,-0.27091077,-0.46065518
265,1747638591600,0.6490623,0.28718138,-0.9597206,0.59267455,-0.5470137,-0.68483615
266,1747638591610,0.6354563049999999,0.2971819725,-1.0877159,0.5668089825,-0.5358657525,-0.7300388499999999
267,1747638591620,0.62185031,0.307182565,-1.2157111999999999,0.540943415,-0.524717805,-0.77524155
268,1747638591630,0.5370435,0.32279322,-1.3472432,0.06306998,-0.4107948,-0.7776849
269,1747638591640,0.507026525,0.3256592425,-1.291912275,-0.10017895000000002,-0.33566058,-0.76791135
270,1747638591650,0.47700955,0.328525265,-1.23658135,-0.26342788,-0.26052636,-0.7581378
271,1747638591660,0.4970107,0.311817,-0.91749257,-0.6790331,0.29725355,-0.5107447
272,1747638591670,0.5122707,0.31450007,-0.876240135,-0.5998901999999999,0.352229805,-0.46309859000000003
273,1747638591680,0.5275307,0.31718314,-0.8349877,-0.5207473,0.40720606,-0.41545248
274,1747638591690,0.62831405,0.29106880999999996,-0.7886283000000001,-0.28335677800000003,0.22482997249999997,-0.40995486000000003
275,1747638591700,0.7290974,0.26495448,-0.7422689,-0.045966256,0.042453885,-0.40445724
276,1747638591710,0.7203164,0.24739249,-0.89477783,0.40201384,-0.6923954,-0.7801283
277,1747638591720,0.65320885,0.285458735,-0.904671695,0.40606071,-0.81731365,-0.8109761
278,1747638591730,0.5861013,0.32352498,-0.91456556,0.41010758,-0.9422319,-0.8418239
279,1747638591740,0.40206614,0.43188494,-0.9043211,0.32290915,-1.1774081,-0.7166002
280,1747638591750,0.38499197,0.439080505,-0.8884512499999999,0.29110691,-1.11968305,-0.58526803
281,1747638591760,0.3679178,0.44627607,-0.8725814,0.25930467,-1.061958,-0.45393586
282,1747638591770,0.4369767,0.40285888,-0.8898995,0.084220566,-0.4291202,-0.19852535
283,1747638591780,0.47479902,0.391623465,-0.890631235,0.029397025,-0.28831991,-0.175007735
284,1747638591790,0.51262134,0.38038805,-0.89136297,-0.025426516,-0.14751962,-0.15149012
285,1747638591800,0.51823145,0.36526522,-0.8274264,-0.28831992,0.065055236,-0.47714806
286,1747638591810,0.445391835,0.38698904,-0.8028975,-0.30859241000000004,-0.037567102000000005,-0.54800636
287,1747638591820,0.37255222,0.40871286,-0.7783686,-0.3288649,-0.14018944,-0.61886466
288,1747638591830,0.13705069,0.51073104,-0.7051631,-0.2422773,-0.73332214,-0.473483
289,1747638591840,0.141319225,0.511218845,-0.709065785,-0.1478632175,-0.756534335,-0.29355029499999996
290,1747638591850,0.14558776,0.51170665,-0.71296847,-0.053449135,-0.77974653,-0.11361759
291,1747638591860,0.1571738,0.491446325,-0.73042372,-0.0394378255,-0.7482878850000001,-0.114228438
292,1747638591870,0.16875984,0.471186,-0.74787897,-0.025426516,-0.71682924,-0.114839286
293,1747638591880,0.05576545075,0.454462495,-0.8110839,-0.09269607,-0.5622849,-0.14171657
294,1747638591890,-0.024269707124999998,0.4670927975,-0.7869208999999999,-0.337264035,-0.46210595,-0.0729962505
295,1747638591900,-0.104304865,0.4797231,-0.7627579,-0.581832,-0.361927,-0.004275931
296,1747638591910,-0.0675801665,0.49545573,-0.669414085,-0.93669612,-0.6600204700000001,0.082158955
297,1747638591920,-0.037143937749999995,0.48502829000000003,-0.6460514425,-1.05835016,-0.8426638350000001,0.0007635575000000117
298,1747638591930,-0.006707709,0.47460085,-0.6226888,-1.1800042,-1.0253072,-0.08063184
299,1747638591940,-0.12336086,0.63299423,-0.6019254,-1.3083584,-0.9886563,-0.3757474
300,1747638591950,-0.260640215,0.675572965,-0.61328275,-1.3345102999999998,-0.93123665,-0.38918605
301,1747638591960,-0.39791957,0.7181517,-0.6246401,-1.3606622,-0.873817,-0.4026247
302,1747638591970,-0.7656849,0.7891619,-0.59021735,-1.5563625,-0.4395046,-0.087962
303,1747638591980,-0.8988176750000001,0.8278455499999999,-0.5159675925,-1.6130567,-0.323443625,0.21623995000000001
304,1747638591990,-1.03195045,0.8665292,-0.441717835,-1.6697509,-0.20738265,0.5204419
305,1747638592000,-0.8125474,0.8113888,-0.37837574,-1.5426184,-0.77119464,1.8783553
306,1747638592010,-0.7080901,0.7913724,-0.37935141,-1.4575579,-0.92482272,1.94799185
307,1747638592020,-0.6036328,0.771356,-0.38032708,-1.3724974,-1.0784508,2.0176284
308,1747638592030,-0.47746688,0.75403786,-0.45697787,-1.088988,-1.0558494,1.8740793
309,1747638592040,-0.563005415,0.817242805,-0.44244959500000003,-0.903939425,-0.95994645,1.74732855
310,1747638592050,-0.64854395,0.88044775,-0.42792132,-0.71889085,-0.8640435,1.6205778
311,1747638592060,-0.38886416,0.74696434,-0.34983748,-0.5519005,-0.9477295,1.5546063
312,1747638592070,-0.63011298,0.82224312,-0.46514909000000004,-0.41171104999999997,-0.8411366499999999,1.49840835
313,1747638592080,-0.8713618,0.8975219,-0.5804607,-0.2715216,-0.7345438,1.4422104
314,1747638592090,-0.8940461,0.8643492,-0.61659086,-0.25350162,-0.617872,1.4098355
315,1747638592100,-0.9018514,0.8432352000000001,-0.623176605,-0.25877017999999996,-0.5607578,1.3750172
316,1747638592110,-0.9096567,0.8221212,-0.62976235,-0.26403874,-0.5036436,1.3401989
317,1747638592120,-0.8945338700000001,0.8180965499999999,-0.607916575,-0.209826035,-0.458440885,1.2613996
318,1747638592130,-0.87941104,0.8140719,-0.5860708,-0.15561333,-0.41323817,1.1826003
319,1747638592140,-0.870874,0.8240725,-0.66171545,0.34719032,-0.3955236,0.84296924
320,1747638592150,-0.882582015,0.832975425,-0.694659445,0.46401486000000003,-0.385750035,0.78707672
321,1747638592160,-0.89429003,0.84187835,-0.72760344,0.5808394,-0.37597647,0.7311842
322,1747638592170,-0.8374269,0.837244,-0.9394451,0.65750074,-0.20921518,0.5815266
323,1747638592180,-0.78458845,0.82590188,-0.94212815,0.57587627,-0.17775655,0.53601847
324,1747638592190,-0.73175,0.81455976,-0.9448112,0.4942518,-0.14629792,0.49051034
325,1747638592200,-0.50039506,0.7979734,-0.88160634,0.29549736,-0.1408003,0.32985753
326,1747638592210,-0.42938481500000003,0.7834451,-0.8301094200000001,0.11010521749999999,-0.1667613,0.12766708
327,1747638592220,-0.35837457,0.7689168,-0.7786125,-0.075286925,-0.1927223,-0.07452337
328,1747638592230,-0.39008373,0.7394029,-0.68272275,-0.308936,0.029015245,-0.7208761
329,1747638592240,-0.437556015,0.7253624249999999,-0.627445125,-0.28461665,0.0409267675,-0.8445727000000001
330,1747638592250,-0.4850283,0.71132195,-0.5721675,-0.2602973,0.05283829,-0.9682693
331,1747638592260,-0.57387495,0.67665535,-0.53457385,-0.0820826,-0.033291176,-1.1197594
332,1747638592270,-0.6216978449999999,0.66604495,-0.5304272750000001,0.04157579,-0.038025241249999994,-1.120370275
333,1747638592280,-0.66952074,0.65543455,-0.5262807,0.16523418,-0.0427593065,-1.12098115
334,1747638592290,-0.66952074,0.65543455,-0.5262807,0.22318831,-0.048562355,-1.1044883
335,1747638592300,-0.671716,0.67104524,-0.5362813,0.30229303,-0.06566608,-1.0177479
336,1747638592310,-0.61899954,0.690833,-0.5350617,0.3534515,-0.14751962,-0.9248991
337,1747638592320,-0.43450707,0.7149807,-0.6072915,0.40323555,-0.2599155,-0.88947
338,1747638592330,-0.2866326,0.6857108,-0.67930794,0.3222983,-0.11270132,-1.0269105
339,1747638592340,-0.2866326,0.6857108,-0.67930794,0.3222983,-0.11270132,-1.0269105
340,1747638592350,-0.25806385,0.6656791,-0.6973577,0.21448374,0.005803049,-1.2394855
341,1747638592360,-0.29346225,0.66836214,-0.7161393,0.11102149,0.03939965,-1.3952515
342,1747638592370,-0.51871926,0.59979105,-0.67174655,-0.0041995747,0.051005747,-1.5027606
343,1747638592380,-0.6480561,0.6032059,-0.63025016,-0.26464957,0.17997088,-1.485046
344,1747638592390,-0.6480561,0.6032059,-0.63025016,-0.26464957,0.17997088,-1.485046
345,1747638592400,-0.78568614,0.633726,-0.57411885,-0.26533678,0.2862583,-1.2596434
346,1747638592410,-0.6918544200000001,0.6832563300000001,-0.516402075,-0.09895725999999999,0.309775915,-0.675940667
347,1747638592420,-0.5980227,0.73278666,-0.4586853,0.06742226,0.33329353,-0.092237934
348,1747638592430,-0.4364584,0.71924928,-0.47624729,0.14186927,0.23311458000000002,-0.07910471699999999
349,1747638592440,-0.2748941,0.7057119,-0.49380928,0.21631628,0.13293563,-0.0659715
350,1747638592450,0.14705126,0.6056451,-0.73202443,0.264955,-0.0009162707999999997,-0.496657
351,1747638592460,0.08823685449999999,0.59466885,-0.779115585,0.1714953675,0.06814764460000002,-0.9166335999999999
352,1747638592470,0.029422449,0.5836926,-0.82620674,0.078035735,0.13721156,-1.3366102
353,1747638592480,-0.23367217,0.62933546,-0.768368,-0.12140589,0.2538834,-1.5980527
354,1747638592490,-0.442815465,0.63299423,-0.7234721,-0.254723305,0.3626142,-1.5052039499999998
355,1747638592500,-0.65195876,0.636653,-0.6785762,-0.38804072,0.471345,-1.4123552
356,1747638592510,-0.8625808,0.72083473,-0.58143634,-0.42041564,0.7523348,-0.2443389
357,1747638592520,-0.772651775,0.722298235,-0.54898017,-0.358109205,0.76607885,0.010995249999999984
358,1747638592530,-0.68272275,0.72376174,-0.516524,-0.29580277,0.7798229,0.2663294
359,1747638592540,-0.14238635,0.7464765,-0.53432995,-0.0035887277,0.45240876,0.70980453
360,1747638592550,0.106058015,0.684232,-0.6331771900000001,0.10823450115,0.2190269245,0.2907633
361,1747638592560,0.35450238,0.6219875,-0.73202443,0.22005773,-0.014354911,-0.12827793
362,1747638592570,0.23736142,0.63177466,-0.8386465,0.14721419,0.05955761,-0.65246123
363,1747638592580,0.10849718950000001,0.66032815,-0.8540285,0.047493375000000004,0.186652015,-0.8128086299999999
364,1747638592590,-0.020367041,0.68888164,-0.8694105,-0.05222744,0.31374642,-0.97315603
365,1747638592600,-0.5479893,0.7349819,-0.74983037,-0.54945713,0.7981483,-0.7385907
366,1747638592610,-0.593266335,0.7379241299999999,-0.7218866349999999,-0.626385685,0.8769476,-0.525710425
367,1747638592620,-0.63854337,0.74086636,-0.6939429,-0.70331424,0.9557469,-0.31283015
368,1747638592630,-0.569225285,0.74001268,-0.6707556,-0.76875127,1.13503055,0.21009327500000002
369,1747638592640,-0.4999072,0.739159,-0.6475683,-0.8341883,1.3143142,0.7330167
370,1747638592650,0.27858332,0.6920526,-0.5326226,-0.71950173,0.7761578,0.9315421
371,1747638592660,0.36814648,0.67093855,-0.5480045499999999,-0.6254312399999999,0.5913765,0.7009472400000001
372,1747638592670,0.45770964,0.6498245,-0.5633865,-0.53136075,0.4065952,0.47035238
373,1747638592680,0.34203213,0.6749479,-0.59973013,-0.259381025,0.35222980000000004,-0.253539795
374,1747638592690,0.07761121999999998,0.7055747,-0.594120065,-0.04085041249999999,0.43958095,-0.4862916725
375,1747638592700,-0.18680969,0.7362015,-0.58851,0.1776802,0.5269321,-0.71904355
376,1747638592710,-0.36642382,0.6729966,-0.5279881,0.39888325,0.50066566,-0.43194535
377,1747638592720,-0.387835135,0.6722038674999999,-0.5572123849999999,0.472719425,0.48325653,-0.312791965
378,1747638592730,-0.40924645000000004,0.671411135,-0.58643667,0.5465556,0.4658474,-0.19363858
379,1747638592740,-0.14555727,0.633726,-0.74056154,0.6512395,0.49333552,0.46974155
380,1747638592750,0.05187802500000002,0.59113205,-0.804620145,0.443436915,0.433472485,0.334744305
381,1747638592760,0.24931332,0.5485381,-0.86867875,0.23563433,0.37360945,0.19974706
382,1747638592770,0.22879384,0.5705211,-0.8586781,0.036269058,0.3558949,-0.06536066
383,1747638592780,0.075537945,0.597108,-0.776554435,-0.047531551,0.40567895,-0.147214195
384,1747638592790,-0.07771795,0.6236949,-0.69443077,-0.13133216,0.455463,-0.22906773
385,1747638592800,-0.12188211499999999,0.6217436000000001,-0.67953661,-0.11079242,0.4930301,-0.186613845
386,1747638592810,-0.16604628,0.6197923,-0.66464245,-0.09025268,0.5305972,-0.14415996
387,1747638592820,-0.2917548,0.60857207,-0.6414703,0.0151184695,0.70713204,0.13133216
388,1747638592830,-0.30273107499999996,0.616880485,-0.6342748,0.07864658474999998,0.76363542,0.371700555
389,1747638592840,-0.31370735,0.6251889,-0.6270793,0.1421747,0.8201388,0.61206895
390,1747638592850,0.29666364,0.5443915,-0.7027239,0.33344623,0.21295662,0.84968853
391,1747638592860,0.39049533000000003,0.5237653,-0.7306676,0.3655539,0.05837408699999999,0.66796148
392,1747638592870,0.48432702,0.5031391,-0.7586113,0.39766157,-0.096208446,0.48623443
393,1747638592880,0.3925534,0.5336592,-0.7844665,0.53846186,-0.08093726,-0.22418094
394,1747638592890,0.27248542,0.5620906999999999,-0.772148725,0.6317687725,0.09380323,-0.3283685775
395,1747638592900,0.15241744,0.5905222,-0.75983095,0.725075685,0.26854372,-0.43255621499999997
396,1747638592910,-0.023781875,0.6017424,-0.7610505,0.77463067,0.3626142,-0.42033926
397,1747638592920,-0.13586158750000002,0.5820385175,-0.7717294749999999,0.8509483849999999,0.46157145,-0.160385577
398,1747638592930,-0.24794130000000003,0.562334635,-0.7824084499999999,0.9272661,0.5605287,0.099568106
399,1747638592940,-0.12482436,0.53878146,-0.790351,0.9509365,0.71079713,0.9034431
400,1747638592950,-0.059165039350000004,0.516081955,-0.7878966000000001,0.96059552,0.6109236149999999,0.97521765
401,1747638592960,0.0064942813,0.49338245,-0.7854422,0.97025454,0.5110501,1.0469922
402,1747638592970,0.35962465,0.38526636,-0.8630686,1.0954782,-0.024128467,0.7537855
403,1747638592980,0.35900723749999996,0.37380229499999995,-0.91211875,1.0602781000000001,0.0070247425,0.498451355
404,1747638592990,0.358389825,0.36233823,-0.9611689,1.025078,0.038177952,0.24311721
405,1747638593000,0.2180615,0.40237105,-1.0341457,0.9235247,0.1830251,0.19241689
406,1747638593010,0.10299381249999999,0.44092512500000003,-1.0038848,0.7964302999999999,0.37910707499999996,0.29565007
407,1747638593020,-0.012073875,0.4794792,-0.9736239,0.6693359,0.57518905,0.39888325
408,1747638593030,-0.0483107475,0.48411362,-0.92981035,0.6244768,0.590765655,0.6007682750000001
409,1747638593040,-0.08454762,0.48874804,-0.8859968,0.5796177,0.60634226,0.8026533
410,1747638593050,0.015031364,0.47728392,-0.83937824,0.62573665,0.4182013,1.1123528
411,1747638593060,0.207085267,0.43468998,-0.8791671400000001,0.739430605,0.11609915999999998,1.1899304000000002
412,1747638593070,0.39913917,0.39209604,-0.91895604,0.85312456,-0.18600298,1.267508
413,1747638593080,0.56143516,0.34721538,-1.1171079,0.8537354,-0.31611344,0.7751652
414,1747638593090,0.5298327300000001,0.36136254,-1.11966905,0.76775865,-0.202190435,0.67101575
415,1747638593100,0.4982303,0.3755097,-1.1222302,0.6817819,-0.08826743,0.5668663
416,1747638593110,0.33361702000000004,0.40102948,-1.09832625,0.35093176,0.114533864,0.53693473
417,1747638593120,0.27596122,0.40755426,-1.0755048249999999,0.14251830499999998,0.145725252,0.68598148
418,1747638593130,0.21830542,0.41407904,-1.0526834,-0.06589515,0.17691664,0.83502823
419,1747638593140,0.31325,0.37770495,-1.0697576,-0.28213507,0.23677967,0.97918814
420,1747638593150,0.351804075,0.36685066,-1.0579276,-0.35723110999999996,0.24899662,1.00301117
421,1747638593160,0.39035815,0.35599637,-1.0460976,-0.43232715,0.26121357,1.0268342
422,1747638593170,0.63735425,0.3223054,-0.91432166,-0.5880932,0.013744064,0.7739435
423,1747638593180,0.670054325,0.3185247,-0.90613518,-0.534185935,-0.092237938,0.63253235
424,1747638593190,0.7027544,0.314744,-0.8979487,-0.48027867,-0.19821994,0.4911212
425,1747638593200,0.6119565,0.33498904,-0.92798096,-0.15813309,-0.3826958,-0.108730815
426,1747638593210,0.53849944,0.337748355,-0.950009705,-0.13163759,-0.28098973,-0.2834713075
427,1747638593220,0.46504238,0.34050767000000004,-0.97203845,-0.10514209,-0.17928366,-0.4582118
428,1747638593230,0.33203158,0.33352557,-0.9846001,-0.1518719,-0.07605048,-0.46248773
429,1747638593240,0.3106126425,0.33285479500000004,-0.98356346,-0.17336609,-0.006413895000000003,-0.43591587499999995
430,1747638593250,0.28919370499999997,0.33218402,-0.9825268199999999,-0.19486028,0.06322269,-0.40934402
431,1747638593260,0.3307510025,0.32017112000000003,-0.9678156099999999,-0.18833185,0.096552045,-0.344556035
432,1747638593270,0.3723083,0.30815822,-0.9531044,-0.18180342,0.1298814,-0.27976805
433,1747638593280,0.48530272,0.29010838,-0.99167365,-0.065284304,-0.20310672,-0.40201384
434,1747638593290,0.50079141,0.30401164,-1.020105225,-0.061542862000000004,-0.26602399,-0.459128055
435,1747638593300,0.5162801,0.3179149,-1.0485368,-0.05780142,-0.32894126,-0.51624227
436,1747638593310,0.52801865,0.33767214,-1.1171079,-0.23792501,-0.24403349,-0.77524155
437,1747638593320,0.507148505,0.33939479,-1.11576635,-0.30362927500000003,-0.186002995,-0.811281525
438,1747638593330,0.48627836,0.34111744,-1.1144248,-0.36933354,-0.1279725,-0.8473215
439,1747638593340,0.38011363,0.3594112,-1.0560982,-0.60550237,-0.013133216,-0.8497649
440,1747638593350,0.31922593499999996,0.3702655,-1.016934325,-0.68869211,-0.03023693975,-0.788680175
441,1747638593360,0.25833824,0.3811198,-0.97777045,-0.77188185,-0.0473406635,-0.7275954499999999
442,1747638593370,0.28297383,0.40871286,-0.9201756,-0.8634326,-0.019852536,-0.5418979
443,1747638593380,0.305673335,0.413713155,-0.89832985,-0.8404112850000001,-0.0128277925,-0.48325655
444,1747638593390,0.32837284,0.41871345,-0.8764841,-0.81738997,-0.005803049,-0.4246152
445,1747638593400,0.49432763,0.40773723,-0.83206075,-0.581832,-0.25258535,-0.3714715
446,1747638593410,0.502376865,0.43214414,-0.9012568750000001,-0.54880807,-0.41354362499999997,-0.523877875
447,1747638593420,0.5104261,0.45655105,-0.970453,-0.51578414,-0.5745019,-0.67628425
448,1747638593430,0.5104261,0.45655105,-0.970453,-0.51578414,-0.5745019,-0.67628425
449,1747638593440,0.40598404499999996,0.472039745,-0.9443386300000001,-0.7656206649999999,-0.38177953,-0.813724915
450,1747638593450,0.28834,0.48289403,-0.8010833,-0.907719,-0.15790401,-0.8778639
451,1747638593460,0.21732975999999998,0.491675035,-0.704919175,-0.82017695,-0.08490776600000001,-0.8555679700000001
452,1747638593470,0.14631952,0.50045604,-0.60875505,-0.7326349,-0.011911522,-0.83327204
453,1747638593480,0.10483843500000001,0.5086424949999999,-0.552745685,-0.36906626249999996,-0.0647498085,-0.6723137699999999
454,1747638593490,0.06335735,0.51682895,-0.49673632,-0.005497625,-0.117588095,-0.5113555
455,1747638593500,0.13339193,0.52024376,-0.67247826,0.74347746,-0.73759806,-0.054976255
456,1747638593510,0.19123067,0.526585605,-0.77338353,0.7459590300000001,-0.86404343,-0.0467298165
457,1747638593520,0.24906941,0.53292745,-0.8742888,0.7484406,-0.9904888,-0.038483378
458,1747638593530,0.34788615,0.522439,-1.0236572,0.2911451,-0.9263499,-0.34642676
459,1747638593540,0.260884125,0.5570904299999999,-0.94348487,0.04827603450000001,-0.73194775,-0.531360765
460,1747638593550,0.1738821,0.59174186,-0.86331254,-0.194593031,-0.5375456,-0.71629477
461,1747638593560,0.05844853,0.633726,-0.7583674,-0.4310291,-0.1603474,-0.861371
462,1747638593570,0.019528577499999998,0.627246975,-0.7095536,-0.40609890000000004,-0.098346405,-0.81311405
463,1747638593580,-0.019391375,0.62076795,-0.6607398,-0.3811687,-0.03634541,-0.7648571
464,1747638593590,0.033812948,0.64909273,-0.64586085,0.04497363,-0.53724015,-0.5382328
465,1747638593600,-0.012561708499999998,0.647507265,-0.707724225,0.09544488000000001,-0.760810255,-0.54831177
466,1747638593610,-0.058936365,0.6459218,-0.7695876,0.14591613,-0.98438036,-0.55839074
467,1747638593620,-0.19071235,0.66348386,-0.7959611,0.025655584,-0.9587248,-0.5150206
468,1747638593630,-0.2528806125,0.6521340950000001,-0.7611191125,-0.130415893,-0.7882984,-0.340890955
469,1747638593640,-0.315048875,0.64078433,-0.726277125,-0.28648737,-0.617872,-0.16676131
470,1747638593650,-0.36203334,0.59954715,-0.5938761,-0.33069745,-0.5183039,0.029320668
471,1747638593660,-0.351057085,0.598449525,-0.57044487,-0.28692641750000003,-0.50379628,0.175618589
472,1747638593670,-0.34008083,0.5973519,-0.54701364,-0.243155385,-0.48928866000000004,0.32191651
473,1747638593680,-0.30285305,0.5775794350000001,-0.5285979199999999,-0.1847622075,-0.51967831,0.38849885500000003
474,1747638593690,-0.26562527,0.55780697,-0.5101822,-0.12636903,-0.55006796,0.4550812
475,1747638593700,-0.2587956,0.57296026,-0.50798696,0.050013117,-0.7198835,0.47218493
476,1747638593710,-0.29076392,0.58796113,-0.5229878299999999,0.0727290035,-0.69208995,0.47554459
477,1747638593720,-0.32273224,0.602962,-0.5379887,0.09544489,-0.6642964,0.47890425
478,1747638593730,-0.37740007,0.61857265,-0.54018396,0.12972869,-0.4767663,0.57969403
479,1747638593740,-0.369838655,0.6183363825,-0.5496433475,0.15526974500000001,-0.46821442999999996,0.598630315
480,1747638593750,-0.36227724,0.6181001150000001,-0.559102735,0.1808108,-0.45966256,0.6175666
481,1747638593760,-0.36788732,0.6247011,-0.5726553,0.19455485,-0.47065783,0.6242859
482,1747638593770,-0.37325348,0.664840615,-0.5719236,0.17832922499999998,-0.4431697,0.6187882849999999
483,1747638593780,-0.37861964,0.70498013,-0.5711919,0.1621036,-0.41568157,0.61329067
484,1747638593790,-0.4603927,0.7555014,-0.56802094,0.17462596,-0.20066333,0.65543914
485,1747638593800,-0.47868646,0.7484278,-0.56314262,0.20264858,-0.106898273,0.68567607
486,1747638593810,-0.49698022,0.7413542,-0.5582643,0.2306712,-0.013133216,0.715913
487,1747638593820,-0.53115904,0.690833,-0.5780215,0.38521555,0.17080817,0.7910472
488,1747638593830,-0.576664745,0.64726335,-0.627811,0.4291202,0.078837477,0.8157865
489,1747638593840,-0.62217045,0.6036937,-0.6776005,0.47302485,-0.013133216,0.8405258
490,1747638593850,-0.654641875,0.607352485,-0.70371485,0.423508035,-0.071469128,0.8979454499999999
491,1747638593860,-0.6871133,0.61101127,-0.7298292,0.37399122,-0.12980504,0.9553651
492,1747638593870,-0.7432446,0.65445894,-0.8169379,0.091092594,-0.12186403,1.2216945
493,1747638593880,-0.71225195,0.67776822,-0.835856725,-0.12885058800000002,-0.03970507250000001,1.36585445
494,1747638593890,-0.6812593,0.7010775,-0.85477555,-0.34879377,0.042453885,1.5100144
495,1747638593900,-0.5654446,0.741217035,-0.8367104000000001,-0.8566369500000001,0.25724306,1.6999878499999999
496,1747638593910,-0.509137935,0.7429930375,-0.81010062,-1.062568825,0.33161371500000003,1.713426525
497,1747638593920,-0.45283127,0.74476904,-0.78349084,-1.2685007,0.40598437,1.7268652
498,1747638593930,-0.32883018,0.77233166,-0.5760702,-1.604314,0.31435728,1.4061704
499,1747638593940,-0.332123055,0.76184323,-0.53079318,-1.5183372,0.26060272,1.2953016499999999
500,1747638593950,-0.33541593,0.7513548,-0.48551616,-1.4323604,0.20684816,1.1844329
501,1747638593960,-0.48234522,0.7908693,-0.47795472,-0.9307785,-0.00335966,0.9046648
502,1747638593970,-0.5708107600000001,0.8112516000000001,-0.62657621,-0.70988087,-0.08032641500000001,0.89886175
503,1747638593980,-0.6592763,0.8316339,-0.7751977,-0.48898324,-0.15729317,0.8930587
504,1747638593990,-0.6380555,0.82602376,-0.87502056,-0.61794835,-0.05467083,0.9309312
505,1747638594000,-0.56788373,0.82541398,-0.8702642,-0.7313750750000001,0.028098972000000007,0.9330691499999999
506,1747638594010,-0.49771196,0.8248042,-0.86550784,-0.8448018,0.110868774,0.9352071
507,1747638594020,-0.3413004,0.8009004,-0.78568614,-1.219862,0.20868069,0.65177405
508,1747638594030,-0.29602337,0.77954245,-0.75201037,-1.226734,0.22181391,0.49875679500000003
509,1747638594040,-0.25074634,0.7581845,-0.7183346,-1.233606,0.23494713,0.34573954
510,1747638594050,-0.26733267,0.7174199,-0.5423792,-0.8279271,0.12621632,-0.40384638
511,1747638594060,-0.391928335,0.732558,-0.5684935149999999,-0.45534845,-0.006070295000000003,-0.63719004
512,1747638594070,-0.516524,0.7476961,-0.59460783,-0.0827698,-0.13835691,-0.8705337
513,1747638594080,-0.55849292,0.7558673,-0.622551565,0.03470376,-0.145687075,-0.8741988
514,1747638594090,-0.60046184,0.7640385,-0.6504953,0.15217732,-0.15301724,-0.8778639
515,1747638594100,-0.65415405,0.7686728700000001,-0.7518883999999999,0.30572905,0.017103723499999997,-0.761192055
516,1747638594110,-0.657202975,0.773307285,-0.7749003799999999,0.306225375,0.14648881175,-0.6878903775
517,1747638594120,-0.6602519,0.7779417,-0.79791236,0.3067217,0.2758739,-0.6145887
518,1747638594130,-0.45331916,0.8082179,-0.7710511,0.14347275,0.63077617,-0.30794337
519,1747638594140,-0.35837458,0.8059007,-0.7664167,0.1201078425,0.565110075,-0.342761665
520,1747638594150,-0.26343,0.8035835,-0.7617823,0.096742935,0.49944398,-0.37757996
521,1747638594160,-0.061863367,0.74574476,-0.8271825,-0.01733279,0.1958529,-1.0324082
522,1747638594170,-0.11090586350000001,0.73694848,-0.81376705,-0.05596888,0.22273018,-1.18970135
523,1747638594180,-0.15994836,0.7281522,-0.8003516,-0.09460497,0.24960746,-1.3469945
524,1747638594190,-0.45502654,0.7545257,-0.66537416,-0.06467345,0.35039726,-1.5522393
525,1747638594200,-0.55050467,0.7679411224999999,-0.64482419,0.022105037500000008,0.319854905,-1.4065522000000001
526,1747638594210,-0.6459828,0.781356545,-0.62427422,0.108883525,0.28931255,-1.2608651
527,1747638594220,-0.6602519,0.774283,-0.65878844,0.2138729,0.3222983,-0.8161683
528,1747638594230,-0.5730669625,0.761599315,-0.6655647600000001,0.20234315,0.36902811,-0.69644225
529,1747638594240,-0.485882025,0.7489156299999999,-0.67234108,0.1908134,0.41575792,-0.5767162
530,1747638594250,-0.35081315,0.75306225,-0.65634924,0.12659809,0.4866162,-0.42950198
531,1747638594260,-0.2679577,0.751232875,-0.6536661699999999,0.11319763199999999,0.42430977999999997,-0.52418332
532,1747638594270,-0.18510225,0.7494035,-0.6509831,0.099797174,0.36200336,-0.61886466
533,1747638594280,-0.18595597,0.74550085,-0.6539101,0.09544488400000001,0.35772742999999996,-0.68208733
534,1747638594290,-0.18680969,0.7415982,-0.6568371,0.091092594,0.3534515,-0.74531
535,1747638594300,-0.32248834,0.74403733,-0.64317775,0.040621344,0.3962108,-0.84793234
536,1747638594310,-0.36569208,0.734753265,-0.623405275,0.024128467299999998,0.40384639,-0.809143545
537,1747638594320,-0.40889582,0.7254692,-0.6036328,0.0076355906,0.41148198,-0.77035475
538,1747638594330,-0.46551496,0.71985906,-0.57436275,0.014431266,0.41636875,-0.61275613
539,1747638594340,-0.43427837999999996,0.74999803,-0.56960639,0.053716378,0.45301959,-0.40930583
540,1747638594350,-0.4030418,0.780137,-0.56485003,0.09300149,0.48967043,-0.20585553
541,1747638594360,-0.1575092,0.7933085,-0.6585445,0.14591613,0.4597389,0.030542362
542,1747638594370,-0.124199325,0.7901376,-0.6863662500000001,0.110105215,0.41453622,0.018019993499999998
543,1747638594380,-0.09088945,0.7869667,-0.714188,0.0742943,0.36933354,0.005497625
544,1747638594390,-0.06161945,0.74428123,-0.71174884,-0.09765921,0.33879116,-0.11361759
545,1747638594400,-0.09938079900000002,0.70773183,-0.64647063,-0.10453124,0.30549998,-0.19333316
546,1747638594410,-0.13714214800000002,0.67118243,-0.58119242,-0.11140327,0.2722088,-0.27304873
547,1747638594420,-0.16238752,0.6439705,-0.54457444,-0.02351762,0.24533153,-0.29565006
548,1747638594430,-0.200712925,0.6794756,-0.599974035,0.04440095999999999,0.31893863,-0.205550095
549,1747638594440,-0.23903833,0.7149807,-0.65537363,0.11231954,0.39254573,-0.11545013
550,1747638594450,-0.224997885,0.729752915,-0.69845539,0.062153708499999995,0.461571465,-0.0516165925
551,1747638594460,-0.21095744,0.74452513,-0.74153715,0.011987877,0.5305972,0.012216945
552,1747638594470,-0.15531394,0.7650142,-0.8674591,-0.21669807,0.63077617,0.14415996
553,1747638594480,-0.07270241250000001,0.75830645,-0.84768665,-0.45286688500000005,0.625583935,0.21685078000000002
554,1747638594490,0.009909115,0.7515987,-0.8279142,-0.6890357,0.6203917,0.2895416
555,1747638594500,0.12509876,0.7059558,-0.5653379,-0.723854,0.24166645,0.004275931
556,1747638594510,0.10020402,0.6891103000000001,-0.5242074299999999,-0.62543125,0.1606910075,-0.0778830295
557,1747638594520,0.07530928,0.6722648,-0.48307696,-0.5270085,0.079715565,-0.16004199
558,1747638594530,-0.0696687,0.62787205,-0.40792012,-0.062764555,-0.105982,-0.35009184
559,1747638594540,-0.125556105,0.662279525,-0.46844196,0.1761530725,0.016225630000000005,-0.2245245475
560,1747638594550,-0.18144351,0.696687,-0.5289638,0.4150707,0.13843326,-0.098957255
561,1747638594560,-0.09332862,0.67348444,-0.633665,0.4150707,0.13843326,-0.098957255
562,1747638594570,-0.053920831,0.6716550699999999,-0.6551449149999999,0.424118885,0.296031855,0.0711637075
563,1747638594580,-0.014513042,0.6698257,-0.67662483,0.43316707,0.45363045,0.24128467
564,1747638594590,0.082870684,0.6794756200000001,-0.712861715,0.343754285,0.397127075,0.2883199
565,1747638594600,0.18025441,0.68912554,-0.7490986,0.2543415,0.3406237,0.33535513
566,1747638594610,0.2637044,0.6586055,-0.73397577,0.11850437,-0.057114217,-0.0061084726
567,1747638594620,0.25236228,0.6445803,-0.687479135,0.154658885,-0.065666081,-0.0974301363
568,1747638594630,0.24102016,0.6305551,-0.6409825,0.1908134,-0.074217945,-0.1887518
569,1747638594640,0.038203448,0.6393361,-0.6280549,0.4580591,0.20990239,-0.30298024
570,1747638594650,-0.012927585999999998,0.62724697,-0.633299135,0.48081315,0.305499995,-0.25411246
571,1747638594660,-0.06405862,0.61515784,-0.63854337,0.5035672,0.4010976,-0.20524468
572,1747638594670,-0.048905294,0.59930325,-0.5594838,0.6151232,0.5525877,0.08551861
573,1747638594680,0.05968335300000001,0.586253705,-0.5841194249999999,0.8300651,0.41575791500000003,0.17561858
574,1747638594690,0.168272,0.57320416,-0.60875505,1.045007,0.27892813,0.26571855
575,1747638594700,0.27590024,0.58540004,-0.7061388,1.182753,0.17813833,0.26938364
576,1747638594710,0.37316202,0.57978997,-0.80815695,1.1843183,0.176916635,0.23242738
577,1747638594720,0.4704238,0.5741799,-0.9101751,1.1858836,0.17569494,0.19547112
578,1747638594730,0.454797885,0.5670910499999999,-0.97752655,0.9774319499999999,0.33115556999999995,0.016187449999999992
579,1747638594740,0.43917197,0.5600022,-1.044878,0.7689803,0.4866162,-0.16309622
580,1747638594750,0.22147635,0.59149796,-1.0160959,0.31542626,0.97773737,-0.28465483
581,1747638594760,0.04783815999999999,0.6141974299999999,-0.8677031,0.1500011835,1.177484435,-0.17500774500000002
582,1747638594770,-0.12580003,0.6368969,-0.7193103,-0.015423893,1.3772315,-0.06536066
583,1747638594780,-0.19046843,0.66787434,-0.38987032,0.5995466,0.88366693,1.0390512
584,1747638594790,-0.0036435049999999913,0.63224727,-0.42293628,0.84846685,0.65918055,1.2235271
585,1747638594800,0.18318142,0.5966202,-0.45600224,1.0973871,0.43469417,1.408003
586,1747638594810,0.79791236,0.43359238,-0.8054738,1.8201721,-0.27885178,0.86679226
587,1747638594820,0.82451458,0.44054399,-0.8957687000000001,1.86720735,-0.31947312,0.58274828
588,1747638594830,0.8511168,0.4474956,-0.9860636,1.9142426,-0.36009446,0.2987043
589,1747638594840,0.69101596,0.48362577,-1.1571407,1.7671812,-0.25380704,-0.19058435
590,1747638594850,0.43171728,0.536708135,-1.17116595,1.3070223,-0.0002672550000000218,-0.229983995
591,1747638594860,0.1724186,0.5897905,-1.1851912,0.8468634,0.25327253,-0.26938364
592,1747638594870,-0.013781292,0.5719846,-0.9741117,0.23998661,0.25510508,0.3616216
593,1747638594880,0.0159917875,0.547577685,-0.940070075,0.180505365,0.24777491499999998,0.52502325
594,1747638594890,0.045764867,0.52317077,-0.90602845,0.12102412,0.24044475,0.6884249
595,1747638594900,0.48920536,0.44383684,-0.9040772,0.06742226,0.12499462,0.860073
596,1747638594910,0.57315843,0.418698195,-0.9383627,0.050280362499999995,0.0339402015,0.53021545
597,1747638594920,0.6571115,0.39355955,-0.9726482,0.033138465,-0.057114217,0.2003579
598,1747638594930,0.5272868,0.43359238,-0.96679425,-0.00671932,-0.092543356,-0.18325418
599,1747638594940,0.45235868,0.451901375,-0.941899505,-0.0138776865,-0.123085718,-0.25094368999999994
600,1747638594950,0.37743056,0.47021037,-0.91700476,-0.021036053,-0.15362808,-0.31863319999999995
601,1747638594960,0.3134939,0.46960057,-0.9054034799999999,-0.01574840625,-0.186002985,-0.31725879
602,1747638594970,0.24955724,0.46899077,-0.8938022,-0.0104607595,-0.21837789,-0.31588438
603,1747638594980,0.18391317,0.43359238,-0.92773706,-0.14438902,-0.0045813546,-0.026266431
604,1747638594990,0.20001166999999997,0.41944519999999996,-0.911135495,-0.16962465,0.0657042577,0.011300674500000003
605,1747638595000,0.21611017,0.40529802,-0.89453393,-0.19486028,0.13598987,0.04886778
606,1747638595010,0.35108754,0.38477856,-0.79693675,-0.13820419,0.32535252,0.131943
607,1747638595020,0.44248007,0.348663645,-0.80047354,0.014125844999999998,0.22517357,0.043981000000000006
608,1747638595030,0.5338726,0.31254873,-0.80401033,0.16645588,0.12499462,-0.043981
609,1747638595040,0.49505937,0.31742707,-0.8545315,0.5472045999999999,-0.145381645,-0.339669245
610,1747638595050,0.460286005,0.331955345,-0.89808588,0.7173065,-0.25762482249999996,-0.47926695249999995
611,1747638595060,0.42551264,0.34648362,-0.94164026,0.8874084,-0.369868,-0.61886466
612,1747638595070,0.29029134,0.38575423,-1.1090586,0.823193,-0.27885178,-0.5761053
613,1747638595080,0.28151033999999997,0.390754505,-1.1322459500000002,0.7512275799999999,-0.199747057,-0.52479415
614,1747638595090,0.27272934,0.39575478,-1.1554333,0.67926216,-0.120642334,-0.473483
615,1747638595100,0.3352025,0.38502246,-1.147628,0.3839175,0.18730104,-0.26694027
616,1747638595110,0.39011424,0.37282663,-1.1199282,0.29824617,0.34917557,-0.16462334499999998
617,1747638595120,0.44502598,0.3606308,-1.0922284,0.21257484,0.5110501,-0.06230642
618,1747638595130,0.44502598,0.3606308,-1.0922284,0.21257484,0.5110501,-0.06230642
619,1747638595140,0.5808418399999999,0.3320773,-1.0609918,0.25464694499999996,0.1929322925,-0.118046236
620,1747638595150,0.7166577,0.3035238,-1.0297552,0.29671905,-0.125185515,-0.173786052
621,1747638595160,0.64052516,0.30693862,-1.1320173,0.38208497,-0.79440683,-0.6353575
622,1747638595170,0.57718308,0.33256513,-1.1354321,0.350626335,-0.798071915,-0.70438325
623,1747638595180,0.513841,0.35819164,-1.1388469,0.3191677,-0.801737,-0.773409
624,1747638595190,0.34227607,0.38477856,-1.1114978,0.15591876,-0.5879405,-0.69522053
625,1747638595200,0.322884695,0.36892398,-1.0874568,0.002634279999999989,-0.341463625,-0.522656185
626,1747638595210,0.30349332,0.3530694,-1.0634158,-0.1506502,-0.09498675,-0.35009184
627,1747638595220,0.29677036,0.34378531999999995,-1.03864295,-0.1677921,-0.028709822499999996,-0.30973774
628,1747638595230,0.2900474,0.33450124,-1.0138701,-0.184934,0.037567105,-0.26938364
629,1747638595240,0.28750155,0.324256715,-0.8825972,-0.05596888,0.09498675,-0.08674031
630,1747638595250,0.300985565,0.3219395075,-0.844279435,0.10292776000000001,-0.11025792500000002,-0.072996247
631,1747638595260,0.31446958,0.3196223,-0.80596167,0.2618244,-0.3155026,-0.059252184
632,1747638595270,0.2726226,0.326451985,-0.8446377350000001,0.46493113,-0.64413846,-0.1227803
633,1747638595280,0.22069122,0.3447609825,-0.8819188375,0.590193015,-0.84510718,-0.157904015
634,1747638595290,0.16875984,0.36306998,-0.91919994,0.7154549,-1.0460759,-0.19302773
635,1747638595300,0.09384694,0.35160586,-0.9838684,0.707972,-0.8481614,-0.01343864
636,1747638595310,0.079333898,0.36172841499999997,-1.00851925,0.642534975,-0.742179425,0.049784049999999996
637,1747638595320,0.064820856,0.37185097,-1.0331701,0.57709795,-0.63619745,0.11300674
638,1747638595330,0.03356903,0.4150547,-1.065367,0.10483666,-0.0387888,0.40926766
639,1747638595340,0.009467014499999999,0.42212829,-1.004425975,-0.18646112,0.196731,0.597103205
640,1747638595350,-0.014635001,0.42920188000000004,-0.94348495,-0.4777589,0.4322508,0.78493875
641,1747638595360,0.059912033,0.453624,-0.750806,-0.5270085,0.19096613,0.90161055
642,1747638595370,0.1304496865,0.44287644000000004,-0.713227585,-0.424195255,-0.143969065,0.85091023
643,1747638595380,0.20098734,0.43212888,-0.67564917,-0.32138201,-0.47890425999999997,0.80020991
644,1747638595390,0.24173667,0.39796529999999997,-0.662950235,-0.06654417000000001,-0.91092598,0.578777775
645,1747638595400,0.282486,0.36380172,-0.6502513,0.18829367,-1.3429477,0.35734564
646,1747638595410,0.15168568,0.38063195,-0.6932112,0.41132927,-1.5353646,0.17470232
647,1747638595420,0.027836989999999992,0.404672975,-0.748610765,0.451225235,-1.4748907,0.19272231499999998
648,1747638595430,-0.0960117,0.428714,-0.80401033,0.4911212,-1.4144168,0.21074231
649,1747638595440,-0.231233,0.44895914,-0.87794757,-0.13759334,-0.8206733,0.8222004
650,1747638595450,-0.21536317500000002,0.452267245,-0.847442735,-0.296795405,-0.76050485,0.9309312000000001
651,1747638595460,-0.19949335,0.45557535,-0.8169379,-0.45599747,-0.7003364,1.039662
652,1747638595470,-0.0071955416,0.44212946,-0.69930905,-0.6859051,-0.7730272,1.1551121
653,1747638595480,0.0070888282,0.442807855,-0.657271575,-0.730115175,-1.0549332,0.9489512
654,1747638595490,0.021373198,0.44348624999999997,-0.6152341,-0.77432525,-1.3368392,0.7427903
655,1747638595500,-0.09942654,0.5080174,-0.5924126,-0.7027034,-1.3490561,0.6297835
656,1747638595510,-0.09942654,0.5080174,-0.5924126,-0.7027034,-1.3490561,0.6297835
657,1747638595520,-0.19705418,0.5407328,-0.62951845,-0.6859051,-1.2727003,0.6297835
658,1747638595530,-0.33541593,0.59857154,-0.6815032,-0.73698723,-1.0601255,0.7543964
659,1747638595540,-0.41109106,0.6495806,-0.7007726,-1.1270132,-0.54579204,1.343864
660,1747638595550,-0.34154433,0.68522286,-0.6334211,-1.2878188,-0.4199575,1.519788
661,1747638595560,-0.34154433,0.68522286,-0.6334211,-1.2878188,-0.4199575,1.519788
662,1747638595570,-0.2239155,0.69741875,-0.57387495,-1.3314179,-0.43706122,1.5723208
663,1747638595580,-0.15385045,0.6893695,-0.53701305,-1.2803359,-0.54945713,1.4990191
664,1747638595590,-0.18778534,0.73839676,-0.5421353,-0.90336674,-1.0363023,1.1111312
665,1747638595600,-0.18778534,0.73839676,-0.5421353,-0.90336674,-1.0363023,1.1111312
666,1747638595610,-0.21583577,0.7611115,-0.558996,-0.7600467,-1.1664128,1.0604309
667,1747638595620,-0.2917548,0.78477144,-0.60558414,-0.6727719,-1.2409362,1.0250016
668,1747638595630,-0.3237079,0.81773067,-0.6141212,-0.61481774,-1.2598724,0.99995697
669,1747638595640,-0.34252,0.80943745,-0.5980227,-0.5331933,-0.99171054,0.9859075
670,1747638595650,-0.34252,0.80943745,-0.5980227,-0.5331933,-0.99171054,0.9859075
671,1747638595660,-0.3822784,0.7984612,-0.5889978,-0.50142926,-0.9190197,0.95292175
672,1747638595670,-0.38471756,0.8117546499999999,-0.56995705,-0.37307497,-0.9941539,0.9437590250000001
673,1747638595680,-0.38715672,0.8250481,-0.5509163,-0.24472068,-1.0692881,0.9345963
674,1747638595690,-0.42304295,0.84163445,-0.6111942,-0.17248799,-1.0998305,0.86618143
675,1747638595700,-0.4323118,0.844561425,-0.62633225,-0.177451125,-1.0805888000000001,0.8289197349999999
676,1747638595710,-0.44158065,0.8474884,-0.6414703,-0.18241426,-1.0613471,0.79165804
677,1747638595720,-0.47013415000000003,0.8433419,-0.6409825,-0.256555855,-0.9199359500000001,0.72293772
678,1747638595730,-0.49868765,0.8391954,-0.6404947,-0.33069745,-0.7785248,0.6542174
679,1747638595740,-0.5299394,0.85605603,-0.56485003,-0.42110282,-0.5207473,0.5803049
680,1747638595750,-0.57814345,0.853601615,-0.501873805,-0.370326145,-0.36498124,0.533575075
681,1747638595760,-0.6263475,0.8511472,-0.43889758,-0.31954947,-0.20921518,0.48684525
682,1747638595770,-0.7422689,0.8816673,-0.36227724,0.1783674,-0.26419145,0.6755971
683,1747638595780,-0.7276186849999999,0.87154475,-0.37081432000000003,0.31886227,-0.33046837500000004,0.7174400999999999
684,1747638595790,-0.71296847,0.8614222,-0.3793514,0.45935714,-0.3967453,0.7592831
685,1747638595800,-0.5957055,0.82590183,-0.47197874,0.77989925,-0.585802535,0.7134696
686,1747638595810,-0.55391952,0.823889535,-0.52548797,0.84361825,-0.6293254175,0.6206208
687,1747638595820,-0.51213354,0.82187724,-0.5789972,0.90733725,-0.6728483,0.527772
688,1747638595830,-0.43865365,0.81480366,-0.77349025,0.6175666,-0.4883724,0.02260135
689,1747638595840,-0.45793831500000004,0.82273096,-0.786676975,0.48986133,-0.3851392,-0.070247435
690,1747638595850,-0.47722298,0.83065826,-0.7998637,0.36215606,-0.281906,-0.16309622
691,1747638595860,-0.58119243,0.840171,-0.6475683,-0.15691139,0.14881766,-0.34887013
692,1747638595870,-0.599242265,0.8122272500000001,-0.591071075,-0.21173493,0.22853322999999998,-0.38399384999999997
693,1747638595880,-0.6172921,0.7842835,-0.53457385,-0.26655847,0.3082488,-0.41911757
694,1747638595890,-0.6172921,0.7842835,-0.53457385,-0.26655847,0.3082488,-0.41911757
695,1747638595900,-0.6189995500000001,0.75304695,-0.49040968500000004,-0.19613923249999998,0.3071798225,-0.428432995
696,1747638595910,-0.620707,0.7218104,-0.44624552,-0.125719995,0.30611084499999996,-0.43774842
697,1747638595920,-0.5204267,0.7088828,-0.42865306,0.03504736,0.25938103,-0.45271417
698,1747638595930,-0.48124758,0.6926471000000001,-0.43891281,0.09483403,0.24472069000000002,-0.501887365
699,1747638595940,-0.44206846,0.6764114,-0.44917256,0.1546207,0.23006035,-0.55106056
700,1747638595950,-0.42267708000000004,0.6732405,-0.47356421,0.23811589,0.26396237499999997,-0.66101308
701,1747638595960,-0.4032857,0.6700696,-0.49795586,0.32161108,0.2978644,-0.7709656
702,1747638595970,-0.44011712,0.6700696,-0.59973013,0.36963895,0.33573693,-0.97743195
703,1747638595980,-0.45318192,0.66641085,-0.608770265,0.33879116,0.382772165,-0.982624175
704,1747638595990,-0.46624672,0.6627521,-0.6178104,0.30794337,0.4298074,-0.9878164
705,1747638596000,-0.47673512,0.6373848,-0.62903064,0.21104773,0.5357894000000001,-0.96918555
706,1747638596010,-0.47685710000000003,0.62590545,-0.627932995,0.154200755,0.59214005,-0.9439880949999999
707,1747638596020,-0.47697908,0.6144261,-0.62683535,0.09735378,0.6484907,-0.91879064
708,1747638596030,-0.39325467,0.59613234,-0.61683476,0.068987565,0.67567343,-0.85801135
709,1747638596040,-0.372887615,0.60198635,-0.61561518,0.0831706725,0.685599685,-0.850223025
710,1747638596050,-0.35252056,0.60784036,-0.6143956,0.09735378,0.69552594,-0.8424347
711,1747638596060,-0.27221102,0.6298233,-0.6502513,0.26434416,0.6900283,-0.95910656
712,1747638596070,-0.2711134,0.62249057,-0.672341035,0.29797894,0.67475715,-1.00156043
713,1747638596080,-0.27001578,0.61515784,-0.69443077,0.33161372,0.659486,-1.0440143
714,1747638596090,-0.30956075,0.57735074,-0.76324576,0.4524851,0.647269,-1.201613
715,1747638596100,-0.2720356875,0.562334635,-0.79411645,0.44530765,0.6625402,-1.2330716000000002
716,1747638596110,-0.23451062500000003,0.54731853,-0.82498714,0.4381302,0.6778114,-1.2645302
717,1747638596120,-0.37252176,0.59979105,-0.9109068,0.32100025,0.7211816,-1.2126082
718,1747638596130,-0.36227725499999996,0.6058889949999999,-0.9005251249999999,0.25121094499999996,0.73889615,-1.16343495
719,1747638596140,-0.35203275,0.61198694,-0.89014345,0.18142164,0.7566107,-1.1142617
720,1747638596150,-0.35739893,0.62933546,-0.8308411,-0.07834116,0.80181336,-0.9701018
721,1747638596160,-0.372155875,0.63592121,-0.81352305,-0.13007229,0.7987591300000001,-0.93161845
722,1747638596170,-0.38691282,0.64250696,-0.796205,-0.18180342,0.7957049,-0.8931351
723,1747638596180,-0.35140771,0.63665298,-0.7985222000000001,-0.26934547,0.7037724000000001,-0.79234527
724,1747638596190,-0.3159026,0.630799,-0.8008394,-0.35688752,0.6118399,-0.69155544
725,1747638596200,-0.13677627,0.57881427,-0.8486776,-0.56503373,0.40598437,-0.8033405
726,1747638596210,-0.13653235,0.5679447049999999,-0.8390276249999999,-0.609243765,0.428891135,-0.8662577499999999
727,1747638596220,-0.13628843,0.55707514,-0.82937765,-0.6534538,0.4517979,-0.929175
728,1747638596230,-0.275138,0.5885709,-0.74836683,-0.6946097,0.50127655,-1.029354
729,1747638596240,-0.32303713749999996,0.6106530025,-0.7175494825,-0.646944525,0.592750925,-0.9035194475
730,1747638596250,-0.370936275,0.632735105,-0.686732135,-0.59927935,0.6842253,-0.7776848949999999
731,1747638596260,-0.37105823,0.64470226,-0.67098427,-0.5562528,0.6973585,-0.67994934
732,1747638596270,-0.31029249,0.65799573,-0.677341335,-0.45469943999999995,0.6671215500000001,-0.546173795
733,1747638596280,-0.24952675,0.6712892,-0.6836984,-0.35314608,0.6368846,-0.41239825
734,1747638596290,-0.022806209,0.6156457,-0.75373304,-0.20799349,0.28198236,-0.57793784
735,1747638596300,-0.031099375500000002,0.5999130500000001,-0.78326217,-0.21142950500000002,0.223646455,-0.67139747
736,1747638596310,-0.039392542,0.5841804,-0.8127913,-0.21486552,0.16531055,-0.7648571
737,1747638596320,-0.13311752599999999,0.5748963300000001,-0.815474365,-0.29427566,0.1359517,-0.84304555
738,1747638596330,-0.22684251,0.56561226,-0.81815743,-0.3736858,0.10659285,-0.921234
739,1747638596340,-0.4013344,0.56244135,-0.78568614,-0.5774797,0.31618983,-0.5730511
740,1747638596350,-0.41572548,0.582823625,-0.795701955,-0.6444438299999999,0.40628979,-0.41755228
741,1747638596360,-0.43011656,0.6032059,-0.80571777,-0.71140796,0.49638975,-0.26205346
742,1747638596370,-0.27708933,0.60466945,-0.8208406,-0.88779014,0.70346695,0.06658235
743,1747638596380,-0.20876218000000002,0.607718375,-0.81657205,-1.04199092,0.856484225,0.233038225
744,1747638596390,-0.14043503,0.6107673,-0.8123035,-1.1961917,1.0095015,0.3994941
745,1747638596400,0.19708468,0.59613234,-0.48941877,-1.1625187,0.82991236,0.20280129
746,1747638596410,0.202816715,0.59222967,-0.429140885,-0.96811655,0.64482563,0.06810947
747,1747638596420,0.20854875,0.588327,-0.368863,-0.7737144,0.4597389,-0.06658235
748,1747638596430,-0.021098793,0.5846682,-0.4296287,0.3503209,-0.13347013,-0.50036025
749,1747638596440,-0.1055396965,0.5944248999999999,-0.50077615,0.5129208,-0.074217944,-0.479896875
750,1747638596450,-0.1899806,0.6041816,-0.5719236,0.6755207,-0.014965758,-0.4594335
751,1747638596460,-0.3159026,0.64762926,-0.75983095,0.7527929,0.43835926,-0.030542362
752,1747638596470,-0.29491051,0.6327351050000001,-0.7816767099999999,0.5914147,0.54250873,0.23425991900000004
753,1747638596480,-0.27391842,0.61784095,-0.80352247,0.4300365,0.6466582,0.4990622
754,1747638596490,0.077260606,0.58052164,-0.8123035,0.31168482,0.5782433,0.5314371
755,1747638596500,0.146319513,0.55696845,-0.8092545499999999,0.28518931,0.51563145,0.449889
756,1747638596510,0.21537842,0.53341526,-0.8062056,0.2586938,0.4530196,0.3683409
757,1747638596520,0.24137079,0.51242319,-0.7870428700000001,0.29671905,0.31527354500000004,0.11331216500000002
758,1747638596530,0.26736316,0.49143112,-0.76788014,0.3347443,0.17752749,-0.14171657
759,1747638596540,-0.053570196,0.52731735,-0.8872164,0.5315898,0.0009162709,-0.49730602
760,1747638596550,-0.11604334799999999,0.543903675,-0.906745,0.49952033,0.08647306045000001,-0.43316706000000005
761,1747638596560,-0.1785165,0.56049,-0.9262736,0.46745086,0.17202985,-0.3690281
762,1747638596570,-0.27952853,0.5629292,-0.9089555,0.15278818,0.6277219,0.3170297
763,1747638596580,-0.201200775,0.54048885,-0.8542876500000001,0.14469445,0.57213482,0.5677825000000001
764,1747638596590,-0.12287302,0.5180485,-0.7996198,0.13660072,0.51654774,0.8185353
765,1747638596600,0.15534443,0.4416416,-0.7615383,0.25808296,0.34612134,0.79654485
766,1747638596610,0.19732859,0.43334845,-0.7727585,0.31355553,0.27007085,0.749509605
767,1747638596620,0.23931275,0.4250553,-0.7839787,0.3690281,0.19402036,0.70247436
768,1747638596630,0.20708527,0.4472517,-1.0002108,0.43629766,-0.11514471,0.21257484
769,1747638596640,0.151563728,0.46031647499999995,-1.0302278,0.339707435,-0.024739314999999998,0.214407385
770,1747638596650,0.096042186,0.47338125,-1.0602448,0.24311721,0.06566608,0.21623993
771,1747638596660,-0.0045124586,0.5187803,-0.9963081,-0.16683766,0.63321954,0.5210527
772,1747638596670,0.008796245199999999,0.51425258,-0.88867987,-0.226662515,0.80303507,0.72110518
773,1747638596680,0.022104949,0.50972486,-0.78105164,-0.28648737,0.9728506,0.92115766
774,1747638596690,0.072870106,0.51021266,-0.7036996,-0.098957255,1.019275,1.0738695
775,1747638596700,0.164750473,0.49057737999999995,-0.731765275,0.08502230250000001,0.9765157074999999,1.130525575
776,1747638596710,0.25663084,0.4709421,-0.75983095,0.26900186,0.933756415,1.1871816499999999
777,1747638596720,0.39450473,0.4370072,-0.93456674,0.56152135,0.6784222,1.119683
778,1747638596730,0.42305823,0.43737309,-0.99972297,0.5250614,0.6240568,1.04882475
779,1747638596740,0.45161173,0.43773898,-1.0648792,0.48860145,0.5696914,0.9779665
780,1747638596750,0.478457795,0.44188556,-1.1426124,0.260564534,0.5553364999999999,0.84816145
781,1747638596760,0.50530386,0.44603214,-1.2203456,0.032527618,0.5409816,0.7183564
782,1747638596770,0.4494165,0.45850238,-1.1212544,-0.5880932,0.9221503,0.4550812
783,1747638596780,0.41598465,0.4744789,-1.0768463499999998,-0.63012712,0.99972795,0.41201646999999997
784,1747638596790,0.3825528,0.49045542,-1.0324383,-0.67216104,1.0773056,0.36895174
785,1747638596800,0.3515754,0.51170665,-0.8594099,-0.51021016,0.9478059,0.36039987
786,1747638596810,0.392934515,0.496202725,-0.8343932000000001,-0.315464425,0.70316156,0.361010735
787,1747638596820,0.43429363,0.4806988,-0.8093765,-0.12071869,0.45851722,0.3616216
788,1747638596830,0.56509393,0.43603155,-0.94383556,0.3035911,-0.15851486,0.16676131
789,1747638596840,0.56516254,0.43578761749999995,-1.007170055,0.32508528000000003,-0.20219044,0.101706073
790,1747638596850,0.56523115,0.43554368499999996,-1.0705045499999999,0.34657946,-0.24586602,0.036650836
791,1747638596860,0.49579114,0.45091048,-1.1808006,0.008246438,-0.0009162709,-0.19608197
792,1747638596870,0.46260323000000003,0.459096925,-1.1707999999999998,-0.129156016,0.06326086954999999,-0.209215185
793,1747638596880,0.42941532,0.46728337,-1.1607994,-0.26655847,0.12743801,-0.2223484
794,1747638596890,0.41110632,0.48888525499999996,-1.1067414,-0.473101185,0.184857655,-0.190584345
795,1747638596900,0.39279732,0.51048714,-1.0526834,-0.6796439,0.2422773,-0.15882029
796,1747638596910,0.46136835,0.52292687,-0.91407776,-0.764399,0.19157697,-0.15882029
797,1747638596920,0.47870171,0.515716085,-0.88832928,-0.7164093,0.14725237000000002,-0.19333316
798,1747638596930,0.49603507,0.5085053,-0.8625808,-0.6684196,0.10292777,-0.22784603
799,1747638596940,0.51286525,0.5087492,-0.8047421,-0.3755947,-0.03451287,-0.38491014
800,1747638596950,0.477238175,0.5148623649999999,-0.8300027249999999,-0.17542769,-0.14232741250000003,-0.45760095250000005
801,1747638596960,0.4416111,0.52097553,-0.85526335,0.024739319999999995,-0.250141955,-0.5302917650000001
802,1747638596970,0.39035815,0.5321957,-0.9065163,0.24189551,-0.36375955,-0.5498389
803,1747638596980,0.375113355,0.5382936,-0.923590475,0.24781309499999998,-0.373227675,-0.522350775
804,1747638596990,0.35986856,0.5443915,-0.94066465,0.25373068,-0.3826958,-0.49486265
805,1747638597000,0.36108813,0.5339031,-0.9858197,0.05619795,-0.25380704,-0.44355148
806,1747638597010,0.306054445,0.527195385,-0.9471437,-0.058755869999999995,-0.01553843499999999,-0.466763675
807,1747638597020,0.25102076,0.52048767,-0.9084677,-0.17370969,0.22273017,-0.48997587
808,1747638597030,0.22344292,0.5217072700000001,-0.8659957,-0.18149799,0.30672168,-0.474399255
809,1747638597040,0.19586508,0.52292687,-0.8235237,-0.18928629,0.39071319,-0.45882264
810,1747638597050,0.20854875,0.46460027,-0.5624109,0.26991814,0.18730104,-0.32993388
811,1747638597060,0.22222333,0.45421855499999997,-0.5569075,0.47084872,-0.03355843,-0.35681114999999997
812,1747638597070,0.23589791,0.44383684,-0.5514041,0.6717793,-0.2544179,-0.38368842
813,1747638597080,0.18464492,0.49460202,-0.7217494,1.319201,-0.9630007,-0.577327
814,1747638597090,0.1121559335,0.54073276,-0.9235752,1.3431768000000002,-0.9721634,-0.5892385200000001
815,1747638597100,0.039666947,0.5868635,-1.125401,1.3671526,-0.9813261,-0.60115004
816,1747638597110,0.031861614,0.5880831,-1.1681169,0.71667653,-0.33504972,-0.36841726
817,1747638597120,0.043691572,0.58930265,-1.1537258000000001,0.576181665,-0.23212196000000002,-0.31248656
818,1747638597130,0.05552153,0.5905222,-1.1393347,0.4356868,-0.1291942,-0.25655586
819,1747638597140,0.107262355,0.61224605,-1.0736754,0.12598724,0.021417825,-0.11361759600000002
820,1747638597150,0.15900318,0.6339699,-1.0080161,-0.18371232,0.17202985,0.029320668
821,1747638597160,0.29178533,0.6439705,-0.87063,-0.43415968,-0.008246435000000003,0.051616593
822,1747638597170,0.29079441500000003,0.65933725,-0.85073555,-0.486501655,-0.1765348525,-0.006566608500000001
823,1747638597180,0.2898035,0.674704,-0.8308411,-0.53884363,-0.34482327,-0.06474981
824,1747638597190,0.20928052,0.7096146,-0.7066266,-0.45905173,-0.6398625,-0.18019994
825,1747638597200,0.212573395,0.6950863,-0.6728289000000001,-0.379297975,-0.6542174000000001,-0.19974704999999998
826,1747638597210,0.21586627,0.680558,-0.6390312,-0.29954422,-0.6685723,-0.21929416
827,1747638597220,0.14924651,0.6236949,-0.5760702,0.16836478,-0.6642964,-0.2736596
828,1747638597230,0.120693015,0.61662135,-0.5839975,0.26713114,-0.679262165,-0.26877280000000003
829,1747638597240,0.09213952,0.6095478,-0.5919248,0.3658975,-0.69422793,-0.263886
830,1747638597250,-0.019391375,0.5880831,-0.76348966,0.6194755,-0.6887303,-0.01099525
831,1747638597260,-0.017196125,0.5916198850000001,-0.78314021,0.578357825,-0.663380115,0.0329857525
832,1747638597270,-0.015000875,0.59515667,-0.80279076,0.53724015,-0.63802993,0.076966755
833,1747638597280,0.0506432,0.5600022,-0.8142548,0.2917559,-0.68323267,0.025655584
834,1747638597290,-0.0081712075,0.55744105,-0.7807010299999999,0.176458491,-0.707361135,-0.06077930300000001
835,1747638597300,-0.066985615,0.5548799,-0.74714726,0.061161082,-0.7314896,-0.14721419
836,1747638597310,-0.0965147725,0.5497577,-0.728960215,0.0437137565,-0.7269082499999999,-0.125834535
837,1747638597320,-0.12604393,0.5446355,-0.71077317,0.026266431,-0.7223269,-0.10445488
838,1747638597330,-0.2119331,0.51707286,-0.70394355,-0.0023670332,-0.65940964,0.09162709
839,1747638597340,-0.22877859,0.523780555,-0.69833344,-0.032565794099999996,-0.64627642,0.161874525
840,1747638597350,-0.24562408,0.53048825,-0.69272333,-0.062764555,-0.6331432,0.23212196
841,1747638597360,-0.2531855,0.5587826,-0.6741857,-0.13255386,-0.63802993,0.34573954
842,1747638597370,-0.1991884525,0.5946078675,-0.6457465325,-0.19486027,-0.6609367150000001,0.43919916999999997
843,1747638597380,-0.145191405,0.6304331350000001,-0.617307365,-0.25716668,-0.6838435,0.5326588
844,1747638597390,-0.061131615,0.62567675,-0.5760702,-0.28961796,-0.8145648,0.54793
845,1747638597400,-0.061131615,0.62567675,-0.5760702,-0.28961796,-0.8145648,0.54793
846,1747638597410,-0.061131615,0.62567675,-0.5760702,-0.28961796,-0.8145648,0.54793
847,1747638597420,-0.17119902,0.59466887,-0.5482332,-0.031000499,-0.78096825,0.33352262
848,1747638597430,-0.236599175,0.605889035,-0.5762988499999999,0.0029587920000000018,-0.7417213075,0.3675773425
849,1747638597440,-0.30199933,0.6171092,-0.6043645,0.036918083,-0.702474365,0.40163206500000004
850,1747638597450,-0.39349857,0.6303112,-0.64244604,-0.026648212,-0.70277977,0.5906893
851,1747638597460,-0.387652195,0.638970225,-0.6235958275,-0.038960602250000004,-0.7664606025,0.699114675
852,1747638597470,-0.38180581999999996,0.64762925,-0.604745615,-0.0512729925,-0.830141435,0.8075400500000001
853,1747638597480,-0.30956075,0.64909273,-0.55311155,0.033138465,-1.0753967,0.9706363
854,1747638597490,-0.271860385,0.648848815,-0.541525475,0.1023169125,-1.13648135,0.9529217
855,1747638597500,-0.23416002,0.6486049,-0.5299394,0.17149536,-1.197566,0.9352071
856,1747638597510,-0.25660032,0.68153363,-0.59338826,0.41949937,-1.1957335,0.7971557
857,1747638597520,-0.33701661,0.6845978500000001,-0.683317305,0.36059078499999997,-0.9785773,0.7968502749999999
858,1747638597530,-0.4174329,0.68766207,-0.77324635,0.3016822,-0.7614211,0.79654485
859,1747638597540,-0.4174329,0.68766207,-0.77324635,0.3016822,-0.7614211,0.79654485
860,1747638597550,-0.4174329,0.68766207,-0.77324635,0.3016822,-0.7614211,0.79654485
861,1747638597560,-0.51431355,0.66531322,-0.7667825500000001,-0.130721315,-0.31702973,0.99354307
862,1747638597570,-0.51993124,0.65744691,-0.7512328450000001,-0.2300985225,-0.297635325,1.061194385
863,1747638597580,-0.52554893,0.6495806,-0.73568314,-0.32947573,-0.27824092,1.1288457
864,1747638597590,-0.4908823,0.6830276,-0.74763507,-0.45660833,-0.36925718,1.1826003
865,1747638597600,-0.46306055,0.6904670749999999,-0.741293255,-0.5313607650000001,-0.361927,1.1572501499999999
866,1747638597610,-0.4352388,0.69790655,-0.73495144,-0.6061132,-0.35459682,1.1319
867,1747638597620,-0.5453062,0.82797515,-0.7522695,-0.6559736,0.09376506,0.9706363
868,1747638597630,-0.56666415,0.837975725,-0.7707004500000001,-0.7207616,0.26514589,0.99415395
869,1747638597640,-0.5880221,0.8479763,-0.7891314,-0.7855496,0.43652672,1.0176716
870,1747638597650,-0.54481834,0.84114665,-0.7271156,-1.0703571,0.98506755,1.1325108
871,1747638597660,-0.490516395,0.819194125,-0.595583545,-0.989801625,0.9319238375000001,1.0263760899999999
872,1747638597670,-0.43621445,0.7972416,-0.46405149,-0.90924615,0.878780125,0.92024138
873,1747638597680,-0.45206907,0.79574764,-0.35642326,-0.31764057,0.18913358,0.56136864
874,1747638597690,-0.464402095,0.80125102,-0.34995946499999997,-0.1403803325,-0.0017943600000000226,0.48043137
875,1747638597700,-0.47673512,0.8067544,-0.34349567,0.036879905,-0.1927223,0.3994941
876,1747638597710,-0.52408546,0.8067544,-0.46575886,0.713546,-0.63497573,0.124001995
877,1747638597720,-0.52591483,0.81077903,-0.5436140300000001,0.8194897999999999,-0.49356458999999997,0.070247435
878,1747638597730,-0.5277442,0.81480366,-0.6214692,0.9254336,-0.35215345,0.016492875
879,1747638597740,-0.4545387,0.7779417,-0.7029678,0.74347746,0.15492614,-0.15454435
880,1747638597750,-0.4336686,0.7458514249999999,-0.70065062,0.578663245,0.30030778999999996,-0.31309739999999997
881,1747638597760,-0.4127985,0.71376115,-0.69833344,0.41384903,0.44568944,-0.47165045
882,1747638597770,-0.414871785,0.69520825,-0.68686935,0.328788545,0.46034977,-0.580075845
883,1747638597780,-0.41694507,0.67665535,-0.67540526,0.24372806,0.4750101,-0.68850124
884,1747638597790,-0.45342583999999997,0.64299482,-0.6691701299999999,0.1421747,0.40720606,-0.86870116
885,1747638597800,-0.48093506999999996,0.63604319,-0.6630036149999999,0.080517305,0.354673195,-0.97590483
886,1747638597810,-0.5084443,0.62909156,-0.6568371,0.01885991,0.30214033,-1.0831085
887,1747638597820,-0.55628246,0.6190605,-0.6575689,-0.053449135,0.1866902,-1.0898279
888,1747638597830,-0.54591598,0.6193044000000001,-0.654885785,-0.0708964595,0.20929154,-1.06508855
889,1747638597840,-0.5355495,0.6195483,-0.65220267,-0.088343784,0.23189288,-1.0403492
890,1747638597850,-0.43865365,0.5668319,-0.63561636,-0.12949961,0.4530196,-1.0317974
891,1747638597860,-0.43725112,0.5654979675,-0.63525047,-0.1382041875,0.5050943250000001,-1.062187025
892,1747638597870,-0.43584859,0.564164035,-0.63488458,-0.146908765,0.55716905,-1.0925766499999998
893,1747638597880,-0.43621445,0.5719846,-0.6441535,-0.17187715,0.5495335,-1.1325872
894,1747638597890,-0.430482425,0.57296025,-0.65122705,-0.17309884,0.48035503,-1.158548175
895,1747638597900,-0.4247504,0.5739359,-0.6583006,-0.17432053,0.41117656,-1.18450915
896,1747638597910,-0.4320679,0.59905934,-0.69004023,-0.16500512,0.24838577,-1.193672
897,1747638597920,-0.43133615000000003,0.6096697200000001,-0.71103233,-0.18711015,0.243193565,-1.1661838
898,1747638597930,-0.4306044,0.6202801,-0.73202443,-0.20921518,0.23800136,-1.1386956
899,1747638597940,-0.35837457,0.6534832,-0.76031876,-0.38552096,0.49761146,-1.0122503
900,1747638597950,-0.3382362,0.6470194,-0.7531231949999999,-0.521358115,0.6927771549999999,-1.0085852000000002
901,1747638597960,-0.31809783,0.6405556,-0.74592763,-0.65719527,0.88794285,-1.0049201
902,1747638597970,-0.35715497,0.65494674,-0.73275614,-0.7624901,0.975294,-1.0036983
903,1747638597980,-0.38192777499999997,0.6731337900000001,-0.6939429349999999,-0.83323385,0.9780428,-0.89496753
904,1747638597990,-0.40670058,0.69132084,-0.65512973,-0.9039776,0.9807916,-0.78623676
905,1747638598000,-0.39302599,0.69863832,-0.6236492149999999,-0.8865302500000001,0.9533035,-0.713545945
906,1747638598010,-0.3793514,0.7059558,-0.5921687,-0.8690829,0.9258154,-0.64085513
907,1747638598020,-0.33102542,0.72083473,-0.5518919,-0.7656207,0.8384642,-0.4985277
908,1747638598030,-0.239998765,0.730484695,-0.5539651999999999,-0.6612803300000001,0.782877115,-0.43530501
909,1747638598040,-0.14897211,0.74013466,-0.5560385,-0.55693996,0.72729003,-0.37208232
910,1747638598050,-0.049637042,0.7640385,-0.6182983,-0.36437038,0.85556793,-0.5223508
911,1747638598060,-0.045002626000000004,0.774892775,-0.6339089499999999,-0.37246411,0.8873319900000001,-0.531208075
912,1747638598070,-0.04036821,0.78574705,-0.6495196,-0.38055784,0.91909605,-0.54006535
913,1747638598080,-0.061863367,0.7542818,-0.6465926,-0.49707696,1.0919658,-0.5461738
914,1747638598090,-0.10334444350000001,0.72182565,-0.577411735,-0.46435845,1.1484692,-0.461266035
915,1747638598100,-0.14482552,0.6893695,-0.50823087,-0.43163994,1.2049726,-0.37635827
916,1747638598110,-0.146654895,0.67118245,-0.476750375,-0.335698745,1.1554939499999999,-0.310043165
917,1747638598120,-0.14848427,0.6529954,-0.44526988,-0.23975755,1.1060153,-0.24372806
918,1747638598130,-0.10576837,0.6032059,-0.42401865,0.28053162,0.6747572,-0.08735116
919,1747638598140,-0.100890035,0.6167585499999999,-0.48576004500000003,0.44095539,0.549228065,-0.056503371999999996
920,1747638598150,-0.0960117,0.6303112,-0.54750144,0.60137916,0.42369893,-0.025655584
921,1747638598160,-0.08552328,0.65470284,-0.69125986,0.5842754,0.46034976,0.049173204
922,1747638598170,-0.13604452,0.66494732,-0.7774081799999999,0.405297155,0.6817819,0.12354385699999999
923,1747638598180,-0.18656576,0.6751918,-0.8635565,0.22631891,0.90321404,0.19791451
924,1747638598190,-0.08845028,0.6788506,-0.6741857,-0.30458373,1.3497434,0.643833
925,1747638598200,-0.013903250000000006,0.6568981,-0.6153560499999999,-0.291794105,1.285299,0.6578824999999999
926,1747638598210,0.06064378,0.6349456,-0.5565264,-0.27900448,1.2208546,0.671932
927,1747638598220,0.19488941,0.5421963,-0.47527164,0.10414946,0.6784222,0.33902022
928,1747638598230,0.08604160050000001,0.61834402,-0.58582687,0.33298811500000003,0.5832827625,0.18050536
929,1747638598240,-0.022806209,0.69449174,-0.6963821,0.56182677,0.488143325,0.021990499999999996
930,1747638598250,-0.05844853,0.72278607,-0.84181744,0.6910973,0.6301653,0.025044737
931,1747638598260,-0.043554368999999996,0.710956135,-0.86939522,0.6272637750000001,0.67994935,0.057419643500000006
932,1747638598270,-0.028660208,0.6991262,-0.896973,0.56343025,0.7297334,0.08979455
933,1747638598280,0.09433477,0.6459218,-0.8964852,0.12850699,0.8586222,0.0775776
934,1747638598290,0.117034265,0.6362871,-0.86671215,0.08021187999999999,0.8341883,0.050394898
935,1747638598300,0.13973376,0.6266524,-0.8369391,0.03191677,0.8097544,0.023212196
936,1747638598310,0.18196183,0.57344806,-0.72760344,0.07925743,0.4298074,-0.18753012
937,1747638598320,0.101911431,0.60358703,-0.80680012,0.146221565,0.28259321,-0.27339233
938,1747638598330,0.021861032,0.633726,-0.8859968,0.2131857,0.13537902,-0.35925454
939,1747638598340,-0.009009672,0.642141135,-0.91820905,0.14778686000000002,0.20776442,-0.310348585
940,1747638598350,-0.039880376,0.65055627,-0.9504213,0.08238802,0.28014982,-0.26144263
941,1747638598360,-0.08735266,0.6477512,-0.9216391749999999,-0.18867545,0.5177694,-0.058641337
942,1747638598370,-0.025428314,0.62925925,-0.7958238874999999,-0.34165450500000005,0.5751890500000001,0.18722469149999998
943,1747638598380,0.036496032,0.6107673,-0.6700086,-0.49463356,0.6326087,0.43309072
944,1747638598390,0.123391345,0.5907662,-0.6050963,-0.36811182,0.44752198,0.45569205
945,1747638598400,0.1839131725,0.583448685,-0.60485235,-0.08864920999999998,0.161912705,0.35490225
946,1747638598410,0.244435,0.57613117,-0.6046084,0.1908134,-0.12369657,0.25411245
947,1747638598420,0.17168686,0.63250643,-0.8086447,0.35215345,-0.10109522,0.21135315
948,1747638598430,0.1411286665,0.63787259,-0.8509795099999999,0.16773484249999998,0.1193061075,0.3532224275
949,1747638598440,0.110570473,0.6432387500000001,-0.89331432,-0.016683765000000003,0.339707435,0.495091705
950,1747638598450,0.11506769,0.65080017,-0.8313289,-0.26968905,0.5929036,0.70613945
951,1747638598460,0.199386645,0.632857035,-0.71955415,-0.240711995,0.5867951499999999,0.753174675
952,1747638598470,0.2837056,0.6149139,-0.6077794,-0.21173494,0.5806867,0.8002099
953,1747638598480,0.35133147,0.597108,-0.548965,0.0387888,0.42247725,0.695755
954,1747638598490,0.36547865,0.5877171999999999,-0.55140413,0.203259425,0.32840677,0.6294781
955,1747638598500,0.37962583,0.5783264,-0.55384326,0.36773005,0.23433629,0.5632012
956,1747638598510,0.29666364,0.53341526,-0.7530012,0.96468055,-0.054059982,0.45691374
957,1747638598520,0.28372082,0.55024553,-0.84171068,0.960290075,-0.072690821,0.556481855
958,1747638598530,0.270778,0.5670758,-0.93042016,0.9558996,-0.09132166,0.65604997
959,1747638598540,0.291160285,0.5585386999999999,-0.9858196800000001,0.8425111,-0.064749806,0.735460105
960,1747638598550,0.31154257,0.5500016,-1.0412192,0.7291226,-0.038177952,0.81487024
961,1747638598560,0.45234346,0.5514651,-1.0827156,-0.098957255,0.26610035,0.9584193
962,1747638598570,0.509816345,0.537317935,-1.02634035,-0.3132882775,0.315578975,0.91077325
963,1747638598580,0.56728923,0.52317077,-0.9699651,-0.5276193,0.3650576,0.8631272
964,1747638598590,0.5969556,0.491431135,-0.8335395,-0.689951985,0.391629445,0.689035725
965,1747638598600,0.589638065,0.5108377425,-0.7907092499999999,-0.6492924425,0.37345674250000005,0.6316160625
966,1747638598610,0.5823205300000001,0.53024435,-0.747879,-0.6086329,0.35528404,0.5741964
967,1747638598620,0.5861013,0.5038709,-0.80010766,-0.26907822,0.051616594,0.49417543
968,1747638598630,0.5871989150000001,0.50216347,-0.8297587799999999,-0.259075595,0.033291176,0.49020493
969,1747638598640,0.58829653,0.50045604,-0.8594099,-0.24907297,0.014965758,0.48623443
970,1747638598650,0.58171076,0.50972486,-0.9091994,-0.3974325,0.14209834,0.48989952
971,1747638598660,0.59780928,0.50277324,-0.8696543999999999,-0.49711512999999996,0.19829629499999998,0.42789851
972,1747638598670,0.6139078,0.49582162,-0.8301094,-0.59679776,0.25449425,0.3658975
973,1747638598680,0.63148505,0.489357825,-0.812181525,-0.5880550099999999,0.25144001,0.32435989
974,1747638598690,0.6490623,0.48289403,-0.79425365,-0.57931226,0.24838577,0.28282228
975,1747638598700,0.70055914,0.47777176,-0.7444642,-0.3830776,0.09926268,0.05803049
976,1747638598710,0.6826770074999999,0.4771010075,-0.752269525,-0.2153045775,0.052380152625,-0.056656085
977,1747638598720,0.664794875,0.476430255,-0.76007485,-0.047531554999999996,0.00549762525,-0.17134266
978,1747638598730,0.646867,0.48923588,-0.771295,0.05932854,0.0027488125,-0.23578705
979,1747638598740,0.595614,0.50069994,-0.78693616,0.16714308,0.014965758,-0.2699945
980,1747638598750,0.5565569,0.48752844,-0.8047421,0.39888325,0.03634541,-0.26877278
981,1747638598760,0.4738386,0.5043587,-0.8359634,0.4481328,0.04734066,-0.25533417
982,1747638598770,0.4738386,0.5043587,-0.8359634,0.4481328,0.04734066,-0.25533417
983,1747638598780,0.47652173,0.5085053,-0.84084177,0.49921492,0.040621344,-0.22418094
984,1747638598790,0.48993713,0.522439,-0.8735571,0.56152135,-0.03939965,-0.20096874
985,1747638598800,0.48993713,0.522439,-0.8735571,0.56152135,-0.03939965,-0.20096874
986,1747638598810,0.5533859,0.5221951,-0.91188246,0.5920637,-0.14446537,-0.21868332
987,1747638598820,0.5533859,0.5221951,-0.91188246,0.5920637,-0.14446537,-0.21868332
988,1747638598830,0.5616791,0.5234147,-0.945299,0.5609105,-0.21043688,-0.30977592
989,1747638598840,0.53314084,0.534147,-0.9619159,0.4306473,-0.2043284,-0.39285114
990,1747638598850,0.43502536,0.54244024,-0.97996575,0.4306473,-0.2043284,-0.39285114
991,1747638598860,0.4287445225,0.5493918375,-0.975636215,0.35994175,-0.237925,-0.35986539500000003
992,1747638598870,0.422463685,0.556343435,-0.9713066800000001,0.2892362,-0.2715216,-0.32687965
993,1747638598880,0.4308178275,0.5557336175,-0.96086399,0.201083295,-0.28465481,-0.264229625
994,1747638598890,0.43917197,0.5551238,-0.9504213,0.11293039,-0.29778802,-0.2015796
995,1747638598900,0.5856134,0.5541482,-0.8864847,-0.011682454,-0.39002597,-0.21257484
996,1747638598910,0.5964677199999999,0.55573365,-0.8848992,-0.0222959255,-0.40224291,-0.25441788
997,1747638598920,0.60732204,0.5573191,-0.8833137,-0.032909397,-0.41445985,-0.29626092
998,1747638598930,0.5263112,0.55292857,-0.8347438,-0.081471756,-0.29962057,-0.5064687
999,1747638598940,0.435025385,0.543049965,-0.77470982,0.03348206699999999,-0.40651883499999997,-0.51593685
1000,1747638598950,0.34373957,0.53317136,-0.71467584,0.14843589,-0.5134171,-0.525405
