id,timestamp,acc_x,acc_y,acc_z,gyro_x,gyro_y,gyro_z
0,1747638652490,-0.14531335,0.6459218,0.5699723,-0.14507623,-1.1438115,0.029320668
1,1747638652500,-0.14714273,0.63273505,0.51469466,-0.11140327,-1.3569972,0.140189444
2,1747638652510,-0.14897211,0.6195483,0.45941702,-0.07773031,-1.5701829,0.25105822
3,1747638652520,-0.17266251,0.51975596,0.19245026,-0.26655847,-2.1248322,0.57602894
4,1747638652530,-0.11323831349999999,0.398697065,0.113009645,-0.640702385,-2.4507574,0.8878664700000001
5,1747638652540,-0.053814117,0.27763817,0.03356903,-1.0148463,-2.7766826,1.199704
6,1747638652550,-0.053814117,0.27763817,0.03356903,-1.4448065,-2.3667276,1.267508
7,1747638652560,-0.048676621,0.31913448499999997,-0.227071185,-1.6744087,-1.03748585,1.2281084
8,1747638652570,-0.043539125,0.3606308,-0.4877114,-1.9040109,0.2917559,1.1887088
9,1747638652580,0.24150799,-0.12040337,0.07482144,-1.9912094,0.34917557,1.163664
10,1747638652590,0.321665095,-0.181534985,0.10886305500000001,-1.88499835,-0.857896715,0.76752957
11,1747638652600,0.4018222,-0.2426666,0.14290467,-1.7787873,-2.064969,0.37139514
12,1747638652610,0.337031835,-0.223869775,0.005137484999999997,-1.76164535,-2.429683,0.24708772
13,1747638652620,0.27224147,-0.20507295,-0.1326297,-1.7445034,-2.794397,0.1227803
14,1747638652630,-0.23391607,-0.061070636,-0.25708818,-2.508368,-3.347214,0.11667182
15,1747638652640,-0.307975275,-0.089014338,-0.29870645500000004,-2.75480665,-3.1062347,0.44591851
16,1747638652650,-0.38203448,-0.11695804,-0.34032473,-3.0012453,-2.8652554,0.7751652
17,1747638652660,-0.28590083,-0.21458568,-0.22928166,-3.1788492,-0.4303419,2.1593451
18,1747638652670,-0.1648419365,-0.40958182,-0.06918086300000001,-3.2071771,-0.2403684,2.3264499499999998
19,1747638652680,-0.043783043,-0.60457796,0.090919934,-3.235505,-0.0503949,2.4935548
20,1747638652690,0.37011307,-0.5777471,0.36816174,-2.912138,-0.43706122,2.0579443
21,1747638652700,0.373771815,-0.611788715,0.4461236,-2.7383138000000002,-0.77821941,1.8725522
22,1747638652710,0.37743056,-0.64583033,0.52408546,-2.5644896,-1.1193776,1.6871601
23,1747638652720,0.19415767,-0.49426663,0.48408312,-2.040459,-3.2079408,1.3414205
24,1747638652730,0.225516205,-0.562471835,0.41244784,-1.993099225,-3.69264815,1.524522025
25,1747638652740,0.25687474,-0.63067704,0.34081256,-1.94573945,-4.1773555,1.70762355
26,1747638652750,0.41429248,-0.63851285,0.35691106,-2.1887422,-4.226834,2.1489606
27,1747638652760,0.60500479,-0.67901826,0.47321358,-2.6208402,-3.8536063,2.29835095
28,1747638652770,0.7957171,-0.71952367,0.5895161,-3.0529382,-3.4803786,2.4477413
29,1747638652780,0.9602085,-0.7475741,0.8843199,-3.4959552,-3.2464242,2.4318593
30,1747638652790,1.03928325,-0.7480772,1.0791940500000001,-3.5981576,-3.1685410999999997,2.41231215
31,1747638652800,1.118358,-0.7485803,1.2740682,-3.70036,-3.090658,2.392765
32,1747638652810,1.2211079,-0.714157535,1.50028565,-3.4648401499999997,-2.9260346999999998,2.3404993999999997
33,1747638652820,1.3238578,-0.67973477,1.7265031,-3.2293203,-2.7614114,2.2882338
34,1747638652830,1.5427425,-0.34931916,1.8212038,-1.8236082,-1.8847692,2.0811565
35,1747638652840,1.5850925,-0.23461735,1.7721461,-1.5725117499999999,-1.9201983,2.03351045
36,1747638652850,1.6274425,-0.11991554,1.7230884,-1.3214153,-1.9556274,1.9858644
37,1747638652860,1.9681331,0.22934265,1.4766105,-1.1238827,-2.3502347,1.8661383
38,1747638652870,2.259644,0.42335548999999995,1.437385675,-1.31175635,-2.19263625,1.7790926
39,1747638652880,2.5511549000000002,0.6173683299999999,1.39816085,-1.49963,-2.0350378,1.6920469
40,1747638652890,2.712963,0.71693206,1.3882822,-2.2772386,-0.3943019,1.2229162
41,1747638652900,2.9316191,0.85872388,1.4404956,-2.5448661,0.23154930000000007,0.984074925
42,1747638652910,3.1502752,1.0005157,1.492709,-2.8124936,0.8574005,0.74523365
43,1747638652920,3.4209313,1.339255,2.409348,-2.8622775,2.1175783,-0.73064965
44,1747638652930,3.4005643,1.405143,2.54955435,-2.47160255,1.8787370499999998,-1.126784125
45,1747638652940,3.3801973,1.471031,2.6897607,-2.0809276,1.6398958,-1.5229186
46,1747638652950,3.0546293,1.5681708,2.4181595,-0.10766183,0.29358846,-2.6267195
47,1747638652960,3.0187584000000003,1.5371781,2.112852,0.37677823499999996,0.167715749,-2.8842297500000003
48,1747638652970,2.9828875,1.5061854,1.8075445,0.8612183,0.041843038,-3.14174
49,1747638652980,3.0091085499999997,1.4100365,1.7011359000000001,0.8120069,0.070552859,-3.3604234
50,1747638652990,3.0353296,1.3138876,1.5947273,0.7627955,0.09926268,-3.5791068
51,1747638653000,3.0063035,0.94170123,1.8609928,0.22379917,-0.111479625,-4.420854
52,1747638653010,3.00374245,0.8321217,2.0598915499999997,0.13938771249999998,-0.31367006250000007,-4.6826021
53,1747638653020,3.0011814,0.72254217,2.2587903,0.054976255,-0.5158605,-4.9443502
54,1747638653030,3.04107685,0.41785975,2.4902519,0.41201648,-0.37292224,-5.666448
55,1747638653040,2.8398074749999997,0.18132155649999998,2.5885427500000002,0.7251138399999999,0.07089647999999998,-5.86100285
56,1747638653050,2.6385381,-0.055216637,2.6868336,1.0382112,0.5147152,-6.0555577
57,1747638653060,2.371297,-0.16430837,2.904773,1.6687584,0.23677967,-6.079381
58,1747638653070,2.3511587,-0.218854235,2.95687985,2.0273257,-0.05341095500000004,-6.06075025
59,1747638653080,2.3310204,-0.2734001,3.0089867,2.385893,-0.34360158,-6.0421195
60,1747638653090,2.3834927,-0.5257624,2.7149146,3.6395807,-0.809678,-6.239423
61,1747638653100,2.20900085,-0.55175475,2.4260868,4.06698295,-0.55556555,-6.302951200000001
62,1747638653110,2.034509,-0.5777471,2.137259,4.4943852,-0.3014531,-6.3664794
63,1747638653120,2.034509,-0.5777471,2.137259,4.564862,-0.24525517,-6.2430882
64,1747638653130,1.957385575,-0.5757195500000001,1.9356084,4.56203665,-0.33627142,-6.200328799999999
65,1747638653140,1.88026215,-0.5736920000000001,1.7339578,4.5592113,-0.42728767,-6.1575694
66,1747638653150,1.8390402,-0.5901869,1.4944165,4.4594903,-0.5909947,-6.175284
67,1747638653160,1.82353625,-0.599211815,1.41779615,4.3694668,-0.6410842,-6.22201375
68,1747638653170,1.8080323,-0.60823673,1.3411758,4.2794433,-0.6911737,-6.2687435
69,1747638653180,1.9107822,-0.68071043,1.096375,3.9000306,-0.77608144,-6.559507
70,1747638653190,1.7569013,-0.705727165,1.02951135,3.51588405,-0.51463881,-6.774525199999999
71,1747638653200,1.6030204,-0.7307439,0.9626477,3.1317375,-0.25319618,-6.9895434
72,1747638653210,1.5211559000000001,-0.74649175,0.9843715,3.05729055,-0.10689826499999999,-6.9189907
73,1747638653220,1.4392914,-0.7622396,1.0060953,2.9828436,0.03939965,-6.848438
74,1747638653230,1.3248334,-0.86669695,1.0236572,2.9591732,-0.25380704,-6.6047096
75,1747638653240,1.2787026,-0.886088325,0.9543543999999999,2.9896774500000003,-0.45721917,-6.5347676
76,1747638653250,1.2325718,-0.9054797,0.8850516,3.0201817,-0.6606313,-6.4648256
77,1747638653260,1.1037229,-0.8491044,0.5833877,2.8644154,-0.5867188,-6.2644677
78,1747638653270,1.0647877499999998,-0.8184776300000001,0.5218902,2.7684742,-0.47218494,-6.191777
79,1747638653280,1.0258526,-0.78785086,0.4603927,2.672533,-0.35765108,-6.1190863
80,1747638653290,0.82843244,-0.7129379,0.3942608,2.1634684,-0.016798299,-5.796559
81,1747638653300,0.80390357,-0.69816572,0.43392775,2.0727957000000004,-0.024739314499999998,-5.6942037
82,1747638653310,0.7793747,-0.68339354,0.4735947,1.982123,-0.03268033,-5.5918484
83,1747638653320,0.7371467,-0.613359,0.6217131,2.0961988,-0.29106873,-5.0604115
84,1747638653330,0.81731905,-0.612139415,0.591086325,2.29151715,-0.49478629,-4.83348175
85,1747638653340,0.8974914,-0.61091983,0.56045955,2.4868355,-0.69850385,-4.606552
86,1747638653350,0.91409295,-0.63947329,0.463456925,2.5756374500000003,-0.756228925,-4.5414967
87,1747638653360,0.9306945,-0.66802675,0.3664543,2.6644394,-0.813954,-4.4764414
88,1747638653370,0.8048792499999999,-0.6904823499999999,0.127644641,2.6469538,-0.74248487,-4.25165
89,1747638653380,0.726726825,-0.6840109249999999,-0.03787567949999998,2.48653005,-0.614206925,-4.09649465
90,1747638653390,0.6485744,-0.6775395,-0.203396,2.3261063,-0.48592898,-3.9413393
91,1747638653400,0.4750582,-0.6629045,-0.58289987,1.2313154,-0.07727218,-3.4453313
92,1747638653410,0.380723435,-0.6546113499999999,-0.607794615,0.9032903999999999,0.010689826999999999,-3.33354625
93,1747638653420,0.28638867,-0.6463182,-0.63268936,0.5752654,0.098651834,-3.2217612
94,1747638653430,-0.10235353,-0.64802563,-0.5033525,-0.2858765,0.30519456,-2.5460877
95,1747638653440,-0.192907595,-0.694263065,-0.524573285,-0.41018393,0.5012765299999999,-2.40070605
96,1747638653450,-0.28346166,-0.7405005,-0.54579407,-0.53449136,0.6973585,-2.2553244
97,1747638653460,-0.61534077,-0.8386161,-0.53701305,-0.6622348,1.5690376,-2.1704166
98,1747638653470,-0.735789885,-0.8868201,-0.514679425,-0.5989739000000001,1.6869310999999998,-2.1441502999999997
99,1747638653480,-0.856239,-0.9350241,-0.4923458,-0.535713,1.8048246,-2.117884
100,1747638653490,-1.5097833,-1.033353,-0.53432995,0.2761793,1.0895225,-1.9138608
101,1747638653500,-1.60690785,-1.0543451,-0.613770575,0.490204925,0.82930155,-1.8500272500000001
102,1747638653510,-1.7040324,-1.0753372,-0.6932112,0.70423055,0.5690806,-1.7861937
103,1747638653520,-2.174822,-1.1907707,-1.1681169,1.246892,-0.05283829,-1.3402753
104,1747638653530,-2.3860386,-1.252878,-1.34969765,1.1422080499999998,0.018936265,-0.9957574
105,1747638653540,-2.5972552,-1.3149853,-1.5312784,1.0375241,0.09071082,-0.6512395
106,1747638653550,-2.6936481,-1.3187812,-1.5709301,0.89954895,0.134729995,-0.4102221
107,1747638653560,-2.790041,-1.3225771,-1.6105818,0.7615738,0.17874917,-0.1692047
108,1747638653570,-2.8596182,-1.3103509,-1.6798847,-0.20425205,0.14820682,1.0848647
109,1747638653580,-2.78969795,-1.2868053,-1.580191325,-0.37651097499999997,0.122207633,1.3151541
110,1747638653590,-2.7197777,-1.2632596999999999,-1.48049795,-0.5487699,0.096208446,1.5454435
111,1747638653600,-2.628751,-1.2417798,-1.3911787,-0.907719,-0.051616594,2.1575124
112,1747638653610,-2.3689491499999997,-1.19554235,-1.230834,-1.06505035,-0.205244682,2.5762864
113,1747638653620,-2.1091473,-1.1493049,-1.0704893,-1.2223817,-0.35887277,2.9950604
114,1747638653630,-1.4158143,-0.9926189,-0.77934426,-1.2416998,-0.26296973,3.7635064
115,1747638653640,-1.27451035,-0.96809002,-0.75446478,-1.2588035,-0.16951010500000002,3.88139985
116,1747638653650,-1.1332064,-0.94356114,-0.7295853,-1.2759072,-0.07605048,3.9992933
117,1747638653660,-0.6876011,-0.8988939,-0.67025256,-1.6211122,0.2722088,4.2057595
118,1747638653670,-0.436595595,-0.87899945,-0.55042848,-1.90740875,0.49028128000000004,4.1547539
119,1747638653680,-0.18559009,-0.859105,-0.4306044,-2.1937053,0.70835376,4.1037483
120,1747638653690,-0.02695279,-0.8491044,-0.27272934,-2.373829,0.62955445,3.9681401
121,1747638653700,0.028690700000000003,-0.843494325,-0.129474024,-2.394387725,0.341826305,3.944927925
122,1747638653710,0.08433419,-0.83788425,0.013781292,-2.41494645,0.054098160000000006,3.92171575
123,1747638653720,0.33569032,-0.8376403,0.09067602,-2.3370252,-0.95994645,4.0994725
124,1747638653730,0.41854576,-0.84337235,0.10165226999999999,-2.31927255,-1.022558275,4.1681926
125,1747638653740,0.5014012,-0.8491044,0.11262852,-2.3015199,-1.0851701,4.2369127
126,1747638653750,0.7637641,-0.87108743,0.22952558,-2.3183944,-0.7009472,4.431773
127,1747638653760,0.89114955,-0.809833865,0.335202475,-2.3243119500000002,-0.45324865000000003,4.4846115
128,1747638653770,1.018535,-0.7485803,0.44087937,-2.3302295,-0.2055501,4.53745
129,1747638653780,1.03147785,-0.71501125,0.429293335,-2.33393275,-0.061390150000000004,4.5591349999999995
130,1747638653790,1.0444207,-0.6814422,0.4177073,-2.337636,0.0827698,4.58082
131,1747638653800,1.1198215,-0.6279939800000001,0.37096676500000003,-2.6112194,0.6558209,4.63885
132,1747638653810,1.1938959,-0.65447416,0.3784672025,-2.76729085,0.8418239000000001,4.5915095
133,1747638653820,1.2679703,-0.68095434,0.38596764,-2.9233623,1.0278269,4.544169
134,1747638653830,1.1743674,-0.729768185,0.5687527050000001,-3.04144675,0.796010345,4.31204705
135,1747638653840,1.1043785,-0.7291584175,0.6752833025,-2.962170175,0.5142570424999999,4.269593275
136,1747638653850,1.0343896,-0.72854865,0.7818139,-2.8828936,0.23250374,4.2271395
137,1747638653860,0.95508623,-0.56234986,0.79083884,-2.1601086,-0.47249034,4.5386715
138,1747638653870,0.992664615,-0.54808073,0.714569155,-2.1149440999999998,-0.36375953,4.61197305
139,1747638653880,1.030243,-0.5338116,0.63829947,-2.0697796,-0.25502872,4.6852746
140,1747638653890,1.3277603,-0.66680723,0.37596706,-2.2928152,0.43163994,4.7982817
141,1747638653900,1.24527075,-0.7024343,0.45784683,-2.78347825,0.34856472,4.6507621
142,1747638653910,1.1627812,-0.73806137,0.5397266,-3.2741413,0.2654895,4.5032425
143,1747638653920,1.0395424,-0.71318185,0.77498424,-3.6193464,-0.40957308,4.5857067
144,1747638653930,1.0489331750000002,-0.734478835,0.889800395,-3.6059650249999997,-0.69208995,4.72314725
145,1747638653940,1.0583239500000001,-0.75577582,1.00461655,-3.59258365,-0.97460682,4.8605878
146,1747638653950,1.3267847,-0.81446826,0.9821609,-3.3259106,-0.85854584,5.2412224
147,1747638653960,1.4308608999999999,-0.84680248,0.940557885,-3.3053327,-0.61817743,5.276346
148,1747638653970,1.5349371,-0.8791367,0.89895487,-3.2847548,-0.37780902,5.3114696
149,1747638653980,1.5852145,-0.79224133,0.961428,-3.497864,0.15736952,5.029182
150,1747638653990,1.54409925,-0.711825065,1.08161795,-3.6262182999999997,-0.61936099,5.01146725
151,1747638654000,1.502984,-0.6314088,1.2018079,-3.7545726,-1.3960915,4.9937525
152,1747638654010,1.589361,-0.6368055,1.1515306,-3.8342884,-1.9861698,5.1880784
153,1747638654020,1.7754542,-0.6779206799999999,1.10078065,-4.05705655,-1.7833685,5.28611945
154,1747638654030,1.9615474,-0.71903586,1.0500307,-4.2798247,-1.5805672,5.3841605
155,1747638654040,2.0352408,-0.7388083599999999,1.0705197499999999,-4.452121849999999,-1.2180294,5.29742025
156,1747638654050,2.1089342,-0.75858086,1.0910088,-4.624419,-0.8554916,5.21068
157,1747638654060,2.0835667,-0.67680776,1.6359795,-5.1733418,0.13843326,4.444601
158,1747638654070,2.01339495,-0.56844778,1.83182935,-5.0932827,-0.046997065000000005,4.35205765
159,1747638654080,1.9432232,-0.4600878,2.0276792,-5.0132236,-0.23242739,4.2595143
160,1747638654090,1.9698405,-0.19531627,2.403494,-4.033043,-1.0570712,4.040831
161,1747638654100,2.0238986,-0.11026557799999999,2.3842245999999996,-3.44487325,-1.2785033000000001,3.89575475
162,1747638654110,2.0779567,-0.025214886,2.3649552,-2.8567035,-1.4999354,3.7506785
163,1747638654120,2.2704983,0.08924301,2.2099764,-2.0778732,-1.6905198,3.4159343
164,1747638654130,2.46354305,0.25336843,1.95750745,-2.1127678999999997,-1.4907727,3.3139227499999997
165,1747638654140,2.6565878,0.41749385,1.7050385,-2.1476626,-1.2910256,3.2119112
166,1747638654150,2.8862355,0.608816,1.7665361,-3.3333936,0.2654895,2.287012
167,1747638654160,2.75651755,0.66836215,1.98825625,-3.5785723999999997,0.35955997500000003,2.03473215
168,1747638654170,2.6267996,0.7279083,2.2099764,-3.8237512,0.45363045,1.7824523
169,1747638654180,2.2951643,1.0585984,3.0865824,-3.8411603,0.33756948,1.6584504
170,1747638654190,2.68270215,1.2276022,3.4836484,-2.7660309,0.44355149,1.6349327
171,1747638654200,3.07024,1.396606,3.8807144,-1.6909015,0.5495335,1.611415
172,1747638654210,3.6505787,1.3941667,3.9456263,-0.37437302,0.7883747,0.8790092
173,1747638654220,3.7474745499999997,1.3153359500000001,3.7801595,0.6515449400000002,0.61947546,-0.11609914999999993
174,1747638654230,3.8443704,1.2365052,3.6146927,1.6774629,0.45057622,-1.1112075
175,1747638654240,3.6120398,1.0068575,2.9516356,2.3690948,0.0076355906,-2.3390105
176,1747638654250,3.4967283,0.9298560849999999,2.71698775,2.3544344500000003,0.0317640568,-2.68326115
177,1747638654260,3.3814168,0.85285467,2.4823399,2.3397741,0.055892523,-3.0275118
178,1747638654270,3.0358174,0.46728337,2.1321366,1.4481661,1.0369896,-3.7098281
179,1747638654280,2.86425245,0.216155908,2.2512288,1.0335153799999999,1.7303012,-3.90591005
180,1747638654290,2.6926875,-0.034971554,2.370321,0.61886466,2.4236128,-4.101992
181,1747638654300,2.66035325,-0.169079977,2.5450569,0.704535965,2.49080595,-4.1701014999999995
182,1747638654310,2.628019,-0.3031884,2.7197928,0.79020727,2.5579991,-4.238211
183,1747638654320,2.5635946,-0.5574716,3.0250852,1.7827578,2.102307,-4.5637927
184,1747638654330,2.5003897,-0.64057092,2.9005047,2.6005677,1.73640955,-4.748879349999999
185,1747638654340,2.4371848,-0.72367024,2.7759242,3.4183776,1.3705121,-4.933966
186,1747638654350,2.2343683,-0.8027297,2.1596992,4.272571,1.0828031,-5.1037817
187,1747638654360,2.21412315,-0.8027297,2.0540222999999997,4.305289500000001,1.005225525,-5.10439255
188,1747638654370,2.193878,-0.8027297,1.9483454,4.338008,0.92764795,-5.1050034
189,1747638654380,2.1609187,-0.8264202,1.7169905,4.149867,1.2330716,-5.177694
190,1747638654390,2.1432347,-0.82471275,1.7118682,4.145515,1.34394035,-5.2054875
191,1747638654400,2.1255507,-0.8230053,1.7067459,4.141163,1.4548091,-5.233281
192,1747638654410,2.001062,-0.7700449,1.6025326,4.2906675,1.475578,-5.2913117
193,1747638654420,1.9811827000000002,-0.76650812,1.460131,4.340833399999999,1.3069841,-5.43455535
194,1747638654430,1.9613034,-0.76297134,1.3177294,4.3909993,1.1383902,-5.577799
195,1747638654440,1.8770913,-0.7490681,1.1952221,4.328082,1.0840248,-5.706764
196,1747638654450,1.8190772,-0.74765796,1.1211553,4.245961125,1.056383975,-5.7751789
197,1747638654460,1.7610630999999999,-0.74624782,1.0470885,4.16384025,1.02874315,-5.8435938
198,1747638654470,1.7031557999999998,-0.75521936,0.97972938,4.039074775,1.020344025,-5.9123143
199,1747638654480,1.6452485,-0.7641909,0.91237026,3.9143093,1.0119449,-5.9810348
200,1747638654490,1.4505115,-0.92941403,0.74104935,3.7709892,1.3949461,-6.044563
201,1747638654500,1.4015757,-0.949415165,0.7060320250000001,3.7566724999999996,1.40441425,-6.0405923
202,1747638654510,1.3526399,-0.9694163,0.6710147,3.7423558,1.4138824,-6.0366216
203,1747638654520,1.0190228,-0.94112194,0.5394827,3.5566583,0.8476269,-5.6859956
204,1747638654530,1.03696595,-0.9439270200000001,0.50213296,3.5061869999999997,0.6210025849999999,-5.5766156
205,1747638654540,1.0549091,-0.9467321,0.46478322,3.4557157,0.39437827,-5.4672356
206,1747638654550,1.1261632,-0.91962683,0.2871204,3.1068456,-0.35887277,-5.389658
207,1747638654560,1.110422975,-0.883389965,0.25716439,2.90167725,-0.32390176000000004,-5.397599
208,1747638654570,1.09468275,-0.8471531,0.22720838,2.6965089,-0.28893075,-5.40554
209,1747638654580,0.9109068,-0.7541904,0.33861732,2.3360326,-0.026571855,-5.332238
210,1747638654590,0.86826711,-0.7278245075,0.3749761475,2.36035195,-0.15714046,-5.21587185
211,1747638654600,0.82562742,-0.701458615,0.41133497500000005,2.3846713,-0.287709065,-5.0995057
212,1747638654610,0.9621598,-0.64826953,0.26321658,2.470648,-0.65574455,-4.855167
213,1747638654620,1.2767361,-0.645830365,-0.006341830000000048,2.08871585,-0.495397135,-5.025288
214,1747638654630,1.5913124,-0.6433912,-0.27590024,1.7067837,-0.33504972,-5.195409
215,1747638654640,1.6313452,-0.65119654,-0.36496034,0.9982771,0.09987353,-5.5655823
216,1747638654650,1.4613657,-0.56285297,-0.233428265,0.33657682,0.520785465,-5.79713165
217,1747638654660,1.2913862,-0.4745094,-0.10189619,-0.32512346,0.9416974,-6.028681
218,1747638654670,1.133480735,-0.44473631,0.06344882499999999,-0.45439399999999996,1.1258678500000001,-5.990503
219,1747638654680,0.97557527,-0.41496322,0.22879384,-0.58366454,1.3100383,-5.952325
220,1747638654690,0.661502,-0.36712506,0.41990253,0.024128460000000004,1.57270265,-5.52774765
221,1747638654700,0.6400221,-0.411533145,0.27468064999999997,0.5143333800000001,1.668605625,-5.330119625
222,1747638654710,0.6185422,-0.45594123,0.12945877,1.0045383,1.7645086,-5.1324916
223,1747638654720,0.33203158,-0.7556538,-0.7996198,1.5198643,1.4621392,-5.045751
224,1747638654730,0.1813368065,-0.86767255,-0.9468996999999999,1.3220262,1.33691555,-5.0646872
225,1747638654740,0.030642033,-0.9796913,-1.0941796,1.1241881,1.2116919,-5.0836234
226,1747638654750,-0.72638386,-1.1404933,-1.1105222,0.3690281,0.8848886,-4.802023
227,1747638654760,-1.15249098,-1.24336525,-1.105278,0.20995965625000002,0.85831675,-4.3411387
228,1747638654770,-1.5785981,-1.3462372,-1.1000338,0.0508912125,0.8317449,-3.8802544
229,1747638654780,-1.8548644,-1.4099299,-1.0956433,0.021914145,0.9026032,-3.5882695
230,1747638654790,-1.9571265000000002,-1.4320196,-1.0989361,0.0565033695,0.9975898999999999,-3.08306065
231,1747638654800,-2.0593886,-1.4541093,-1.1022289,0.091092594,1.0925766,-2.5778518
232,1747638654810,-2.4303246,-1.5963737,-1.1896122,0.2493784,1.0082798,-1.3799803
233,1747638654820,-2.3937219499999998,-1.59905675,-1.20424715,0.205741,0.803340525,-1.15030175
234,1747638654830,-2.3571193,-1.6017397999999998,-1.2188821,0.1621036,0.59840125,-0.9206232
235,1747638654840,-2.2841575,-1.5983249,-1.198637,-0.13942589,-0.19883078,-0.45271417
236,1747638654850,-2.3403957,-1.5642833,-0.9489730249999999,-0.0839914995,-0.43125817,-0.07059103500000002
237,1747638654860,-2.3966339,-1.5302417,-0.69930905,-0.028557109,-0.66368556,0.3115321
238,1747638654870,-2.40116155,-1.51231385,-0.6567151250000001,0.13843325550000002,-0.73851433,0.5424323799999999
239,1747638654880,-2.4056892,-1.494386,-0.6141212,0.30542362,-0.8133431,0.77333266
240,1747638654890,-2.3202572,-1.4384986,-0.59338826,0.87305343,-0.9232956,1.5625473
241,1747638654900,-2.24424675,-1.386026,-0.70052868,0.954067065,-0.94559153,1.8395665
242,1747638654910,-2.1682363,-1.3335534,-0.8076691,1.0350807,-0.96788746,2.1165857
243,1747638654920,-1.9793229,-1.2764465,-0.97728264,0.58083941,-0.806623775,2.68597175
244,1747638654930,-1.8785395500000002,-1.20664055,-0.946411935,0.22162303499999997,-0.6340594375,2.9807055250000003
245,1747638654940,-1.7777562,-1.1368346,-0.91554123,-0.13759334,-0.4614951,3.2754393
246,1747638654950,-1.4329189,-1.0697271,-0.6187861,-0.71140796,-0.25014195,4.092142
247,1747638654960,-1.37556805,-1.0644829,-0.58913495,-0.7394687799999999,-0.245255175,4.181631250000001
248,1747638654970,-1.3182172,-1.0592387,-0.5594838,-0.7675296,-0.2403684,4.2711205
249,1747638654980,-0.7232129,-0.93063354,-0.46088055,-0.7905891,-0.4150707,4.9674864
250,1747638654990,-0.540854715,-0.8799903575000001,-0.510784375,-0.9418119625000001,-0.3984251175,5.108782875
251,1747638655000,-0.35849653000000004,-0.8293471750000001,-0.5606882,-1.0930348250000002,-0.381779535,5.25007935
252,1747638655010,-0.0682052,-0.7732159,-0.6053402,-1.5887374,-0.17500775,5.5020537
253,1747638655020,0.036130155,-0.777728325,-0.59790075,-1.8357869,-0.08826743405,5.59307
254,1747638655030,0.14046551,-0.78224075,-0.5904613,-2.0828364,-0.0015271181,5.6840863
255,1747638655040,0.5597278,-0.8608124,-0.37837574,-3.0654607,0.37727454,5.9998946
256,1747638655050,0.6762589999999999,-0.8930399,-0.277348505,-3.29536835,0.38032877,6.0490677999999996
257,1747638655060,0.7927902,-0.9252674,-0.17632127,-3.525276,0.383383,6.098241
258,1747638655070,0.95533015,-0.954064815,-0.046847247499999994,-3.68852485,0.22696792799999999,6.080221
259,1747638655080,1.1178701,-0.98286223,0.082626775,-3.8517737,0.070552856,6.062201
260,1747638655090,1.2716291,-0.976246,0.4306349,-3.7041013,-0.34054735,5.6511006
261,1747638655100,1.2624669499999999,-0.96722105,0.4667498,-3.5941107,-0.390636825,5.5649713
262,1747638655110,1.2533048,-0.9581961,0.5028647,-3.4841201,-0.4407263,5.478842
263,1747638655120,1.2657751,-0.9477077,0.6053707,-3.0130804,-0.55800897,5.3438444
264,1747638655130,1.289686525,-0.9261058625,0.5775489575,-2.7816075500000004,-0.7470662,5.251606450000001
265,1747638655140,1.3135979500000001,-0.904504025,0.549727215,-2.5501347,-0.93612343,5.1593685
266,1747638655150,1.3572743,-0.89108855,0.42453694,-2.5302057,-1.0986089,5.0756826
267,1747638655160,1.39424295,-0.911470825,0.38889463,-2.573346775,-1.1564866500000002,4.9696624
268,1747638655170,1.4312116,-0.9318531,0.35325232,-2.61648785,-1.2143644,4.863642199999999
269,1747638655180,1.1625373,-0.9562448,0.5904918,-2.6155715,-1.7064018,4.556386
270,1747638655190,1.050640535,-0.8862102199999999,0.66552667,-2.3289695999999998,-2.10314715,4.609224299999999
271,1747638655200,0.93874377,-0.81617564,0.74056154,-2.0423677,-2.4998925,4.6620626
272,1747638655210,0.96630645,-0.7436715,0.62317663,-1.7058673,-2.651459,4.899682
273,1747638655220,1.1454479750000002,-0.71745042,0.466140015,-1.64917305,-2.3551599000000003,5.0835852500000005
274,1747638655230,1.3245895,-0.69122934,0.3091034,-1.5924788,-2.0588608,5.2674885
275,1747638655240,1.39608755,-0.7218561450000001,0.24661499999999997,-1.6937267500000002,-1.8682764,5.252217249999999
276,1747638655250,1.4675856,-0.75248295,0.1841266,-1.7949747,-1.677692,5.236946
277,1747638655260,1.4186651000000001,-0.806525725,0.29126698,-2.39998065,-1.6886872,5.040826
278,1747638655270,1.39528725,-0.8308640125,0.40877384000000005,-2.584093825,-1.9907512,5.0145405
279,1747638655280,1.3719094,-0.8552023,0.5262807,-2.768207,-2.2928152,4.988255
280,1747638655290,1.4639269,-0.85642195,0.9338655,-2.877854,-3.374702,5.4256983
281,1747638655300,1.5547095999999998,-0.85666585,0.98754235,-2.76881785,-3.18381225,5.564055
282,1747638655310,1.6454923,-0.85690975,1.0412192,-2.6597817,-2.9929225,5.7024117
283,1747638655320,1.9966713,-0.859105,1.1361638,-2.11147,-1.8682764,5.7470036
284,1747638655330,2.0767217000000002,-0.835932915,1.1843678,-1.80524455,-2.0655800500000003,5.50327565
285,1747638655340,2.1567721,-0.81276083,1.2325718,-1.4990191,-2.2628837,5.2595477
286,1747638655350,2.1743343,-0.7563856,1.2088815,-1.3625711,-2.7717957,5.1874676
287,1747638655360,2.2835479000000003,-0.625692015,1.1879046500000001,-1.3444748,-2.93305945,5.20762565
288,1747638655370,2.3927615,-0.49499843,1.1669278,-1.3263785,-3.0943232,5.2277837
289,1747638655380,2.611189,-0.42032942,1.1661961,-1.2946144,-2.453468,5.40554
290,1747638655390,2.731013,-0.42996412500000003,1.1363011,-1.2986612499999999,-2.04175695,5.3129966500000005
291,1747638655400,2.850837,-0.43959883,1.1064061,-1.3027081,-1.6300459,5.2204533
292,1747638655410,2.8691611,-0.21800053,1.2857763,-1.4173948,-0.6991147,4.7097087
293,1747638655420,2.9827653,0.03666372500000001,1.3217691999999999,-1.3790641,-0.88511765,4.3520577
294,1747638655430,3.0963695,0.29132798,1.3577621,-1.3407334,-1.0711206,3.9944067
295,1747638655440,3.145656,0.35721597,1.34408755,-1.36971045,-1.0811996499999998,3.7940487999999997
296,1747638655450,3.1949425,0.42310396,1.330413,-1.3986875,-1.0912787,3.5936909
297,1747638655460,3.3059857,0.7550136,1.3250468,-1.7021259,-0.9513946,2.9981146
298,1747638655470,3.34809185,0.8490892,1.31126555,-1.9603998,-0.579388625,2.7556083
299,1747638655480,3.390198,0.9431648,1.2974843,-2.2186737,-0.20738265,2.513102
300,1747638655490,3.5108756999999997,1.0665409000000001,1.58227225,-2.92275145,0.596263285,2.12849725
301,1747638655500,3.59159685,1.11943265,1.7947161249999999,-3.124636425,0.8218186425,1.951504275
302,1747638655510,3.672318,1.1723244,2.00716,-3.3265214,1.047374,1.7745113
303,1747638655520,4.0395956,1.3363279,3.0284998,-2.5937338,1.147553,0.53693473
304,1747638655530,4.09682465,1.3037497999999998,3.12490785,-2.1909182,1.0577584,0.17989451500000003
305,1747638655540,4.1540537,1.2711717,3.2213159,-1.7881026,0.9679638,-0.1771457
306,1747638655550,4.3504977,0.90044886,3.2132363,-0.09704836,1.1243408,-1.8008541
307,1747638655560,4.1998029500000005,0.6195559575,3.1454046,1.20890492,1.03210285,-3.0176999
308,1747638655570,4.0491082,0.338663055,3.0775729,2.5148582,0.9398649,-4.2345457
309,1747638655580,3.887544,0.18321191,2.9909368,2.5148582,0.9398649,-4.2345457
310,1747638655590,3.482063,-0.040093795000000015,2.3976551500000003,3.3740911,0.726373775,-4.790722150000001
311,1747638655600,3.076582,-0.2633995,1.8043735,4.233324,0.51288265,-5.3468986
312,1747638655610,2.9794421,-0.31855518,1.3687384,4.296929,0.47073418,-5.6811085
313,1747638655620,2.98897015,-0.32392135499999997,1.3189489,4.1439498,0.415757925,-5.76082425
314,1747638655630,2.9984982,-0.32928753,1.2691594,3.9909706,0.36078167,-5.84054
315,1747638655640,2.9782226,-0.279498,1.0580801,3.3024693,0.34795386,-6.1636777
316,1747638655650,2.85766675,-0.22947984500000002,0.91860545,2.708993,1.19367183,-6.20521535
317,1747638655660,2.7371109,-0.17946169,0.7791308,2.1155167,2.0393898,-6.246753
318,1747638655670,2.67354015,-0.20531686,0.855522475,1.9027128500000001,2.37443955,-6.211323849999999
319,1747638655680,2.6099694,-0.23117203,0.93191415,1.689909,2.7094893,-6.1758947
320,1747638655690,2.574571,-0.40520656,1.2125403,1.6849458,2.6936073,-6.2290387
321,1747638655700,2.568961,-0.48048535,1.2278003499999999,1.8874416,2.3982627,-6.42450985
322,1747638655710,2.563351,-0.55576414,1.2430604,2.0899374,2.1029181,-6.619981
323,1747638655720,2.3672722999999998,-0.6499769799999999,1.1844898499999998,2.5722015000000003,1.6857093500000002,-7.047879249999999
324,1747638655730,2.22249255,-0.6704659399999999,1.117870075,2.7485454000000002,1.514672075,-7.143018625
325,1747638655740,2.0777128,-0.6909549,1.0512503,2.9248893,1.3436348,-7.238158
326,1747638655750,1.8109595,-0.6563188,0.6343968,2.9342048,0.7505022,-6.9925976
327,1747638655760,1.8303660000000002,-0.6636363000000001,0.53044254,2.77347565,0.838464215,-6.91929605
328,1747638655770,1.8497725,-0.6709538,0.42648828,2.6127465,0.92642623,-6.8459945
329,1747638655780,1.794129,-0.69659555,0.4032857,1.6550143,1.6539453,-6.7122188
330,1747638655790,1.7362827,-0.7212387425,0.52599105,1.53105045,1.657305,-6.5549257
331,1747638655800,1.6784364,-0.745881935,0.6486964,1.4070866,1.6606647,-6.3976326
332,1747638655810,1.6625665,-0.86694086,0.86550784,1.5958384,1.4120498,-6.3298283
333,1747638655820,1.6342569500000002,-0.8915764100000001,0.87674327,1.880436,0.9882745099999999,-6.3370058
334,1747638655830,1.6059474,-0.91621196,0.8879787,2.1650336,0.56449922,-6.3441833
335,1747638655840,1.6432971,-0.90645534,0.48871753,2.5603664,0.14515258,-6.29501
336,1747638655850,1.6741678,-0.90401617,0.344730475,2.5192487,0.28839625999999996,-6.26019165
337,1747638655860,1.7050385,-0.901577,0.20074342,2.478131,0.43163994,-6.2253733
338,1747638655870,1.76007225,-0.89169835,0.043569615000000006,2.04572745,0.84915407,-6.1532934
339,1747638655880,1.815106,-0.8818197,-0.11360419,1.6133239,1.2666682,-6.0812135
340,1747638655890,1.6786956,-0.92331606,0.026007613,0.608862,1.827426,-6.050671
341,1747638655900,1.6308573499999999,-0.936487555,0.1259372265,0.57118035,1.8491110499999999,-6.0357053
342,1747638655910,1.5830191,-0.94965905,0.22586684,0.5334987,1.8707961,-6.0207396
343,1747638655920,1.4120641,-1.013732925,0.386821345,1.0599728,1.5989691,-5.8814664
344,1747638655930,1.3060823,-1.0303878124999999,0.3873701625,1.21421165,1.4844352,-5.8249632
345,1747638655940,1.2001005,-1.0470427,0.38791898,1.3684505,1.3699013,-5.76846
346,1747638655950,0.5375314,-0.8984061,-0.11604336,1.8120784,0.8812235,-4.7757564
347,1747638655960,0.4423429,-0.852168625,-0.30199934500000003,1.6114150500000002,1.0241618000000001,-4.35549355
348,1747638655970,0.3471544,-0.80593115,-0.48795533,1.4107517,1.1671001,-3.9352307
349,1747638655980,0.24199583,-0.82812756,-0.7298292,0.123467505,2.3099952,-2.6334388
350,1747638655990,0.2079465875,-0.8608886474999999,-0.68546685,-0.29057239749999997,2.6588272,-2.4117013
351,1747638656000,0.173897345,-0.893649735,-0.6411045,-0.7046123,3.0076592,-2.1899638
352,1747638656010,-0.16433886,-1.0060343,-0.3556915,-0.7046123,3.0076592,-2.1899638
353,1747638656020,-0.36348918750000003,-0.9820542600000001,-0.274421505,-0.3706315675,2.7306017750000002,-2.23379205
354,1747638656030,-0.562639515,-0.9580742200000001,-0.19315151000000003,-0.03665083500000001,2.45354435,-2.2776202999999997
355,1747638656040,-1.1363772,-0.9208769,-0.3530084,1.2556729,1.7064781,-2.6603162
356,1747638656050,-1.3011124500000002,-0.92124275,-0.46844195,1.57434425,1.4566416,-2.72109545
357,1747638656060,-1.4658477,-0.9216086,-0.5838755,1.8930156,1.2068051,-2.7818747
358,1747638656070,-2.0025253,-1.0367984,-1.1888804,2.4488103,0.43530503,-2.720179
359,1747638656080,-2.29403625,-1.0415546999999998,-1.38081235,2.07153575,0.029664279999999987,-2.18721485
360,1747638656090,-2.5855472,-1.046311,-1.5727443,1.6942612,-0.37597647,-1.6542507
361,1747638656100,-2.63263835,-1.0104247800000001,-1.5468738499999999,1.5104725499999998,-0.41140562,-1.301181
362,1747638656110,-2.6797295,-0.97453856,-1.5210034,1.3266839,-0.44683477,-0.9481113
363,1747638656120,-2.577498,-0.983594,-1.3343157,1.0166789,-0.39582902,-0.17107541
364,1747638656130,-2.5510178,-0.9608945,-1.2636713,0.9632679500000001,-0.37246411999999995,0.21622084500000002
365,1747638656140,-2.5245376,-0.938195,-1.1930269,0.909857,-0.34909922,0.6035171
366,1747638656150,-2.504262,-0.8901129,-1.1393347,0.99270314,-0.45294324,0.8893936
367,1747638656160,-2.41164985,-0.87791705,-1.1587261,1.01606807,-0.65940962,1.09677625
368,1747638656170,-2.3190377,-0.8657212,-1.1781175,1.039433,-0.865876,1.3041589
369,1747638656180,-1.8043432,-0.7537025,-1.3806903,0.31977853,-0.91291124,1.8783553
370,1747638656190,-1.7062429,-0.73795465,-1.3784950999999999,-0.0023670350000000173,-0.76752957,1.9873915
371,1747638656200,-1.6081426,-0.7222068,-1.3762999,-0.3245126,-0.6221479,2.0964277
372,1747638656210,-1.3914226,-0.68046653,-1.050976,-1.4416759,-0.008857286,2.3921542
373,1747638656220,-1.3681133,-0.6814422,-0.8911343349999999,-1.6119304749999999,0.0487341595,2.477214675
374,1747638656230,-1.344804,-0.68241787,-0.73129267,-1.78218505,0.10632560499999999,2.5622751499999996
375,1747638656240,-1.230834,-0.6697342,-0.28004685,-1.7594692,0.06566608,2.6096158
376,1747638656250,-1.1911823,-0.6754662499999999,-0.27858335,-1.443260275,-0.1073564,2.77927865
377,1747638656260,-1.1515306,-0.6811983,-0.27711985,-1.12705135,-0.28037888,2.9489415
378,1747638656270,-0.81791353,-0.71976763,-0.46283188,-1.0934166,-0.317946,3.2558923
379,1747638656280,-0.758123485,-0.731963465,-0.48492159,-1.2189457,-0.281600585,3.33866205
380,1747638656290,-0.69833344,-0.7441593,-0.5070113,-1.3444748,-0.24525517,3.4214318
381,1747638656300,-0.5552000699999999,-0.77478605,-0.4542948,-1.6077118000000001,-0.1377460545,3.6190409
382,1747638656310,-0.4120667,-0.8054128,-0.4015783,-1.8709488,-0.030236939,3.81665
383,1747638656320,0.04600878,-0.84007955,-0.17802867,-2.3700874,-0.30389652,4.257682
384,1747638656330,0.14229488499999998,-0.8398356250000001,-0.109564314,-2.4205586,-0.36345412,4.2928055
385,1747638656340,0.23858099,-0.8395917,-0.041099958,-2.4710298,-0.42301172,4.327929
386,1747638656350,0.45161173,-0.8386161,0.24147749,-2.339545,-0.57205844,4.380462
387,1747638656360,0.5415407649999999,-0.851314975,0.269421205,-2.1678969,-0.5372401499999999,4.440630499999999
388,1747638656370,0.6314698,-0.86401385,0.29736492,-1.9962488,-0.50242186,4.500799
389,1747638656380,0.91773653,-0.94112194,0.22415942,-1.8367413,-0.3423799,4.6663384
390,1747638656390,1.0374538150000001,-0.9741879200000001,0.18999584,-1.8962226,-0.3051182,4.6938267
391,1747638656400,1.1571711,-1.0072539,0.15583226,-1.9557039,-0.2678565,4.721315
392,1747638656410,1.535181,-1.1629642,0.37986973,-2.8031018,-0.095597595,4.8056116
393,1747638656420,1.5832631,-1.17540395,0.508840665,-2.9246222,-0.025655584499999995,4.7903403
394,1747638656430,1.6313452,-1.1878437,0.6378116,-3.0461426,0.044286426,4.775069
395,1747638656440,1.569116,-1.2125098,1.1529942,-2.6435943,0.52815384,4.3572497
396,1747638656450,1.3543473000000001,-1.1650375,1.2547684000000001,-1.9815885500000001,0.5336514450000001,4.2280557
397,1747638656460,1.1395786,-1.1175652,1.3565426,-1.3195828,0.53914905,4.0988617
398,1747638656470,0.9109068,-1.100735,1.046372,-0.42354622,-0.29412296,4.079314
399,1747638656480,0.81622141,-1.047523025,0.8468558100000001,-0.3380466875,-0.7026270800000001,4.1840744999999995
400,1747638656490,0.7215360200000001,-0.99431105,0.64733962,-0.252547155,-1.1111312,4.288835
401,1747638656500,0.69651931,-0.97320465,0.49797875,-0.35614302750000004,-1.19924585,4.4571235
402,1747638656510,0.6715026,-0.95209825,0.34861788,-0.4597389,-1.2873605,4.625412
403,1747638656520,0.46456978,-0.9994486,0.10457927,-1.5233004,0.27831727,5.6572094
404,1747638656530,0.40110572,-1.0521650500000002,0.180483085,-1.71987865,0.41087111499999995,5.8242759500000005
405,1747638656540,0.33764166,-1.1048815,0.2563869,-1.9164569,0.54342496,5.9913425
406,1747638656550,0.35255107,-1.2029666,0.231233,-2.4915695,-0.55800897,7.0584927
407,1747638656560,0.432830135,-1.1890633,0.20145993,-2.6844064000000003,-0.7018634850000001,7.37002485
408,1747638656570,0.5131092,-1.17516,0.17168686,-2.8772433,-0.845718,7.681557
409,1747638656580,0.8872469,-1.1314684,0.187328,-3.2392466,-0.7229377,8.344402
410,1747638656590,1.3672292,-1.201510625,0.1269205145,-3.6057741500000002,-0.18688107750000005,8.73442825
411,1747638656600,1.8472115,-1.27155285,0.066513029,-3.9723017,0.349175545,9.124454499999999
412,1747638656610,3.04097,-1.7540352,0.2148906,-5.340943,0.12125318,7.891154
413,1747638656620,3.1052726,-1.62335685,0.8071965000000001,-5.693592725,-0.9222457600000001,7.1055662
414,1747638656630,3.1695752,-1.4926785,1.3995024,-6.04624245,-1.9657447000000001,6.3199784
415,1747638656640,3.0668254,-1.2608054,1.8846526,-5.5347342,-3.695397,5.5356507
416,1747638656650,3.1526077,-1.04373475,1.97348405,-4.8153853,-3.0099881,5.8367983500000005
417,1747638656660,3.23839,-0.8266641,2.0623155,-4.0960364,-2.3245792,6.137946
418,1747638656670,3.2756026,-0.7253777,2.1301699999999997,-3.95550335,-1.8316255,6.1745967
419,1747638656680,3.3128152,-0.6240913,2.1980245,-3.8149703,-1.3386718,6.2112474
420,1747638656690,4.0649624,-0.4920714,2.2502532,-3.4261658,-0.55373305,5.7628856
421,1747638656700,4.53573705,-0.10624095,2.3773948000000003,-3.521820775,-1.165496575,4.8305418
422,1747638656710,5.0065117,0.2795895,2.5045364,-3.61747575,-1.7772601,3.898198
423,1747638656720,4.903274,0.5643927,2.8757472,-3.7932088,-1.2110047,2.4874463
424,1747638656730,4.729635699999999,0.89679015,3.5261204,-3.33896755,-0.406480685,2.27177905
425,1747638656740,4.5559974,1.2291876,4.1764936,-2.8847263,0.39804333,2.0561118
426,1747638656750,5.227134,1.2467495,4.629447,-1.7625997,0.81708455,1.6737214
427,1747638656760,5.6185745,1.40502095,4.84263015,-0.977202865,0.777379475,0.93673423
428,1747638656770,6.010015,1.5632924,5.0558133,-0.19180603,0.7376744,0.19974706
429,1747638656780,5.9985514,1.6306438,4.9557467,3.5691805,1.01561,-4.074504
430,1747638656790,5.82381535,1.3453528000000001,4.20126655,3.84768875,1.1603808,-4.71314485
431,1747638656800,5.6490793,1.0600618,3.4467864,4.126197,1.3051516,-5.3517857
432,1747638656810,5.240306,0.6598251,2.9919124,4.2196565,1.4187691,-6.406795
433,1747638656820,4.8665493,0.370753347,2.7096703,4.040831,1.8365886,-6.8902807
434,1747638656830,4.4927926,0.081681594,2.4274282,3.8620055,2.2544081,-7.3737664
435,1747638656840,4.367358449999999,-0.21421980300000001,2.3997284,3.696275,2.42666705,-7.5191482
436,1747638656850,4.2419243,-0.5101212,2.3720286,3.5305445,2.598926,-7.66453
437,1747638656860,4.10963,-0.73196346,2.4293795,3.4395282,2.6258032,-7.858779
438,1747638656870,3.93173095,-0.94269983,2.5794035500000003,3.7615210749999997,2.3836023,-8.1940195
439,1747638656880,3.7538318999999998,-1.1534362,2.7294276,4.0835139499999995,2.1414014000000003,-8.52926
440,1747638656890,3.6056676,-1.2818125,2.4869745,5.134324,1.799327,-8.963878
441,1747638656900,3.5334377999999997,-1.3285377999999999,2.28917325,5.3539616500000005,1.71777885,-9.0945995
442,1747638656910,3.461208,-1.3752631,2.091372,5.5735993,1.6362307,-9.225321
443,1747638656920,2.7949495,-1.3960266,1.4766105,5.5673385,1.1096804,-9.431176
444,1747638656930,2.38715145,-1.3644241,1.24281635,5.210641900000001,0.89069165,-9.0961265
445,1747638656940,1.9793534,-1.3328216,1.0090222,4.8539453,0.6717029,-8.761077
446,1747638656950,1.7753171,-1.3625795,0.8635565,4.481328,0.7761578,-8.364026
447,1747638656960,1.6398823,-1.3637991,0.7560654499999999,4.2853605,0.83021778,-8.0765843
448,1747638656970,1.5044475,-1.3650187,0.6485744,4.089393,0.88427776,-7.7891426
449,1747638656980,1.39877065,-1.3611160500000001,0.5654750399999999,3.9819222,0.8228876,-7.64986945
450,1747638656990,1.2930938,-1.3572134,0.48237568,3.8744514,0.76149744,-7.5105963
451,1747638657000,1.1234802,-1.3245285,0.41011536,3.7812972499999997,0.21688895045,-7.2464047
452,1747638657010,1.17156225,-1.3218302,0.2037771175,3.682072775,-0.027010909775000008,-7.14118635
453,1747638657020,1.2196443,-1.3191319,-0.002561125,3.5828483,-0.27091077,-7.035968
454,1747638657030,1.4388034,-1.3620917,-0.248795,1.7989452,-0.82006246,-6.952282
455,1747638657040,1.4389253499999999,-1.3891817,-0.164598015,1.41544765,-0.70339063,-6.9144095
456,1747638657050,1.4390473,-1.4162717,-0.08040103,1.0319501,-0.5867188,-6.876537
457,1747638657060,0.8318473,-1.1451279,0.32398233,0.22441001,0.791429,-5.706764
458,1747638657070,0.7651056,-1.02981625,0.373040065,0.314471805,1.2547566,-4.967906149999999
459,1747638657080,0.6983639,-0.9145046,0.4220978,0.4045336,1.7180842,-4.2290483
460,1747638657090,0.8103826,-0.91621196,0.30129808,0.48615807,1.8927866,-3.5998757
461,1747638657100,0.9825573000000001,-0.97711493,0.14680735250000002,0.37555652500000003,1.8454459,-3.3567584999999998
462,1747638657110,1.154732,-1.0380179,-0.007683375,0.26495498,1.7981052,-3.1136413
463,1747638657120,1.204491,-1.2288522,0.027958948,0.011987877,1.4810755,-3.0721035
464,1747638657130,0.822441285,-1.17430635,0.301770674,0.48737976349999995,1.02110755,-2.9773841
465,1747638657140,0.44039157,-1.1197605,0.5755824,0.96277165,0.5611396,-2.8826647
466,1747638657150,0.182434435,-0.91781273,0.524832465,1.336648325,0.474399275,-2.5897634
467,1747638657160,-0.0755227,-0.71586496,0.47408253,1.710525,0.38765895,-2.2968621
468,1747638657170,-0.248795,-0.9445368,-0.8213284,3.0812664,0.9606337,-0.43011284
469,1747638657180,-0.26551855,-1.01774225,-1.1172298,2.92893635,1.06508855,-0.300880465
470,1747638657190,-0.2822421,-1.0909477,-1.4131312,2.7766063,1.1695434,-0.17164809
471,1747638657200,-0.5350617,-1.1448839,-1.6398518,1.2986612,0.62283516,-0.21013145
472,1747638657210,-0.7471319999999999,-1.1200043499999999,-1.5326046999999998,1.07432757,0.33081198,-0.34761027499999997
473,1747638657220,-0.9592023,-1.0951248,-1.4253576,0.84999394,0.0387888,-0.4850891
474,1747638657230,-1.1632386,-1.0519211,-1.4290164,0.90733725,-0.31061584,-0.4569901
475,1747638657240,-1.5063684,-1.073401,-1.36776275,1.085551925,-0.76478077,-0.33142281500000004
476,1747638657250,-1.8494982,-1.0948809,-1.3065091,1.2637666,-1.2189457,-0.20585553
477,1747638657260,-2.47426,-0.81349254,-1.5832325,1.8781263,-2.364895,0.098957255
478,1747638657270,-2.62812575,-0.77175232,-1.7181947000000002,1.7354170999999998,-2.25036125,0.1276670775
479,1747638657280,-2.7819915,-0.7300121,-1.8531569,1.5927079,-2.1358275,0.1563769
480,1747638657290,-3.0023704,-0.7409883,-1.8123924,0.08047912,-1.565907,0.54487574
481,1747638657300,-2.9912722,-0.72989013,-1.71587755,-0.37372399,-1.33928265,0.7492041700000001
482,1747638657310,-2.980174,-0.71879196,-1.6193627,-0.8279271,-1.1126583,0.9535326
483,1747638657320,-2.790041,-0.7666301,-0.7093097,-1.8180342,-0.06261184,1.9369967
484,1747638657330,-2.5319618249999998,-0.799452125,-0.5442771925000001,-1.83624505,0.10098068749999997,2.20596035
485,1747638657340,-2.27388265,-0.83227415,-0.379244685,-1.8544559,0.264573215,2.474924
486,1747638657350,-1.8153193,-0.8720631,-0.26245433,-1.7930658,0.70041275,2.6590946
487,1747638657360,-1.38091895,-1.1253857999999999,-0.180574555,-1.9189384999999999,0.9646041750000001,2.47122085
488,1747638657370,-0.9465186,-1.3787085,-0.09869478,-2.0448112,1.2287956,2.2833471
489,1747638657380,-0.90796455,-1.47375975,-0.018659624,-2.00869485,1.19397735,2.29159355
490,1747638657390,-0.8694105,-1.568811,0.061375532,-1.9725785,1.1591591,2.29984
491,1747638657400,-0.5921687,-1.6720488,0.17168686,-1.2996539,0.35161895,3.133112
492,1747638657410,-0.4827111,-1.68912295,0.12153148750000001,-1.2220763,0.316800655,3.32827775
493,1747638657420,-0.3732535,-1.7061971,0.071376115,-1.1444987,0.28198236,3.5234435
494,1747638657430,-0.106012285,-1.7396442,-0.012073875,-1.2223817,0.4218664,4.0780926
495,1747638657440,-0.0018141344999999948,-1.75562075,0.059927277500000015,-1.5217732,0.48478367,4.67889905
496,1747638657450,0.102384016,-1.7715973,0.13192843,-1.8211647,0.54770094,5.2797055
497,1747638657460,0.50774306,-1.7950438,0.4179512,-1.8746903,0.31802234,5.5784097
498,1747638657470,0.60329738,-1.7961414,0.46211535000000004,-1.84044465,0.201312345,5.6730912
499,1747638657480,0.6988517,-1.797239,0.5062795,-1.806199,0.08460235,5.7677727
500,1747638657490,0.9414269,-1.8445894,0.4545387,-1.4797012,-0.28984702,5.897272
501,1747638657500,0.9503298499999999,-1.899745,0.320430275,-1.360375975,-0.43935189249999995,5.936518975
502,1747638657510,0.9592328,-1.9549006,0.18632185,-1.2410507499999999,-0.588856765,5.9757659499999995
503,1747638657520,0.9592328,-1.9549006,0.18632185,-1.2186403,-0.66612893,6.0200524
504,1747638657530,1.04196625,-2.01042215,0.010000585000000006,-1.269722375,-1.01706069,6.36518105
505,1747638657540,1.1246997,-2.0659437,-0.16632068,-1.32080445,-1.36799245,6.7103097
506,1747638657550,1.5329858,-2.088628,-0.20437169,-1.9376838,-1.6764703,7.0316157
507,1747638657560,1.6326867,-2.07422925,-0.10968628375,-2.111508,-1.61508015,6.98702385
508,1747638657570,1.7323876,-2.0598305000000003,-0.015000877500000002,-2.2853322,-1.55369,6.942432
509,1747638657580,1.76374615,-2.06691175,0.06858631125,-2.423651,-1.3768497499999999,6.8703518500000005
510,1747638657590,1.7951047,-2.073993,0.1521735,-2.5619698,-1.2000095,6.7982717
511,1747638657600,1.886604,-2.122075,0.37865016,-2.5395212,-1.8780499,6.8752384
512,1747638657610,1.9603125499999998,-2.1379296500000002,0.46589608000000005,-2.5012287,-2.03503765,6.8902041999999994
513,1747638657620,2.0340211,-2.1537843,0.553142,-2.4629362,-2.1920254,6.90517
514,1747638657630,2.2270508,-2.0203006,0.7237313,-1.8541505,-2.2867067,7.0114574
515,1747638657640,2.39599355,-2.0455537250000004,0.5515565975,-1.84949275,-1.9116464999999998,7.3187137
516,1747638657650,2.5649363000000003,-2.0708068500000003,0.37938189499999997,-1.844835,-1.5365863,7.62597
517,1747638657660,2.8833084,-1.8045565,0.22757424,-1.844835,-1.5365863,7.62597
518,1747638657670,3.0353447,-1.70290425,0.248688285,-2.218979,-1.4293825500000001,7.8627115
519,1747638657680,3.187381,-1.601252,0.26980233,-2.593123,-1.3221788,8.099453
520,1747638657690,4.5166965,-0.73220736,0.4220978,-3.3744729,-1.4498459,7.581378
521,1747638657700,4.72292805,-0.5546665049999999,0.38499197500000004,-3.4828984,-1.243685,7.2542693499999995
522,1747638657710,4.9291596,-0.37712565,0.34788615,-3.5913239,-1.0375241,6.9271607
523,1747638657720,4.933062,-0.19507235,0.65955067,-4.9135027,0.06383354,4.7952275
524,1747638657730,4.6006645,0.047639975,1.616572985,-4.99012585,-0.5674770800000001,4.1266551
525,1747638657740,4.268267,0.2903523,2.5735953,-5.066749,-1.1987877,3.4580827
526,1747638657750,4.328301,0.45019395,2.8512029500000002,-4.560204,-1.43610185,3.4586935
527,1747638657760,4.388335,0.6100356,3.1288106,-4.053659,-1.673416,3.4593043
528,1747638657770,5.196614,0.8837406,3.14626585,-2.4326992499999998,-1.8105513,3.4357867
529,1747638657780,5.638835,1.3244218,2.895313775,-1.968646175,-1.3650909,2.9106107999999997
530,1747638657790,6.081056,1.765103,2.6443617,-1.5045931,-0.9196305,2.3854349
531,1747638657800,6.07569,2.1533878,2.7358913,-1.5569733,-0.17073181,1.5729316
532,1747638657810,6.1016823,2.47113505,3.22983785,-1.1921448,0.10418764499999997,0.9092461
533,1747638657820,6.1276746,2.7888823,3.7237844,-0.8273163,0.3791071,0.2455606
534,1747638657830,6.746064,2.2661383,3.5009665,1.4980265,0.62833273,-2.5027175
535,1747638657840,6.699217,1.9880428,3.2387409,1.9189003,0.53059718,-3.28708365
536,1747638657850,6.65237,1.7099473,2.9765153,2.3397741,0.43286163,-4.0714498
537,1747638657860,5.8169856,0.6576298,1.7719021,2.5528834,0.6533775,-6.2693543
538,1747638657870,5.1444006,0.240059725,1.70747765,2.08310365,1.13869565,-6.6893119500000005
539,1747638657880,4.4718156,-0.17751035,1.6430532,1.6133239,1.6240138,-7.1092696
540,1747638657890,4.056669,-0.38761407,1.7245518,1.5621655,2.1108592,-6.995041
541,1747638657900,3.8871777,-0.525137335,1.60375215,1.66249715,2.3136604,-6.893335
542,1747638657910,3.7176864,-0.6626606,1.4829525,1.7628288,2.5164616,-6.791629
543,1747638657920,3.6447248,-0.77858204,1.3140706,2.1510222,2.634355,-6.803846
544,1747638657930,3.3905484,-0.8819417199999999,1.29565485,2.4687773,2.09986375,-7.0729242
545,1747638657940,3.136372,-0.9853014,1.2772391,2.7865324,1.5653725,-7.3420024
546,1747638657950,2.96444125,-1.0452134,1.2173118500000002,3.00460495,1.117316025,-7.4834134500000005
547,1747638657960,2.7925105,-1.1051254,1.1573846,3.2226775,0.66925955,-7.6248245
548,1747638657970,2.4154611,-1.17857485,0.8150018450000001,3.4750338,0.15003936,-7.878326
549,1747638657980,2.18350395,-1.165525325,0.5858345025,3.3962344,0.25754847999999997,-7.8691633
550,1747638657990,1.9515468,-1.1524758,0.35666716,3.317435,0.3650576,-7.8600006
551,1747638658000,1.5688721,-1.0809472,-0.13750802,2.5379176,1.2025292,-7.455009
552,1747638658010,1.5172532,-1.0683855,-0.165695645,2.3363762,1.3589061,-7.3441403
553,1747638658020,1.4656343,-1.0558238,-0.19388327,2.1348348,1.515283,-7.2332716
554,1747638658030,1.4483162,-1.1461035,-0.10579886,1.1784008,1.8842347,-6.7452044
555,1747638658040,1.4361051,-1.17136405,-0.0630829505,1.1188813,1.7767256,-6.7452044
556,1747638658050,1.423894,-1.1966246,-0.020367041,1.0593618,1.6692165,-6.7452044
557,1747638658060,1.3287361,-1.3440418,0.082626775,1.2300937,1.1322818,-6.8539352
558,1747638658070,1.17875785,-1.40419775,0.0323494495,1.396625925,0.8315922099999999,-6.891655025
559,1747638658080,1.0287796,-1.4643537,-0.017927876,1.56315815,0.53090262,-6.92937485
560,1747638658090,0.93874377,-1.4494748,-0.12384869,1.6644061,0.27526304,-6.9247937
561,1747638658100,0.9193371850000001,-1.3132931,-0.330308895,1.293049115,0.21081865500000002,-6.4263423500000005
562,1747638658110,0.8999306,-1.1771114,-0.5367691,0.92169213,0.14637427,-5.927891
563,1747638658120,0.93055735,-1.1270779499999999,-0.57117662,0.570569505,0.510133835,-5.6407545
564,1747638658130,0.9611841,-1.0770445,-0.60558414,0.21944688,0.8738934,-5.353618
565,1747638658140,1.0187789,-0.9882284,-0.4540509,-0.42728767,1.6857094,-4.7617073
566,1747638658150,1.06064115,-0.933194675,-0.196215725,-0.5821374500000001,2.06321295,-4.33777915
567,1747638658160,1.1025034,-0.87816095,0.06161945,-0.73698723,2.4407165,-3.913851
568,1747638658170,1.2372063,-0.7827286,0.39499256,0.5465556,1.4804647,-3.326216
569,1747638658180,1.2188973,-0.77297192,0.380357565,0.8705719000000001,1.1420553,-3.3219400500000003
570,1747638658190,1.2005883,-0.76321524,0.36572257,1.1945882,0.8036459,-3.3176641
571,1747638658200,1.2726047,-0.75004375,-0.20510343,1.845675,0.30763796,-3.3072798
572,1747638658210,1.20353055,-0.732222575,-0.40668531500000005,1.6942612499999998,0.54250873,-3.3366004
573,1747638658220,1.1344564,-0.7144014,-0.6082672,1.5428475,0.7773795,-3.365921
574,1747638658230,0.9431343,-0.71976763,-0.66439855,1.1285403,1.3094275,-3.2724614
575,1747638658240,0.64204204,-0.72825135,-0.4954633625,1.0303848,1.00553095,-3.1802234499999997
576,1747638658250,0.34094978,-0.7367350699999999,-0.326528175,0.9322293,0.7016344,-3.0879855
577,1747638658260,-0.030367626,-0.80837035,-0.2587956,1.2475028,0.46951246,-3.1948838
578,1747638658270,-0.163866273,-0.88852745,-0.30895095,1.45125855,0.316800655,-3.3036146
579,1747638658280,-0.29736492,-0.96868455,-0.3591063,1.6550143,0.16408885,-3.4123454
580,1747638658290,-1.2305901,-1.1114674,-0.6036328,2.118571,-0.4810422,-3.8936932
581,1747638658300,-1.85559605,-1.1651595000000001,-0.6440315,2.3500821500000004,-0.9840749000000001,-4.0628978
582,1747638658310,-2.480602,-1.2188516,-0.6844302,2.5815933,-1.4871076,-4.2321024
583,1747638658320,-2.7444131,-1.27229985,-0.80022962,2.61709865,-1.6911306000000002,-4.196368
584,1747638658330,-3.0082242,-1.3257481,-0.91602904,2.652604,-1.8951536,-4.1606336
585,1747638658340,-3.5824652,-1.6776589,-1.2027836,1.9098903,-1.8682764,-3.4508288
586,1747638658350,-3.70277715,-1.7763689,-1.1805719,1.46748415,-1.5827053,-3.0122024
587,1747638658360,-3.8230891,-1.8750789,-1.1583602,1.025078,-1.2971342,-2.573576
588,1747638658370,-3.9644082,-1.9212096,-0.8962413,0.68487433,-0.47737712,-1.75595685
589,1747638658380,-4.11766425,-2.0243254,-0.7158954,0.727881765,-0.62306419,-1.3083585
590,1747638658390,-4.2709203,-2.1274412,-0.5355495,0.7708892,-0.76875126,-0.86076015
591,1747638658400,-3.7591522,-2.0332284,-0.51262134,1.0275978,-1.5604093,1.1679399
592,1747638658410,-3.46593395,-1.98307305,-0.599135545,1.0148082,-1.3994510500000001,1.73419535
593,1747638658420,-3.1727157,-1.9329177,-0.68564975,1.0020186,-1.2384928,2.3004508
594,1747638658430,-1.8975803,-1.8355644,-0.96898943,0.22692975,-0.1279725,4.145286
595,1747638658440,-1.1010094000000001,-1.7312291,-0.875508395,-0.550984225,0.35005365000000005,4.933928
596,1747638658450,-0.3044385,-1.6268938,-0.78202736,-1.3288982,0.8280798,5.72257
597,1747638658460,0.121683925,-1.4889894,-0.47527164,-1.8036792,0.74439377,5.8319116
598,1747638658470,0.2445569475,-1.4155399499999999,-0.31151207999999997,-1.8479275,0.663761915,5.7631913
599,1747638658480,0.36742997,-1.3420905,-0.14775252,-1.8921758,0.58313006,5.694471
600,1747638658490,0.42636634500000004,-1.24068215,0.014650239999999981,-1.4943233,0.30912688850000003,5.534428999999999
601,1747638658500,0.48530272,-1.1392738,0.177053,-1.0964708,0.035123717,5.374387
602,1747638658510,0.7076327,-1.0782641,0.14363644,-0.47027603,-0.7601994,5.4837284
603,1747638658520,0.74167435,-1.0626533999999999,0.10996069,-0.410145765,-0.78249535,5.53748295
604,1747638658530,0.775716,-1.0470427,0.07628494,-0.3500155,-0.8047913,5.5912375
605,1747638658540,1.0527139,-1.052653,-0.05747287,-0.45156884,0.025961008,6.1727643
606,1747638658550,1.103601,-1.06155595,-0.068571075,-0.53758377,0.17748930400000001,6.21246935
607,1747638658560,1.1544881,-1.0704589,-0.07966928,-0.6235987,0.3290176,6.2521744
608,1747638658570,1.1437253,-1.117809,-0.07625445,-1.2261232,0.8940513,6.317535
609,1747638658580,1.1278707,-1.17515995,0.012211075000000002,-1.4507240499999998,0.83663168,6.3764818000000005
610,1747638658590,1.1120161,-1.2325109,0.1006766,-1.6753249,0.77921206,6.4354286
611,1747638658600,1.2030275,-1.2781538,0.2080609,-1.7226657,0.28320405,6.4445915
612,1747638658610,1.3161439,-1.2933986499999999,0.2607774,-1.6799827500000002,3.817499999997365e-05,6.4036646
613,1747638658620,1.4292603,-1.3086435,0.3134939,-1.6372998,-0.2831277,6.3627377
614,1747638658630,1.506155,-1.2603174,0.3325194,-1.3556992,-0.87809294,6.045708
615,1747638658640,1.4917486,-1.2619181,0.33386095000000005,-1.29495805,-0.84235837,5.98462335
616,1747638658650,1.4773422,-1.2635188,0.3352025,-1.2342169,-0.8066238,5.9235387
617,1747638658660,1.41682045,-1.26094245,0.329714365,-1.152287,-0.661853,5.94278035
618,1747638658670,1.3562987,-1.2583661,0.32422623,-1.0703571,-0.5170822,5.962022
619,1747638658680,1.4556336,-1.3347731,0.4269761,-1.0815051,-0.94834036,6.0316586
620,1747638658690,1.51139905,-1.32782145,0.59242785,-0.949752975,-1.30446433,5.91376515
621,1747638658700,1.5671645,-1.3208698,0.7578796,-0.81800085,-1.6605883,5.7958717
622,1747638658710,1.571799,-1.1451279,1.1449449,0.6275692,-3.2256553,5.18197
623,1747638658720,1.5460506,-1.06460485,1.1010246000000001,1.7986398000000001,-3.7167765,5.12913175
624,1747638658730,1.5203022,-0.9840818,1.0571043,2.9697104,-4.2078977,5.0762935
625,1747638658740,1.6123196,-0.7256216,-0.1414107,3.2202342,-3.5933855,5.493502
626,1747638658750,1.7350707,-0.694872865,-0.353130365,3.0071248,-3.06954575,5.73417585
627,1747638658760,1.8578218,-0.66412413,-0.56485003,2.7940154,-2.545706,5.9748497
628,1747638658770,2.5287147,-0.29047427,-0.27001578,1.13106,-1.4205253,6.2393465
629,1747638658780,2.77263135,0.0011585949999999845,-0.16679328,1.3528739,-1.5139849,5.8755869999999994
630,1747638658790,3.016548,0.29279146,-0.06357078,1.5746878,-1.6074445,5.5118275
631,1747638658800,3.109785,0.59344923,-0.4484408,1.8937029,-1.5891192,4.9772596
632,1747638658810,3.1254033000000003,0.8151618650000001,-0.7558063,1.4971103000000001,-1.21894575,4.7729313
633,1747638658820,3.1410216,1.0368745000000001,-1.0631718000000001,1.1005177,-0.8487723,4.568603
634,1747638658830,3.2867162,1.4546885,-1.3108996,0.14782503,-0.5286883,4.5979238
635,1747638658840,3.41068685,1.5741467500000002,-1.1878894,-0.42450066,-0.36101073,4.6015887499999995
636,1747638658850,3.5346575,1.693605,-1.0648792,-0.99682635,-0.19333316,4.6052537
637,1747638658860,3.71329595,1.8241766,-0.7727585,-1.398687525,0.07517238999999998,4.43665985
638,1747638658870,3.8919344,1.9547482,-0.4806378,-1.8005487,0.34367794,4.268066
639,1747638658880,4.4149528,2.4037988,0.09531044,-1.9376838,1.2251306,2.8893838
640,1747638658890,4.5744286,2.4906789,0.23149217,-1.7632106,1.1237298999999998,2.51398005
641,1747638658900,4.7339044,2.577559,0.3676739,-1.5887374,1.0223292,2.1385763
642,1747638658910,5.305218,2.7857113,0.53192127,-0.7338566,0.54403585,0.5234961
643,1747638658920,5.2280945,2.8821193000000003,0.50176707,-0.345529555,0.2827077535,-0.4653511
644,1747638658930,5.150971,2.9785273,0.47161287,0.04279749000000001,0.021379657,-1.4541983
645,1747638658940,4.851777,2.9758444,0.27175367,0.27304873,-0.060168456,-2.12949
646,1747638658950,4.598454500000001,2.9040872,0.10616473500000001,0.034703765,0.494519022,-2.839638
647,1747638658960,4.345132,2.83233,-0.0594242,-0.2036412,1.0492065,-3.549786
648,1747638658970,4.2441196,2.415019,0.031617697,-0.75874865,1.8610225,-3.9517236
649,1747638658980,4.251803150000001,2.29495105,0.1032377335,-0.8226203750000001,1.9404327000000001,-4.0986323
650,1747638658990,4.2594867,2.1748831,0.17485777,-0.8864921,2.0198429,-4.245541
651,1747638659000,4.23715285,1.8727465,0.27882724999999997,-0.764399,2.0036554,-4.76018
652,1747638659010,4.214819,1.5706099,0.38279673,-0.6423059,1.9874679,-5.274819
653,1747638659020,3.8372664,1.0005157,0.20123126,-0.39178216,1.8567466,-6.5088067
654,1747638659030,3.8372664,1.0005157,0.20123126,-0.39178216,1.8567466,-6.5088067
655,1747638659040,3.29023755,0.7101024,0.288461955,-0.39491275,1.7229711,-6.786742
656,1747638659050,3.054316925,0.60296201,0.3467275525,-0.289923375,1.51681015,-6.9370104999999995
657,1747638659060,2.8183963,0.49582162,0.40499315,-0.184934,1.3106492,-7.087279
658,1747638659070,2.124819,0.18711458,0.2180615,0.26365694,0.97040725,-6.9064684
659,1747638659080,2.0335332,0.135251795,0.14459685,0.236588775,0.9801808000000001,-6.8273635
660,1747638659090,1.9422474,0.08338901,0.0711322,0.20952061,0.98995435,-6.7482586
661,1747638659100,1.6913792,-0.098420374,-0.049911447,-0.07337803,1.1988641,-6.434894
662,1747638659110,1.65209335,-0.192983817,-0.06905890649999999,-0.16217995000000002,1.3072895,-6.3481538
663,1747638659120,1.6128075,-0.28754726,-0.088206366,-0.25098187,1.4157149,-6.2614136
664,1747638659130,1.5122529,-0.39884948,-0.0409932475,-0.37372399,1.58553045,-6.22079235
665,1747638659140,1.4435446,-0.453753615,-0.01653297775,-0.33136554500000004,1.598969075,-6.207811675
666,1747638659150,1.3748363,-0.50865775,0.007927292,-0.2890071,1.6124077,-6.194831
667,1747638659160,1.1410422,-0.6070171,-0.038416874,-0.007941014,1.5195589,-6.159402
668,1747638659170,1.06271445,-0.61262718,-0.047944872,0.051234816,1.5036768999999999,-6.11816985
669,1747638659180,0.9843867,-0.61823726,-0.05747287,0.110410646,1.4877949,-6.0769377
670,1747638659190,0.70299834,-0.6153103,-0.102140106,0.25495237,1.3656254,-5.729976
671,1747638659200,0.6397781950000001,-0.59933375,-0.176321273,0.24033021999999998,1.373261,-5.3640405
672,1747638659210,0.57655805,-0.5833572,-0.25050244,0.22570807,1.3808966,-4.998105
673,1747638659220,0.639534275,-0.5856744,-0.32994303,0.06929299,1.5430765499999999,-4.8127130000000005
674,1747638659230,0.7025105,-0.5879916,-0.40938362,-0.08712209,1.7052565,-4.627321
675,1747638659240,0.82599336,-0.59140646,-0.40694448,-0.6640673,2.2049296,-4.306015
676,1747638659250,0.84404318,-0.57151201,-0.269909045,-0.6665489,2.32099055,-3.95111275
677,1747638659260,0.862093,-0.55161756,-0.13287361,-0.6690305,2.4370515,-3.5962105
678,1747638659270,0.88224657,-0.472054985,0.24429779000000001,-0.41762865,2.2452454499999996,-3.47343015
679,1747638659280,0.925618,-0.44387499249999995,0.36760528000000003,-0.019642565,1.916915075,-3.328964825
680,1747638659290,0.96898943,-0.415695,0.49091277,0.37834352,1.5885847,-3.1844995
681,1747638659300,1.4983497,-0.62116426,0.050887115,2.0637474,1.1994749,-3.382414
682,1747638659310,1.56618895,-0.72367028,-0.0965147825,2.1366673499999997,1.21627325,-3.528101
683,1747638659320,1.6340282,-0.8261763,-0.24391668,2.2095873,1.2330716,-3.673788
684,1747638659330,1.4309677,-0.86767256,-0.7056509,2.049469,1.1347251,-4.3322816
685,1747638659340,1.02719412,-0.7745573800000001,-0.68758582,1.5662505500000001,0.8308286,-4.2733348
686,1747638659350,0.62342054,-0.6814422,-0.66952074,1.0830321,0.5269321,-4.214388
687,1747638659360,0.23614183,-0.5994557,-0.58411944,0.79020727,0.74439377,-3.9034667
688,1747638659370,-0.027981814999999965,-0.62781865,-0.5023006425000001,0.716676535,1.109069535,-3.5500914999999997
689,1747638659380,-0.29210546,-0.6561816,-0.420481845,0.6431458,1.4737453,-3.1967163
690,1747638659390,-0.61979988,-0.688218515,-0.3271989575,0.7873821249999999,1.5168100500000001,-2.9440928499999997
691,1747638659400,-0.9474943,-0.72025543,-0.23391607,0.93161845,1.5598748,-2.6914694
692,1747638659410,-1.2135159,-0.79516834,-0.4167011,1.2624686,1.2550621,-2.357336
693,1747638659420,-1.5208966,-0.94305802,-0.5830218,1.28800965,0.7266792,-2.34603535
694,1747638659430,-1.8282773,-1.0909477,-0.7493425,1.3135507,0.1982963,-2.3347347
695,1747638659440,-2.7478433,-1.484355,-0.3691069,1.6120259,-1.9763963,-2.4538498
696,1747638659450,-3.0139716,-1.53829105,-0.205728465,1.9678063,-2.59949875,-2.59251215
697,1747638659460,-3.2800999,-1.5922271,-0.04235003,2.3235867,-3.2226012,-2.7311745
698,1747638659470,-4.237747,-2.0063672,0.025275866,4.27448,-5.512133,-3.686616
699,1747638659480,-4.4686676,-2.2157086250000004,-0.12957310949999998,4.51030525,-7.102817,-3.79901185
700,1747638659490,-4.6995882,-2.4250500500000003,-0.284422085,4.7461305,-8.693501,-3.9114077
701,1747638659500,-4.7890296,-2.5210617,-0.35666716,4.1548305,-8.570722,-3.2327564
702,1747638659510,-4.7208243,-2.43210835,-0.32079616,3.93022955,-7.768641199999999,-2.4984798
703,1747638659520,-4.652619,-2.343155,-0.28492516,3.7056286,-6.9665604,-1.7642032
704,1747638659530,-3.8694634,-1.94365,-0.6175665,3.0270536,-2.088792,2.9712374
705,1747638659540,-3.22360265,-1.95854415,-0.8542876500000001,2.5068026,-0.90432109,4.44738805
706,1747638659550,-2.5777419,-1.9734383,-1.0910088,1.9865516,0.28014982,5.9235387
707,1747638659560,-0.6275671,-1.9524615,-1.2179064,-0.11079242,2.2000427,7.621694
708,1747638659570,0.027943700000000016,-1.8309148,-0.911867225,-0.61581041,1.65516695,7.06276865
709,1747638659580,0.6834545,-1.7093681,-0.60582805,-1.1208284,1.1102912,6.5038433
710,1747638659590,0.7799845249999999,-1.6876595,-0.548721045,-1.148851,0.6839198400000001,6.23659775
711,1747638659600,0.87651455,-1.6659509,-0.49161404,-1.1768736,0.25754848,5.9693522
712,1747638659610,1.0317065,-1.5563713,-0.19851768,-1.1332744,-0.06139015,5.577799
713,1747638659620,1.03391705,-1.5400136,-0.12165344,-1.0681428,0.0033596600000000074,5.6291101999999995
714,1747638659630,1.0361276,-1.5236559,-0.0447892,-1.0030112,0.06810947,5.6804214
715,1747638659640,1.2008322,-1.3996853,0.19830425,-0.37185326,0.5495335,6.2234645
716,1747638659650,1.2808826500000001,-1.40017315,0.218061505,-0.265298595,0.6179484,6.23995725
717,1747638659660,1.3609331,-1.400661,0.23781876,-0.15874393,0.6863633,6.25645
718,1747638659670,1.7597064,-1.3225771,0.19513334,0.27304873,0.7437829,5.58574
719,1747638659680,1.77960085,-1.3178055,0.20928050999999998,0.337225865,0.54678465,5.3829388
720,1747638659690,1.7994953,-1.3130339,0.22342768,0.401403,0.3497864,5.1801376
721,1747638659700,1.5971663,-1.1365907,0.22196417,1.0992197,-0.7522584,4.2943325
722,1747638659710,1.486977,-1.08840195,0.12264435,1.3126343999999999,-0.86129465,4.15780805
723,1747638659720,1.3767877,-1.0402132,0.02332453,1.5260491,-0.9703309,4.0212836
724,1747638659730,1.1871729,-0.9577083,-0.039392542,1.4799302,-0.66612893,4.1917105
725,1747638659740,1.1453259500000001,-0.94160983,-0.040002333,1.4194944500000002,-0.476460855,4.35327925
726,1747638659750,1.103479,-0.92551136,-0.040612124,1.3590587,-0.28679278,4.514848
727,1747638659760,1.1186019,-1.0331091,-0.010854292,1.071197,0.59840125,5.24672
728,1747638659770,1.1800993499999999,-1.0808252999999999,0.092261479,1.01293747,0.6417714050000001,5.635218699999999
729,1747638659780,1.2415968,-1.1285415,0.19537725,0.95467794,0.68514156,6.0237174
730,1747638659790,1.3419076,-1.064117,0.32276276,1.1459495,0.1622563,6.085413
731,1747638659800,1.446243,-0.9523421750000001,0.353877365,1.5540718,-0.40434269999999994,5.8584833
732,1747638659810,1.5505784,-0.84056735,0.38499197,1.9621941,-0.9709417,5.6315536
733,1747638659820,1.55521275,-0.809574695,0.36204856500000004,2.24600905,-1.2073396,5.4159245
734,1747638659830,1.5598471,-0.77858204,0.33910516,2.529824,-1.4437375,5.2002954
735,1747638659840,1.2345233,-0.5630816,-0.12897095,3.017738,-1.5982819,5.0469728
736,1747638659850,1.16179035,-0.440086635,-0.41682310499999997,2.8610175,-1.03355359,5.6004004
737,1747638659860,1.0890574,-0.31709167,-0.70467526,2.704297,-0.46882528,6.153828
738,1747638659870,2.01402,-0.09671296,-0.90139407,1.1609153,0.5348731,7.944298
739,1747638659880,2.44500545,0.0008994425,-0.718593785,0.8799255,0.441108065,8.017904999999999
740,1747638659890,2.8759909,0.098511845,-0.5357935,0.5989357,0.34734303,8.091512
741,1747638659900,3.737718,0.44944695,-0.33203158,0.59267455,-0.28618193,6.920441
742,1747638659910,3.5835932,0.6597031250000001,-0.48845839,0.795819425,-0.718661765,5.4977397
743,1747638659920,3.4294684,0.8699593,-0.6448852,0.9989643,-1.1511416,4.0750384
744,1747638659930,3.0726793,1.0659158,-0.90554065,0.7048414,-1.2690352,3.9895198
745,1747638659940,3.09172015,1.2479844,-0.831710125,0.34453694999999995,-1.029124925,4.2954015000000005
746,1747638659950,3.110761,1.430053,-0.7578796,-0.01576749999999999,-0.7892146499999999,4.6012832
747,1747638659960,3.6342363,1.6906779,-0.17119902,-0.647269,0.0015271181,5.2351136
748,1747638659970,3.8596156500000003,1.7667036500000002,-0.074425077,-0.5849626,0.08952730405,5.17189095
749,1747638659980,4.084995,1.8427294,0.022348866,-0.5226562,0.17752749,5.1086683
750,1747638659990,4.59432325,2.2114858,-0.002667838500000002,-0.20329761000000002,0.638411745,4.18961045
751,1747638660000,5.1036515,2.5802422,-0.027684543,0.11606098,1.099296,3.2705526
752,1747638660010,5.3554955,3.1066446,-0.38743114,0.049325917,0.84823775,0.9541434
753,1747638660020,5.2935099999999995,3.20230565,-0.37119543499999996,-0.11858072650000001,0.679338475,0.43736663
754,1747638660030,5.2315245,3.2979667,-0.35495973,-0.28648737,0.5104392,-0.07941014
755,1747638660040,4.9691615,3.388765,0.012073875,-0.7288935,0.7999808,-1.321339
756,1747638660050,5.01858525,3.2813806,0.1833948475,-0.7375980799999999,0.9893434999999999,-1.5595694
757,1747638660060,5.068009,3.1739962,0.35471582,-0.74630266,1.1787062,-1.7977998
758,1747638660070,5.1702714,2.735434,0.64759874,-0.19738002,1.7156409,-2.9816983
759,1747638660080,5.1234087,2.5140948,0.66040437,0.17863464,1.71411375,-3.5610868
760,1747638660090,5.076546,2.2927556,0.67321,0.5546493,1.7125866,-4.1404753
761,1747638660100,4.416889,1.6706615999999999,0.09884722500000001,1.69834625,1.2208546500000002,-5.9364425
762,1747638660110,4.11561385,1.5087389999999998,-0.12305595750000001,1.678551025,1.0125557250000001,-6.29378825
763,1747638660120,3.8143387,1.3468164,-0.34495914,1.6587558,0.8042568,-6.651134
764,1747638660130,3.0856068,1.102046,-0.6043645,0.99079424,0.7242358,-6.894862
765,1747638660140,2.7138016,0.9188798300000001,-0.617063425,0.338447555,1.09807435,-6.724130300000001
766,1747638660150,2.3419964,0.73571366,-0.62976235,-0.31389913,1.4719129,-6.5533986
767,1747638660160,2.0877132,0.55927044,-0.48746744,-0.75874865,1.7926077,-6.262635
768,1747638660170,2.0353626,0.45604795,-0.41096908,-0.898976275,1.88118055,-6.101066
769,1747638660180,1.983012,0.35282546,-0.33447072,-1.0392039,1.9697534,-5.939497
770,1747638660190,2.094055,-0.17455287,-0.08454762,-0.98247147,1.9202747,-5.8655844
771,1747638660200,2.07769745,-0.40273691,-0.095295195,-0.763788135,1.8488056,-6.2568322
772,1747638660210,2.0613399,-0.63092095,-0.10604277,-0.5451048,1.7773365,-6.64808
773,1747638660220,1.9831341,-0.6882718750000001,-0.1021248575,-0.4671836,1.6808226,-6.813314
774,1747638660230,1.9049283,-0.7456228,-0.098206945,-0.3892624,1.5843087,-6.978548
775,1747638660240,1.4053564,-0.89865,-0.29907233,-0.041003123,1.0999068,-7.356052
776,1747638660250,1.3172567499999999,-0.9038942,-0.354471895,-0.0681094715,1.12220275,-7.31390335
777,1747638660260,1.2291571,-0.9091384,-0.40987146,-0.09521582,1.1444987,-7.2717547
778,1747638660270,1.0624706,-0.94160986,-0.5423792,-0.52448875,1.438927,-6.751924
779,1747638660280,1.06308035,-0.948073655,-0.5667861,-0.640702425,1.5287216,-6.6260893
780,1747638660290,1.0636901,-0.95453745,-0.591193,-0.7569161,1.6185162,-6.5002546
781,1747638660300,1.2630615,-1.078752,-0.4354827,-1.6186689,2.3362617,-5.903457
782,1747638660310,1.27600435,-1.07606885,-0.31517081,-1.65321995,2.36222275,-5.84298315
783,1747638660320,1.2889472,-1.0733857,-0.19485892,-1.687771,2.3881838,-5.7825093
784,1747638660330,1.277727,-0.9960337,0.20537783,-1.1033429,1.9495953,-5.6902714
785,1747638660340,1.28016615,-0.9508786650000001,0.210378125,-0.7301152099999999,1.6731869499999998,-5.67774895
786,1747638660350,1.2826053,-0.90572363,0.21537842,-0.35688752,1.3967786,-5.6652265
787,1747638660360,1.3169975,-0.9699041,0.06454645,0.6755207,0.96246624,-5.7000446
788,1747638660370,1.2389137,-1.036417175,0.019345641250000004,0.8403349,0.91848522,-5.7143995499999996
789,1747638660380,1.1608299,-1.10293025,-0.0258551675,1.0051491,0.8745042,-5.7287545
790,1747638660390,0.78083825,-1.0323772,-0.11653119,1.7341954,0.20196137,-5.3804955
791,1747638660400,0.685908925,-0.9691723649999999,-0.198776845,1.8416663,0.06112290249999999,-5.20640395
792,1747638660410,0.5909796,-0.90596753,-0.2810225,1.9491372,-0.079715565,-5.0323124
793,1747638660420,0.304469,-0.7544343,-0.6626911,1.8226155,-0.19883078,-4.3316708
794,1747638660430,0.1599940995,-0.8011596000000001,-0.74079018,1.121668275,0.18940081,-3.7232669000000005
795,1747638660440,0.015519199,-0.8478849,-0.81888926,0.42072105,0.5776324,-3.114863
796,1747638660450,-0.3046824,-0.83788425,-0.59631526,0.086129464,0.9404757,-2.7378938
797,1747638660460,-0.478442535,-0.848372675,-0.52701245,-0.019508932999999992,1.32500405,-2.28006375
798,1747638660470,-0.65220267,-0.8588611,-0.45770964,-0.12514733,1.7095324,-1.8222337
799,1747638660480,-0.9660471850000001,-1.03042595,-0.424765645,-0.277477365,1.8445296500000001,-1.8527760500000001
800,1747638660490,-1.2798917,-1.2019908,-0.39182165,-0.4298074,1.9795269,-1.8833184
801,1747638660500,-1.2798917,-1.2019908,-0.39182165,-0.7082774,1.9117229,-2.141096
802,1747638660510,-1.6303390000000002,-1.35660355,-0.19023976250000002,-0.57931228,1.7431290000000002,-2.3445081
803,1747638660520,-1.9807863,-1.5112163,0.011342125,-0.45034716,1.5745351,-2.5479202
804,1747638660530,-3.0592332,-1.871664,0.17071119,1.6157674,-0.14507623,-2.772712
805,1747638660540,-3.3192637,-1.9506168,0.050155370000000005,2.0659618,-0.884201365,-2.81669305
806,1747638660550,-3.5792942,-2.0295696,-0.07040045,2.5161562,-1.6233265,-2.8606741
807,1747638660560,-4.1610966,-2.368553,-0.7193103,3.2245862,-3.334386,-2.9180937
808,1747638660570,-4.4668918,-2.39430135,-0.64147038,2.9002646,-3.2094678500000002,-2.0821492
809,1747638660580,-4.772687,-2.4200497,-0.56363046,2.575943,-3.0845497,-1.2462047
810,1747638660590,-4.6428623,-2.2985184,-0.5689966,2.4631653,-2.225622,0.39643988
811,1747638660600,-4.1071756,-2.1752642,-0.763139,2.2371327,-1.532615765,1.53752169
812,1747638660610,-3.5714889,-2.05201,-0.9572814,2.0111001,-0.83960953,2.6786035
813,1747638660620,-2.7122009,-1.9070625,-1.116864,0.91291124,0.81036526,5.094008
814,1747638660630,-2.18665195,-1.76722205,-1.1182055000000002,0.29920062000000003,1.3546301299999999,5.843823
815,1747638660640,-1.661103,-1.6273816,-1.119547,-0.31451,1.898895,6.593638
816,1747638660650,-0.802058985,-1.5219486,-1.1216203,-0.8410221499999999,2.19851565,6.985802
817,1747638660660,0.05698503,-1.4165156,-1.1236936,-1.3675343,2.4981363,7.377966
818,1747638660670,1.1098208,-1.2595856,-0.9985034,-2.7675962,2.6013694,7.07804
819,1747638660680,1.2464903999999999,-1.2436091,-0.852565,-3.01712735,2.3872675,6.98488565
820,1747638660690,1.38316,-1.2276326,-0.7066266,-3.2666585,2.1731656,6.8917313
821,1747638660700,1.5183507,-1.1763796,-0.36130157,-3.8013024,1.4517548,6.4433694
822,1747638660710,1.5026029,-1.1662571,-0.286373415,-3.8741841,1.37723145,6.352964200000001
823,1747638660720,1.4868551,-1.1561346,-0.21144526,-3.9470658,1.3027081,6.262559
824,1747638660730,1.3065091,-1.0611899,0.3030055,-3.8480322,0.9710181,5.7372303
825,1747638660740,1.2628328,-1.0421491999999999,0.357902,-3.69787835,0.8289961,5.599178800000001
826,1747638660750,1.2191565,-1.0231085,0.4127985,-3.5477245,0.6869741,5.4611273
827,1747638660760,1.0234133,-0.90694314,0.56680137,-2.5738049,-0.3943019,4.7426944
828,1747638660770,0.9916889,-0.90718707,0.5460532,-2.3417211,-0.6630747,4.563105350000001
829,1747638660780,0.9599645,-0.907431,0.52530503,-2.1096373,-0.9318475,4.3835163
830,1747638660790,0.86992884,-0.93917066,0.40621272,-1.5370444,-1.6611991,3.8404732
831,1747638660800,0.85442487,-0.99176523,0.333860935,-1.3990311000000002,-1.88202035,3.73632375
832,1747638660810,0.8389209,-1.0443598,0.26150915,-1.2610178,-2.1028416,3.6321743
833,1747638660820,0.8313594799999999,-1.08437735,0.22734557500000002,-1.2740746500000002,-2.0796294,3.70639215
834,1747638660830,0.82379806,-1.1243949,0.193182,-1.2871315,-2.0564172,3.78061
835,1747638660840,0.793521915,-1.1882248,0.12910813999999998,-1.3693669,-1.8413991,4.0347223
836,1747638660850,0.8428235825,-1.2491659,0.30622976,-1.5668996,-1.6529527000000002,4.57077915
837,1747638660860,0.89212525,-1.310107,0.48335138,-1.7644323,-1.4645063,5.106836
838,1747638660870,1.0207303,-1.3066921,0.6890646,-1.5177264,-1.8444533,5.313913
839,1747638660880,1.07478835,-1.2787484,0.72042315,-1.2778161,-2.0130471500000002,5.349953
840,1747638660890,1.1288464,-1.2508047,0.7517817,-1.0379058,-2.181641,5.385993
841,1747638660900,1.2896789,-1.0211571,0.54484886,-0.22914408,-2.2952585,5.3646135
842,1747638660910,1.3214033,-0.80286695,0.262850701,-0.0048486000000000085,-2.269603,5.508467899999999
843,1747638660920,1.3531277,-0.5845768,-0.019147458,0.21944688,-2.2439475,5.6523223
844,1747638660930,1.5566761,-0.49426663,-0.0059759584,0.091703445,-2.3789446,5.7915955
845,1747638660940,1.7315339,-0.458029775,0.062244485800000006,0.1191152175,-2.4929058,5.81755675
846,1747638660950,1.9063917,-0.42179292,0.13046493,0.14652699,-2.606867,5.843518
847,1747638660960,2.1797307,-0.3353854,0.09043211,0.31855685,-2.7760718,5.850237
848,1747638660970,2.3171167500000003,-0.28658683,0.012211081999999998,0.325696125,-2.6664246499999997,5.85848335
849,1747638660980,2.4545028,-0.23778826,-0.066009946,0.3328354,-2.5567775,5.8667297
850,1747638660990,2.64949905,-0.177617065,-0.193883258,0.204786545,-2.29621305,5.83985255
851,1747638661000,2.8444953,-0.11744587,-0.32175657,0.07673769,-2.0356486,5.8129754
852,1747638661010,3.2996438,0.22248249,0.011342125,-0.7313369,-2.7858453,5.0915647
853,1747638661020,3.3342952,0.314622025,0.2084115525,-0.7307260499999999,-2.9220641499999997,4.88567085
854,1747638661030,3.3689466,0.40676156,0.40548098,-0.7301152,-3.058283,4.679777
855,1747638661040,3.241805,0.78599095,0.8452627,-0.02481567,-3.1407475,4.172163
856,1747638661050,3.2644968499999996,0.98794635,0.6294040825,0.2136820025,-2.5063444749999997,4.37099385
857,1747638661060,3.2871886999999997,1.18990175,0.413545465,0.452179675,-1.87194145,4.5698247
858,1747638661070,3.3694344,1.273367,0.25077683,0.3515426,-1.4993246,4.7036004
859,1747638661080,3.8316565000000002,1.5077709499999998,0.24490758,-0.5802666999999999,-1.10288473,4.7564387
860,1747638661090,4.2938786,1.7421749,0.23903833,-1.512076,-0.70644486,4.809277
861,1747638661100,5.6683493,2.5121589,2.46865,-1.4896274,-0.8878665,2.9431384
862,1747638661110,5.8499298500000005,2.67602505,2.5177077499999996,-0.765620685,-0.61726116,2.2473452
863,1747638661120,6.0315104,2.8398912,2.5667655,-0.04161397,-0.34665582,1.551552
864,1747638661130,5.844823,3.0822225,1.5937514,1.2045144,1.0534824,-0.87114453
865,1747638661140,5.367706500000001,3.09626295,1.5246925,0.706063055,1.3030135500000002,-1.864687565
866,1747638661150,4.89059,3.1103034,1.4556336,0.20761171,1.5525447,-2.8582306
867,1747638661160,5.0555696,2.8501358,1.7416565,0.23815407,2.343592,-3.3353786
868,1747638661170,5.323161300000001,2.42392195,1.84146415,0.5648046474999999,2.582013225,-3.8516972999999997
869,1747638661180,5.590753,1.9977081,1.9412718,0.891455225,2.82043445,-4.368016
870,1747638661190,5.565386,1.4688357,1.6362236,2.146059,2.6771145,-6.145963
871,1747638661200,5.48984775,1.3152139,1.46600015,2.4930967,2.69208025,-6.6899227
872,1747638661210,5.4143095,1.1615921,1.2957767,2.8401344,2.707046,-7.2338824
873,1747638661220,5.19100405,0.8557968499999999,0.93641128,3.0401486,2.43735695,-7.9086017
874,1747638661230,4.9676986,0.5500016,0.57704586,3.2401628,2.1676679,-8.583321
875,1747638661240,3.7547925,0.18101667,-0.22123243,2.5211194,2.243413,-9.317558
876,1747638661250,3.48842015,0.11756783999999999,-0.294194005,2.2198571,2.41383935,-9.209133
877,1747638661260,3.2220478,0.05411901,-0.36715558,1.9185948,2.5842657,-9.100708
878,1747638661270,2.3730042,-0.17775428,-0.21217702,1.0979979,2.8384545,-8.233839
879,1747638661280,2.0492811,-0.38433647000000004,-0.08003516,1.0185496,2.65455125,-7.866109
880,1747638661290,1.725558,-0.59091866,0.0521067,0.9391013,2.470648,-7.498379
881,1747638661300,1.725558,-0.59091866,0.0521067,1.15656295,2.0607695,-7.0768947
882,1747638661310,1.6439221499999999,-0.7418573500000001,-0.05001816,1.344436675,1.8601062000000002,-6.88203435
883,1747638661320,1.5622863,-0.89279604,-0.15214302,1.5323104,1.6594429,-6.687174
884,1747638661330,1.6664996,-1.0975641,-0.63732374,0.9901834,1.611186,-7.004204
885,1747638661340,1.54507485,-1.1090281499999999,-0.577899545,0.8101361499999999,1.549185,-7.085141
886,1747638661350,1.4236501,-1.1204922,-0.51847535,0.6300889,1.487184,-7.166078
887,1747638661360,0.9719165,-1.0550921,-0.25855166,0.25930467,1.0040039,-7.0145884
888,1747638661370,0.8636937149999999,-0.9761393,-0.28466599000000004,0.17241164,1.1719869,-6.5268267
889,1747638661380,0.75547093,-0.8971865,-0.31078032,0.08551861,1.3399699,-6.039065
890,1747638661390,0.799025295,-0.87436505,-0.349227685,-0.077730315,1.5888901,-5.77361375
891,1747638661400,0.84257966,-0.8515436,-0.38767505,-0.24097924,1.8378103,-5.5081625
892,1747638661410,0.8962718,-0.8264202,-0.38349798,-0.5270085,2.1383471,-5.26138
893,1747638661420,0.9571594999999999,-0.8092088150000001,-0.205835177,-0.69835113,2.32526645,-5.1025597000000005
894,1747638661430,1.0180472,-0.79199743,-0.028172374,-0.86969376,2.5121858,-4.9437394
895,1747638661440,1.0888135,-0.79785144,0.29468182,-0.503949,2.1383471,-4.988942
896,1747638661450,1.1073664,-0.84203082,0.296267285,-0.005154035000000001,1.6606646,-5.12790985
897,1747638661460,1.1259193,-0.8862102,0.29785275,0.49364093,1.1829821,-5.2668777
898,1747638661470,1.0043879,-0.87986845,0.09579827,1.4189218,0.3485647,-5.437915
899,1747638661480,0.94301235,-0.870340425,-0.011708005000000007,1.54788695,0.218721487,-5.45501885
900,1747638661490,0.8816368,-0.8608124,-0.11921428,1.6768521,0.088878274,-5.4721227
901,1747638661500,0.513841,-0.81885874,-0.4247504,1.4606122,-0.06261184,-4.9834447
902,1747638661510,0.439781785,-0.8105503199999999,-0.42084773499999995,1.36001325,-0.0339020208,-4.79896885
903,1747638661520,0.36572257,-0.8022419,-0.41694507,1.2594143,-0.0051922016,-4.614493
904,1747638661530,0.25833824,-0.83886,-0.3822784,1.0201149,0.32413083,-3.490534
905,1747638661540,0.16962879749999998,-0.8081112,-0.37044845000000004,1.0864682,0.21536184,-3.2012596
906,1747638661550,0.080919355,-0.7773624,-0.3586185,1.1528215,0.10659285,-2.9119852
907,1747638661560,-0.020854875,-0.7766307,-0.7615383,1.26621,-0.09132166,-2.265098
908,1747638661570,-0.3084631175,-0.80091563,-0.8540284499999999,0.9481494500000001,-0.120947755,-2.00243365
909,1747638661580,-0.59607136,-0.82520056,-0.9465186,0.6300889,-0.15057385,-1.7397693
910,1747638661590,-0.71040733,-0.848143995,-0.9693400999999999,0.42572234,-0.20952061,-1.62248665
911,1747638661600,-0.8247433,-0.87108743,-0.9921616,0.22135578,-0.26846737,-1.505204
912,1747638661610,-1.2174186,-1.043384,-0.7944976,-0.5799231,0.20379391,-1.197337
913,1747638661620,-1.4597498500000001,-1.12806885,-0.5664355,-0.6076784749999999,0.34489962500000004,-1.0672265
914,1747638661630,-1.7020811,-1.2127537,-0.3383734,-0.63543385,0.48600534,-0.937116
915,1747638661640,-2.1594248,-1.3913922,-0.11848252,-0.17370969,0.2850366,-0.6872795
916,1747638661650,-2.2253281,-1.4725402,-0.2435508,0.39670710499999995,-0.03813977000000002,-0.55197685
917,1747638661660,-2.2912314,-1.5536882,-0.36861908,0.9671239,-0.36131614,-0.4166742
918,1747638661670,-2.6626554,-1.4582559,-1.1129613,0.91482013,-0.57999945,-0.38552096
919,1747638661680,-2.8023739,-1.4293365,-1.1344412,0.687088635,-0.5054760899999999,-0.35070267
920,1747638661690,-2.9420924,-1.4004171,-1.1559211,0.45935714,-0.43095273,-0.31588438
921,1747638661700,-3.2217734,-1.3794403,-0.9826488,-0.20303036,-0.48043138,0.07941014
922,1747638661710,-3.2471406,-1.3433101,-0.8244993,-0.5774797,-0.62642384,0.67071027
923,1747638661720,-3.1807649,-1.3428223,-0.7775301,-0.6871268,-0.5919109899999999,0.884812285
924,1747638661730,-3.1143892,-1.3423345,-0.7305609,-0.7967739,-0.55739814,1.0989143
925,1747638661740,-2.92977475,-1.3214643000000001,-0.64502235,-0.8961511200000001,-0.34360159,1.55552265
926,1747638661750,-2.7451603,-1.3005941,-0.5594838,-0.99552834,-0.12980504,2.012131
927,1747638661760,-1.96981,-1.1368346,-0.5526237,-0.900847,0.17874917,3.509394
928,1747638661770,-1.6996571,-1.1092568,-0.61840495,-0.9718962,0.27251422000000003,3.93607085
929,1747638661780,-1.4295042,-1.081679,-0.6841862,-1.0429454,0.36627927,4.3627477
930,1747638661790,-0.3969439,-1.015547,-0.8337681,-1.6186689,0.5959579,5.0824018
931,1747638661800,-0.13421515,-0.97028525,-0.78105165,-1.95448215,0.68208735,5.2592421
932,1747638661810,0.1285136,-0.9250235,-0.7283352,-2.2902954,0.7682168,5.4360824
933,1747638661820,0.8318473,-0.79394877,-0.47063723,-2.984447,0.7480588,5.532596
934,1747638661830,0.91616625,-0.79602206,-0.39631885,-3.0763414,0.67353545,5.5148814999999995
935,1747638661840,1.0004852,-0.79809535,-0.32200047,-3.1682358,0.5990121,5.497167
936,1747638661850,1.2203761,-0.76248355,-0.007561419999999999,-3.1570113,-0.20127417,5.208236
937,1747638661860,1.2871177999999999,-0.745272175,0.123071205,-3.0302223,-0.33321718499999997,5.141654
938,1747638661870,1.3538595,-0.7280608,0.25370383,-2.9034333,-0.4651602,5.075072
939,1747638661880,1.3970633,-0.76614225,0.33227548,-2.3906271,-0.769973,4.7543006
940,1747638661890,1.29894775,-0.7972568600000001,0.29798994,-2.1479298,-0.9953756,4.49102545
941,1747638661900,1.2008322,-0.82837147,0.2637044,-1.9052325,-1.2207782,4.2277503
942,1747638661910,1.0260965,-0.83446944,0.2476059,-1.8572811,-1.4412941,4.1037483
943,1747638661920,0.9569156249999999,-0.8460630775,0.2308213925,-1.8476221000000002,-1.51154155,4.09794515
944,1747638661930,0.88773475,-0.8576567150000001,0.214036885,-1.8379631,-1.581789,4.092142
945,1747638661940,0.8491654,-0.8874298,0.119946025,-1.9065306,-1.561631,4.2949433
946,1747638661950,0.86136885,-0.929947525,0.182914635,-2.0579063,-1.5671286,4.44429565
947,1747638661960,0.8735723,-0.97246525,0.24588324499999997,-2.209282,-1.5726262,4.593648
948,1747638661970,0.9343533,-0.98091084,0.5714358,-2.001212,-2.1669807,4.7023787
949,1747638661980,0.94496367,-0.90866582,0.66759995,-1.6167600000000002,-2.42937775,4.79797625
950,1747638661990,0.95557404,-0.8364208,0.7637641,-1.232308,-2.6917748,4.8935738
951,1747638662000,0.94435387,-0.78663127,0.727755885,-1.05100088,-2.82066355,4.9118991
952,1747638662010,0.9331337,-0.73684174,0.69174767,-0.86969376,-2.9495523,4.9302244
953,1747638662020,0.8740754,-0.52307934,0.20489,-0.8709155,-2.6129756,5.2387786
954,1747638662030,0.8788317699999999,-0.50086765,0.082748729,-1.47156925,-1.822501,5.6132281
955,1747638662040,0.88358814,-0.47865596,-0.039392542,-2.072223,-1.0320264,5.9876776
956,1747638662050,1.0780813,-0.5506419,0.23220867,-2.5763247,-0.8622109,6.2637806
957,1747638662060,1.22903515,-0.5809028199999999,0.361926615,-2.63053735,-1.04943555,6.300736799999999
958,1747638662070,1.379989,-0.61116374,0.49164456,-2.68475,-1.2366602,6.337693
959,1747638662080,1.8090079,-0.6138468,0.875295,-2.3669567,-3.0643916,5.6950817
960,1747638662090,1.8720909,-0.55722762,0.83757935,-1.8354814499999998,-3.42998375,5.18590235
961,1747638662100,1.9351739,-0.50060844,0.7998637,-1.3040062,-3.7955759,4.676723
962,1747638662110,1.9617912,-0.51966447,0.6402508,-0.9438354,-3.6239278,4.336481
963,1747638662120,1.99083255,-0.5087949350000001,0.555322065,-0.8603402,-3.65844055,4.2705095
964,1747638662130,2.0198739,-0.4979254,0.47039333,-0.776845,-3.6929533,4.204538
965,1747638662140,2.0450125999999997,-0.48426605,0.43049769,-0.89584565,-3.88720285,4.290362
966,1747638662150,2.0701513,-0.4706067,0.39060205,-1.0148463,-4.0814524,4.376186
967,1747638662160,2.0924696000000003,-0.448151155,0.48444901500000004,-1.2603306,-3.83467,4.6669493
968,1747638662170,2.09228665,-0.4876885275,0.5882202925,-1.35256855,-3.38569735,4.93820385
969,1747638662180,2.0921037,-0.5272259,0.69199157,-1.4448065,-2.9367247,5.2094584
970,1747638662190,2.6858578,-0.5567398,0.72763395,-0.83541,-2.799284,5.690806
971,1747638662200,3.0360763,-0.48292453,0.595964675,-0.7435156700000001,-2.9895629,5.6364405
972,1747638662210,3.3862948,-0.40910926,0.4642954,-0.65162134,-3.1798418,5.582075
973,1747638662220,3.9629753,-0.26657042,0.2756563,-1.2610178,-2.878694,4.857534
974,1747638662230,3.78383365,-0.19738956,0.51469467,-1.5245602,-2.5130637499999997,4.6293825
975,1747638662240,3.604692,-0.1282087,0.75373304,-1.7881026,-2.1474335,4.401231
976,1747638662250,2.9582214,0.06777835,1.8453516,-1.4012072,-1.4974921,4.7995033
977,1747638662260,3.0277833999999997,0.11352797,2.13407275,-0.5774797,-1.45748155,5.0997729
978,1747638662270,3.0973454,0.15927759,2.4227939,0.2462478,-1.417471,5.4000425
979,1747638662280,3.61484505,0.33537017,2.0795421,0.8923715000000001,-1.2128372,5.1486406
980,1747638662290,4.1323447,0.51146275,1.7362903,1.5384952,-1.0082034,4.8972387
981,1747638662300,4.6035918,1.3241169,1.19133475,1.03103382,-0.5989357200000001,3.5414634
982,1747638662310,4.83738605,1.64833555,1.2568492249999998,0.46107515,0.001870724999999962,2.88736045
983,1747638662320,5.0711803,1.9725542,1.3223637,-0.10888352,0.60267717,2.2332575
984,1747638662330,5.5051074,1.973042,2.745404,-0.30206397,2.4792,-0.1692047
985,1747638662340,5.5415882,1.79952575,2.8241129000000003,0.169930085,2.4730914999999998,-0.8595002999999999
986,1747638662350,5.578069,1.6260095,2.9028218,0.64192414,2.466983,-1.5497959
987,1747638662360,5.2195725,0.9636538,2.3295565,1.8955353,2.2996109,-3.937674
988,1747638662370,4.7661316,0.562441355,2.23889575,2.0787132,2.6310336999999997,-4.591586
989,1747638662380,4.3126907,0.16122891,2.148235,2.2618911,2.9624565,-5.245498
990,1747638662390,4.227015,-0.11207971,2.2155867,2.5379176,3.208628,-5.3994317
991,1747638662400,4.2898006749999995,-0.27998585249999997,2.2603072749999997,2.6799778,3.28559475,-5.45440785
992,1747638662410,4.352586349999999,-0.447891995,2.30502785,2.822038,3.3625615,-5.509384
993,1747638662420,4.492723975,-0.7124348825,2.2755519250000003,3.47816435,3.3063635,-5.9889373
994,1747638662430,4.6328616,-0.97697777,2.246076,4.1342907,3.2501655,-6.4684906
995,1747638662440,4.45324785,-1.2806997,1.91479165,4.822792,3.032093,-7.1410336
996,1747638662450,4.260340125000001,-1.38411275,1.604552475,5.314104,2.6472210499999997,-7.7421453
997,1747638662460,4.0674324,-1.4875258,1.2943133,5.805416,2.2623491,-8.343257
998,1747638662470,3.5241692,-1.5656402,0.51335317,5.4521174,1.9050035,-8.914399
999,1747638662480,3.1328354,-1.5536729999999999,0.31030776000000004,5.077018949999999,1.94043265,-8.892409
1000,1747638662490,2.7415016,-1.5417058,0.10726235,4.7019205,1.9758618,-8.870419
