id,timestamp,acc_x,acc_y,acc_z,gyro_x,gyro_y,gyro_z
0,1747638540280,-0.19120018,0.9116996,0.114823766,-0.54136336,-0.7082774,0.62734014
1,1747638540290,-0.19136279333333334,0.9107137333333334,0.160304064,-0.52453962,-0.6689795666666666,0.5829519033333334
2,1747638540300,-0.19152540666666665,0.9097278666666667,0.205784362,-0.50771588,-0.6296817333333333,0.5385636666666667
3,1747638540310,-0.19168802,0.908742,0.25126466,-0.49089214,-0.5903839,0.49417543
4,1747638540320,-0.32761055,0.9587754,0.30276155,-0.026037365,-1.4724473,0.37139514
5,1747638540330,-0.35055397499999996,0.967815575,0.264192235,0.048715070000000006,-1.6569232,0.367424635
6,1747638540340,-0.3734974,0.97685575,0.22562292,0.123467505,-1.8413991,0.36345413
7,1747638540350,-0.41560352,0.95914135,0.13532801,0.18203248,-2.0020518,0.41171107
8,1747638540360,-0.43970551999999996,0.9640958749999999,0.10666018499999999,0.14309096999999998,-1.9657064499999999,0.503338135
9,1747638540370,-0.46380752,0.9690504,0.07799236,0.10414946,-1.9293611,0.5949652
10,1747638540380,-0.41060326,1.0010035,0.14949043,-0.107050985,-1.3337849,1.1526688
11,1747638540390,-0.33140655,1.0102723,0.198670135,-0.0942613705,-1.26139955,1.2042853500000001
12,1747638540400,-0.25220984,1.0195411,0.24784984,-0.081471756,-1.1890142,1.2559019
13,1747638540410,-0.052350618,0.9736849,0.34325173,0.1241547,-0.9935431,1.1251806
14,1747638540420,-0.0366027465,0.9658643,0.364487715,0.29175592,-0.916270915,1.003011165
15,1747638540430,-0.020854875,0.9580437,0.3857237,0.45935714,-0.83899873,0.88084173
16,1747638540440,-0.19802985,1.0327432,0.3430078,0.96154994,-0.9856021,0.7660025
17,1747638540450,-0.22853468500000002,1.04420725,0.3215279,1.05035187,-1.06348515,0.8035696
18,1747638540460,-0.25903952,1.0556713,0.300048,1.1391538,-1.1413682,0.8411367
19,1747638540470,-0.14263028,1.0651841,0.087017275,1.2955307,-1.6221049,1.3444748
20,1747638540480,-0.0652629575,1.0418748,0.058097903500000006,1.2332243,-1.62057775,1.40555955
21,1747638540490,0.012104365,1.0185655,0.029178532,1.1709179,-1.6190506,1.4666443
22,1747638540500,0.2973954,0.9446283,0.08579769,0.9447516,-1.4382398,1.3609676
23,1747638540510,0.2973954,0.9446283,0.08579769,0.9447516,-1.4382398,1.3609676
24,1747638540520,0.292761,0.93023723,0.14095335,0.9185616,-1.2317735,1.0793672
25,1747638540530,0.23784924,0.93048114,0.12973318,0.9185616,-1.2317735,1.0793672
26,1747638540540,0.23784924,0.93048114,0.12973318,0.92291385,-1.1700779,1.1349542
27,1747638540550,0.41380462,0.897278,0.14412427,0.8845832,-1.1880978500000001,1.2873606
28,1747638540560,0.510075495,0.87018795,0.17633651,0.93955945,-1.3992983250000002,1.2316208
29,1747638540570,0.60634637,0.8430979,0.20854875,0.9945357,-1.6104988,1.175881
30,1747638540580,0.7054375,0.8035835,0.28468126,1.209554,-1.9030946,1.0195041
31,1747638540590,0.7016568000000001,0.7900308650000001,0.264680085,1.4344603,-1.9986921999999998,0.9422319
32,1747638540600,0.6978761,0.77647823,0.24467891,1.6593666,-2.0942898,0.8649597
33,1747638540610,0.6983639,0.7322988,-0.11628727,1.6269916,-1.6104988,0.92970955
34,1747638540620,0.7083645000000001,0.7299816,-0.190834305,1.4107899000000002,-1.4532056500000001,0.95475429
35,1747638540630,0.7183651,0.7276644,-0.26538134,1.1945882,-1.2959125,0.97979903
36,1747638540640,0.84428704,0.7179077,-0.24391668,0.21692713,-0.85060483,1.0824213
37,1747638540650,0.94972002,0.71815165,-0.06600995199999998,-0.022944949999999992,-0.8054021149999999,1.03080472
38,1747638540660,1.055153,0.7183956,0.111896776,-0.26281703,-0.7601994,0.97918814
39,1747638540670,1.0964055,0.72888404,0.22635466,-0.17309885,-0.83044684,0.6646018
40,1747638540680,1.0964055,0.72888404,0.22635466,-0.17309885,-0.83044684,0.6646018
41,1747638540690,1.1173823,0.73571366,0.24516673,0.12789614,-0.6062659,0.3903314
42,1747638540700,1.09468275,0.71156591,0.19476745,0.175847655,-0.462411375,0.27732465
43,1747638540710,1.0719832,0.68741816,0.14436817,0.22379917,-0.31855685,0.1643179
44,1747638540720,0.989509,0.6896134,0.12238518,0.20639002,-0.15607147,0.043370154
45,1747638540730,0.9509396299999999,0.6795976,0.13569389,0.18145981,-0.140189445,0.019241688
46,1747638540740,0.91237026,0.6695818,0.1490026,0.1565296,-0.12430742,-0.004886778
47,1747638540750,1.0942101,0.57613117,0.17046726,0.32290915,-0.2562504,-0.06230642
48,1747638540760,1.1371546499999998,0.557090435,0.159247095,0.35933090999999995,-0.200663315,-0.117282675
49,1747638540770,1.1800992,0.5380497,0.14802693,0.39575267,-0.14507623,-0.17225893
50,1747638540780,1.214766,0.5251221,0.07040045,0.443131505,0.06570425595,-0.383993865
51,1747638540790,1.1851148999999999,0.5392692649999999,0.044057449,0.4026437825,0.224543627975,-0.5365529675
52,1747638540800,1.1554638,0.55341643,0.017714448,0.36215606,0.383383,-0.68911207
53,1747638540810,1.0536743,0.5617096,0.060293150000000004,0.2673984,0.5568636,-0.8021188
54,1747638540820,1.01854265,0.5529286,0.11599000500000001,0.278928135,0.636579185,-0.7984537300000001
55,1747638540830,0.983411,0.5441476,0.17168686,0.29045787,0.71629477,-0.79478866
56,1747638540840,0.99536294,0.55683124,0.28004685,0.6076403,0.4359159,-0.6988856
57,1747638540850,1.00658312,0.54756242,0.25246901,0.6777350200000001,0.3442888,-0.7214869500000001
58,1747638540860,1.0178033,0.5382936,0.22489117,0.74782974,0.2526617,-0.7440883
59,1747638540870,0.9597206,0.59466887,0.122629106,0.929175,0.25877017,-1.0482903
60,1747638540880,0.87308445,0.592839485,0.089929028,0.9874345499999999,0.32810133500000005,-1.12953295
61,1747638540890,0.7864483,0.5910101,0.05722895,1.0456941,0.3974325,-1.2107756
62,1747638540900,0.681991,0.58515614,0.03137378,1.0774583,0.39315656,-1.1545777
63,1747638540910,0.63990013,0.60602622,0.036496032,1.09460015,0.313746425,-1.1011285499999999
64,1747638540920,0.59780926,0.6268963,0.041618284,1.111742,0.23433629,-1.0476794
65,1747638540930,0.43331796,0.75013524,-0.04381353,1.0930349,-0.111479625,-0.96949095
66,1747638540940,0.43331796,0.75013524,-0.04381353,1.0930349,-0.111479625,-0.96949095
67,1747638540950,0.2868765,0.8352927,-0.04085604,1.0637141,-0.20249587,-0.8619818
68,1747638540960,0.19147459,0.8841065,0.005000292,1.228872,-0.31061584,-0.4258369
69,1747638540970,0.19147459,0.8841065,0.005000292,1.228872,-0.31061584,-0.4258369
70,1747638540980,0.32105532,0.85285467,-0.14970386,1.4880239,-0.39124766,0.019547112
71,1747638540990,0.356560435,0.862138735,-0.20376189,1.461872,-0.409878505,0.031764056
72,1747638541000,0.39206555,0.8714228,-0.25781992,1.4357201,-0.42850935,0.043981
73,1747638541010,0.43283013,0.9224319,-0.3383734,1.2817866,-0.47065783,-0.04459185
74,1747638541020,0.38718723,0.9850269999999999,-0.35935024,1.1254097,-0.43339613499999996,-0.198258125
75,1747638541030,0.34154433,1.0476221,-0.38032708,0.9690328,-0.39613444,-0.3519244
76,1747638541040,0.11238461,1.0293283,-0.3398369,0.6768188,-0.2483094,-0.3922403
77,1747638541050,0.08860273375,1.0347554749999999,-0.34550796,0.5686988225,-0.2003578975,-0.268505549
78,1747638541060,0.0648208575,1.04018265,-0.35117902,0.460578845,-0.152406395,-0.144770798
79,1747638541070,0.14534386,1.0214926,-0.29321834,0.11667182,-0.11942064,0.11972606
80,1747638541080,0.1131316075,1.0494363,-0.21792431,0.14717601,-0.15912571,0.10384403
81,1747638541090,0.080919355,1.07738,-0.14263028,0.1776802,-0.19883078,0.087962
82,1747638541100,0.080919355,1.07738,-0.14263028,0.1776802,-0.19883078,0.087962
83,1747638541110,0.06126882,1.08093195,-0.051374948000000004,0.578968685,-0.4770717,0.11147962
84,1747638541120,0.07987509000000001,1.052553775,-0.084196984,0.8390941925,-0.6864395999999999,0.08811471500000001
85,1747638541130,0.09848136,1.0241756,-0.11701902,1.0992197,-0.8958075,0.06474981
86,1747638541140,0.047960117,1.0671355,-0.30882898,1.4519076,-1.3264549,-0.00061084726
87,1747638541150,0.0761477335,1.0584764,-0.42914089,1.36123495,-1.37104675,-0.02290677363
88,1747638541160,0.10433535,1.0498173,-0.5494528,1.2705623,-1.4156386,-0.0452027
89,1747638541170,-0.14945993,1.0359142,-0.81815743,0.35528404,-1.0925003,-0.40445724
90,1747638541180,-0.26099084499999997,1.03016685,-0.8590287649999999,0.06803312,-0.902832225,-0.38765894
91,1747638541190,-0.37252176,1.0244195,-0.8999001,-0.2192178,-0.71316415,-0.37086064
92,1747638541200,-0.6763505,1.005638,-0.7622701,-1.084979225,-0.45294325,-0.04001049500000001
93,1747638541210,-0.6258597,0.99027115,-0.6412264,-1.6080554,-0.4071297,0.40560257
94,1747638541220,-0.56239563,0.961595675,-0.5642249699999999,-1.66788025,-0.45385949999999997,0.520136435
95,1747638541230,-0.49893156,0.9329202,-0.48722354,-1.7277051,-0.5005893,0.6346703
96,1747638541240,-0.339593,0.91121167,-0.44478208,-1.6217232,-0.60137916,0.72935164
97,1747638541250,-0.36044787,0.9263345000000001,-0.42586328,-1.46408635,-0.620926265,0.6542174199999999
98,1747638541260,-0.38130274,0.94145733,-0.40694448,-1.3064495,-0.64047337,0.5790832
99,1747638541270,-0.55018455,1.033231,-0.4896627,-0.9631534,-0.8090672,0.58458084
100,1747638541280,-0.562639525,1.0438414,-0.5156551,-0.9475768,-0.84327465,0.6056550700000001
101,1747638541290,-0.5750945,1.0544518,-0.5416475,-0.9320002,-0.8774821,0.6267293
102,1747638541300,-0.54408664,1.0625011,-0.5616791,-1.0821923,-0.8212841,0.7458445
103,1747638541310,-0.54408664,1.0625011,-0.5616791,-1.0821923,-0.8212841,0.7458445
104,1747638541320,-0.4018222,1.1420788,-0.3857237,-1.214288,-0.43706122,0.7085828
105,1747638541330,-0.385830425,1.1500061499999998,-0.3459348,-1.19745155,-0.361927,0.6752916499999999
106,1747638541340,-0.36983865,1.1579335,-0.3061459,-1.1806151,-0.28679278,0.6420005
107,1747638541350,-0.37276566,1.174032,-0.22415942,-1.0721897,-0.11331217,0.5204419
108,1747638541360,-0.393513815,1.1817153,-0.152402185,-0.80799825,-0.063222693,0.396745315
109,1747638541370,-0.41426197,1.1893986,-0.08064495,-0.5438068,-0.013133216,0.27304873
110,1747638541380,-0.40352964,1.1793981,-0.067717366,-0.2870982,0.02535016,0.20280129
111,1747638541390,-0.333723735,1.1537716,-0.068083243,-0.06558972000000002,0.083113405,0.094681325
112,1747638541400,-0.26391783,1.1281451,-0.06844912,0.15591876,0.14087665,-0.01343864
113,1747638541410,-0.2177871,1.1161932,-0.112872444,0.4736357,0.33512607,-0.33482066
114,1747638541420,-0.22365634,1.11607125,-0.115677482,0.50604878,0.38399384999999997,-0.35894913
115,1747638541430,-0.22952558,1.1159493,-0.11848252,0.53846186,0.43286163,-0.3830776
116,1747638541440,-0.15458219,1.0837523,-0.13019052,0.56648445,0.5654155,-0.42156097
117,1747638541450,-0.091377282,1.01736125,-0.17973609000000002,0.527237535,0.67231378,-0.635662935
118,1747638541460,-0.028172374,0.9509702,-0.22928166,0.48799062,0.77921206,-0.8497649
119,1747638541470,-0.071010242,0.9336521,-0.23989205,0.45496667999999996,0.84732151,-0.9618554
120,1747638541480,-0.11384811,0.916334,-0.25050244,0.42194274,0.91543096,-1.0739459
121,1747638541490,-0.35398406,0.8950827,-0.24611193,0.370555205,0.9566631649999999,-1.18512005
122,1747638541500,-0.38741588,0.91412347,-0.21938780000000002,0.3984251225,0.8786274325,-1.06631026
123,1747638541510,-0.4208477,0.93316424,-0.19266367,0.42629504,0.8005917,-0.94750047
124,1747638541520,-0.3825223,0.91755354,-0.17607735,0.653110225,0.72362492,-0.6561263
125,1747638541530,-0.38715672,0.935359445,-0.18863906,0.8045049125,0.67689511,-0.481424
126,1747638541540,-0.39179114,0.95316535,-0.20120077,0.9558996,0.6301653,-0.3067217
127,1747638541550,-0.2866326,0.91560215,-0.37057042,1.2712495,0.45057622,0.37078428
128,1747638541560,-0.20841156,0.907171825,-0.39607495000000004,1.29770685,0.3598654,0.47126864
129,1747638541570,-0.13019052,0.8987415,-0.42157948,1.3241642,0.26915458,0.571753
130,1747638541580,0.25858217,0.8391954,-0.62049353,1.346002,-0.024739314,0.58519167
131,1747638541590,0.230272585,0.8777647,-0.698821265,1.2590707499999998,-0.167982992,0.38330665500000005
132,1747638541600,0.201963,0.916334,-0.777149,1.1721395,-0.31122667,0.18142164
133,1747638541610,0.064820856,0.97856325,-0.8149866,0.3658975,0.074217945,-0.1575986
134,1747638541620,0.009299322999999998,0.979051055,-0.8077910500000001,0.14190745,0.2507909825,-0.0751342165
135,1747638541630,-0.04622221,0.97953886,-0.8005955,-0.0820826,0.42736402,0.007330167
136,1747638541640,-0.34617874,0.9734409,-0.54408664,-0.70331424,0.96246624,0.75012046
137,1747638541650,-0.34617874,0.9734409,-0.54408664,-0.70331424,0.96246624,0.75012046
138,1747638541660,-0.36861908,0.9805145,-0.4208477,-0.80242425,0.94719505,1.315765
139,1747638541670,0.03308118999999998,0.94610705,-0.30870703,-0.7896346249999999,0.568164315,1.6538689500000001
140,1747638541680,0.43478146,0.9116996,-0.19656636,-0.776845,0.18913358,1.9919729
141,1747638541690,1.0444207,0.85654384,-0.13214186,-0.326956,-0.5671717,0.67009944
142,1747638541700,0.974004975,0.88753652,-0.11982406749999999,-0.20112146250000001,-0.55526015,0.325276164
143,1747638541710,0.90358925,0.9185292,-0.107506275,-0.075286925,-0.5433486,-0.019547112
144,1747638541720,0.350218625,0.9855148,-0.073693323,0.4126273,-0.35520768,-0.42950198
145,1747638541730,0.16895041625,0.99545445,-0.0768032615,0.531017135,-0.35429141,-0.36593569000000004
146,1747638541740,-0.0123177925,1.0053941,-0.0799132,0.64940697,-0.35337514,-0.3023694
147,1747638541750,-0.26586917,0.9946617,-0.22050068,0.97277427,-0.38941512,0.41598698
148,1747638541760,-0.1261506525,0.9369449,-0.326894075,0.888668235,-0.33413345,0.93703974
149,1747638541770,0.013567865,0.8792281,-0.43328747,0.8045622,-0.27885178,1.4580925
150,1747638541780,0.53558004,0.81651103,-0.42767742,0.3671192,-0.34604496,1.6327947
151,1747638541790,0.66345334,0.8076080649999999,-0.38217171,0.26430597499999997,-0.51341713,1.4348802
152,1747638541800,0.79132664,0.7987051,-0.336666,0.16149275,-0.6807893,1.2369657
153,1747638541810,0.86331254,0.8084618,-0.1724186,0.1546207,-0.8371662,0.9309312
154,1747638541820,0.7888875,0.82004785,-0.16350039500000002,0.32287095,-0.93642885,0.5048652499999999
155,1747638541830,0.71446246,0.8316339,-0.15458219,0.4911212,-1.0356915,0.0787993
156,1747638541840,0.26150915,0.8399271,-0.2929744,0.668725,-0.5201364,0.038483378
157,1747638541850,0.26150915,0.8399271,-0.2929744,0.668725,-0.5201364,0.038483378
158,1747638541860,0.09287128,0.8250481,-0.3251714,0.59267455,-0.3771982,0.36101073
159,1747638541870,0.10262794,0.7618432,-0.31882957,0.35902548,-0.2403684,1.1654966
160,1747638541880,0.10262794,0.7618432,-0.31882957,0.35902548,-0.2403684,1.1654966
161,1747638541890,0.6651608,0.66397166,-0.23342825,0.33100286,-0.44927815,1.5607147
162,1747638541900,0.8006108000000001,0.65445891,-0.228793835,0.38365026,-0.547013725,1.37471175
163,1747638541910,0.9360608,0.64494616,-0.22415942,0.43629766,-0.6447493,1.1887088
164,1747638541920,0.95362276,0.6866864,-0.27931508,0.6094729,-0.63558656,0.41537613
165,1747638541930,0.82392003,0.7143862000000001,-0.30933206999999996,0.602028175,-0.48776153,0.2843494
166,1747638541940,0.6942173,0.742086,-0.33934906,0.59458345,-0.3399365,0.15332267
167,1747638541950,0.553142,0.77233166,-0.32837284,0.550297,-0.15729317,0.15210097
168,1747638541960,0.48457093,0.76977053,-0.319088745,0.5144861000000001,-0.09865183350000001,0.383917505
169,1747638541970,0.41599986,0.7672094,-0.30980465,0.4786752,-0.040010497,0.61573404
170,1747638541980,0.50871867,0.62076795,-0.27638808,0.601073725,-0.30908870499999996,0.92360107
171,1747638541990,0.574256065,0.6047914,-0.29663317,0.6196282125,-0.3636068225,0.957808515
172,1747638542000,0.63979346,0.58881485,-0.31687826,0.6381827,-0.41812494,0.99201596
173,1747638542010,0.79132664,0.5470746,-0.3969439,0.65688986,-0.46882528,0.5803049
174,1747638542020,0.7267802050000001,0.561602885,-0.4240339,0.6076403,-0.41568157,0.45813545
175,1747638542030,0.66223377,0.57613117,-0.4511239,0.55839074,-0.36253786,0.335966
176,1747638542040,0.44819686,0.58564395,-0.26611307,0.46622917,0.06688777,0.47401747
177,1747638542050,0.44819686,0.58564395,-0.26611307,0.46622917,0.06688777,0.47401747
178,1747638542060,0.44209895,0.57881427,-0.19241977,0.6368846,0.09193251,0.6578825
179,1747638542070,0.6817471,0.5217073,-0.27175367,1.1328926,-0.5121954,0.8826743
180,1747638542080,0.6817471,0.5217073,-0.27175367,1.1328926,-0.5121954,0.8826743
181,1747638542090,0.75205606,0.50899315,-0.36203334,1.182753,-0.7669187,0.80448586
182,1747638542100,0.721048145,0.537790525,-0.411700845,1.1223173499999999,-0.65727165,0.67590253
183,1747638542110,0.69004023,0.5665879,-0.46136835,1.0618817,-0.5476246,0.5473192
184,1747638542120,0.6378421,0.54024494,-0.25708818,1.131671,-0.26541314,0.73362756
185,1747638542130,0.7014128749999999,0.5097401,-0.23708701,1.26311765,-0.38819344499999997,0.78035736
186,1747638542140,0.76498365,0.47923526,-0.21708584,1.3945643,-0.51097375,0.82708716
187,1747638542150,1.2413529,0.38502246,-0.31419516,1.9434869,-1.2311627,0.61573404
188,1747638542160,1.2794191000000001,0.40138012,-0.475393595,2.1023836,-1.37440635,0.2892361785
189,1747638542170,1.3174853,0.41773778,-0.63659203,2.2612803,-1.51765,-0.037261683
190,1747638542180,1.1630253,0.49338245,-0.72467643,2.256928,-1.2690352,-0.3897969
191,1747638542190,1.1266511499999998,0.524497075,-0.75714785,2.14258495,-1.0928057500000001,-0.316457055
192,1747638542200,1.090277,0.5556117,-0.78961927,2.0282419,-0.9165763,-0.24311721
193,1747638542210,1.338005,0.4382268,-0.9062724,1.0487484,-0.31061584,-0.24800399
194,1747638542220,1.338005,0.4382268,-0.9062724,1.0487484,-0.31061584,-0.24800399
195,1747638542230,1.246963,0.28056514,-0.86599565,0.5671717,-0.07482879,-0.49974942
196,1747638542240,1.1615616,0.24300198,-0.78766793,-0.1369825,0.30641624,-0.877253
197,1747638542250,1.1615616,0.24300198,-0.78766793,-0.1369825,0.30641624,-0.877253
198,1747638542260,0.9748435,0.06509526,-0.5787533,0.16462334,0.35039726,-0.8931351
199,1747638542270,0.9466558700000001,0.05739664,-0.5985258,0.28797630500000004,0.33176640999999996,-0.8769476249999999
200,1747638542280,0.91846824,0.04969802,-0.6182983,0.41132927,0.31313556,-0.86076015
201,1747638542290,0.6873572,0.112445585,-0.91871214,0.65685171,0.160996432,-0.7786012
202,1747638542300,0.64965685,0.1823582025,-0.90759867,0.51633774,0.185143991,-0.67979665
203,1747638542310,0.6119565,0.25227082,-0.8964852,0.37582377,0.20929155,-0.5809921
204,1747638542320,0.96728206,0.24153848,-0.5850951,0.6094729,0.098651834,-0.36841726
205,1747638542330,1.03769773,0.23726993000000002,-0.5763141199999999,0.7964302999999999,-0.0015271155000000092,-0.41331453
206,1747638542340,1.1081134,0.23300138,-0.56753314,0.9833877,-0.101706065,-0.4582118
207,1747638542350,1.1925391,0.17491874,-0.8935582,1.5503304,-0.40163207,-0.74531
208,1747638542360,1.1983931,0.168073825,-0.96653505,1.4677896499999998,-0.426371385,-0.7990645700000001
209,1747638542370,1.2042471,0.16122891,-1.0395119,1.3852489,-0.4511107,-0.85281914
210,1747638542380,1.1481158,0.16610725,-1.1874168,0.6587224,-0.4083514,-1.193061
211,1747638542390,0.9633794,0.24652353500000002,-1.1104154,0.08021187500000004,-0.062573675,-1.3204226499999998
212,1747638542400,0.778643,0.32693982,-1.033414,-0.49829865,0.28320405,-1.4477843
213,1747638542410,0.6522332,0.30059683,-0.528476,-0.87839836,0.82197136,-1.2914075
214,1747638542420,0.6604044,0.2893614,-0.32762583999999995,-0.47123048,0.71293513,-1.06233977
215,1747638542430,0.6685756,0.27812597,-0.12677568,-0.0640626,0.6038989,-0.83327204
216,1747638542440,0.7344636,0.24446549,-0.24025792,0.8194516,-0.0051922016,-0.44721654
217,1747638542450,0.7344636,0.24446549,-0.24025792,0.8194516,-0.0051922016,-0.44721654
218,1747638542460,0.8757828,0.22053115,-0.38032708,0.9503256,-0.7382089,-0.9957574
219,1747638542470,0.7295853,0.36843613,-0.5238415,0.7870767,-0.61481774,-1.2205492
220,1747638542480,0.5953701,0.4384707,-0.5275003,0.7870767,-0.61481774,-1.2205492
221,1747638542490,0.38426024,0.42749447,-0.24830718,0.67116845,-0.23242739,-1.3512704
222,1747638542500,0.28516906,0.3533133,-0.15604569,1.4968048,0.4010976,-1.0482903
223,1747638542510,0.28516906,0.3533133,-0.15604569,1.4968048,0.4010976,-1.0482903
224,1747638542520,0.3093473,0.28523004,-0.2148906,2.0587842,0.35039726,-0.7465317
225,1747638542530,0.32178706,0.25153906000000004,-0.35948745000000004,2.4011641,0.09197068999999997,-0.543119565
226,1747638542540,0.33422682,0.21784808,-0.5040843,2.743544,-0.16645588,-0.33970743
227,1747638542550,0.28126642,0.49557772,-0.7754416,2.6563456,-1.297745,-0.060473878
228,1747638542560,0.26382637,0.508520525,-0.83413402,2.5856019,-1.4189981999999999,-0.074217939
229,1747638542570,0.24638632,0.52146333,-0.89282644,2.5148582,-1.5402514,-0.087962
230,1747638542580,0.24784984,0.42090872,-1.1039364,2.0438185,-0.78524417,-0.005497625
231,1747638542590,0.20635351,0.38686708999999997,-1.1377340999999999,1.79024055,-0.3671192115,0.0183254175
232,1747638542600,0.16485718,0.35282546,-1.1715318,1.5366626,0.051005747,0.04214846
233,1747638542610,0.16485718,0.35282546,-1.1715318,1.050351875,0.230976615,0.118504365
234,1747638542620,0.057853985,0.454340545,-1.14797855,0.8903480575,0.09120713,0.1759240075
235,1747638542630,-0.04914921,0.55585563,-1.1244253,0.73034424,-0.048562355,0.23334365
236,1747638542640,-0.2956575,0.56561226,-1.1114978,0.44187164,-0.43583953,0.59679776
237,1747638542650,-0.3344555,0.54000103,-1.1238308,0.33688226,-0.32466532,0.67071028
238,1747638542660,-0.3732535,0.5143898,-1.1361638,0.23189288,-0.21349111,0.7446228
239,1747638542670,-0.5518919,0.46728337,-1.0553665,0.09361234,0.040621344,0.8942804
240,1747638542680,-0.6827075,0.463868535,-1.093448,0.247202245,-0.253501628,1.2491826000000001
241,1747638542690,-0.8135231,0.4604537,-1.1315295,0.40079215,-0.5476246,1.6040848
242,1747638542700,-0.89637857,0.49693447999999996,-1.2598906,0.377732665,-0.63680828,1.7833685
243,1747638542710,-0.97923404,0.53341526,-1.3882517,0.35467318,-0.72599196,1.9626522
244,1747638542720,-0.9267614,0.5321957,-1.5720124,-0.007941014,-0.5128063,2.339545
245,1747638542730,-0.8199869,0.55172425,-1.5155151999999998,-0.6163830570000001,-0.20616096500000003,2.4550333
246,1747638542740,-0.7132124,0.5712528,-1.459018,-1.2248251,0.10048437,2.5705216
247,1747638542750,-0.58021677,0.5885709,-1.2606224,-1.747634,0.1311031,2.3548162
248,1747638542760,-0.584241435,0.610538665,-1.0351214199999998,-1.8591517999999998,0.049516808999999995,2.0588607000000003
249,1747638542770,-0.5882661,0.63250643,-0.80962044,-1.9706696,-0.032069482,1.7629052
250,1747638542780,-0.7217494,0.7867228,-0.66781336,-0.69644225,-0.46638188,1.4501514
251,1747638542790,-0.6883175850000001,0.80588545,-0.74213171,-0.393003865,-0.5775560900000001,1.4144168499999998
252,1747638542800,-0.65488577,0.8250481,-0.81645006,-0.08956548,-0.6887303,1.3786823
253,1747638542810,-0.54311097,0.8267556,-1.0397558,0.35215345,-0.8182299,1.0909733
254,1747638542820,-0.455621095,0.84043018,-1.2207115,-0.061886459999999976,-0.44652934499999997,0.6957550699999999
255,1747638542830,-0.36813122,0.85410476,-1.4016672,-0.47592637,-0.07482879,0.30053684
256,1747638542840,-0.36130157,0.8611783,-1.216443,-1.0217184,0.20440477,-0.5076904
257,1747638542850,-0.36130157,0.8611783,-1.216443,-1.0217184,0.20440477,-0.5076904
258,1747638542860,-0.48844314,0.8716667,-1.050976,-1.1319764,0.2581593,-1.0598963
259,1747638542870,-0.92700535,1.0900941,-0.79718065,-0.50333816,-0.12613995,-1.7391585
260,1747638542880,-0.898085975,1.0693459,-0.8119376,-0.297100845,-0.280684315,-1.6707436
261,1747638542890,-0.6539101,0.9499944,-0.9067602,0.1963874,-0.6166503,-1.461223
262,1747638542900,-0.6539101,0.9499944,-0.9067602,0.1963874,-0.6166503,-1.461223
263,1747638542910,-0.2695279,0.70302886,-0.93822545,0.33657685,-0.5598415,-1.4349566
264,1747638542920,0.06530869,0.540001,-0.8989244,0.24189551,-0.5329642,-1.6426446
265,1747638542930,0.19147459,0.42212826,-0.86599565,0.2138729,-0.5250232,-1.8375049
266,1747638542940,0.19147459,0.42212826,-0.86599565,0.2138729,-0.5250232,-1.8375049
267,1747638542950,0.2432154,0.33840388,-0.8606295,0.21570544,-0.4950917,-2.0916173
268,1747638542960,0.179507417,0.330720515,-0.883085075,0.24998923499999998,-0.45019443000000003,-2.18049565
269,1747638542970,0.115799434,0.32303715,-0.90554065,0.28427303,-0.40529716,-2.269374
270,1747638542980,-0.428531095,0.402233835,-1.07965135,0.49860409,-0.354902265,-1.50612025
271,1747638542990,-0.49722412,0.4165182,-1.1354321,0.51670045,-0.3955236,-1.2376529
272,1747638543000,-0.44645897,0.4106642,-1.1364079,0.53227705,-0.39491275,-0.1692047
273,1747638543010,-0.13897152,0.37672928,-1.0229255,0.5522059,-0.273965,0.35306972
274,1747638543020,0.15485659,0.35904532499999997,-1.0038848,0.663723725,-0.46424392000000003,0.37078427999999997
275,1747638543030,0.4486847,0.34136137,-0.9848441,0.77524155,-0.65452284,0.38849884
276,1747638543040,0.6180544,0.3606308,-1.3643479,0.79578125,-0.77974653,-0.47959146
277,1747638543050,0.53239391,0.40162405,-1.40180435,0.614779575,-0.7149967150000001,-0.60725853
278,1747638543060,0.44673342,0.4426173,-1.4392608,0.4337779,-0.6502469,-0.7349256
279,1747638543070,0.2074511465,0.50925228,-1.3678694,-0.07776849999999996,-0.5262449149999999,-0.501543775
280,1747638543080,-0.031831127,0.57588726,-1.296478,-0.5893149,-0.40224293,-0.26816195
281,1747638543090,-0.06918087,0.5500016,-1.1644582,-0.84915406,-0.20921518,0.13011047
282,1747638543100,0.08053822999999999,0.54317193,-1.02095898,-0.9120713300000001,-0.111479622,0.42789851
283,1747638543110,0.23025733,0.53634226,-0.87745976,-0.9749886,-0.013744064,0.72568655
284,1747638543120,0.8198953,0.43066534,-0.82840204,-0.6727719,-0.60321164,-0.02687728
285,1747638543130,0.773764625,0.45080372,-0.81401092,-0.629172665,-0.6306997700000001,-0.21688896
286,1747638543140,0.72763395,0.4709421,-0.7996198,-0.58557343,-0.6581879,-0.40690064
287,1747638543150,0.2666314,0.5582948,-0.7493425,-0.40987852,-0.6270347,-0.7764632
288,1747638543160,0.11618055300000002,0.5600022,-0.75361105,-0.38991144,-0.557398115,-0.6484907200000001
289,1747638543170,-0.034270294,0.5617096,-0.7578796,-0.36994436,-0.48776153,-0.52051824
290,1747638543180,-0.1343371,0.53780574,-0.72687167,-0.40858045,-0.16523418,0.19669282
291,1747638543190,-0.11797944199999999,0.47789372,-0.69563511,-0.400181305,-0.104149456,0.31611345999999996
292,1747638543200,-0.101621784,0.4179817,-0.66439855,-0.39178216,-0.043064732,0.4355341
293,1747638543210,0.23980057,0.3664848,-0.56850874,-0.027946262,-0.13469182,0.7922689
294,1747638543220,0.23980057,0.3664848,-0.56850874,-0.027946262,-0.13469182,0.7922689
295,1747638543230,0.40279788,0.36843613,-0.58094853,0.18577392,-0.29045787,0.6297835
296,1747638543240,0.38938247000000004,0.3833303,-0.6618526650000001,0.42507333,-0.312753795,0.354902247
297,1747638543250,0.37596706,0.39822447,-0.7427568,0.66437274,-0.33504972,0.080020994
298,1747638543260,0.10482319,0.4001758,-0.8898995,0.6717793,-0.13774605,-0.131943
299,1747638543270,0.0543019492,0.38601338500000004,-0.91040375,0.6066859,-0.09529217000000001,-0.072385396
300,1747638543280,0.0037807084,0.37185097,-0.930908,0.5415925,-0.05283829,-0.012827792
301,1747638543290,-0.09834414999999999,0.3400046,-0.9520220500000001,0.18142164,0.23006035,0.4495836
302,1747638543300,-0.09632421799999999,0.33286241,-0.9081551750000001,0.08891645615,0.30122406,0.6377245500000001
303,1747638543310,-0.094304286,0.32572022,-0.8642883,-0.0035887277,0.37238777,0.8258655
304,1747638543320,0.058204614,0.29352322,-0.78864354,-0.02725906,0.39559996,1.0091196
305,1747638543330,0.211231822,0.27887295999999995,-0.7874239700000001,0.05684697,0.20528285899999998,0.89122613
306,1747638543340,0.36425903,0.2642227,-0.7862044,0.140953,0.014965758,0.77333266
307,1747638543350,0.24638632,0.26251534,-0.9360302,0.101706065,-0.029015245,0.0018325418
308,1747638543360,0.1645065475,0.273140955,-0.93298128,0.029091597499999997,0.0492113825,-0.0433701541
309,1747638543370,0.082626775,0.28376657,-0.92993236,-0.04352287,0.12743801,-0.08857285
310,1747638543380,-0.13653237,0.29327932,-0.83767086,-0.26655847,0.4145362,0.14293826
311,1747638543390,-0.131532075,0.295962395,-0.73969258,-0.28026436499999996,0.47836975000000004,0.27763008
312,1747638543400,-0.12653178,0.29864547,-0.6417143,-0.29397026,0.5422033,0.4123219
313,1747638543410,0.013811781,0.3018164,-0.625128,0.1596602,0.25571594,0.85885125
314,1747638543420,0.1036188505,0.28436110000000003,-0.649169,0.258426565,0.140838474,0.81884074
315,1747638543430,0.19342592,0.2669058,-0.67321,0.35719293,0.025961008,0.77883023
316,1747638543440,0.187328,0.2891327,-0.98630756,0.51166093,-0.18172707,0.2675511
317,1747638543450,0.187328,0.2891327,-0.98630756,0.51166093,-0.18172707,0.2675511
318,1747638543460,0.085309856,0.30425555,-1.0131383,0.34528142,-0.11880979,0.15698774
319,1747638543470,0.011723244499999994,0.305962965,-1.002284025,0.1823760885,-0.037261682000000004,0.20585552
320,1747638543480,-0.061863367,0.30767038,-0.99142975,0.019470757,0.044286426,0.2547233
321,1747638543490,-0.041343875,0.32767156,-0.8830698,-0.22601348,0.30641624,0.6187883
322,1747638543500,0.0205194925,0.32803742999999996,-0.861955785,-0.216392635,0.27129253,0.63650285
323,1747638543510,0.08238286,0.3284033,-0.84084177,-0.20677179,0.23616882,0.6542174
324,1747638543520,0.21952501,0.33352557,-0.882582,-0.112624966,0.08521319,0.46057883
325,1747638543530,0.187556675,0.34610251999999997,-0.8890458,-0.106096536,0.0775776,0.39613445
326,1747638543540,0.15558834,0.35867947,-0.8955096,-0.099568106,0.06994201,0.33169007
327,1747638543550,0.06628435,0.3960292,-0.8491654,-0.07650862,-0.07666133,0.33169007
328,1747638543560,0.069577228,0.38955016,-0.8647760499999999,-0.08616763999999999,-0.06566608,0.375976485
329,1747638543570,0.072870106,0.38307112,-0.8803867,-0.09582666,-0.05467083,0.4202629
330,1747638543580,0.1314406,0.36965573,-0.86502,-0.2216612,0.24410984,0.53326964
331,1747638543590,0.179141555,0.35611835000000003,-0.84171067,-0.23975755,0.28106609,0.5335750850000001
332,1747638543600,0.22684251,0.34258097,-0.81840134,-0.2578539,0.31802234,0.53388053
333,1747638543610,0.31495738,0.35209373,-0.7935219,-0.18554485,0.09376506,0.34146363
334,1747638543620,0.28030598,0.364289555,-0.77460315,-0.06093201000000001,-0.009162705000000007,0.269078225
335,1747638543630,0.24565458,0.37648538,-0.7556844,0.06368083,-0.11209047,0.19669282
336,1747638543640,0.233565465,0.37429012500000003,-0.7744812000000001,0.107623655,-0.12491826,0.22082129
337,1747638543650,0.22147635,0.37209487,-0.793278,0.15156648,-0.13774605,0.24494976
338,1747638543660,0.257362585,0.344882935,-0.848799525,0.16836478,-0.070552856,0.32924667
339,1747638543670,0.3044689925,0.3301793325,-0.8433571424999999,0.1303395375,0.034856477,0.4019375
340,1747638543680,0.3515754,0.31547573,-0.83791476,0.092314295,0.14026581,0.47462833
341,1747638543690,0.53582394,0.27885774,-0.8257189,0.15591876,0.07482879,0.43125817
342,1747638543700,0.5552153200000001,0.26885715,-0.85646765,0.1764585,0.006108475000000002,0.37841987499999996
343,1747638543710,0.5746067,0.25885656,-0.8872164,0.19699824,-0.06261184,0.32558158
344,1747638543720,0.56850874,0.25007555,-0.9841123,-0.067193195,0.02107423,0.13927318
345,1747638543730,0.55350789,0.238611475,-0.962388475,-0.1101815675,0.10296594,0.13896775
346,1747638543740,0.53850704,0.2271474,-0.94066465,-0.15316994,0.18485765,0.13866232
347,1747638543750,0.5333848,0.21711633,-0.799132,-0.0531437115,0.29358845,0.18691926
348,1747638543760,0.57998812,0.209432955,-0.76923695,0.14049486925000002,0.170159132,0.18111621
349,1747638543770,0.62659144,0.20174958,-0.7393419,0.33413345,0.046729814,0.17531316
350,1747638543780,0.68467414,0.1744309,-1.2135159,0.4088859,-0.29839888,-0.051922016
351,1747638543790,0.68467414,0.1744309,-1.2135159,0.4088859,-0.29839888,-0.051922016
352,1747638543800,0.58512557,0.19857866,-1.312607,0.12850699,-0.16645588,-0.04214846
353,1747638543810,0.48469290499999995,0.196871245,-1.2551342,-0.18554486000000003,0.05654155999999999,0.09559759500000001
354,1747638543820,0.38426024,0.19516383,-1.1976614,-0.49959671,0.279539,0.23334365
355,1747638543830,0.6202496,0.092170015,-0.8171818,-0.37063158,-0.05283829,0.59557605
356,1747638543840,0.71519415,0.0695924775,-0.828767885,-0.279958935,-0.20890976,0.524717775
357,1747638543850,0.8101387,0.04701494,-0.84035397,-0.18928629,-0.36498123,0.4538595
358,1747638543860,0.9363047,0.02774552,-1.0202425,-0.19989976,-0.32771957,-0.015271181
359,1747638543870,0.84344865,0.057152725,-1.02036445,-0.32325273,-0.193333166,-0.18817913049999999
360,1747638543880,0.7505926,0.08655993,-1.0204864,-0.4466057,-0.058946762,-0.36108708
361,1747638543890,0.5397266,0.12537317,-0.834256,-0.6547519,0.2386122,-0.31283015
362,1747638543900,0.543873185,0.12354379500000001,-0.750059,-0.59366718,0.263351515,-0.266367585
363,1747638543910,0.54801977,0.12171442,-0.665862,-0.53258246,0.28809083,-0.21990502
364,1747638543920,0.7542513,0.09509701,-0.56460613,0.58954394,-0.10964708,-0.070247434
365,1747638543930,0.7542513,0.09509701,-0.56460613,0.58954394,-0.10964708,-0.070247434
366,1747638543940,0.8730997,0.08338901,-0.72052985,0.94162107,-0.22692975,-0.13011047
367,1747638543950,0.9358168,0.0697296765,-0.9536074750000001,0.763100955,-0.13224842750000002,-0.35066451
368,1747638543960,0.9985339,0.056070343,-1.1866851,0.58458084,-0.037567105,-0.57121855
369,1747638543970,0.9985339,0.056070343,-1.1866851,0.58458084,-0.037567105,-0.57121855
370,1747638543980,0.9694773,0.06533918,-1.1930269,0.2543415,0.0015271181,-0.6781168
371,1747638543990,0.9348411,0.045063604,-0.847458,-0.40422818,0.17997088,-0.82105505
372,1747638544000,0.9348411,0.045063604,-0.847458,-0.40422818,0.17997088,-0.82105505
373,1747638544010,0.93874377,0.005061271,-0.5714358,0.030695075,0.011300675,-0.933451
374,1747638544020,0.923239785,0.0159155625,-0.57424083,0.2135674775,-0.006413895999999999,-0.9233720000000001
375,1747638544030,0.9077358,0.026769854,-0.57704586,0.39643988,-0.024128467,-0.913293
376,1747638544040,0.91506865,0.039331563,-0.68979635,0.6587224,-0.06933116,-0.8314395
377,1747638544050,0.996331025,0.0118147135,-0.79094554,0.7347347,-0.33107921,-0.72637375
378,1747638544060,1.0775934,-0.015702136,-0.89209473,0.810747,-0.59282726,-0.621308
379,1747638544070,1.0717393,0.0070126047,-0.9528605,0.66368556,-0.74248487,-0.6903338
380,1747638544080,1.0308680749999999,0.02725768735,-0.98360925,0.3132119385,-0.644443885,-0.759359515
381,1747638544090,0.98999685,0.04750277,-1.014358,-0.037261683,-0.5464029,-0.82838523
382,1747638544100,0.764008,0.07119317,-0.7427568,-0.6778114,0.5141043,-0.7337039
383,1747638544110,0.74960167,0.06863205,-0.642568,-0.6594096199999999,0.6649836,-0.665594425
384,1747638544120,0.73519534,0.06607093,-0.5423792,-0.64100784,0.8158629,-0.59748495
385,1747638544130,0.758275955,0.047014939,-0.35886238000000004,-0.3955236,0.86778486,-0.49364093
386,1747638544140,0.6853601275000001,0.0771538895,-0.32396706000000003,-0.030695075000000016,0.68850121,-0.486310765
387,1747638544150,0.6124443,0.10729284,-0.28907174,0.33413345,0.50921756,-0.4789806
388,1747638544160,0.12046435,0.3594112,-0.5511602,1.0007969,-0.1291942,-0.054976255
389,1747638544170,0.045902071,0.38515964999999996,-0.60229125,1.0235509500000002,-0.0839915,0.07452336749999999
390,1747638544180,-0.028660208,0.4109081,-0.6534223,1.046305,-0.0387888,0.20402299
391,1747638544190,-0.26099083,0.4619172,-0.7832469,0.9659022,0.4621823,0.715913
392,1747638544200,-0.29271525,0.49266595,-0.8154744,0.9126439500000001,0.5229616,0.95078375
393,1747638544210,-0.32443967,0.5234147,-0.8477019,0.8593857,0.5837409,1.1856545
394,1747638544220,-0.40474924,0.57881427,-0.8830698,0.86870116,0.3791071,1.3829582
395,1747638544230,-0.54164747,0.609075185,-0.93468868,1.25811628,0.13778424499999997,1.57384795
396,1747638544240,-0.6785457,0.6393361,-0.98630756,1.6475314,-0.10353861,1.7647377
397,1747638544250,-0.79227185,0.7379089,-1.2598907,1.9260777,-0.3594836,1.9974705
398,1747638544260,-0.827670225,0.78879605,-1.40936585,1.84132265,-0.28740363,2.04817085
399,1747638544270,-0.8630686,0.8396832,-1.558841,1.7565676,-0.21532366,2.0988712
400,1747638544280,-1.05182965,0.9504823,-1.74186995,1.27025685,0.10815813999999999,2.18561145
401,1747638544290,-1.2405907,1.0612814,-1.9248989,0.7839461,0.43163994,2.2723517
402,1747638544300,-1.0378045,1.153299,-1.7460164,-1.3332505,0.26487863,3.2119112
403,1747638544310,-0.7802132500000001,1.09728965,-1.64596485,-1.9529168499999998,0.24624780000000002,3.30781425
404,1747638544320,-0.522622,1.0412803,-1.5459133,-2.5725832,0.22761697,3.4037173
405,1747638544330,0.0077138646,0.85285467,-0.9585011,-3.6443148,0.52754295,2.6438234
406,1747638544340,-0.06099441270000001,0.821618085,-0.73995173,-3.72685555,0.5593070099999999,2.24765075
407,1747638544350,-0.12970269,0.7903815,-0.52140236,-3.8093963,0.59107107,1.8514781
408,1747638544360,-0.76885587,0.81651103,-0.009390792,-2.9022117,0.42736402,1.2314681
409,1747638544370,-0.822913915,0.81638908,0.044789198999999995,-2.55857195,0.37086065,1.2497935
410,1747638544380,-0.87697196,0.81626713,0.09896919,-2.2149322,0.31435728,1.2681189
411,1747638544390,-0.5509163,0.6859547,-0.38913855,0.44187164,-0.49142662,1.1618315
412,1747638544400,-0.47110981500000004,0.65752313,-0.568020955,0.77459252,-0.55067881,0.9914050999999999
413,1747638544410,-0.39130333,0.62909156,-0.74690336,1.1073134,-0.609931,0.8209787
414,1747638544420,-0.27172315,0.5807656,-1.399228,1.4643536,-0.7650862,0.09407048
415,1747638544430,-0.311755985,0.578448385,-1.6731769,1.2690351999999998,-0.76844585,-0.11548831
416,1747638544440,-0.35178882,0.57613117,-1.9471258,1.0737168,-0.7718055,-0.3250471
417,1747638544450,-0.367277535,0.57062781,-1.93601235,0.37055522499999993,-0.605349635,-0.48539449999999995
418,1747638544460,-0.38276625,0.56512445,-1.9248989,-0.33260635,-0.43889377,-0.6457419
419,1747638544470,-0.41048125,0.51644782,-1.63840355,-0.98934346,-0.18539214,-0.6872795
420,1747638544480,-0.40639566000000005,0.51076911,-1.4039919250000001,-1.27563998,-0.08154810700000001,-0.59259819
421,1747638544490,-0.40231007,0.5050904,-1.1695803,-1.5619365,0.022295926,-0.49791688
422,1747638544500,-0.3383734,0.51097494,-0.95432395,-1.4130424,-0.05467083,-0.31527355
423,1747638544510,-0.19572788,0.53977237,-0.858175075,-1.1394974,-0.141105715,-0.17321338
424,1747638544520,-0.05308236,0.5685698,-0.7620262,-0.8659524,-0.2275406,-0.03115321
425,1747638544530,0.38596764,0.6027181,-0.83157295,-0.2715216,-0.2507528,-0.23884128
426,1747638544540,0.430634885,0.601254575,-0.844393775,-0.19020256,-0.20096875,-0.41266550999999996
427,1747638544550,0.47530213,0.59979105,-0.8572146,-0.10888352,-0.1511847,-0.58648974
428,1747638544560,0.34373957,0.61296254,-0.9218831,-0.02137965435,-0.12033690699999999,-0.9221502699999999
429,1747638544570,0.251371375,0.6143041199999999,-0.93651807,0.011186140824999996,-0.13362283349999998,-1.042945335
430,1747638544580,0.15900318,0.6156457,-0.95115304,0.043751936,-0.14690876,-1.1637404
431,1747638544590,-0.19510286,0.58003384,-0.9287127,0.13347013,-0.15790401,-0.8961893
432,1747638544600,-0.19510286,0.58003384,-0.9287127,0.13347013,-0.15790401,-0.8961893
433,1747638544610,-0.22242151,0.5690576,-0.9113946,0.21944688,-0.22204298,-0.6323033
434,1747638544620,0.006982115,0.5714967,-0.976307,0.39140037,-0.3014531,-0.2455606
435,1747638544630,0.006982115,0.5714967,-0.976307,0.39140037,-0.3014531,-0.2455606
436,1747638544640,0.15144177,0.5966202,-1.0153642,0.44064993,-0.3839175,-0.37513658
437,1747638544650,0.3535267,0.5868635,-1.1102781,0.40827504,-0.36070532,-0.6512395
438,1747638544660,0.3535267,0.5868635,-1.1102781,0.40827504,-0.36070532,-0.6512395
439,1747638544670,0.0257637,0.62125576,-1.099058,0.23815407,-0.3826958,-1.0715024
440,1747638544680,-0.044651995,0.61137713,-1.08001725,0.187988245,-0.38422292999999996,-1.04187635
441,1747638544690,-0.11506769,0.6014985,-1.0609765,0.13782242,-0.38575006,-1.0122503
442,1747638544700,-0.2309891,0.54975766,-1.002406,0.041843038,-0.27640837,-0.8540408
443,1747638544710,-0.2691773,0.5135207900000001,-0.9185749,0.031267744,-0.150573842,-0.65551545
444,1747638544720,-0.3073655,0.47728392,-0.8347438,0.02069245,-0.024739314,-0.4569901
445,1747638544730,0.22586684,0.39993185,-0.8957535,0.070552856,0.0045813546,-0.28221142
446,1747638544740,0.34680377,0.395648075,-0.9539580999999999,0.00045813299999999946,-0.013133215699999999,-0.44962176
447,1747638544750,0.4677407,0.3913643,-1.0121627,-0.06963659,-0.030847786,-0.6170321
448,1747638544760,0.38060147,0.49630946,-1.2232726,-1.0628742,0.083380654,-1.6511965
449,1747638544770,0.249054162,0.5099840449999999,-1.1676291,-1.33764095,0.26911639200000004,-1.725109
450,1747638544780,0.117506854,0.52365863,-1.1119856,-1.6124077,0.45485213,-1.7990215
451,1747638544790,-0.11358894,0.563676165,-0.85989775,-2.1112026,0.951776365,-1.6139348500000001
452,1747638544800,-0.152150645,0.5614733025,-0.74458615,-2.1914336,1.0508863325,-1.445951825
453,1747638544810,-0.19071235,0.55927044,-0.62927455,-2.2716646,1.1499963,-1.2779688
454,1747638544820,-0.11262852,0.5348788,-0.3795953,-1.7214439,0.96246624,-0.7923452
455,1747638544830,-0.11262852,0.5348788,-0.3795953,-1.7214439,0.96246624,-0.7923452
456,1747638544840,-0.07283961,0.53024435,-0.3293485,-0.99335218,0.720876085,-0.62772195
457,1747638544850,-0.0472131175,0.544147625,-0.374000475,-0.6822973050000001,0.5625139575,-0.586642475
458,1747638544860,-0.021586625,0.5580509,-0.41865245,-0.37124243,0.40415183,-0.545563
459,1747638544870,0.030154198,0.52414644,-0.6636668,0.34092912,-0.0045813546,-0.59443074
460,1747638544880,0.043203739000000005,0.527195395,-0.702236125,0.36398861,-0.0134386403,-0.623445985
461,1747638544890,0.05625328,0.53024435,-0.74080545,0.3870481,-0.022295926,-0.65246123
462,1747638544900,0.034056865,0.5514651,-0.88916767,0.23815407,0.06688777,-0.7801283
463,1747638544910,-0.0569697875,0.5833114699999999,-0.888435935,0.1219403815,0.14969575499999999,-0.745615425
464,1747638544920,-0.14799644,0.61515784,-0.8877042,0.005726693,0.23250374,-0.71110255
465,1747638544930,-0.14653294,0.61552372,-0.89026532,-0.11392301,0.30458373,-0.55167145
466,1747638544940,-0.10505186,0.6159505599999999,-0.8489672100000001,-0.225746245,0.4182013,-0.385482805
467,1747638544950,-0.06357078,0.6163774,-0.8076691,-0.33756948,0.53181887,-0.21929416
468,1747638544960,0.017470533,0.6036937,-0.7862044,-0.39491275,0.54342496,-0.005497625
469,1747638544970,0.08299264649999999,0.601620425,-0.77692032,-0.37559470500000003,0.41728502999999995,-0.0345128675
470,1747638544980,0.14851476,0.59954715,-0.76763624,-0.35627666,0.2911451,-0.06352811
471,1747638544990,0.23342825,0.5927175,-0.79376584,-0.30023143,0.06261184,-0.35803285
472,1747638545000,0.21135378999999999,0.5967421500000001,-0.7750909699999999,-0.284654825,0.08521319,-0.458211795
473,1747638545010,0.18927933,0.6007668,-0.7564161,-0.26907822,0.10781454,-0.55839074
474,1747638545020,-0.029148044,0.6027181,-0.6670816,-0.20425205,0.1163664,-0.6347467
475,1747638545030,-0.029148044,0.6027181,-0.6670816,-0.07963921,0.13476817,-0.59076566
476,1747638545040,-0.13458103,0.58661956,-0.64317775,0.07925743,0.1830251,-0.43683216
477,1747638545050,-0.05552153,0.5536604,-0.6893085,0.36459947,0.17080817,0.007330167
478,1747638545060,-0.05552153,0.5536604,-0.6893085,0.36459947,0.17080817,0.007330167
479,1747638545070,0.13412368,0.5178046,-0.7586113,0.39017868,0.086434886,0.07513421
480,1747638545080,0.24150799,0.513033,-0.78911615,0.34845019,-0.013133216999999989,-0.062611845
481,1747638545090,0.3488923,0.5082614,-0.819621,0.3067217,-0.11270132,-0.2003579
482,1747638545100,0.21050009,0.5265856,-0.76641667,0.2618244,-0.22937314,-0.63352495
483,1747638545110,0.1460756,0.53341527,-0.770441285,0.28893075,-0.230289415,-0.6252785249999999
484,1747638545120,0.08165111,0.54024494,-0.7744659,0.3160371,-0.23120569,-0.6170321
485,1747638545130,-0.07771795,0.54902595,-0.7290974,0.4225536,-0.10903624,-0.34092912
486,1747638545140,-0.09846611499999999,0.5519529249999999,-0.74385435,0.459967985,-0.05375456095,-0.13045406299999998
487,1747638545150,-0.11921428,0.5548799,-0.7586113,0.49738237,0.0015271181,0.080020994
488,1747638545160,0.22245201,0.49777296,-0.870874,0.34092912,0.12927055,0.39338565
489,1747638545170,0.29689233,0.49448008,-0.88331375,0.283624015,0.1173208525,0.366813775
490,1747638545180,0.37133265,0.4911872,-0.8957535,0.22631891,0.105371155,0.3402419
491,1747638545190,0.45697787,0.4533801,-0.8850212,-0.08521319,-0.049784053,-0.23823044
492,1747638545200,0.376576835,0.46581986,-0.8419546499999999,-0.09269606999999999,-0.0430647315,-0.317373335
493,1747638545210,0.2961758,0.47825962,-0.7988881,-0.10017895,-0.03634541,-0.39651623
494,1747638545220,0.019665781,0.47728392,-0.6939429,0.078035735,0.04550812,-0.26327518
495,1747638545230,0.019665781,0.47728392,-0.6939429,0.078035735,0.04550812,-0.26327518
496,1747638545240,0.020641448,0.4867967,-0.7996198,0.22815146,0.23128204,0.47279578
497,1747638545250,0.129733174,0.47374716,-0.822929115,0.18172706,0.27037627,0.5332696699999999
498,1747638545260,0.2388249,0.46069762,-0.84623843,0.13530266,0.3094705,0.59374356
499,1747638545270,0.460148785,0.432006915,-0.8796549499999999,-0.062764555,0.18852274,0.32130566
500,1747638545280,0.4724818175,0.4298726425,-0.853540675,-0.08429692250000001,0.130148645,0.1597365591
501,1747638545290,0.48481485,0.42773837,-0.8274264,-0.10582929,0.07177455,-0.0018325418
502,1747638545300,0.3708448,0.43578765,-0.7330001,-0.03978143,0.024128467,-0.14538164
503,1747638545310,0.23563874699999998,0.43603155000000005,-0.7206670500000001,0.083304295,0.1115178035,-0.11911521250000001
504,1747638545320,0.100432694,0.43627545,-0.708334,0.20639002,0.19890714,-0.092848785
505,1747638545330,0.059912033,0.47411305,-0.72516423,0.15904936,1.0846356,0.45202696
506,1747638545340,0.1353280215,0.470942125,-0.713212315,0.15530792,1.1594644,0.537240145
507,1747638545350,0.21074401,0.4677712,-0.7012604,0.15156648,1.2342932,0.62245333
508,1747638545360,0.84672624,0.4252992,-0.78986317,0.18142164,0.7761578,0.27243787
509,1747638545370,0.84672624,0.4252992,-0.78986317,0.18142164,0.7761578,0.27243787
510,1747638545380,0.70177877,0.46557596,-0.71174884,0.46806172,0.47623178,-0.7880693
511,1747638545390,0.541434035,0.46557596,-0.6967479700000001,0.5795795100000001,0.52601584,-0.861370975
512,1747638545400,0.3810893,0.46557596,-0.6817471,0.6910973,0.5757999,-0.93467265
513,1747638545410,-0.03404162349999999,0.42871404,-0.72091097,0.887370195,0.6646781850000001,-0.57182938
514,1747638545420,-0.12823156674999997,0.392477155,-0.773192985,0.8702473775,0.6535302225,-0.0018707200000001034
515,1747638545430,-0.22242151,0.35624027,-0.825475,0.85312456,0.64238226,0.56808794
516,1747638545440,0.06896744,0.34575188,-0.87867934,0.7652389,0.5373165,1.0518789
517,1747638545450,0.45699312,0.30754844000000003,-0.9865514200000001,0.607945735,0.247736731,1.2000094
518,1747638545460,0.8450188,0.269345,-1.0944235,0.45065257,-0.041843038,1.3481399
519,1747638545470,1.175221,0.3606308,-1.2091254,-0.28091338,0.018630842,0.65910417
520,1747638545480,1.1733916500000001,0.36136254999999995,-1.1903286,-0.47901878999999997,0.050394896,0.56778252
521,1747638545490,1.1715623,0.3620943,-1.1715318,-0.6771242,0.08215895,0.47646087
522,1747638545500,1.0751542,0.35160586,-0.9194439,-1.0098833,0.22456272,0.35368055
523,1747638545510,1.04123455,0.34463900000000003,-0.86660545,-1.0778018500000002,0.31130302499999996,0.25655584
524,1747638545520,1.0073149,0.33767214,-0.813767,-1.1457204,0.39804333,0.15943113
525,1747638545530,0.8542876,0.12756842,-0.722969,-0.6086329,0.19707459,0.073912516
526,1747638545540,0.85379978,0.097551425,-0.7524981799999999,-0.534491335,0.127399827,0.058946758
527,1747638545550,0.85331196,0.06753443,-0.78202736,-0.46034977,0.057725064,0.043981
528,1747638545560,0.8581903,0.06143651,-0.8313289,-0.18745375,-0.21959959,-0.029320668
529,1747638545570,0.8581903,0.06143651,-0.8313289,-0.18745375,-0.21959959,-0.029320668
530,1747638545580,0.8452627,0.13854466,-0.83937824,0.123467505,-0.1731752,-0.14538164
531,1747638545590,0.91627294,0.23080614,-0.87477666,0.23876493,-0.12858334,-0.21074231
532,1747638545600,0.91627294,0.23080614,-0.87477666,0.23876493,-0.12858334,-0.21074231
533,1747638545610,0.96923333,0.3266959,-0.93017626,0.35719293,-0.09132166,-0.27243787
534,1747638545620,1.000225965,0.3275496,-0.95677838,0.444391365,-0.1383569,-0.41174921500000006
535,1747638545630,1.0312186,0.3284033,-0.9833805,0.5315898,-0.18539214,-0.55106056
536,1747638545640,1.0497868,0.29254755,-1.0138701,0.46180052,-0.20677179,-0.7025507
537,1747638545650,1.02903865,0.24666073,-0.9692181,0.36773005999999997,-0.186002985,-0.76791137
538,1747638545660,1.0082905,0.20077391,-0.9245661,0.2736596,-0.16523418,-0.83327204
539,1747638545670,0.9563058,0.19370033,-0.9077358,0.16775393,-0.1835596,-0.91023874
540,1747638545680,0.90517475,0.20821336499999998,-0.90432103,0.117282675,-0.127361655,-0.914820105
541,1747638545690,0.8540437,0.2227264,-0.90090626,0.06681142,-0.07116371,-0.91940147
542,1747638545700,0.6736979,0.24300198,-0.78080773,-0.021685077,0.018630842,-0.69583136
543,1747638545710,0.67430765,0.245563105,-0.7316432900000001,-0.010460758950000001,-0.047035239,-0.559917855
544,1747638545720,0.6749174,0.24812423,-0.68247885,0.0007635591,-0.11270132,-0.42400435
545,1747638545730,0.85306805,0.23178181,-0.6107064,0.06925481,-0.43522868,-0.31038678
546,1747638545740,0.902247755,0.23348923500000002,-0.6461048,0.05898494,-0.51433339,-0.51746399
547,1747638545750,0.95142746,0.23519666,-0.6815032,0.04871507,-0.5934381,-0.7245412
548,1747638545760,0.621957,0.3354769,-0.56045955,0.28610557,-0.6447493,-0.9951465
549,1747638545770,0.543019485,0.32815939000000005,-0.579241125,0.42289718499999995,-0.71805095,-0.9658258500000001
550,1747638545780,0.46408197,0.32084188,-0.5980227,0.5596888,-0.7913526,-0.9365052
551,1747638545790,0.23980057,0.31840274,-0.7527573,0.85999656,-0.8951967,-0.5186857
552,1747638545800,0.23980057,0.31840274,-0.7527573,0.85999656,-0.8951967,-0.5186857
553,1747638545810,0.26028958,0.32645196,-0.8477019,0.82884336,-0.97888273,-0.13988402
554,1747638545820,0.6007363,0.35428897,-1.0348774,0.12598725,-0.66246384,0.01343864
555,1747638545830,0.6007363,0.35428897,-1.0348774,0.12598725,-0.66246384,0.01343864
556,1747638545840,0.6393056,0.41724995,-1.0097235,-0.19363858,-0.5066978,-0.15698774
557,1747638545850,0.37255222,0.5048465,-0.75666,-0.65162134,-0.27335414,-0.8656469
558,1747638545860,0.226125995,0.51193535,-0.7005287,-0.55877255,-0.193944002,-0.9343672
559,1747638545870,0.07969977,0.5190242,-0.6443974,-0.46592376,-0.114533864,-1.0030875
560,1747638545880,-0.16264669,0.5590417700000001,-0.5904613000000001,-0.08677849500000001,-0.182032482,-0.72576288
561,1747638545890,-0.40499315,0.59905934,-0.5365252,0.29236677,-0.2495311,-0.44843826
562,1747638545900,-0.24977067,0.61101127,-0.7168711,1.0431744,-1.2103938,0.6426113
563,1747638545910,-0.193517385,0.60979167,-0.7904577349999999,1.0730677499999999,-1.429688,0.67254283
564,1747638545920,-0.1372641,0.60857207,-0.86404437,1.1029611,-1.6489822,0.70247436
565,1747638545930,-0.231233,0.7335184,-1.2349806,0.6431458,-1.5353645500000002,0.63131064
566,1747638545940,-0.359716115,0.7380461,-1.176776,0.16088188999999997,-1.0598199750000001,0.69438062
567,1747638545950,-0.48819923,0.7425738,-1.1185714,-0.32138202,-0.5842754,0.7574506
568,1747638545960,-0.5950957,0.7088828,-0.89282644,-0.6678088,-0.25808296,0.9736905
569,1747638545970,-0.700894565,0.68411,-0.805092695,-0.62386595,-0.47768255,1.0656230500000001
570,1747638545980,-0.80669343,0.6593372,-0.71735895,-0.5799231,-0.69728214,1.1575556
571,1747638545990,-0.9233466,0.5944249,-0.65537363,-0.3444415,-1.3643273,1.7891716
572,1747638546000,-0.9061351799999999,0.5757500200000001,-0.643543665,-0.32046574,-1.33867175,1.8844638
573,1747638546010,-0.88892376,0.55707514,-0.6317137,-0.29648998,-1.3130162,1.979756
574,1747638546020,-0.86502,0.5693015,-0.6175665,-0.2933594,-1.2708677,2.0219045
575,1747638546030,-0.985088,0.618465965,-0.63098195,-0.33978379000000003,-1.19145755,2.0842109000000004
576,1747638546040,-1.105156,0.66763043,-0.6443974,-0.38620818,-1.1120474,2.1465173
577,1747638546050,-1.2657446,0.8233407,-0.625128,-0.58122116,-0.9202414,2.60534
578,1747638546060,-1.1991095500000002,0.8556749,-0.6116973,-0.63512843,-0.88939362,2.7238442999999997
579,1747638546070,-1.1324745,0.8880091,-0.5982666,-0.6890357,-0.85854584,2.8423486
580,1747638546080,-0.48405263,0.8711789,-0.5560385,-0.9369633,-0.89397496,2.5833495
581,1747638546090,-0.48405263,0.8711789,-0.5560385,-0.9369633,-0.89397496,2.5833495
582,1747638546100,-0.3734974,0.8243164,-0.4130424,-1.0840248,-0.48531815,1.1453387
583,1747638546110,-0.505166665,0.8521381699999999,-0.37448832499999996,-0.99304675,-0.45385952500000004,0.9324584
584,1747638546120,-0.63683593,0.87995994,-0.33593425,-0.9020687,-0.4224009,0.7195781
585,1747638546130,-0.94139636,0.94194525,-0.34227607,-0.11392301,-0.42728767,0.37628192
586,1747638546140,-0.8902653300000001,0.9125380249999999,-0.44452288500000003,0.19886896000000004,-0.46668731,0.40621343499999996
587,1747638546150,-0.8391343,0.8831308,-0.5467697,0.51166093,-0.50608695,0.43614495
588,1747638546160,-0.4555144,0.74574476,-0.8362074,0.7041923800000001,-0.503032715,0.28984702500000004
589,1747638546170,-0.36727752999999996,0.725118545,-0.9195506499999999,0.57150489,-0.42545510750000004,0.05421269250000002
590,1747638546180,-0.27904066,0.70449233,-1.0028939,0.4388174,-0.3478775,-0.18142164
591,1747638546190,-0.25830775,0.6871742,-1.0417072,-0.3276432,0.18241426,-0.721487
592,1747638546200,-0.28820279000000004,0.699492,-0.952753835,-0.4625259,0.25632678,-0.78104458
593,1747638546210,-0.31809783,0.7118098,-0.86380047,-0.5974086,0.3302393,-0.84060216
594,1747638546220,-0.3556915,0.68522286,-0.70443135,-0.6447493,0.40231928,-0.89985436
595,1747638546230,-0.366545785,0.6890035800000001,-0.6486659,-0.56499555,0.43011282500000003,-0.8433510049999999
596,1747638546240,-0.37740007,0.6927843,-0.59290045,-0.4852418,0.45790637,-0.78684765
597,1747638546250,-0.291632885,0.69095497,-0.5338421250000001,-0.166570417,0.39010233,-0.54403584
598,1747638546260,-0.2072529525,0.6916257349999999,-0.5521511125,-0.0489632285,0.343067095,-0.48218755
599,1747638546270,-0.12287302,0.6922965,-0.5704601,0.06864396,0.29603186,-0.42033926
600,1747638546280,0.0521067,0.6566542,-0.73836625,0.10414946,0.4414135,-0.71171343
601,1747638546290,0.0241629958,0.6594591999999999,-0.746903325,0.090138148,0.46920705,-0.80181339
602,1747638546300,-0.0037807084,0.6622642,-0.7554404,0.076126836,0.4970006,-0.89191335
603,1747638546310,-0.21656752,0.65519065,-0.819621,0.07673769,0.55442023,-0.9951465
604,1747638546320,-0.31358539,0.635540125,-0.8358567,0.034054736249999995,0.679033065,-0.837853365
605,1747638546330,-0.41060326,0.6158896,-0.8520924,-0.0086282175,0.8036459,-0.68056023
606,1747638546340,-0.40229483,0.5995471750000001,-0.835124915,-0.016721943750000003,0.8369371,-0.568775165
607,1747638546350,-0.3939864,0.58320475,-0.81815743,-0.02481567,0.8702283,-0.4569901
608,1747638546360,-0.32969911500000004,0.538049685,-0.7910675,0.01885991,0.8580113,-0.29137415
609,1747638546370,-0.20248894750000002,0.5373179275,-0.8226775500000001,0.097048355,0.7129351,-0.25655585000000003
610,1747638546380,-0.07527878,0.53658617,-0.8542876,0.1752368,0.5678589,-0.22173755
611,1747638546390,0.0018293752,0.55292857,-0.93188363,0.17645851,0.49089214,-0.35803285
612,1747638546400,-0.0562532774,0.589058735,-0.989234515,0.03596363699999999,0.501276535,-0.523877875
613,1747638546410,-0.11433593,0.6251889,-1.0465854,-0.104531236,0.51166093,-0.6897229
614,1747638546420,-0.3734974,0.67714316,-0.94090855,-0.5687752,0.79020727,-0.47165045
615,1747638546430,-0.42462844,0.6750698799999999,-0.90820846,-0.62890545,0.897410985,-0.340280105
616,1747638546440,-0.47575948,0.6729966,-0.87550837,-0.6890357,1.0046147,-0.20890976
617,1747638546450,-0.38386385,0.67567965,-0.78301825,-0.76096299,1.16068615,0.245560605
618,1747638546460,-0.270076725,0.654580875,-0.814994225,-0.9383758950000001,1.119912075,0.3277195625
619,1747638546470,-0.1562896,0.6334821,-0.8469702,-1.1157888,1.079138,0.40987852
620,1747638546480,-0.040612124,0.624945,-0.95776933,-1.1157888,1.079138,0.40987852
621,1747638546490,-0.02378187475,0.619197735,-0.851116765,-1.26846245,1.29659965,0.334438875
622,1747638546500,-0.0069516255,0.61345047,-0.7444642,-1.4211361,1.5140613,0.25899923
623,1747638546510,-0.0916212,0.68424726,-0.46283188,-1.0678374,1.4798539,0.263886
624,1747638546520,-0.11395481499999999,0.7036386299999999,-0.43476623,-0.6725046699999999,1.1933665,0.40774055
625,1747638546530,-0.13628843,0.72303,-0.40670058,-0.27717194,0.9068791,0.5515951
626,1747638546540,-0.12872702,0.7394029,-0.5160362,-0.27717194,0.9068791,0.5515951
627,1747638546550,-0.12872702,0.7394029,-0.5160362,-0.27717194,0.9068791,0.5515951
628,1747638546560,0.045764867,0.70327276,-0.627811,0.3858264,0.71140796,0.99934614
629,1747638546570,0.0811480285,0.68984208,-0.6622185,0.423202615,0.701634405,0.9810207200000001
630,1747638546580,0.11653119,0.6764114,-0.696626,0.46057883,0.69186085,0.9626953
631,1747638546590,0.352047975,0.65421502,-0.774831805,0.48516543,0.69155547,0.727519095
632,1747638546600,0.45296088749999996,0.652507595,-0.7941774525,0.480965865,0.589696675,0.5186093325
633,1747638546610,0.5538738,0.65080017,-0.8135231,0.4767663,0.48783788,0.30969957
634,1747638546620,0.39987087,0.69180864,-0.9526166,0.27862272,0.110868774,-0.8864157
635,1747638546630,0.2783394,0.7163375,-0.9565345000000001,0.19325681,0.156109652,-0.9413919500000001
636,1747638546640,0.15680793,0.74086636,-0.9604524,0.1078909,0.20135053,-0.9963682
637,1747638546650,-0.15214302,0.74720824,-0.8091326,-0.122627586,0.52326703,-0.5528931
638,1747638546660,-0.162646685,0.73658262,-0.76031877,-0.118275298,0.597484965,-0.310348573
639,1747638546670,-0.17315035,0.725957,-0.71150494,-0.11392301,0.6717029,-0.067804046
640,1747638546680,0.1167751,0.68007016,-0.6749174,-0.0023670332,0.63444126,0.27732465
641,1747638546690,0.1167751,0.68007016,-0.6749174,0.091703445,0.5379274,0.431869
642,1747638546700,0.5965897,0.63567734,-0.7444642,0.25556323,0.06383354,0.1123959
643,1747638546710,0.64052516,0.6320186,-0.73495144,0.27304873,-0.13896775,-0.25716668
644,1747638546720,0.64052516,0.6320186,-0.73495144,0.27304873,-0.13896775,-0.25716668
645,1747638546730,0.54631233,0.64226305,-0.73397577,0.26991814,-0.28068432,-0.59870666
646,1747638546740,0.406471865,0.6489707499999999,-0.713959335,0.237848655,-0.21868332499999998,-0.7095754299999999
647,1747638546750,0.2666314,0.65567845,-0.6939429,0.20577917,-0.15668233,-0.8204442
648,1747638546760,-0.025245376,0.6105234,-0.554575,0.401403,0.2386122,-0.46248773
649,1747638546770,-0.0647751205,0.59930325,-0.5288418,0.53101715,0.215094585,-0.254150638
650,1747638546780,-0.104304865,0.5880831,-0.5031086,0.6606313,0.19157697,-0.045813546
651,1747638546790,0.0831146,0.5380497,-0.5570447,1.0369133,-0.074217945,0.41537613
652,1747638546800,0.27750093,0.5176674,-0.67833225,1.1073515999999999,-0.24433889749999999,0.394607315
653,1747638546810,0.47188726,0.4972851,-0.7996198,1.1777899,-0.41445985,0.3738385
654,1747638546820,0.625128,0.49021152,-0.9946007,1.00576,-0.5005893,0.032374904
655,1747638546830,0.5836468800000001,0.49655336,-1.00008885,0.696709475,-0.36101071500000004,-0.313097398
656,1747638546840,0.54216576,0.5028952,-1.005577,0.38765895,-0.22143213,-0.6585697
657,1747638546850,0.16290584,0.49143112,-0.76788014,-0.026037365,0.37788537,-0.87358797
658,1747638546860,0.0784649408,0.486796695,-0.70138237,0.0334820625,0.42553146,-0.77096561
659,1747638546870,-0.0059759584,0.48216227,-0.6348846,0.09300149,0.47317755,-0.66834325
660,1747638546880,-0.18656576,0.49679726,-0.60924286,0.44752198,0.2502183,-0.0219905
661,1747638546890,-0.15167043,0.5110816300000001,-0.62169783,0.5989357399999999,-0.027755379999999996,0.346044975
662,1747638546900,-0.1167751,0.525366,-0.6341528,0.7503495,-0.30572906,0.71408045
663,1747638546910,0.48042434,0.43432412,-0.8740449,0.7472189,-0.49997848,0.60840386
664,1747638546920,0.55925517,0.42407963,-0.90772063,0.698312935,-0.512806265,0.43431240000000004
665,1747638546930,0.638086,0.41383514,-0.94139636,0.64940697,-0.52563405,0.26022094
666,1747638546940,0.5062795,0.38502246,-0.8723375,0.48989952,-0.2507528,-0.56266665
667,1747638546950,0.5062795,0.38502246,-0.8723375,0.48989952,-0.2507528,-0.56266665
668,1747638546960,0.32276276,0.3867299,-0.80571777,0.5210527,-0.08765658,-0.6481853
669,1747638546970,-0.034514207,0.4533801,-0.78227127,0.6450547,0.24288814,-0.29565006
670,1747638546980,-0.034514207,0.4533801,-0.78227127,0.6450547,0.24288814,-0.29565006
671,1747638546990,0.016982697,0.46581987,-0.82620674,0.6923954,0.036956258,0.72202146
672,1747638547000,0.1270500985,0.448486555,-0.8825820200000001,0.6334868,-0.036956258,0.8426637800000001
673,1747638547010,0.2371175,0.43115324,-0.9389573,0.5745782,-0.110868774,0.9633061
674,1747638547020,0.531067565,0.33695564,-0.968501625,0.33222456,-0.0421484595,0.934290875
675,1747638547030,0.5778538325,0.31011717,-0.9498267625000001,0.2119640025,0.009009998249999998,0.7356128024999999
676,1747638547040,0.6246401,0.2832787,-0.9311519,0.091703445,0.060168456,0.53693473
677,1747638547050,0.5568008,0.28669357,-0.90383315,-0.004886778,0.20562646,0.40010494
678,1747638547060,0.44453814,0.2936452,-0.85733655,-0.07589776899999999,0.37452571,0.44072629500000005
679,1747638547070,0.33227548,0.30059683,-0.81083995,-0.14690876,0.54342496,0.48134765
680,1747638547080,0.38865072,0.2891327,-0.639519,-0.14568707,0.59717953,0.9565868
681,1747638547090,0.50213296,0.274604435,-0.642446,-0.07372162795000001,0.462487725,1.01156305
682,1747638547100,0.6156152,0.26007617,-0.645373,-0.0017561859,0.32779592,1.0665393
683,1747638547110,0.9594767,0.28644964,-0.7444642,0.2985516,-0.05650337,0.86923563
684,1747638547120,0.9594767,0.28644964,-0.7444642,0.2985516,-0.05650337,0.86923563
685,1747638547130,0.98804545,0.2874253,-0.9604524,0.5465556,-0.105371155,0.38055784
686,1747638547140,0.939841445,0.31732034,-1.0068118,0.503567215,-0.1261399575,0.32497074
687,1747638547150,0.89163744,0.34721538,-1.0531712,0.46057883,-0.14690876,0.26938364
688,1747638547160,0.8101235,0.37477797,-1.13236795,0.14530529,-0.12491827,0.24739315
689,1747638547170,0.8159851,0.36416760000000004,-1.122298775,-0.128239745,0.013171390000000005,0.26296975499999997
690,1747638547180,0.8218467,0.35355723,-1.1122296,-0.40178478,0.15126105,0.27854636
691,1747638547190,0.9226453,0.27275982,-0.98703927,-0.8522846,0.44996536,0.22906773
692,1747638547200,0.93386547,0.23566924,-0.893573465,-0.90680275,0.42736401,0.07849387499999999
693,1747638547210,0.94508564,0.19857866,-0.80010766,-0.9613209,0.40476266,-0.07207998
694,1747638547220,0.8489215,0.1961395,-0.6534223,-0.5799231,0.05222744,-0.3586437
695,1747638547230,0.81902645,0.196017535,-0.6595202,-0.39926503,-0.0387888,-0.40445723499999997
696,1747638547240,0.7891314,0.19589557,-0.6656181,-0.21860696,-0.12980504,-0.45027077
697,1747638547250,0.7249508,0.19516383,-0.77617335,0.1078909,-0.1719535,-0.51196635
698,1747638547260,0.729463285,0.193822285,-0.795092125,0.19951799999999997,-0.103844032,-0.53640026
699,1747638547270,0.73397577,0.19248074,-0.8140109,0.2911451,-0.035734564,-0.56083417
700,1747638547280,0.7334879,0.18687066,-0.83937824,0.3503209,0.024128467,-0.59809583
701,1747638547290,0.7334879,0.18687066,-0.83937824,0.3503209,0.024128467,-0.59809583
702,1747638547300,0.7532757,0.16735733,-0.86819094,0.3814741,0.05283829,-0.6353575
703,1747638547310,0.76205665,0.16857691,-0.8967291,0.39766157,0.064444385,-0.73126054
704,1747638547320,0.76205665,0.16857691,-0.8967291,0.39766157,0.064444385,-0.73126054
705,1747638547330,0.76791066,0.1387886,-0.8830698,0.38086328,-0.1603474,-0.7446992
706,1747638547340,0.79024428,0.13756900500000002,-0.8896555500000001,0.381474125,-0.21715620000000002,-0.73889615
707,1747638547350,0.8125779,0.13634941,-0.8962413,0.38208497,-0.273965,-0.7330931
708,1747638547360,0.8342865,0.122934,-1.0121627,0.20203774,-0.2599155,-0.6897229
709,1747638547370,0.8483117,0.14147167,-0.976291725,0.06742227249999999,-0.14110571300000002,-0.67597885
710,1747638547380,0.8623369,0.16000934,-0.94042075,-0.067193195,-0.022295926,-0.6622348
711,1747638547390,0.8757828,0.15171617,-0.8745327,-0.14507623,0.042453885,-0.6872795
712,1747638547400,0.820261275,0.16648837,-0.85097955,-0.14164021,0.08891645249999999,-0.73828525
713,1747638547410,0.76473975,0.18126057,-0.8274264,-0.13820419,0.13537902,-0.789291
714,1747638547420,0.57680196,0.2195555,-0.77934426,-0.14751962,0.18974443,-0.39529455
715,1747638547430,0.57692391,0.222253825,-0.776417255,-0.17214439999999998,0.13381373,-0.250790985
716,1747638547440,0.57704586,0.22495215,-0.77349025,-0.19676918,0.07788303,-0.10628742
717,1747638547450,0.661502,0.23812364,-0.77934426,-0.29648998,-0.2855711,0.067193195
718,1747638547460,0.6829819,0.263872095,-0.78068581,-0.370631575,-0.361927,0.062917266
719,1747638547470,0.7044618,0.28962055,-0.78202736,-0.44477317,-0.4382829,0.058641337
720,1747638547480,0.74665946,0.2944989,-0.6626911,-0.45599747,-0.28862533,-0.24067383
721,1747638547490,0.71786203,0.2991333,-0.64061665,-0.318289595,-0.19638739500000002,-0.341196385
722,1747638547500,0.6890646,0.3037677,-0.6185422,-0.18058172,-0.10414946,-0.44171894
723,1747638547510,0.39230946,0.31767097,-0.61707866,-0.05283829,-0.06139015,-0.33115557
724,1747638547520,0.354609105,0.317792935,-0.65026658,-0.0378725315,-0.06780404749999999,-0.170464563
725,1747638547530,0.31690875,0.3179149,-0.6834545,-0.022906773,-0.074217945,-0.009773556
726,1747638547540,0.318128325,0.36111863,-0.6955283800000001,-0.1375551615,-0.15851486250000002,0.18691925700000003
727,1747638547550,0.3193479,0.40432236,-0.70760226,-0.25220355,-0.24281178,0.38361207
728,1747638547560,0.41429248,0.5609778,-0.6639107,-0.5954997,-0.32588702,0.29137415
729,1747638547570,0.35645373,0.5705058199999999,-0.6463487,-0.584619,-0.229067725,0.264191445
730,1747638547580,0.29861498,0.58003384,-0.6287867,-0.5737383,-0.13224843,0.23700874
731,1747638547590,0.045764867,0.68400335,-0.6534223,-0.42171368,-0.0021379655,0.5131117
732,1747638547600,0.0805382335,0.6648406250000001,-0.6440315,-0.35753654,-0.14935215275,0.677735025
733,1747638547610,0.1153116,0.6456779,-0.6346407,-0.2933594,-0.29656634,0.84235835
734,1747638547620,0.17266251,0.6398239,-0.6380555,-0.068109471,-0.8704573,0.78005195
735,1747638547630,0.08285544225,0.700223765,-0.6949186,-0.0009544505000000092,-0.9802571,0.770889255
736,1747638547640,-0.0069516255,0.76062363,-0.7517817,0.06620057,-1.0900569,0.76172656
737,1747638547650,-0.443532,0.84358585,-1.0663427,-0.08460235,-0.793796,1.1013576
738,1747638547660,-0.443532,0.84358585,-1.0663427,-0.08460235,-0.793796,1.1013576
739,1747638547670,-0.5655513,0.8370001,-1.1175957,-0.4130091,-0.5286883,1.4666443
740,1747638547680,-0.52907052,0.8234627,-1.0270569,-0.619551835,-0.53601845,1.66425335
741,1747638547690,-0.49258974,0.8099253,-0.9365181,-0.82609457,-0.5433486,1.8618624
742,1747638547700,-0.58704644,0.82553595,-0.82620674,-0.64352757,-0.9807153,1.6963228
743,1747638547710,-0.6674627049999999,0.85652861,-0.83315834,-0.592445465,-1.05523865,1.7158699
744,1747638547720,-0.74787897,0.88752127,-0.84010994,-0.54136336,-1.129762,1.735417
745,1747638547730,-0.84279305,0.9780754,-0.8933143,-0.569958665,-1.2458230000000001,1.85667025
746,1747638547740,-0.900875725,1.03140165,-0.923941075,-0.7279199574999999,-0.9819369800000001,1.967080875
747,1747638547750,-0.9589584,1.0847279,-0.95456785,-0.88588125,-0.71805096,2.0774915
748,1747638547760,-0.8803867,1.2606833,-0.7984003,-0.9102006,-0.68140013,2.09612235
749,1747638547770,-0.8114498,1.2659275,-0.7674076,-0.90800535,-0.680789265,2.079476775
750,1747638547780,-0.7425129,1.2711717,-0.7364149,-0.9058101,-0.6801784,2.0628312
751,1747638547790,-0.38740066,1.2072351,-0.6317137,-0.6971294,-0.74248487,1.331647
752,1747638547800,-0.38740066,1.2072351,-0.6317137,-0.6971294,-0.74248487,1.331647
753,1747638547810,-0.30687764,1.1550064,-0.59460783,-0.6323033,-0.71438587,0.77638686
754,1747638547820,-0.2502585,1.0337188,-0.5299394,-0.48027867,-0.79440683,-0.043981
755,1747638547830,-0.2502585,1.0337188,-0.5299394,-0.48027867,-0.79440683,-0.043981
756,1747638547840,-0.47575948,0.95340925,-0.5921687,-0.184934,-0.8921424,-0.6970531
757,1747638547850,-0.47575948,0.95340925,-0.5921687,-0.184934,-0.8921424,-0.6970531
758,1747638547860,-0.47575948,0.95340925,-0.5921687,-0.184934,-0.8921424,-0.6970531
759,1747638547870,-0.53115904,0.89313143,-0.6773566,-0.38994962,-0.56533915,-0.4777589
760,1747638547880,-0.441717845,0.84969899,-0.6490470150000001,-0.45534846,-0.485929,-0.42858569999999996
761,1747638547890,-0.35227665,0.80626655,-0.62073743,-0.5207473,-0.40651885,-0.3794125
762,1747638547900,-0.0030489585,0.69790655,-0.60314494,-0.86160004,-0.13469182,-0.5571691
763,1747638547910,0.034056863750000006,0.689110305,-0.60399867,-0.95631957,-0.060168454499999996,-0.6597914199999999
764,1747638547920,0.071162686,0.68031406,-0.6048524,-1.0510391,0.014354911,-0.76241374
765,1747638547930,-0.05430195,0.7276644,-0.59338826,-1.5426184,0.53242975,-1.0837194
766,1747638547940,-0.10285661500000001,0.72498133,-0.58107048,-1.6463478999999999,0.662845625,-1.08677365
767,1747638547950,-0.15141128,0.72229826,-0.5687527,-1.7500774,0.7932615,-1.0898279
768,1747638547960,-0.32004914,0.70400447,-0.46210015,-1.9438686,1.2770525,-0.91023874
769,1747638547970,-0.34213886000000004,0.702540985,-0.417554855,-1.9214581499999999,1.29446165,-0.8696174000000001
770,1747638547980,-0.36422858,0.7010775,-0.37300956,-1.8990477,1.3118708,-0.82899606
771,1747638547990,-0.32126877,0.8126084,-0.05722895,-0.888401,0.9380323,-0.33482066
772,1747638548000,-0.32126877,0.8126084,-0.05722895,-0.888401,0.9380323,-0.33482066
773,1747638548010,-0.17900434,0.82577986,-0.100432694,-0.29648998,0.807311,-0.167983
774,1747638548020,0.03210553,0.86532485,-0.37398523,0.51227176,0.77127105,-0.17042638
775,1747638548030,0.03210553,0.86532485,-0.37398523,0.51227176,0.77127105,-0.17042638
776,1747638548040,0.23565398,0.86971533,-0.74861073,0.6621584300000001,0.65246125,-0.50830129
777,1747638548050,0.19464551,0.8616661,-0.92505395,0.39643988,0.62527853,-0.90840626
778,1747638548060,0.14680735,0.8539675,-0.971794475,0.25437971000000004,0.69002834,-0.98506753
779,1747638548070,0.09896919,0.8462689,-1.018535,0.11231954,0.75477815,-1.0617288
780,1747638548080,-0.07966928,0.8838625499999999,-0.95068045,-0.30393468,0.970101825,-0.98170785
781,1747638548090,-0.25830775,0.9214562,-0.8828259,-0.7201889,1.1854255,-0.9016869
782,1747638548100,-0.29199874,0.9319446,-0.74861073,-0.8322794,1.2568946,-0.6109236
783,1747638548110,-0.223168505,0.92657845,-0.692113545,-0.785855,1.28988035,-0.44962176
784,1747638548120,-0.15433827,0.9212123,-0.63561636,-0.7394306,1.3228661,-0.28831992
785,1747638548130,0.05844853,0.90727854,-0.45844138,-0.16187452,1.0815815,-0.21685077
786,1747638548140,0.079196695,0.89593642,-0.4616123,-0.003932330000000012,0.9194015,-0.25411246
787,1747638548150,0.09994486,0.8845943,-0.46478322,0.15400986,0.7572215,-0.29137415
788,1747638548160,0.102140106,0.82870686,-0.5514041,0.5085303,0.4218664,-0.4557684
789,1747638548170,0.058463777499999994,0.8063732299999999,-0.59314435,0.56369748,0.41606335,-0.5122718
790,1747638548180,0.014787449,0.7840396,-0.6348846,0.61886466,0.4102603,-0.5687752
791,1747638548190,-0.10994543,0.75940406,-0.6958943,0.53724015,0.5886277,-0.4966952
792,1747638548200,-0.144109015,0.7788106800000001,-0.65977937,0.467756285,0.70163445,-0.40567895
793,1747638548210,-0.1782726,0.7982173,-0.62366444,0.39827242,0.8146412,-0.3146627
794,1747638548220,-0.010366458,0.78550315,-0.55042845,0.19142427,0.92948043,0.2754921
795,1747638548230,0.097261771,0.768672875,-0.516142925,0.22349375,0.87114453,0.302369385
796,1747638548240,0.20489,0.7518426,-0.4818574,0.25556323,0.81280863,0.32924667
797,1747638548250,0.49993768,0.75379395,-0.49356538,0.5515951,0.4078169,-0.037261683
798,1747638548260,0.451123875,0.7771032449999999,-0.60729152,0.565300975,0.231549288,-0.3644085615
799,1747638548270,0.40231007,0.80041254,-0.72101766,0.57900685,0.055281676,-0.69155544
800,1747638548280,0.32910457,0.79894906,-0.73397577,0.4736357,0.08521319,-0.7660788
801,1747638548290,0.21550038,0.78503053,-0.72347212,0.39357653000000004,0.15763676999999998,-0.7556944
802,1747638548300,0.10189619,0.771112,-0.71296847,0.31351736,0.23006035,-0.74531
803,1747638548310,-0.018903542,0.7430616,-0.58119243,0.05062397,0.5849626,-0.33604234
804,1747638548320,-0.018903542,0.7430616,-0.58119243,0.05062397,0.5849626,-0.33604234
805,1747638548330,0.0032928751,0.70741934,-0.50774306,0.08551861,0.55197686,-0.087962
806,1747638548340,0.15656402255000001,0.70010182,-0.5342232600000001,0.180543535,0.472261295,0.025350159999999997
807,1747638548350,0.30983517,0.6927843,-0.56070346,0.27556846,0.39254573,0.13866232
808,1747638548360,0.5153045,0.7281522,-0.7773929,0.16149275,0.39926505,-0.07818845
809,1747638548370,0.50762109,0.7348752000000001,-0.7927749,0.1007516235,0.373914875,-0.13224843
810,1747638548380,0.49993768,0.7415982,-0.8081569,0.040010497,0.3485647,-0.18630841
811,1747638548390,0.3383734,0.7213226,-0.7197981,-0.2602973,0.38032877,-0.29198498
812,1747638548400,0.260411535,0.693134965,-0.6469584749999999,-0.27900448499999997,0.33940200499999995,-0.248920255
813,1747638548410,0.18244967,0.66494733,-0.57411885,-0.29771167,0.29847524,-0.20585553
814,1747638548420,0.0700498175,0.63909215,-0.45562109500000003,-0.19424942,0.20806985,-0.051922016
815,1747638548430,0.05107767375,0.6325064,-0.5615952475,0.00015271499999999771,0.228838655,0.188446377
816,1747638548440,0.03210553,0.62592065,-0.6675694,0.19455485,0.24960746,0.42881477
817,1747638548450,0.19049892,0.5963763,-0.86331254,0.0019852535,0.9380323,1.0494356
818,1747638548460,0.294209245,0.595766485,-0.91932192,-0.26812377325,1.1423607,1.1300674499999999
819,1747638548470,0.39791957,0.59515667,-0.9753313,-0.5382328,1.3466891,1.2106993
820,1747638548480,0.630250185,0.5763598700000001,-1.0079094,-1.0098832,1.39738945,0.9495621
821,1747638548490,0.8625808,0.55756307,-1.0404875,-1.4815336,1.4480898,0.6884249
822,1747638548500,0.57338715,0.62811595,-0.7447081,-2.2143214,1.3295854,-0.09101624
823,1747638548510,0.49213239999999997,0.622734525,-0.66917015,-2.2174138,1.28713155,-0.098040983
824,1747638548520,0.41087765,0.6173531,-0.5936322,-2.2205062,1.2446777,-0.105065726
825,1747638548530,0.29202923,0.6303112,-0.5011573,-1.9738002,1.139001,0.20463383
826,1747638548540,0.29385859999999997,0.627872,-0.4440503,-1.7709989,1.10296105,0.34757208500000003
827,1747638548550,0.29568797,0.6254328,-0.3869433,-1.5681976,1.0669211,0.49051034
828,1747638548560,0.30495682,0.60759646,-0.4247504,-1.3924264,1.1988641,0.6303944
829,1747638548570,0.37194243000000005,0.59076618,-0.372033915,-1.20615615,1.1264786500000001,0.7470662
830,1747638548580,0.43892804,0.5739359,-0.31931743,-1.0198859,1.0540932,0.863738
831,1747638548590,0.7503486,0.54244024,-0.27443674,-0.36933354,-0.353986,0.69086826
832,1747638548600,0.7737646250000001,0.5415865200000001,-0.29163286,-0.17558041700000002,-0.625813025,0.595270665
833,1747638548610,0.79718065,0.5407328,-0.30882898,0.018172706,-0.89764005,0.49967307
834,1747638548620,0.73104876,0.5849122,-0.52676857,0.42568418,-0.93734515,0.21257484
835,1747638548630,0.6765028799999999,0.60027895,-0.5797289649999999,0.41010758,-0.789520075,0.19486027
836,1747638548640,0.621957,0.6156457,-0.63268936,0.39453098,-0.641695,0.1771457
837,1747638548650,0.43892804,0.6573859,-0.5670453,-0.02107423,-0.2544179,0.5082249
838,1747638548660,0.43746455,0.654215,-0.54300425,-0.07276718,-0.31061584,0.61726115
839,1747638548670,0.43600106,0.6510441,-0.5189632,-0.12446013,-0.36681378,0.7262974
840,1747638548680,0.7125111,0.59320533,-0.50188905,-0.17118995,-0.5946598,0.99079424
841,1747638548690,0.87235275,0.588570915,-0.43561993499999996,-0.033520245000000004,-0.6725428499999999,0.694838745
842,1747638548700,1.0321944,0.5839365,-0.36935082,0.10414946,-0.7504259,0.39888325
843,1747638548710,0.9965673,0.597473885,-0.357398895,0.24746949999999998,-0.78616045,0.257777535
844,1747638548720,0.9609402,0.61101127,-0.34544697,0.39078954,-0.821895,0.11667182
845,1747638548730,0.828066615,0.638848235,-0.41462783,0.73538375,-0.8402204,-0.11911522
846,1747638548740,0.7388083575,0.6466535875,-0.513520815,0.7169819749999999,-0.7409577,-0.10170607
847,1747638548750,0.6495501,0.65445894,-0.6124138,0.6985802,-0.641695,-0.08429692
848,1747638548760,0.603175425,0.658605515,-0.7188376750000001,0.46248773,-0.4266768,0.03603999
849,1747638548770,0.6115905475,0.6573859575000001,-0.7276262875,0.14904673000000002,-0.180810782,0.19394399499999998
850,1747638548780,0.62000567,0.6561664,-0.7364149,-0.16439427,0.065055236,0.351848
851,1747638548790,0.97703874,0.5673197,-0.4630758,-0.5606814,0.24960746,0.4923429
852,1747638548800,1.03280417,0.55134315,-0.43305879999999997,-0.48432551,0.11151780250000001,0.376892765
853,1747638548810,1.0885696,0.5353666,-0.4030418,-0.40796962,-0.026571855,0.26144263
854,1747638548820,1.1293342,0.48021096,-0.4591731,-0.08651124,-0.21654536,-0.2816006
855,1747638548830,1.05062535,0.47618633,-0.504556875,-0.0516165915,-0.13194301,-0.43129635
856,1747638548840,0.9719165,0.4721617,-0.54994065,-0.016721943,-0.04734066,-0.5809921
857,1747638548850,0.75327565,0.50106579,-0.61108748,-0.099568106,0.16313439,-0.6875849350000001
858,1747638548860,0.697632175,0.50393182,-0.6093114399999999,-0.166532238,0.256460395,-0.6462000175
859,1747638548870,0.6419887,0.50679785,-0.6075354,-0.23349637,0.3497864,-0.6048151
860,1747638548880,0.6422326,0.56512445,-0.41889638,-0.075897776,0.40598437,-0.3146627
861,1747638548890,0.6422326,0.56512445,-0.41889638,-0.075897776,0.40598437,-0.3146627
862,1747638548900,0.73373187,0.57564336,-0.41474983,0.20509197,0.32168743,-0.20952061
863,1747638548910,0.9975582,0.5597583,-0.5418914,0.5552602,0.06139015,-0.26816195
864,1747638548920,0.9975582,0.5597583,-0.5418914,0.5552602,0.06139015,-0.26816195
865,1747638548930,1.1920513,0.4797231,-0.8142548,0.21135315,0.24838577,-0.8320503
866,1747638548940,1.1870509999999999,0.47289343500000003,-0.83036857,0.12068050999999999,0.309775925,-0.8961892499999999
867,1747638548950,1.1820507,0.46606377,-0.84648234,0.03000787,0.37116608,-0.9603282
868,1747638548960,0.958135175,0.45909689,-0.721886635,-0.51544055,0.721487,-1.28285565
869,1747638548970,0.8235998875,0.467458685,-0.5784407675000001,-0.569825025,0.6926244500000001,-1.253229525
870,1747638548980,0.6890646,0.47582048,-0.4349949,-0.6242095,0.6637619,-1.2236034
871,1747638548990,0.6600385,0.45508754,-0.40548098,-0.5438068,0.595347,-1.009196
872,1747638549000,0.7150722,0.43555896,-0.41206671500000003,-0.5441122,0.65123952,-0.7932615000000001
873,1747638549010,0.7701059,0.41603038,-0.41865245,-0.5444176,0.70713204,-0.577327
874,1747638549020,0.93947554,0.40724936,-0.43597054,-0.83357745,0.7865422,-0.30733252
875,1747638549030,0.9726634700000001,0.416396245,-0.42243318,-0.9351308250000001,0.72759543,-0.37330402500000004
876,1747638549040,1.0058514,0.42554313,-0.40889582,-1.0366842,0.66864866,-0.43927553
877,1747638549050,0.923621,0.4604537,-0.2868765,-1.2061943,0.43286163,-0.88275063
878,1747638549060,0.78158525,0.47740591,-0.16106123,-1.1416735,0.523572445,-0.923982815
879,1747638549070,0.6395495,0.49435812,-0.03524596,-1.0771527,0.61428326,-0.965215
880,1747638549080,0.5863452,0.49948034,0.012805625,-0.5120427,0.6558209,-0.5718294
881,1747638549090,0.5831743,0.49240677,0.0056100833499999996,-0.39365287,0.580075825,-0.45485215
882,1747638549100,0.5800034,0.4853332,-0.0015854583,-0.27526304,0.50433075,-0.3378749
883,1747638549110,0.74422026,0.45679495,-0.29541358,-0.060321167,0.054059982,0.035429142
884,1747638549120,0.7322683299999999,0.49376354999999994,-0.36532619,-0.1650051085,0.090443576,-0.033902024
885,1747638549130,0.7203164,0.53073215,-0.4352388,-0.26968905,0.12682717,-0.10323319
886,1747638549140,0.592687,0.64787316,-0.36983865,-0.88710296,0.6949151,-0.30053684
887,1747638549150,0.592687,0.64787316,-0.36983865,-0.88710296,0.6949151,-0.30053684
888,1747638549160,0.5702162,0.699614,-0.057716787,-0.98873264,0.7242358,-0.23028941
889,1747638549170,0.56509395,0.72011823,-0.035992956,-0.89897627,0.6533775150000001,-0.187530105
890,1747638549180,0.5599717,0.74062246,-0.014269125,-0.8092199,0.58251923,-0.1447708
891,1747638549190,0.5509468,0.7898936,-0.008171208,-0.59679776,0.375442,-0.09162709
892,1747638549200,0.51580755,0.8426100999999999,-0.115311609,-0.49524440999999997,-0.018287239999999982,-0.06077930249999999
893,1747638549210,0.4806683,0.8953266,-0.22245201,-0.39369106,-0.41201648,-0.029931515
894,1747638549220,0.38889465,0.9084981,-0.3500814,-0.55006796,-0.49753508,-0.023823043
895,1747638549230,0.244785625,0.92412403,-0.345203065,-0.78432788,-0.336576835,0.049784050499999996
896,1747638549240,0.1006766,0.93974996,-0.34032473,-1.0185878,-0.17561859,0.123391144
897,1747638549250,-0.24220926,1.0517687,-0.3159026,-1.0447779,-0.25136364,0.459968
898,1747638549260,-0.3184637,1.09728965,-0.37581462,-1.01018865,-0.35123717,0.58091575
899,1747638549270,-0.39471814,1.1428106,-0.43572664,-0.9755994,-0.4511107,0.7018635
900,1747638549280,-0.6050963,1.2553172,-0.53067124,-0.6734591,-1.0796726,1.0262234
901,1747638549290,-0.6050963,1.2553172,-0.53067124,-0.6734591,-1.0796726,1.0262234
902,1747638549300,-0.8545315,1.5449986,-0.80010766,-0.5376219,-2.449192,1.1887088
903,1747638549310,-0.8545315,1.5449986,-0.80010766,-1.0846356,-2.2836525,1.2632321
904,1747638549320,-0.8257189,1.6474742,-0.88136244,-1.0846356,-2.2836525,1.2632321
905,1747638549330,-0.7005287,1.6357663,-0.8208406,-1.5420076,-1.7986398,1.2192512
906,1747638549340,-0.6392751,1.4617621,-0.4057249,-2.3426757,0.0045813546,1.0017895
907,1747638549350,-0.87867934,1.5359433,0.08116327,-2.032365,0.9869001,0.9009997
908,1747638549360,-0.88185024,1.5486574,0.33642206,-1.3064495,0.7016344,0.9553651
909,1747638549370,-0.7993759,1.5464622,0.41011536,-0.33947837,-0.14324369,0.95719767
910,1747638549380,-0.67830175,1.5352116,0.3676739,-0.33947837,-0.14324369,0.95719767
911,1747638549390,-0.41401803,1.4895991,0.021861032,1.6606647,-1.769319,0.5974086
912,1747638549400,-0.34764224,1.470787,-0.21290876,1.923558,-1.9348587,0.38055784
913,1747638549410,-0.34764224,1.470787,-0.21290876,1.923558,-1.9348587,0.38055784
914,1747638549420,-0.31419516,1.4420049,-0.50847477,1.7908515,-1.7290032,0.029931515
915,1747638549430,-0.2651374,1.3924593,-0.73275614,0.9297859,-1.0863918,-0.2974826
916,1747638549440,-0.18339485,1.3221809,-0.722969,-0.02351762,-0.45783,-0.6164212
917,1747638549450,-0.14165461,1.2357733,-0.5592399,-0.9282588,-0.00335966,-0.7807391
918,1747638549460,-0.14165461,1.2357733,-0.5592399,-0.9282588,-0.00335966,-0.7807391
919,1747638549470,-0.09674345,1.1523234,-0.28004685,-1.4173948,0.34245625,-0.8949676
920,1747638549480,-0.0123177925,1.0442072,0.15997885,-1.5096326,0.35467318,-1.0788326
921,1747638549490,0.01367457725,1.0076045,0.253444665,-1.0258034249999999,0.295421,-1.1790115499999998
922,1747638549500,0.039666947,0.9710018,0.34691048,-0.54197425,0.23616882,-1.2791905
923,1747638549510,0.030398116,0.9160901,0.38596764,-0.54197425,0.23616882,-1.2791905
924,1747638549520,-0.081376692,0.854577315,0.184507715,-0.09365053499999998,0.22486814500000002,-1.2907966
925,1747638549530,-0.1931515,0.79306453,-0.01695221,0.35467318,0.21356747,-1.3024027
926,1747638549540,-0.22537899,0.80041254,-0.1475086,0.7085828,0.4322508,-0.95788485
927,1747638549550,-0.221583045,0.808095905,-0.200469,0.64222952,0.49852775000000005,-0.850375745
928,1747638549560,-0.2177871,0.81577927,-0.2534294,0.57587624,0.5648047,-0.74286664
929,1747638549570,-0.015244792,0.85654384,-0.31712216,0.15530792,0.8048676,-0.46676368
930,1747638549580,-0.015244792,0.85654384,-0.31712216,0.15530792,0.8048676,-0.46676368
931,1747638549590,0.13022101,0.90361977,-0.19900551,-0.120107844,0.77921206,-0.64635277
932,1747638549600,0.101408355,0.9390182,-0.12482436,-0.06467345,0.7144622,-0.74042326
933,1747638549610,0.049309278,0.9517095,-0.1182995875,0.011663365750000002,0.7030088250000001,-0.74072867
934,1747638549620,-0.0027897990000000025,0.9644008,-0.111774815,0.0880001815,0.6915554500000001,-0.7410340799999999
935,1747638549630,-0.08723832949999999,0.9756286,-0.1428284575,0.20388935575,0.739048825,-0.63505209
936,1747638549640,-0.17168686,0.9868564,-0.1738821,0.31977853,0.7865422,-0.5290701
937,1747638549650,-0.21120135,0.9839294,-0.20681085,0.38765895,0.8506812,-0.3023694
938,1747638549660,-0.16057339,0.9881979249999999,-0.249648715,0.39170581,0.8210551,-0.12491826850000001
939,1747638549670,-0.10994543,0.99246645,-0.29248658,0.39575267,0.791429,0.052532863
940,1747638549680,0.14631952,1.0129554,-0.41865245,0.013209572,0.959412,0.20096874
941,1747638549690,0.203914335,1.0179557,-0.42877501500000004,-0.138815034,1.0458469,0.15668232
942,1747638549700,0.26150915,1.022956,-0.43889758,-0.29083964,1.1322818,0.1123959
943,1747638549710,0.27847661,1.02405365,-0.32090288499999997,-0.769973,1.267279,-0.19608197
944,1747638549720,0.23217056000000003,1.0200899749999999,-0.2328642025,-0.80456222,1.1845092,-0.263313335
945,1747638549730,0.18586451,1.0161263,-0.14482552,-0.83915144,1.1017394,-0.3305447
946,1747638549740,0.04968278200000001,0.9960032000000001,-0.08601111350000001,-0.69522057,0.9771265650000001,-0.295993665
947,1747638549750,-0.086498946,0.9758801,-0.027196707,-0.5512897,0.85251373,-0.26144263
948,1747638549760,-0.1716716,0.9492627250000001,-0.03013895315,-0.29614639,0.7905127000000001,-0.045508116
949,1747638549770,-0.115060065,0.9491407625000001,-0.106157106575,-0.21591542,0.7433247650000001,0.14614521199999997
950,1747638549780,-0.05844853,0.9490188,-0.18217526,-0.13568445,0.69613683,0.33779854
951,1747638549790,0.16485718,0.9434087,-0.245868,-0.384948295,0.611229035,0.36895175
952,1747638549800,0.285550205,0.9534093,-0.27954375,-0.5547447475,0.6185591975,0.281906015
953,1747638549810,0.40624323,0.9634099,-0.3132195,-0.7245412,0.62588936,0.19486028
954,1747638549820,0.3764549,1.0161263,-0.15189911,-1.225436,0.49028128,-0.26449686
955,1747638549830,0.36107290000000003,1.01673615,-0.133239485,-1.2488009,0.48081313999999997,-0.31615163
956,1747638549840,0.3456909,1.017346,-0.11457986,-1.2721658,0.471345,-0.3678064
957,1747638549850,0.26321658,0.98344153,0.015519199,-1.1195303,0.4182013,-0.6194755
958,1747638549860,0.17755609,0.977953415,0.11020459949999999,-0.9027177000000001,0.1994798055,-0.6640673500000001
959,1747638549870,0.0918956,0.9724653,0.20489,-0.6859051,-0.019241689,-0.7086592
960,1747638549880,0.05552153,0.92779803,0.20025559,0.043751936,-0.46760356,-0.60725856
961,1747638549890,0.05552153,0.92779803,0.20025559,0.043751936,-0.46760356,-0.60725856
962,1747638549900,0.053814117,0.91462654,0.1329041,0.41010758,-0.6221479,-0.4594335
963,1747638549910,0.1773121685,0.91767552,0.0277150325,0.53441499,-0.80356955,-0.381817715
964,1747638549920,0.30081022,0.9207245,-0.077474035,0.6587224,-0.9849912,-0.30420193
965,1747638549930,0.4738386,0.94657964,-0.3761805,-0.03603999,-0.6655181,-0.6194755
966,1747638549940,0.44369966,0.9479211700000001,-0.33957775,-0.181497995,-0.5891622000000001,-0.673535475
967,1747638549950,0.41356072,0.9492627,-0.302975,-0.326956,-0.5128063,-0.72759545
968,1747638549960,0.102384016,0.91706574,0.07186395,-0.44721654,-0.6111527,-0.70071816
969,1747638549970,0.060293148,0.91791942,0.10372556999999999,-0.29114507,-0.6835381,-0.59901209
970,1747638549980,0.01820228,0.9187731,0.13558719,-0.1350736,-0.7559235,-0.49730602
971,1747638549990,0.16729634,0.88947266,0.0521067,0.5173113,-0.9153546,-0.11178505
972,1747638550000,0.21220749,0.87800853,0.004512458500000004,0.63692282,-0.92604443,-0.05436540685
973,1747638550010,0.25711864,0.8665444,-0.043081783,0.75653434,-0.93673426,0.0030542363
974,1747638550020,0.48579055,0.92706627,-0.2710219,0.72538114,-0.7559235,0.06658235
975,1747638550030,0.507148505,0.9410915099999999,-0.29638923500000003,0.63440305,-0.71499672,0.054670828500000004
976,1747638550040,0.52850646,0.95511675,-0.32175657,0.54342496,-0.67406994,0.042759307
977,1747638550050,0.60390717,0.96609294,-0.32590318,0.25999185,-0.64780354,-0.043981
978,1747638550060,0.536677645,0.9327830699999999,-0.253795305,0.23475623,-0.6303943949999999,-0.17042638999999998
979,1747638550070,0.46944812,0.8994732,-0.18168743,0.20952061,-0.61298525,-0.29687178
980,1747638550080,0.31690875,0.88776517,-0.13238578,0.3515426,-0.44378054,-0.26449686
981,1747638550090,0.31690875,0.88776517,-0.13238578,0.3515426,-0.44378054,-0.26449686
982,1747638550100,0.15095393000000001,0.8826429499999999,-0.153011975,0.6506287,-0.21104772,0.3286358
983,1747638550110,0.231233,0.87776464,-0.26074693,0.6662053,-0.18600298,0.8325848
984,1747638550120,0.3831626,0.84872329,-0.29015413,0.6369228,-0.21990501,0.9284878
985,1747638550130,0.5350922,0.81968194,-0.31956133,0.6076403,-0.25380704,1.0243908
986,1747638550140,0.6977389,0.8105351000000001,-0.324820785,0.54876991,-0.35398598000000003,0.94864575
987,1747638550150,0.8603856,0.80138826,-0.33008024,0.48989952,-0.45416492,0.8729007
988,1747638550160,0.83062774,0.8660566,-0.3015115,0.54533386,-0.57999945,0.3970507
989,1747638550170,0.7606998700000001,0.871178885,-0.316649575,0.5443794099999999,-0.523496095,0.37231139999999996
990,1747638550180,0.690772,0.87630117,-0.33178765,0.54342496,-0.46699274,0.3475721
991,1747638550190,0.4967668,0.888253,-0.36715558,0.3160371,-0.24647687,0.5625903
992,1747638550200,0.51288053,0.8605532499999999,-0.362521155,0.1608818965,-0.1487413085,0.73484925
993,1747638550210,0.52899426,0.8328535,-0.35788673,0.005726693,-0.051005747,0.9071082
994,1747638550220,0.8882226,0.8265117,-0.1516552,-0.17928366,0.05467083,1.0518789
995,1747638550230,0.9609402499999999,0.8227309700000001,-0.125418905,-0.14782503,-0.004275930000000004,0.947729485
996,1747638550240,1.0336579,0.81895024,-0.09918261,-0.1163664,-0.06322269,0.84358007
997,1747638550250,1.0824717,0.8638614,-0.18485835,0.26678753,0.017409148,0.04214846
998,1747638550260,1.017315435,0.8684958,-0.20938721,0.296070025,0.043675579,-0.09376505499999999
999,1747638550270,0.95215917,0.8731302,-0.23391607,0.32535252,0.06994201,-0.22967857
1000,1747638550280,0.7576662,0.8487081,-0.27297324,0.30916506,0.15003936,-0.4325562
