id,timestamp,acc_x,acc_y,acc_z,gyro_x,gyro_y,gyro_z
0,1747638746300,0.13339193,-0.0047258856,1.1303098,0.5098284,-0.6026008,0.20646638
1,1747638746310,0.10531103,0.037746105,1.1278707,0.43629766,-0.52929914,0.30298024
2,1747638746320,0.11043327,0.017988855,1.1459205,0.3702498,-0.26968905,0.3695626
3,1747638746330,0.118741685,0.012378771,1.1703274,0.37555654000000005,-0.036918074999999995,0.41293275
4,1747638746340,0.1270501,0.006768687,1.1947343,0.38086328,0.1958529,0.4563029
5,1747638746350,0.15316443000000002,0.0196962705,1.19961265,0.462945875,0.1982962875,0.3849864825
6,1747638746360,0.17927876,0.032623854,1.204491,0.54502847,0.200739675,0.313670065
7,1747638746370,0.19586508,0.038965687,1.0893013,0.7702784,0.02779355,0.07574506
8,1747638746380,0.18316617000000002,0.042136603499999994,1.06660185,0.7842897200000001,-0.0030542365000000016,0.0467298155
9,1747638746390,0.17046726,0.04530752,1.0439024,0.79830104,-0.033902023,0.017714571
10,1747638746400,0.10823802,0.009695687,0.97118473,0.70171076,0.22334103,0.124001995
11,1747638746410,0.09165169000000001,0.029087063499999996,1.008290515,0.60015743,0.46706908,0.2302894225
12,1747638746420,0.07506536,0.04847844,1.0453963,0.4986041,0.71079713,0.33657685
13,1747638746430,0.10579886,0.07143709,1.090277,0.46432027,0.8665632,0.33963108
14,1747638746440,0.15656402,0.061543221999999995,1.0862524,0.491426635,0.9389486,0.31092125
15,1747638746450,0.20732918,0.051649354,1.0822278,0.518533,1.011334,0.28221142
16,1747638746460,0.19562118,0.044331856,1.0895452,0.5970268,0.9478059,0.20341213
17,1747638746470,0.1789586175,0.068372893,1.0765490500000001,0.71354595,0.590460245,0.134386395
18,1747638746480,0.162296055,0.09241393,1.0635529,0.8300651,0.23311459,0.06536066
19,1747638746490,0.14729518,0.10534152,1.0017048,0.8631272,-0.02535016,0.043981
20,1747638746500,0.14729518,0.10534152,1.0017048,0.8631272,-0.02535016,0.043981
21,1747638746510,0.15266134,0.102170594,0.958745,0.65498096,-0.05833591,0.015882028
22,1747638746520,0.14802692,0.10168276000000001,0.9831519,0.60233358,0.11365577000000002,0.040926764000000004
23,1747638746530,0.1433925,0.101194926,1.0075588,0.5496862,0.28564745,0.0659715
24,1747638746540,0.1270501,0.09387743,1.123968,0.5571691,1.0247726,0.23700874
25,1747638746550,0.1275379325,0.12182875500000001,1.1295781,0.6063804749999999,1.09349295,0.27824093
26,1747638746560,0.12802576499999999,0.14978008,1.1351882,0.65559185,1.1622133,0.31947312
27,1747638746570,0.13827026,0.20321308,1.1237241,0.72667915,1.0766946,0.3206948
28,1747638746580,0.117644057,0.216277865,1.0926094499999999,0.859996575,0.48199664,0.1939439975
29,1747638746590,0.097017854,0.22934265,1.0614948,0.993314,-0.11270132,0.067193195
30,1747638746600,0.09555435,0.20979884,1.0414633,0.9889617,-0.25686127,0.03298575
31,1747638746610,0.107262355,0.194919915,1.0328042,0.9727742500000001,-0.18050536499999997,0.026877278
32,1747638746620,0.11897036,0.18004099,1.0241451,0.9565868,-0.10414946,0.020768806
33,1747638746630,0.13997768,0.16415593,1.0441463,0.8942804,0.5385382,0.061084725
34,1747638746640,0.113985312,0.191123965,1.0407315000000001,0.908597125,0.761802875,0.0577250665
35,1747638746650,0.087992944,0.218092,1.0373167,0.92291385,0.98506755,0.054365408
36,1747638746660,0.04235003,0.23495273,1.0429267,0.96277165,0.87755847,0.05803049
37,1747638746670,0.016479618999999997,0.246294845,1.0448933,0.987091025,0.671092085,0.08246438
38,1747638746680,-0.009390792,0.25763696,1.0468599,1.0114104,0.4646257,0.10689827
39,1747638746690,0.028568738999999996,0.242880015,1.03452685,0.990527025,0.41361994999999996,0.10537115
40,1747638746700,0.06652827,0.22812307,1.0221938,0.96964365,0.3626142,0.10384403
41,1747638746710,0.06652827,0.22812307,1.0221938,0.96964365,0.3626142,0.10384403
42,1747638746720,0.063464067,0.23800169,1.00999795,0.939406725,0.442940615,0.049478626000000005
43,1747638746730,0.060399864,0.24788031,0.9978021,0.9091698,0.52326703,-0.004886778
44,1747638746740,0.040642615,0.27739424,0.99487513,0.79769015,0.783488,-0.06474981
45,1747638746750,0.033690990500000004,0.28289761,1.0129249150000001,0.7792883749999999,0.8323557500000001,-0.061084726500000006
46,1747638746760,0.026739366,0.28840098,1.0309747,0.7608866,0.8812235,-0.057419643
47,1747638746770,-0.021586625,0.26885715,1.0775934,0.856866,0.8164737,-0.030542362
48,1747638746780,-0.06160420450000001,0.276067925,1.0390393,0.9468896499999999,0.74592085,0.049173204
49,1747638746790,-0.101621784,0.2832787,1.0004852,1.0369133,0.675368,0.12888877
50,1747638746800,-0.114823766,0.30888996,0.9760631,1.0369133,0.5782433,0.22601348
51,1747638746810,-0.10242975324999999,0.320354055,0.9728921625,1.010914075,0.53258247,0.26388601
52,1747638746820,-0.09003574049999999,0.33181815000000003,0.969721225,0.98491485,0.48692164,0.30175854
53,1747638746830,-0.08405978,0.34794715,0.9985339,0.8980218,0.39437827,0.35245886
54,1747638746840,-0.0708882835,0.34526406,1.0405028,0.8849268,0.38826979500000003,0.38666630999999996
55,1747638746850,-0.057716787,0.34258097,1.0824717,0.8718318,0.38216132,0.42087376
56,1747638746860,-0.05454587,0.32011014,1.115431,0.97773737,0.4285857,0.45447037
57,1747638746870,-0.058326577000000004,0.346102505,1.09895135,1.159998935,0.39926503,0.48623441500000003
58,1747638746880,-0.062107284,0.37209487,1.0824717,1.3422605,0.36994436,0.51799846
59,1747638746890,-0.02426971,0.38770556,1.0090222,1.4388508,0.46279314,0.503949
60,1747638746900,-0.00589973525,0.40430714,0.9611307375,1.4349375,0.5379273525,0.46897798999999996
61,1747638746910,0.0124702395,0.42090872,0.913239275,1.4310242,0.613061565,0.43400698
62,1747638746920,-0.01516856925,0.43897379999999997,0.8659575374999999,1.333517725,0.6029825825,0.3692571725
63,1747638746930,-0.042807378,0.45703888,0.8186758,1.23601125,0.5929036000000001,0.304507365
64,1747638746940,-0.09869478,0.48655275,0.8757828,1.0867736,0.45057622,0.34879377
65,1747638746950,-0.11102782,0.490577385,0.90054033,1.0649739999999999,0.39712708,0.41843037
66,1747638746960,-0.12336086,0.49460202,0.92529786,1.0431744,0.34367794,0.48806697
67,1747638746970,-0.1018657,0.45655105,1.0566165,1.2163496,0.39376742,0.69758755
68,1747638746980,-0.0730682885,0.46325874499999997,1.0386734,1.29270555,0.45088163,0.714691275
69,1747638746990,-0.044270877,0.46996644,1.0207303,1.3690615,0.50799584,0.731795
70,1747638747000,0.05722895,0.47582048,0.94093907,1.5354409,0.73278767,0.60412794
71,1747638747010,0.036983866000000004,0.50449592,0.871986865,1.5379225,0.763330015,0.44652934
72,1747638747020,0.016738782,0.53317136,0.80303466,1.5404041,0.79387236,0.28893074
73,1747638747030,-0.0696687,0.588327,0.7888875,1.4531293,0.67720056,0.22418094
74,1747638747040,-0.092977985,0.5984495350000001,0.7898631700000001,1.4135769,0.6161158099999999,0.23456535
75,1747638747050,-0.11628727,0.60857207,0.79083884,1.3740245,0.55503106,0.24494976
76,1747638747060,-0.13177598000000001,0.608816,0.79608302,1.2827410499999998,0.52632126,0.33260633
77,1747638747070,-0.14726469,0.60905993,0.8013272,1.1914576,0.49761146,0.4202629
78,1747638747080,-0.058692448,0.58003384,0.8750511,1.136634,0.66559446,0.5405998
79,1747638747090,-0.025245375,0.57686292,0.87614868,1.16996335,0.66192938,0.516165915
80,1747638747100,0.008201698,0.573692,0.87724626,1.2032927,0.6582643,0.49173203
81,1747638747110,-0.0071955416,0.5719846,0.8194075,1.4438138,0.54037076,0.335966
82,1747638747120,-0.0339196608,0.5984647999999999,0.71116953,1.4294970999999999,0.440191805,0.27763008
83,1747638747130,-0.06064378,0.624945,0.60293156,1.4151804,0.34001285,0.21929416
84,1747638747140,-0.08162062,0.6364091,0.5907357,1.2488009,0.33940202,0.21562909
85,1747638747150,-0.08820637,0.63506755,0.5902478499999999,1.084292065,0.38552098,0.23609247500000002
86,1747638747160,-0.09479212,0.633726,0.58976,0.91978323,0.43163994,0.25655586
87,1747638747170,-0.099670455,0.6398239,0.639519,0.82945424,0.48417282,0.29442838
88,1747638747180,-0.0914992425,0.63348205,0.65624253,0.84533627,0.51838026,0.3323009
89,1747638747190,-0.08332803,0.6271402,0.67296606,0.8612183,0.5525877,0.37017342
90,1747638747200,-0.025489293,0.6532393,0.69125986,0.9428427,0.46890163,0.39338565
91,1747638747210,-0.005228964499999999,0.6442144,0.67369783,1.0624924,0.478980615,0.325276165
92,1747638747220,0.015031364,0.6351895,0.6561358,1.1821421,0.4890596,0.25716668
93,1747638747230,-0.009390792,0.66665477,0.58411944,1.2307045,0.47928604,0.19791451
94,1747638747240,-0.009390792,0.66665477,0.58411944,1.2307045,0.47928604,0.19791451
95,1747638747250,-0.079425365,0.70327276,0.4589292,1.084941,0.47684264,0.16981554
96,1747638747260,-0.0700345725,0.70754128,0.49138534999999994,0.938814925,0.5634302275,0.1913479025
97,1747638747270,-0.06064378,0.7118098,0.5238415,0.79268885,0.650017815,0.212880265
98,1747638747280,0.045277033,0.6725087,0.5838755,0.7466081,0.7340093,0.21440738
99,1747638747290,0.0352764495,0.67287462,0.59181805,0.75283108,0.9465842,0.1408002875
100,1747638747300,0.025275866,0.67324054,0.5997606,0.75905406,1.1591591,0.067193195
101,1747638747310,-0.047197875,0.6986383,0.5992728,0.82197136,1.2849935,-0.060473878
102,1747638747320,-0.0907674875,0.7462173000000001,0.5849884000000001,0.88336148,1.1869526,-0.0540599825
103,1747638747330,-0.1343371,0.7937963,0.570704,0.9447516,1.0889117,-0.047646087
104,1747638747340,-0.06283903,0.7572088,0.53167737,1.0680665,0.6503233,-0.07269082
105,1747638747350,-0.048066828000000006,0.7358508500000001,0.43697672,1.0390894,0.77676867,-0.13469182
106,1747638747360,-0.033294626,0.7144929,0.34227607,1.0101123,0.90321404,-0.19669282
107,1747638747370,-0.058936365,0.7437934,0.31983575,0.85999656,1.1261733,-0.22295925
108,1747638747380,-0.074425075,0.80114432,0.33422681499999995,0.7669950725000001,1.1367104000000001,-0.2267770475
109,1747638747390,-0.089913785,0.85849524,0.34861788,0.6739935850000001,1.1472475,-0.230594845
110,1747638747400,-0.09918261,0.8426101,0.39474866,0.5110501,0.7450046,-0.30542362
111,1747638747410,-0.07868599000000001,0.819125525,0.390541085,0.494213625,0.6689541,-0.318289595
112,1747638747420,-0.058189370000000004,0.79564095,0.38633351000000005,0.47737715,0.5929036,-0.33115557
113,1747638747430,-0.051588375,0.75623316,0.38304064,0.54472303,0.7052995,-0.357422
114,1747638747440,-0.09186511750000001,0.79027478,0.354365185,0.569004215,0.64238225,-0.375442
115,1747638747450,-0.13214186,0.8243164,0.32568973,0.5932854,0.579465,-0.393462
116,1747638747460,-0.15130456,0.834073075,0.295428825,0.56774435,0.51227179,-0.39773791999999997
117,1747638747470,-0.17046726,0.84382975,0.26516792,0.5422033,0.44507858,-0.40201384
118,1747638747480,-0.1589727,0.8370001,0.13729459,0.21448374,0.34612134,-0.48753247
119,1747638747490,-0.19949335,0.78635688,0.230516495,-0.009219976749999997,0.42354623,-0.5703022849999999
120,1747638747500,-0.240014,0.73571366,0.3237384,-0.2329236935,0.50097112,-0.6530720999999999
121,1747638747510,-0.30248716,0.74403733,0.42039037,-0.5270085,0.83663166,-0.82105505
122,1747638747520,-0.347017195,0.76830703,0.44624553499999997,-0.5391490999999999,0.873893355,-0.852819125
123,1747638747530,-0.39154723,0.79257673,0.4721007,-0.5512897,0.91115505,-0.8845832
124,1747638747540,-0.4850283,0.7933085,0.39743173,-0.38681903,1.2483428,-0.88947
125,1747638747550,-0.453791725,0.7977142500000001,0.347520275,-0.31920588,1.2226872000000002,-0.8509865999999999
126,1747638747560,-0.42255515,0.80212,0.29760882,-0.25159273,1.1970316,-0.8125032
127,1747638747570,-0.26074693,0.76379454,0.13192843,-0.26159534,0.87633675,-0.8161683
128,1747638747580,-0.295154425,0.7440220399999999,0.114473142,-0.35566582,0.6949151250000001,-0.8424347299999999
129,1747638747590,-0.32956192,0.72424954,0.097017854,-0.4497363,0.5134935,-0.86870116
130,1747638747600,-0.37252176,0.7088828,0.07604102,-0.64291674,0.55136603,-0.6872795
131,1747638747610,-0.3770342,0.7106512,0.090127209,-0.718146395,0.58801684,-0.5304253875
132,1747638747620,-0.38154664000000005,0.7124196,0.104213398,-0.79337605,0.62466765,-0.373571275
133,1747638747630,-0.3603259,0.7281522,0.13461152,-0.9282588,0.5727457,-0.06291727
134,1747638747640,-0.3603259,0.7281522,0.13461152,-0.9282588,0.5727457,-0.06291727
135,1747638747650,-0.22047018,0.73864067,0.35227665,-0.8690829,0.016187452,0.35368055
136,1747638747660,-0.18435527,0.708989535,0.382659525,-0.71766915,-0.115144709,0.385139195
137,1747638747670,-0.14824036,0.6793384,0.4130424,-0.5662554,-0.24647687,0.41659784
138,1747638747680,-0.16531453,0.73595756,0.2680949,0.08177718,-0.85121566,0.3891097
139,1747638747690,-0.17093986,0.74402208,0.22464725000000002,0.1082345,-0.8958075050000001,0.37872530000000004
140,1747638747700,-0.17656519,0.7520866,0.1811996,0.13469182,-0.94039935,0.3683409
141,1747638747710,-0.16287535,0.76306283,-0.02792846,-0.035352785,-0.9202414,0.28648737
142,1747638747720,-0.179781825,0.75238385,-0.028545873299999996,-0.4654656175,-0.7707365374999999,0.211964
143,1747638747730,-0.1966883,0.74170487,-0.029163286599999998,-0.89557845,-0.621231675,0.13744063
144,1747638747740,-0.29199874,0.69180864,0.12214127,-1.6124077,-0.4767663,0.11850437
145,1747638747750,-0.312365785,0.6747192200000001,0.201703845,-1.70308035,-0.4651602,0.16217995000000002
146,1747638747760,-0.33273283,0.6576298,0.28126642,-1.793753,-0.4535541,0.20585553
147,1747638747770,-0.3430078,0.573692,0.4879858,-1.5002409,-0.63131064,0.65116316
148,1747638747780,-0.29126699,0.6026113799999999,0.42636635,-1.3968168,-0.8768712700000001,0.80479123
149,1747638747790,-0.23952618,0.63153076,0.3647469,-1.2933927,-1.1224319,0.9584193
150,1747638747800,-0.20388384,0.6532393,0.3456909,-1.304617,-1.353332,0.9706363
151,1747638747810,-0.20388384,0.6532393,0.3456909,-1.304617,-1.353332,0.9706363
152,1747638747820,-0.13238578,0.6664108,0.32276276,-1.5762913,-1.6031686,0.8612946
153,1747638747830,-0.108527679,0.594668835,0.402012795,-1.772392375,-1.373948175,0.822658525
154,1747638747840,-0.084669578,0.52292687,0.48126283000000003,-1.96849345,-1.14472775,0.7840224499999999
155,1747638747850,-0.09845086,0.56488055,0.64244604,-2.0591662,-0.92451733,0.7018635
156,1747638747860,-0.10064611000000001,0.5763598750000001,0.66441377,-2.0706959,-0.85946208,0.67773505
157,1747638747870,-0.10284136,0.5878392,0.6863815,-2.0822256,-0.79440683,0.6536066
158,1747638747880,-0.018171793,0.5485381,0.8340426,-1.7432817,-0.47493374,0.38849884
159,1747638747890,-0.006463792249999999,0.5476844000000001,0.8403844199999999,-1.6526091,-0.4627168,0.33718767
160,1747638747900,0.0052442085,0.5468307,0.84672624,-1.5619365,-0.45049986,0.2858765
161,1747638747910,0.08384635,0.5741799,0.95093966,-0.9619317,-0.6960605,0.004275931
162,1747638747920,0.051146274,0.58125345,0.9096872549999999,-0.6739172225,-1.142742525,-0.22024860949999997
163,1747638747930,0.018446198,0.588327,0.86843485,-0.385902745,-1.58942455,-0.44477314999999995
164,1747638747940,-0.07308353,0.59344923,0.75888574,-0.367501,-2.277544,-0.6475744
165,1747638747950,-0.125312185,0.579652695,0.718487055,-0.58278645,-2.20485315,-0.56663716
166,1747638747960,-0.17754084,0.56585616,0.67808837,-0.7980719,-2.1321623,-0.48569992
167,1747638747970,-0.13092227,0.50704175,0.7298292,-1.0522608,-1.6037794,-0.24128467
168,1747638747980,-0.09688065000000001,0.481064645,0.7653342999999999,-1.1067789000000001,-1.38784495,-0.188751805
169,1747638747990,-0.06283903,0.45508754,0.8008394,-1.161297,-1.1719105,-0.13621894
170,1747638748000,-0.018415708000000003,0.45129158999999996,0.8992597824999999,-1.14633125,-0.929098685,-0.14721419000000002
171,1747638748010,0.026007614,0.44749564,0.997680165,-1.1313655,-0.68628687,-0.15820944
172,1747638748020,-0.06796128,0.48386967,0.9504518,-0.86473066,-0.92085224,-0.28037888
173,1747638748030,-0.08796245,0.49301657,0.92299595,-0.819871545,-1.01461727,-0.241590085
174,1747638748040,-0.10796362,0.50216347,0.8955401,-0.77501243,-1.1083823,-0.20280129
175,1747638748050,-0.029879792,0.4897237,0.72885346,-0.76875126,-1.14992,-0.037261683
176,1747638748060,0.0006250364999999987,0.44726696,0.707373555,-0.90084703,-0.9217685250000001,-0.052838291499999995
177,1747638748070,0.031129865,0.40481022,0.68589365,-1.0329428,-0.69361705,-0.0684149
178,1747638748080,0.0477162,0.40529802,0.77498424,-1.2123791,-0.64780354,-0.08124269
179,1747638748090,0.053936075,0.39833116,0.80378162,-1.24509755,-0.67376452,-0.08735116000000001
180,1747638748100,0.06015595,0.3913643,0.832579,-1.277816,-0.6997255,-0.09345963
181,1747638748110,0.013323948,0.3872177,0.91919994,-1.1319764,-1.0607363,-0.061695572
182,1747638748120,0.054805024,0.39186737,0.89442717,-1.0550478,-1.2363549,-0.0390942235
183,1747638748130,0.0962861,0.39651704,0.8696544,-0.9781192,-1.4119735,-0.016492875
184,1747638748140,0.100432685,0.39540417,0.8523363,-0.9815552,-1.4361019499999998,-0.037261682500000004
185,1747638748150,0.10457927,0.3942913,0.8350182,-0.9849912,-1.4602304,-0.05803049
186,1747638748160,0.09750569,0.36721656,0.92554176,-1.1906177,-1.4321314,-0.102011494
187,1747638748170,0.10898502,0.356972055,0.96898943,-1.2610177999999999,-1.3609677,-0.104454882
188,1747638748180,0.12046435,0.34672755,1.0124371,-1.3314179,-1.289804,-0.10689827
189,1747638748190,0.08018761,0.30449948,1.1088451,-1.3537903,-0.91352206,-0.06230642
190,1747638748200,0.08579769000000001,0.30480437250000003,1.08052795,-1.2321553,-0.61726114175,-0.01389677475
191,1747638748210,0.09140777,0.305109265,1.0522108000000001,-1.1105203000000001,-0.3210002235,0.0345128705
192,1747638748220,0.08872469,0.2976698,0.84209186,-0.8678613,0.20868069,0.052532863
193,1747638748230,0.1345429125,0.306633735,0.81713612,-0.853830875,0.20545465625,0.02977880275
194,1747638748240,0.180361135,0.31559767,0.79218038,-0.83980045,0.2022286225,0.0070247425
195,1747638748250,0.3088595,0.2888888,0.8342865,-1.07784,-0.5830537,-0.36475217
196,1747638748260,0.22063788,0.267408885,0.94972005,-1.18374565,-0.82403295,-0.500360235
197,1747638748270,0.13241626,0.24592897,1.0651536,-1.2896513,-1.0650122,-0.6359683
198,1747638748280,0.01820228,0.22175075,1.1568967,-1.4890165,-1.6447062,-0.6164212
199,1747638748290,0.00879624417,0.20065195,1.19144145,-1.32236975,-1.3716575500000001,-0.278584508
200,1747638748300,-0.00060979166,0.17955315,1.2259862,-1.155723,-1.0986089,0.059252184
201,1747638748310,0.05552153,0.15830192,1.1803433,-0.8559497,-0.5066978,0.32252735
202,1747638748320,0.05552153,0.15830192,1.1803433,-0.8559497,-0.5066978,0.32252735
203,1747638748330,0.25736257,0.20492049,1.0985701,-0.29648998,0.12438377,0.45569205
204,1747638748340,0.29823386500000004,0.211262325,1.01351943,-0.24911114499999998,-0.00912453499999999,0.325276165
205,1747638748350,0.33910516,0.21760416,0.92846876,-0.20173231,-0.14263284,0.19486028
206,1747638748360,0.3940169,0.2593444,0.90090626,-0.37063158,-1.1688563,-0.255945
207,1747638748370,0.36131682,0.243977645,0.8845486,-0.48680709,-1.4431267,-0.36165975
208,1747638748380,0.32861674,0.22861089,0.86819094,-0.6029826,-1.7173971,-0.4673745
209,1747638748390,0.11043327,0.21028666,0.9609402,-1.3793695,-1.8554486,-0.23151112
210,1747638748400,0.10543298200000001,0.187343245,1.03489265,-1.4619483999999998,-1.6324893,-0.083380655
211,1747638748410,0.100432694,0.16439983,1.1088451,-1.5445273,-1.40953,0.06474981
212,1747638748420,0.3459348,0.1080246,1.4116982,-0.92948043,-0.4743229,0.29931515
213,1747638748430,0.38272812,0.1092518015,1.346115125,-0.68495065,-0.39277478499999996,0.218377895
214,1747638748440,0.41952144,0.11047900299999999,1.2805320500000001,-0.44042087,-0.31122667,0.13744064
215,1747638748450,0.32593364,0.20345698,0.95776933,0.42690587,-0.9000834,-0.3690281
216,1747638748460,0.305185485,0.21505828,0.884792515,0.3119711435,-1.3258439499999999,-0.391171315
217,1747638748470,0.28443733,0.22665958,0.8118157,0.19703641700000002,-1.7516045,-0.41331452999999996
218,1747638748480,0.2961758,0.1961395,0.7859605,-0.33695862,-2.1266646,-0.29931515
219,1747638748490,0.3158111,0.152935755,0.8743041,-0.6092438099999999,-1.8374285,-0.19211145999999998
220,1747638748500,0.3354464,0.10973201,0.9626477,-0.881529,-1.5481924,-0.08490777
221,1747638748510,0.35572195,0.084364675,1.0014608,-1.0385166,-0.83533365,0.048256934
222,1747638748520,0.361819875,0.0833890105,1.09431685,-0.97403408,-0.06746045,0.12736165700000002
223,1747638748530,0.3679178,0.082413346,1.1871729,-0.90955156,0.70041275,0.20646638
224,1747638748540,0.3825528,0.113421254,1.169611,-0.7288935,0.8030351,0.15698774
225,1747638748550,0.3825528,0.113421254,1.169611,-0.7288935,0.8030351,0.15698774
226,1747638748560,0.3940169,0.11829959,1.1159188,-0.46592376,0.7126297,0.09712471
227,1747638748570,0.33447072,0.13122717,0.9824048,-0.2048629,-0.19088978,0.012827792
228,1747638748580,0.33447072,0.13122717,0.9824048,-0.2048629,-0.19088978,0.012827792
229,1747638748590,0.3108108,0.14708175,0.84062827,-0.5905366,-0.81089973,0.33046836
230,1747638748600,0.353389515,0.13695921,0.8959059149999999,-0.72263232,-0.7913526150000001,0.38269580999999997
231,1747638748610,0.39596823,0.12683667,0.95118356,-0.85472804,-0.7718055,0.43492326
232,1747638748620,0.47554603,0.03969744,1.1246997,-0.90267956,-0.4010212,0.29626092
233,1747638748630,0.428317665,0.027989438499999998,1.096878,-0.78276258,-0.16279078000000002,0.21623993
234,1747638748640,0.3810893,0.016281437,1.0690563,-0.6628456,0.07543964,0.13621894
235,1747638748650,0.3383734,-0.0015244792,1.0036561,-0.3475721,0.7175165,0.06658235
236,1747638748660,0.32556777000000003,0.010671354400000001,1.01170535,-0.2949247,0.60634228,0.09987352499999999
237,1747638748670,0.31276214,0.022867188,1.0197546,-0.2422773,0.49516806,0.1331647
238,1747638748680,0.3003224,0.050917607,0.9811853,-0.22975492,-0.17867282,0.18019994
239,1747638748690,0.3003224,0.050917607,0.9811853,-0.22975492,-0.17867282,0.18019994
240,1747638748700,0.2868765,0.06826618,0.94459784,-0.26533678,-0.60137916,0.23761958
241,1747638748710,0.29495624,0.03969744,0.9006623,-0.3257343,-0.8102889,0.3732277
242,1747638748720,0.34363285,0.013339193499999999,0.8909056150000001,-0.306110835,-0.589162185,0.42331715000000003
243,1747638748730,0.39230946,-0.013019053,0.88114893,-0.28648737,-0.36803547,0.4734066
244,1747638748740,0.40439859,-0.013506886,0.871742915,-0.26904005,-0.2391467,0.4666873
245,1747638748750,0.41648772,-0.013994719,0.8623369,-0.25159273,-0.11025793,0.459968
246,1747638748760,0.44453815,0.005061271,0.82867634,-0.25220355,0.088878274,0.42514968
247,1747638748770,0.452221525,0.0007927291500000001,0.81939229,-0.298933375,0.145419822,0.37475479
248,1747638748780,0.4599049,-0.0034758127,0.81010824,-0.3456632,0.20196137,0.3243599
249,1747638748790,0.45234346,-0.030581051,0.7959611,-0.43232715,0.08765658,0.18325418
250,1747638748800,0.43417165999999996,-0.0293614685,0.806708675,-0.482760225,-0.11697724999999999,0.10689827099999999
251,1747638748810,0.41599986,-0.028141886,0.81745625,-0.5331933,-0.32161108,0.030542362
252,1747638748820,0.43331796,-0.0576558,0.95313495,-0.46714544,-0.6655181,-0.10323319
253,1747638748830,0.4571151,-0.05558251,1.085048125,-0.257166695,-0.91138415,-0.24223912
254,1747638748840,0.48091224,-0.05350922,1.2169613,-0.04718795,-1.1572502,-0.38124505
255,1747638748850,0.4704238,-0.030093221,1.1840019,0.18707198,-1.2519314,-0.5064687
256,1747638748860,0.396471315,-0.004222808499999998,1.0452591,0.21165857500000002,-1.0344697999999999,-0.494862625
257,1747638748870,0.32251883,0.021647604,0.9065163,0.23624517,-0.8170082,-0.48325655
258,1747638748880,0.24833766,0.10509759,0.8230663,-0.066506,-0.6026008,-0.24006297
259,1747638748890,0.241126865,0.13121192,0.81341635,-0.373685825,-0.38941511500000003,0.06841489
260,1747638748900,0.23391607,0.15732625,0.8037664,-0.68086565,-0.17622943,0.37689275
261,1747638748910,0.2974411225,0.1082151525,0.94305805,-0.752831075,-0.1690519775,0.520747285
262,1747638748920,0.360966175,0.059104055,1.0823497,-0.8247964999999999,-0.161874525,0.66460182
263,1747638748930,0.48920536,-0.02204397,1.189856,-0.5893149,-0.13102673,0.72202146
264,1747638748940,0.5069045799999999,-0.0328982625,1.18778275,-0.4450786,-0.09559759300000001,0.7043069
265,1747638748950,0.5246038,-0.043752555,1.1857095,-0.3008423,-0.060168456,0.68659234
266,1747638748960,0.5033525,0.058997344,1.1049424,0.29984966,-0.24403349,0.7305733
267,1747638748970,0.5031086,0.0631439295,1.0603972000000002,0.31729698,-0.34573956,0.7565343
268,1747638748980,0.5028647,0.067290515,1.015852,0.3347443,-0.44744563,0.7824953
269,1747638748990,0.5778081,0.069241844,0.8855395,-0.021685077,-0.29962057,0.85885125
270,1747638749000,0.6228260000000001,0.03776134915,0.92384965,-0.24349898849999999,0.08555680500000001,0.7754705749999999
271,1747638749010,0.6678439,0.0062808543,0.9621598,-0.4653129,0.47073418,0.6920899
272,1747638749020,0.68833286,-0.0017683958,1.024877,-0.516395,0.65521,0.5515951
273,1747638749030,0.65038858,0.0050612711,1.09846355,-0.42354622500000005,0.6600968,0.327719565
274,1747638749040,0.6124443,0.011890938,1.1720501,-0.33069745,0.6649836,0.10384403
275,1747638749050,0.5570447000000001,0.00945177135,1.15386305,-0.195203885,0.5260158500000001,0.015271179999999995
276,1747638749060,0.5016451,0.0070126047,1.135676,-0.05971032,0.3870481,-0.07330167
277,1747638749070,0.49481544,-0.0020123124,1.0473478,0.28610557,0.08826743,-0.211964
278,1747638749080,0.48932732,-0.0061741407000000005,1.01194935,0.299811465,0.12342933,-0.23334365
279,1747638749090,0.4838392,-0.010335969,0.9765509,0.31351736,0.15859123,-0.2547233
280,1747638749100,0.45673394,-0.012531219,0.9353289,0.1963874,0.49516806,-0.28404397
281,1747638749110,0.415618745,0.014924652,1.01280295,0.10075162285,0.66681613,-0.30424010999999995
282,1747638749120,0.37450355,0.042380523,1.090277,0.0051158457,0.8384642,-0.32443625
283,1747638749130,0.41112155,0.052381106,1.1952221,0.051234815,0.827469,-0.31588438
284,1747638749140,0.44406554,0.043112270499999994,1.28588295,0.32974298249999995,0.64726905,-0.37147148
285,1747638749150,0.47700953,0.033843435,1.3765438,0.60825115,0.4670691,-0.42705858
286,1747638749160,0.47847307,0.027989438,1.3148023,0.92604446,0.2850366,-0.53212434
287,1747638749170,0.44027723500000004,0.01011491925,1.23616205,1.02790323,0.272208815,-0.58313007
288,1747638749180,0.40208140000000003,-0.0077595995000000004,1.1575218,1.129762,0.25938103,-0.6341358
289,1747638749190,0.33081198,-0.02716622,1.0556408,1.1167052,0.7804337,-0.6591805
290,1747638749200,0.33081198,-0.02716622,1.0556408,1.1167052,0.7804337,-0.6591805
291,1747638749210,0.33788556,0.026038107,1.0636901,0.98835087,1.5110071,-0.5192965
292,1747638749220,0.38804094499999997,0.0623969335,1.108708,0.9833495649999999,1.5583477000000001,-0.53365143
293,1747638749230,0.43819633,0.09875576,1.1537259,0.97834826,1.6056883,-0.54800636
294,1747638749240,0.43624496,0.12903193,1.2882154,1.2419288,1.0528716,-0.76913303
295,1747638749250,0.3464379,0.128300175,1.2087748,1.3452001999999998,0.7822662725,-0.859080305
296,1747638749260,0.25663084,0.12756842,1.1293342,1.4484716,0.511660945,-0.94902758
297,1747638749270,0.24150799,0.10339018,1.066861,1.3042352,0.91237676,-0.8204442
298,1747638749280,0.22149158000000002,0.11157663500000001,1.0591776,1.1590444999999998,1.35798983,-0.63352495
299,1747638749290,0.20147517,0.11976309,1.0514942,1.0138538,1.8036029,-0.4466057
300,1747638749300,0.2004995,0.16293633,1.14714,1.0076689,2.0491636,-0.19547112
301,1747638749310,0.2005604775,0.19125353499999997,1.175335325,1.132129025,1.8187214250000001,-0.127667077
302,1747638749320,0.200621455,0.21957074,1.20353065,1.25658915,1.58827925,-0.059863033999999996
303,1747638749330,0.22342768,0.22934265,1.1556772,1.4270155,1.1756519,-0.092237934
304,1747638749340,0.1798733,0.232025735,1.0714801999999999,1.4276263500000002,0.9963682250000001,-0.12064233199999999
305,1747638749350,0.13631892,0.23470882,0.9872832,1.4282372,0.81708455,-0.14904673
306,1747638749360,0.12997709500000001,0.23251357,0.9824048750000001,1.3939534500000001,0.862592675,-0.09956810249999999
307,1747638749370,0.12363527,0.23031832,0.97752655,1.3596697,0.9081008,-0.050089475
308,1747638749380,0.10360361,0.2300744,1.0002413,1.3304254,1.0718079,0.13805148
309,1747638749390,0.11746112250000001,0.24598995,1.017445075,1.3491134749999998,1.066157575,0.2324273825
310,1747638749400,0.13131863500000002,0.2619055,1.03464885,1.3678015499999998,1.0605072500000001,0.326803285
311,1747638749410,0.12973318,0.2857179,1.0529578,1.4506859,0.9429191,0.35368055
312,1747638749420,0.12826968,0.2974259,1.03294135,1.5123433,0.794177785,0.378114445
313,1747638749430,0.12680618,0.3091339,1.0129249,1.5740007,0.64543647,0.40254834
314,1747638749440,0.14070943,0.3035238,0.98877716,1.5977473,0.5330406,0.40926766
315,1747638749450,0.16243326,0.29352322,0.97229755,1.6155001,0.48814332,0.39949411
316,1747638749460,0.18415709,0.28352264,0.95581794,1.6332529,0.44324604,0.38972056
317,1747638749470,0.17485777,0.3120609,0.96679425,1.6793718,0.34612134,0.2858765
318,1747638749480,0.156442055,0.31169501499999996,0.929825605,1.66253535,0.42583691999999995,0.24036839
319,1747638749490,0.13802634,0.31132913,0.89285696,1.6456989,0.5055525,0.19486028
320,1747638749500,0.096042186,0.34380054,0.9128582,1.5740007,0.59473616,0.20585553
321,1747638749510,0.096042186,0.34819105,0.92738647,1.5291416,0.58160293,0.242200945
322,1747638749520,0.096042186,0.35258156,0.94191474,1.4842825,0.5684697,0.27854636
323,1747638749530,0.0918956,0.3420931,0.98853326,1.5161229,0.53975993,0.30053684
324,1747638749540,0.0918956,0.3420931,0.98853326,1.5161229,0.53975993,0.30053684
325,1747638749550,0.063113436,0.3781928,0.99829,1.5759096,0.4169796,0.34696123
326,1747638749560,0.077687458,0.396135925,0.9547279900000001,1.6553388249999998,0.278603611,0.39934139
327,1747638749570,0.09226148,0.41407905,0.91116598,1.73476805,0.140227622,0.45172155
328,1747638749580,0.14583169,0.4423734,0.82721287,1.703653,0.16164546,0.423928
329,1747638749590,0.16095452,0.4550723,0.825261535,1.6644060500000002,0.21692712999999997,0.3903314
330,1747638749600,0.17607735,0.4677712,0.8233102,1.6251591,0.2722088,0.3567348
331,1747638749610,0.17510168,0.44334903,0.80303466,1.4942851,0.49638975,0.15943113
332,1747638749620,0.140572225,0.46287763,0.77838385,1.4269774,0.569691425,0.14080029
333,1747638749630,0.10604277,0.48240623,0.75373304,1.3596697,0.6429931,0.12216945
334,1747638749640,0.09726177,0.48216227,0.78474087,1.3179793,0.60512054,0.1643179
335,1747638749650,0.08640748000000001,0.48777236,0.7921803350000001,1.3148487,0.54556294,0.17928366
336,1747638749660,0.07555319,0.49338245,0.7996198,1.3117181,0.48600534,0.19424942
337,1747638749670,0.09384694,0.5217073,0.78937536,1.3204226,0.33207184,0.21623993
338,1747638749680,0.11349747500000001,0.534269,0.78571658,1.3244695499999999,0.37055521999999996,0.20555010499999998
339,1747638749690,0.13314801,0.5468307,0.7820578,1.3285165,0.4090386,0.19486028
340,1747638749700,0.130952755,0.5473185,0.77730145,1.33412865,0.40445724,0.17012096
341,1747638749710,0.1287575,0.5478063,0.7725451,1.3397408,0.39987588,0.14538164
342,1747638749720,0.13217235,0.57247245,0.70641315,1.3410388,0.5098284,0.06352811
343,1747638749730,0.13217235,0.572960255,0.691884875,1.33416675,0.56327752,0.055892522
344,1747638749740,0.13217235,0.57344806,0.6773566,1.3272947,0.61672664,0.048256934
345,1747638749750,0.0787241,0.60759646,0.6122004,1.2170368,0.74744797,0.027488127
346,1747638749760,0.060780983000000004,0.60759646,0.603419375,1.14163535,0.6576534350000001,0.0729962485
347,1747638749770,0.042837866,0.60759646,0.59463835,1.0662339,0.5678589,0.11850437
348,1747638749780,0.041374367,0.6229632,0.6317137,1.012632,0.3497864,0.15271181
349,1747638749790,0.038447366999999996,0.62761285,0.6479494,1.00827975,0.251134575,0.16492875499999998
350,1747638749800,0.035520367,0.6322625,0.6641851,1.0039275,0.15248275,0.1771457
351,1747638749810,0.051862784,0.6264085,0.69174767,1.0818105,0.0045813546,0.28893074
352,1747638749820,0.09799352,0.6378726,0.712755,1.1011286,0.06994201,0.30725616
353,1747638749830,0.11997651,0.65519065,0.7398297,1.1640458,0.14332004,0.2816006
354,1747638749840,0.11910756,0.6708165749999999,0.727877815,1.2151279000000001,0.158285795,0.258082975
355,1747638749850,0.11823861,0.6864425,0.71592593,1.26621,0.17325155,0.23456535
356,1747638749860,0.06335735,0.7332745,0.6180544,1.3017155,0.086434886,0.13927318
357,1747638749870,0.035954838834000004,0.752254265,0.5960942650000001,1.204209,0.04535540825,0.159889275
358,1747638749880,0.008552327668000001,0.77123403,0.57413413,1.1067025,0.0042759305000000004,0.18050537
359,1747638749890,0.051618867,0.7611115,0.6805275,1.0518789,-0.011300675,0.22418094
360,1747638749900,0.0710254885,0.751110885,0.65977935,1.17744625,-0.005803049314999999,0.24189552
361,1747638749910,0.09043211,0.74111027,0.6390312,1.3030136,-0.00030542363,0.2596101
362,1747638749920,0.10384752,0.72888404,0.522622,1.3677634,0.1518719,0.22295925
363,1747638749930,0.09878624999999999,0.7272985574999999,0.4699740875,1.36092955,0.2294495,0.201274175
364,1747638749940,0.09372498,0.725713075,0.417326175,1.3540957,0.3070271,0.1795891
365,1747638749950,0.06579652,0.73254275,0.35739893,1.1920685,0.4359159,0.09468132
366,1747638749960,0.0465118585,0.746827125,0.390967935,1.08024525,0.38979692,0.07177454999999999
367,1747638749970,0.027227197,0.7611115,0.42453694,0.968422,0.34367794,0.04886778
368,1747638749980,0.014162411000000001,0.75403792,0.45345631,0.9715144,0.29755897,0.0519220175
369,1747638749990,0.001097625,0.74696434,0.48237568,0.9746068,0.25144,0.054976255
370,1747638750000,-0.08601111,0.8399271,0.50554776,1.0301175,-0.22937314,0.14171657
371,1747638750010,-0.089669865,0.83919532,0.49969378,1.02168015,-0.28068432,0.18019994499999997
372,1747638750020,-0.09332862,0.83846354,0.4938398,1.0132428,-0.3319955,0.21868332
373,1747638750030,-0.057960697,0.8338291,0.48627836,0.97277427,-0.34360158,0.29687178
374,1747638750040,0.006722951499999998,0.7991777,0.49688873,0.995184735,-0.09891907500000002,0.27365956999999996
375,1747638750050,0.0714066,0.7645263,0.5074991,1.0175952,0.14576343,0.25044736
376,1747638750060,0.09360302,0.7806248,0.4603927,1.0382112,0.26915458,0.16615045
377,1747638750070,0.0994570185,0.7869742750000001,0.4241558425,1.0210693425,0.38658996,0.1043021675
378,1747638750080,0.105311017,0.7933237500000001,0.387918985,1.003927485,0.50402534,0.042453885
379,1747638750090,0.10555494,0.80285174,0.319104,0.9565868,0.6161158,0.0
380,1747638750100,0.0895784,0.84543042,0.30128283,0.80330233,0.50677415,-0.02779355
381,1747638750110,0.07360186,0.8880091,0.28346166,0.65001786,0.3974325,-0.0555871
382,1747638750120,0.08677336,0.8887409,0.33422682,0.47806433,0.4737884,-0.034818295
383,1747638750130,0.08201698299999999,0.884838225,0.41196002,0.46214411499999997,0.6210026,0.033902022500000004
384,1747638750140,0.077260606,0.88093555,0.48969322,0.4462239,0.7682168,0.10262234
385,1747638750150,0.08140719,0.85605603,0.5721675,0.7446992,0.7138514,0.20829892
386,1747638750160,0.10579886,0.859227,0.53558004,0.7446992,0.7138514,0.20829892
387,1747638750170,0.10579886,0.859227,0.53558004,1.221389,0.40170842,0.2736596
388,1747638750180,0.12630311,0.89107335,0.39183689,1.2394472,0.29419931,0.24311722
389,1747638750190,0.14680736,0.9229197,0.24809374,1.2575054,0.1866902,0.21257484
390,1747638750200,0.22586684,0.93999386,0.079211935,0.6668161,0.4127037,-0.046424393
391,1747638750210,0.223671595,0.916562645,0.1200832275,0.54468485,0.631081585,-0.0879620015
392,1747638750220,0.22147635,0.89313143,0.16095452,0.4225536,0.84945947,-0.12949961
393,1747638750230,0.1783031,0.86581266,0.33154374,0.40827504,1.295378,-0.1643179
394,1747638750240,0.15279854999999998,0.88337466,0.29103831999999996,0.49142662000000004,1.23826375,-0.159125705
395,1747638750250,0.127294,0.90093666,0.2505329,0.5745782,1.1811495,-0.15393351
396,1747638750260,0.127294,0.90093666,0.2505329,0.77898294,0.90077066,-0.10934166
397,1747638750270,0.126928135,0.91290388,0.167555502,0.79986629,0.623446,-0.065971505
398,1747638750280,0.12656227,0.9248711,0.084578104,0.82074964,0.34612134,-0.02260135
399,1747638750290,0.22269592,0.86581266,0.014269125,0.6119926,0.13293563,-0.23090026
400,1747638750300,0.23258979,0.8322588799999999,-0.008415124999999999,0.530368135,0.291450495,-0.319511295
401,1747638750310,0.24248366,0.7987051,-0.031099375,0.44874367,0.44996536,-0.40812233
402,1747638750320,0.184401,0.7974856,-0.07088828,0.18142164,1.27522,-0.55961245
403,1747638750330,0.147661055,0.816755,-0.046603327,0.0967047585,1.4199907999999999,-0.561750425
404,1747638750340,0.11092111,0.8360244,-0.022318374,0.011987877,1.5647616,-0.5638884
405,1747638750350,0.07165052,0.86483705,-0.007927292,-0.029778805,1.2605597,-0.5706077
406,1747638750360,0.048463193,0.870203225,-0.0012195835000000004,-0.06950296650000001,0.92932776,-0.56205585
407,1747638750370,0.025275866,0.8755694,0.005488125,-0.109227128,0.59809582,-0.553504
408,1747638750380,0.005000292,0.8343169,0.015763115,-0.19241689,0.044286426,-0.473483
409,1747638750390,-0.03306595400000001,0.8088124,0.027349157500000002,-0.218568785,-0.09468132700000001,-0.39071318499999996
410,1747638750400,-0.0711322,0.7833079,0.0389352,-0.24472068,-0.23364908,-0.30794337
411,1747638750410,-0.10308529,0.78867406,0.037471697,-0.24846213,-0.22570807,-0.17103723
412,1747638750420,-0.070994999,0.783673765,0.0324714055,-0.27434678,-0.19547112500000002,-0.06749862000000001
413,1747638750430,-0.038904708,0.77867347,0.027471114,-0.30023143,-0.16523418,0.03603999
414,1747638750440,-0.024635583000000003,0.7758684149999999,0.019040745,-0.32325274000000004,-0.151490115,0.03787253
415,1747638750450,-0.010366458,0.77306336,0.010610376,-0.34627405,-0.13774605,0.03970507
416,1747638750460,-0.002561125,0.7901376,0.024544114,-0.43973368,-0.12247488,0.021379653
417,1747638750470,-0.0187815825,0.79686055,0.079821732,-0.562189465,-0.253501625,0.013438638999999999
418,1747638750480,-0.03500204,0.8035835,0.13509935,-0.68464525,-0.38452837,0.005497625
419,1747638750490,-0.04988096,0.83017033,0.17095509,-0.76378816,-0.6386408,0.045813546
420,1747638750500,-0.048783335,0.842015595,0.186459045,-0.78776388,-0.674375375,0.076050483
421,1747638750510,-0.04768571,0.85386086,0.201963,-0.8117396,-0.71010995,0.10628742
422,1747638750520,0.0035367915,0.8487081,0.26907057,-0.8192225,-0.7229377,0.15271181
423,1747638750530,0.03184637075,0.8562847499999999,0.26455811,-0.818611675,-0.640473335,0.112395895
424,1747638750540,0.06015595,0.8638614,0.26004565,-0.81800085,-0.55800897,0.07207998
425,1747638750550,0.08433419,0.84992766,0.24394716,-0.8454126,-0.34604496,0.01343864
426,1747638750560,0.0939689,0.84456153,0.27041213,-0.84167115,-0.2257080575,-0.070247435
427,1747638750570,0.10360361,0.8391954,0.2968771,-0.8379297,-0.105371155,-0.15393351
428,1747638750580,0.059431822925,0.8482965,0.29859213,-0.8457180099999999,-0.17882553999999998,-0.2115058675
429,1747638750590,0.015260035849999999,0.8573976000000001,0.30030716,-0.8535063199999999,-0.25227992499999996,-0.269078225
430,1747638750600,-0.036953375,0.85163504,0.32081142,-0.86160004,-0.32100025,-0.2699945
431,1747638750610,-0.0562380375,0.84919587,0.31971378500000003,-0.92734247,-0.49784051,-0.171648085
432,1747638750620,-0.0755227,0.8467567,0.31861615,-0.9930849,-0.67468077,-0.07330167
433,1747638750630,-0.039392542,0.8382196,0.35130098,-1.0983797,-0.573891,0.031764057
434,1747638750640,-0.007058337999999997,0.8423662,0.37241502,-1.13483965,-0.4847073,0.0320694805
435,1747638750650,0.025275866,0.8465128,0.39352906,-1.1712996,-0.3955236,0.032374904
436,1747638750660,0.12656227,0.8233407,0.4921324,-1.1357177,-0.06566608,-0.32749048
437,1747638750670,0.06078098900000001,0.8396983650000001,0.49749855000000004,-1.047259425,-0.15393351,-0.43988638999999996
438,1747638750680,-0.005000292,0.85605603,0.5028647,-0.95880115,-0.24220094,-0.5522823
439,1747638750690,-0.07771795,0.8599587,0.47847307,-0.97995174,-0.39002597,-0.561445
440,1747638750700,-0.089182033,0.84555238,0.46699373499999997,-1.12079017,-0.30847786,-0.475010115
441,1747638750710,-0.100646116,0.83114606,0.4555144,-1.2616286,-0.22692975,-0.38857523
442,1747638750720,-0.063326865,0.762575,0.4967668,-1.3974658,0.07543964,-0.30175856
443,1747638750730,-0.037822328749999995,0.753550065,0.52751555,-1.4158294,0.25659402,-0.27946262
444,1747638750740,-0.0123177925,0.74452513,0.5582643,-1.434193,0.4377484,-0.25716668
445,1747638750750,0.030398116,0.70790714,0.6454035,-1.2229925,0.6930826,-0.35497862
446,1747638750760,-0.009741422000000003,0.724508705,0.60720005,-0.97655385,0.2987425025,-0.42278266
447,1747638750770,-0.04988096,0.74111027,0.5689966,-0.7301152,-0.095597595,-0.4905867
448,1747638750780,-0.07721486999999999,0.757574685,0.52422265,-0.694609685,-0.4401154475,-0.48295109999999997
449,1747638750790,-0.10454878,0.7740391,0.4794487,-0.65910417,-0.7846333,-0.4753155
450,1747638750800,-0.100646116,0.77842957,0.38767505,-0.95819026,-1.0741749,-0.34398335
451,1747638750810,-0.082108448,0.754998335,0.426473055,-1.11987393,-0.917798,-0.293244855
452,1747638750820,-0.06357078,0.7315671,0.46527106,-1.2815576,-0.7614211,-0.24250636
453,1747638750830,-0.020854875,0.68375945,0.69125986,-1.5083346,0.027182704,-0.23884128
454,1747638750840,-0.022318375,0.680085425,0.7367807799999999,-1.4728291,0.141754752,-0.26113721
455,1747638750850,-0.023781875,0.6764114,0.7823017,-1.4373236,0.2563268,-0.28343314
456,1747638750860,-0.05454587,0.70376056,0.84160393,-0.95757943,-0.013744064,-0.34520507
457,1747638750870,-0.061619452000000005,0.71778578,0.814270045,-0.85476619,-0.233038232,-0.3598654
458,1747638750880,-0.068693034,0.731811,0.78693616,-0.75195295,-0.4523324,-0.37452573
459,1747638750890,-0.09064553,0.71985906,0.64268994,-0.62665296,-0.961779,-0.33482066
460,1747638750900,-0.08162061500000001,0.7005743950000001,0.61120945,-0.7298097649999999,-0.892142415,-0.2303276
461,1747638750910,-0.0725957,0.68128973,0.57972896,-0.83296657,-0.82250583,-0.12583454
462,1747638750920,-0.051344458,0.66031295,0.59732145,-0.91581273,-0.63558656,-0.025655584
463,1747638750930,-0.045612417249999995,0.6487269,0.59878495,-0.9313893525,-0.5485408300000001,0.038177952500000015
464,1747638750940,-0.039880376499999995,0.63714085,0.60024845,-0.946965975,-0.46149510000000005,0.10201148900000001
465,1747638750950,0.028202865,0.6442144,0.6270793,-0.9700254,-0.44378054,0.22784603
466,1747638750960,0.0746308825,0.66294264,0.65703529,-0.9824714425000001,-0.556481845,0.19440214150000001
467,1747638750970,0.1210589,0.68167088,0.68699128,-0.994917485,-0.6691831500000001,0.160958253
468,1747638750980,0.144055665,0.68198339,0.7206060599999999,-0.9857356925,-0.8231166599999999,0.005497626499999991
469,1747638750990,0.16705243,0.6822959,0.75422084,-0.9765539,-0.9770501699999999,-0.149963
470,1747638751000,0.08433419,0.64909273,0.7608371,-0.9650623,-1.1047173,-0.32077116
471,1747638751010,0.051390194,0.6332229149999999,0.7616908,-0.94074295,-1.1102149,-0.299047905
472,1747638751020,0.018446198,0.6173531,0.7625445,-0.9164236,-1.1157125,-0.27732465
473,1747638751030,0.027715031,0.5587826,0.6654047,-0.8030351,-0.93612343,-0.004886778
474,1747638751040,0.0886027305,0.5778233500000001,0.5926718,-1.0077071,-0.576945235,-0.051616594
475,1747638751050,0.14949043,0.5968641,0.5199389,-1.2123791,-0.21776704,-0.09834641
476,1747638751060,0.16266192,0.5714967,0.5499711,-1.5569733,0.2618244,-0.27976805
477,1747638751070,0.1350840975,0.5650177000000001,0.70725165,-1.66352795,0.329323025,-0.391591275
478,1747638751080,0.107506275,0.5585387,0.8645322,-1.7700826,0.39682165,-0.5034145
479,1747638751090,-0.007683375,0.56195354,1.0397558,-1.5245221,-0.27946264,-0.59076566
480,1747638751100,-0.0513597075,0.55463602,1.01951075,-1.26407205,-0.95811392,-0.46829078
481,1747638751110,-0.09503604,0.5473185,0.9992657,-1.003622,-1.6367652,-0.3458159
482,1747638751120,-0.090035745,0.51730152,0.9780296500000001,-0.916729,-1.77573295,-0.22574624000000001
483,1747638751130,-0.08503545,0.48728454,0.9567936,-0.829836,-1.9147007,-0.10567658
484,1747638751140,0.06262561,0.42188436,0.7598614,-0.7176692,-1.413806,0.3268033
485,1747638751150,0.096667225,0.40333146,0.7159259250000001,-0.752258425,-1.16519115,0.35337514999999997
486,1747638751160,0.13070884,0.38477856,0.67199045,-0.78684765,-0.9165763,0.379947
487,1747638751170,0.20220692,0.42139652,0.54606843,-1.1563338,-0.12858334,0.21257484
488,1747638751180,0.216232125,0.43775418,0.6154932399999999,-1.4644299,0.04585172500000001,0.035429135
489,1747638751190,0.23025733,0.45411184,0.68491805,-1.772526,0.22028679,-0.14171657
490,1747638751200,0.13997768,0.44993478,0.89236915,-2.032365,-0.00030542363,-0.35131353
491,1747638751210,0.09384693999999999,0.43176301,0.9769319750000001,-2.0492015500000003,-0.18355960181499997,-0.36353046499999997
492,1747638751220,0.0477162,0.41359124,1.0614948,-2.0660381,-0.36681378,-0.3757474
493,1747638751230,-0.07966928,0.3403857,1.1796114,-1.8080316,-0.76875126,-0.06352811
494,1747638751240,-0.061428887875,0.32634525000000003,1.16283455,-1.542293925,-0.809983455,0.221279415
495,1747638751250,-0.04318849575,0.3123048,1.1460577,-1.27655625,-0.85121565,0.50608694
496,1747638751260,0.10287185,0.32035407,1.007071,-0.8740461,-0.78096825,0.7989882
497,1747638751270,0.18621514,0.36111863499999997,0.9516714,-0.8743515,-0.735765545,0.7204943500000001
498,1747638751280,0.26955843,0.4018832,0.8962718,-0.8746569,-0.69056284,0.6420005
499,1747638751290,0.336666,0.42164046,0.8862712,-1.1033429,-0.5555656,0.23578705
500,1747638751300,0.32507995,0.41456687999999997,0.9212885,-1.1922975249999999,-0.5361711874999999,0.03100050500000001
501,1747638751310,0.3134939,0.4074933,0.9563058,-1.28125215,-0.516776775,-0.17378604
502,1747638751320,0.14607559,0.37258273,1.0939357,-1.3282874,-0.5971032,-0.3598654
503,1747638751330,0.101164435,0.33256514,1.1141960499999999,-1.21550975,-0.55281675,-0.24773674499999998
504,1747638751340,0.05625328,0.29254755,1.1344564,-1.1027321,-0.5085303,-0.13560809
505,1747638751350,0.060049235,0.290230345,1.12091905,-1.0354243,-0.45324864,-0.060473877999999995
506,1747638751360,0.06384519,0.28791314,1.1073817,-0.9681165,-0.39796698,0.014660334
507,1747638751370,0.12363527,0.3296229,0.9938995,-0.8515974,-0.12125318,0.12583454
508,1747638751380,0.139611805,0.319744275,0.967297335,-0.8737406299999999,-0.0320694815,0.10811997
509,1747638751390,0.15558834,0.30986565,0.94069517,-0.89588386,0.057114217,0.0904054
510,1747638751400,0.1770835,0.3123048,0.96923333,-0.95819026,0.02535016,0.047646087
511,1747638751410,0.16353088500000001,0.30132855000000003,1.014754315,-0.925777195,-0.20432841999999998,0.0238230435
512,1747638751420,0.14997827,0.2903523,1.0602753,-0.89336413,-0.434007,0.0
513,1747638751430,0.1680281,0.2944989,1.058324,-0.7388198,-1.0130901,0.036650836
514,1747638751440,0.18255639,0.27606793,1.0448933,-0.75722155,-1.0179769,0.0378725305
515,1747638751450,0.19708468,0.25763696,1.0314626,-0.7756233,-1.0228637,0.039094225
516,1747638751460,0.21050009,0.20053,1.0312186,-0.87839836,-0.7009472,0.07574506
517,1747638751470,0.2201957775,0.1815578525,1.0364704750000002,-0.87530595,-0.408962225,0.11911522000000001
518,1747638751480,0.229891465,0.16258570500000002,1.0417223500000001,-0.87221354,-0.11697725,0.16248538
519,1747638751490,0.2549234,0.14073992,1.0885696,-0.7980719,-0.04550812,0.18814096
520,1747638751500,0.27518373500000004,0.1596587,1.11029345,-0.7609629499999999,-0.09987352999999999,0.17500774
521,1747638751510,0.29544407,0.17857748,1.1320173,-0.723854,-0.15423894,0.16187452
522,1747638751520,0.32422623,0.20126174,1.0880818,-0.5581617,-0.41690326,-0.06352811
523,1747638751530,0.31556719499999997,0.18809024,1.0455031,-0.5952325,-0.35887278,-0.19031710500000001
524,1747638751540,0.30690816,0.17491874,1.0029244,-0.6323033,-0.3008423,-0.3171061
525,1747638751550,0.28638867,0.15025267,0.9995096,-0.6323033,-0.3008423,-0.3171061
526,1747638751560,0.244297795,0.127431215,1.00109505,-0.6943043,-0.183559615,-0.29752080000000003
527,1747638751570,0.20220692,0.10460976,1.0026805,-0.7563053,-0.06627693,-0.2779355
528,1747638751580,0.18635234,0.09363351,0.9934116,-0.75874865,-0.0027488125,-0.16859384
529,1747638751590,0.19720662,0.087413635,1.0054854999999998,-0.7572215250000001,0.026266431750000003,-0.12400199
530,1747638751600,0.2080609,0.08119376,1.0175594,-0.7556944,0.055281676,-0.07941014
531,1747638751610,0.2739489,0.06533918,1.0507625,-0.6534538,-0.008246438,-0.047646087
532,1747638751620,0.256874735,0.072290805,1.0214772650000001,-0.56312479,-0.198219934,-0.0794101435
533,1747638751630,0.23980057,0.07924243,0.99219203,-0.47279578,-0.38819343,-0.1111742
534,1747638751640,0.23515091,0.07997418,0.971687795,-0.482454805,-0.46699273500000005,-0.103233185
535,1747638751650,0.23050125,0.08070593,0.95118356,-0.49211383,-0.54579204,-0.09529217
536,1747638751660,0.23833708,0.037990022,0.95801324,-0.5911474,-0.6801784,-0.026266431
537,1747638751670,0.27286652,0.0113878595,0.96411112,-0.62482037,-0.5100574499999999,0.013133215999999996
538,1747638751680,0.30739596,-0.015214303,0.970209,-0.65849334,-0.3399365,0.052532863
539,1747638751690,0.32129923,-0.020824386,0.94264644,-0.65849334,-0.16462334,0.04214846
540,1747638751700,0.312884115,-0.026800345,0.933850195,-0.70678845,0.006146649999999976,0.049173205
541,1747638751710,0.304469,-0.032776304,0.92505395,-0.75508356,0.17691664,0.05619795
542,1747638751720,0.27785155,-0.017165635,0.9504518,-0.76936215,0.11514471,0.08063184
543,1747638751730,0.26687531,-0.0100768071,0.9589888799999999,-0.754739975,0.016798300000000002,0.09865183
544,1747638751740,0.25589907,-0.0029879792,0.96752596,-0.7401178,-0.08154811,0.11667182
545,1747638751750,0.2807786,-0.031556718,0.96752596,-0.6372664,-0.49753508,0.21929416
546,1747638751760,0.3116493,-0.039362052499999994,0.9471436799999999,-0.6142069,-0.55648184,0.211963995
547,1747638751770,0.34252,-0.047167387,0.9267614,-0.5911474,-0.6154286,0.20463383
548,1747638751780,0.33886125,-0.0419231785,0.91346795,-0.621689785,-0.552816765,0.187224685
549,1747638751790,0.3352025,-0.03667897,0.9001745,-0.65223217,-0.49020493,0.16981554
550,1747638751800,0.2546795,0.013110521,0.95313495,-0.82609457,-0.30267483,0.18753012
551,1747638751810,0.225028375,0.0362978505,0.994128125,-0.873129815,-0.310921265,0.24464434000000002
552,1747638751820,0.19537725,0.05948518,1.0351213,-0.92016506,-0.3191677,0.30175856
553,1747638751830,0.24784984,0.050185855,1.1273829,-0.92703706,-0.35642937,0.38666633
554,1747638751840,0.271768905,0.042868355,1.1478871,-0.9273425049999999,-0.302369385,0.4031592
555,1747638751850,0.29568797,0.035550855,1.1683913,-0.92764795,-0.2483094,0.41965207
556,1747638751860,0.3810893,-0.02862972,1.2545244,-0.83915144,0.19646375,0.19913621
557,1747638751870,0.358633725,-0.040825553,1.25708555,-0.74195037,0.33482065,0.132553855
558,1747638751880,0.33617815,-0.053021386,1.2596467,-0.6447493,0.47317755,0.0659715
559,1747638751890,0.19488941,-0.10110346,1.1757088,-0.3736858,0.64604735,0.00061084726
560,1747638751900,0.194279625,-0.093176165,1.07515415,-0.2964518,0.663761925,0.14477079363
561,1747638751910,0.19366984,-0.08524887,0.9745995,-0.2192178,0.6814765,0.28893074
562,1747638751920,0.24077624,-0.034727637,0.9606963,-0.2902288,0.5495335,0.41720867
563,1747638751930,0.25858216,-0.014833183,0.9672820499999999,-0.3101577,0.48234028500000004,0.437672065
564,1747638751940,0.27638808,0.005061271,0.9738678,-0.3300866,0.41514707,0.45813546
565,1747638751950,0.31739658,0.048234522,1.1044546,-0.29832253,-0.24403349,0.34879377
566,1747638751960,0.321787075,0.0337214795,1.1471553,-0.22822780999999998,-0.382084945,0.29320667499999997
567,1747638751970,0.32617757,0.019208437,1.189856,-0.15813309,-0.5201364,0.23761958
568,1747638751980,0.35059974,-0.06451596,1.1940026,0.10040802,-0.38330665,0.09529217
569,1747638751990,0.34168151999999996,-0.045475215,1.1533752,0.132210255,0.06662054499999998,0.049478626799999995
570,1747638752000,0.3327633,-0.02643447,1.1127478,0.16401249,0.51654774,0.0036650836
571,1747638752010,0.29520014,0.029452939,1.1222606,0.123467505,0.73889613,0.004275931
572,1747638752020,0.29520014,0.029452939,1.1222606,0.123467505,0.73889613,0.004275931
573,1747638752030,0.2871204,0.055338595,1.1615616,0.12789614,0.78593135,0.03298575
574,1747638752040,0.29359944,0.0621682625,1.21645815,0.16340164000000001,0.725152045,0.025655584000000002
575,1747638752050,0.30007848,0.06899793,1.2713547,0.19890714,0.66437274,0.018325418
576,1747638752060,0.3298363,0.072656676,1.4024293,0.6979694,-0.032069482,-0.11178505
577,1747638752070,0.36656862749999997,0.04977424415,1.3617334,0.81261775,-0.11575555600000001,-0.160347405
578,1747638752080,0.40330095499999996,0.026891812299999998,1.3210375,0.9272661,-0.19944163,-0.20890976
579,1747638752090,0.41160935,-0.031312805,1.175221,1.0992197,0.14393088,-0.51257724
580,1747638752100,0.33180288999999996,-0.020946345499999998,1.13067575,1.0302130250000001,0.578701415,-0.583282795
581,1747638752110,0.25199643,-0.010579886,1.0861305,0.9612063500000001,1.01347195,-0.65398835
582,1747638752120,0.19537725,0.0006707709,1.1129917,0.88175803,1.4242667,-0.57549447
583,1747638752130,0.17121425499999998,0.01884256245,1.1588633000000002,0.966818465,1.26605725,-0.43526685499999995
584,1747638752140,0.14705126,0.037014354,1.2047349,1.0518789,1.1078478,-0.29503924
585,1747638752150,0.15388094,0.036770437,1.1825385,1.2107756,0.7077429,-0.2247918
586,1747638752160,0.160466685,0.0326238545,1.16459535,1.27151675,0.51960194,-0.20371756000000002
587,1747638752170,0.16705243,0.028477272,1.1466522,1.3322579,0.33146098,-0.18264332
588,1747638752180,0.19074284,0.033599522,1.1000338,1.3983058,-0.033902023,-0.14660335
589,1747638752190,0.194645505,0.040917022,1.0857646,1.3359993000000001,0.1698537135,-0.142021995
590,1747638752200,0.19854817,0.048234522,1.0714954,1.2736928,0.37360945,-0.13744064
591,1747638752210,0.19964579500000001,0.056542931,1.0812521,1.2313153,0.5635829400000001,-0.1307213175
592,1747638752220,0.20074342,0.06485134,1.0910088,1.1889378,0.75355643,-0.124001995
593,1747638752230,0.20098734,0.09314568,1.1640009,1.1110548,1.1878688,-0.08246438
594,1747638752240,0.20074342,0.10755201,1.1880267,1.2291392,1.1225081499999998,-0.1007898
595,1747638752250,0.2004995,0.12195834,1.2120525,1.3472236,1.0571475,-0.11911522
596,1747638752260,0.2004995,0.12195834,1.2120525,1.3472236,1.0571475,-0.11911522
597,1747638752270,0.108253266,0.16356136999999998,1.14128615,1.49054365,0.6011500399999999,-0.081853535
598,1747638752280,0.016007032,0.2051644,1.0705198,1.6338637,0.14515258,-0.04459185
599,1747638752290,0.017470533,0.19565167,1.0602753,1.5615547,0.12003148,0.06230642
600,1747638752300,0.030885948749999996,0.18632185,1.0763813999999998,1.5220023249999999,0.20879522,0.1241547025
601,1747638752310,0.044301364499999996,0.17699203,1.0924874999999998,1.48244995,0.29755896,0.186002985
602,1747638752320,0.07433361,0.18369974,1.138603,1.5005463,0.5379274,0.27671382
603,1747638752330,0.0816511075,0.2026718875,1.156363175,1.6027105000000001,0.545562975,0.28725093
604,1747638752340,0.088968605,0.22164403500000002,1.17412335,1.7048747,0.5531985500000001,0.29778804000000003
605,1747638752350,0.08067544,0.24861206,1.1071378,1.8450642,0.39376742,0.30786702
606,1747638752360,0.0940908575,0.25763698,1.07785255,1.84475875,0.30000236,0.30572906
607,1747638752370,0.107506275,0.2666619,1.0485673,1.8444533,0.2062373,0.3035911
608,1747638752380,0.12485485,0.2844983,1.0148762,1.826357,0.17630579,0.26877278
609,1747638752390,0.12485485,0.2844983,1.0148762,1.826357,0.17630579,0.26877278
610,1747638752400,0.13997768,0.31084132,1.0131688,1.7971126,0.1390441,0.2247918
611,1747638752410,0.12410784999999999,0.32536959499999996,1.0120712,1.76004185,0.112739493,0.172564355
612,1747638752420,0.10823802,0.33989787,1.0109736,1.7229711,0.086434886,0.12033691
613,1747638752430,0.09238344,0.32864723,1.0156081,1.6531818,0.37360945,0.18447587
614,1747638752440,0.10409143700000001,0.32413476500000005,1.04708855,1.68494585,0.428280275,0.21226942
615,1747638752450,0.115799434,0.3196223,1.078569,1.7167099,0.4829511,0.24006297
616,1747638752460,0.14875868,0.3550207,1.0514942,1.9173732,0.4890596,0.255945
617,1747638752470,0.15839339000000002,0.38698904,0.9450856000000001,1.9419598,0.441718935,0.213491115
618,1747638752480,0.1680281,0.41895738,0.838677,1.9665464,0.39437827,0.17103723
619,1747638752490,0.15729576,0.44432473,0.80279076,1.8930156,0.31130302,0.131943
620,1747638752500,0.14351447,0.446276065,0.7982783,1.81856865,0.1652723545,0.099262675
621,1747638752510,0.12973318,0.4482274,0.79376584,1.7441217,0.019241689,0.06658235
622,1747638752520,0.107750185,0.4413977,0.802059,1.6301223,-0.04795151,0.0219905
623,1747638752530,0.10372556250000001,0.43737309,0.8068154,1.58617945,0.024128468,0.022601348
624,1747638752540,0.09970094,0.43334848,0.8115718,1.5422366,0.096208446,0.023212196
625,1747638752550,0.15241744,0.44895914,0.8567268,1.4980265,0.49516806,0.02015796
626,1747638752560,0.16877509,0.461779995,0.8066934,1.58931,0.63077615,-0.067804045
627,1747638752570,0.18513274,0.47460085,0.75666,1.6805935,0.76638424,-0.15576605
628,1747638752580,0.13729459,0.5121945,0.69443077,1.6786846,0.60206634,-0.20768806
629,1747638752590,0.11020459499999999,0.5347568,0.655022985,1.6369561,0.49516806,-0.20493925000000002
630,1747638752600,0.0831146,0.5573191,0.6156152,1.5952276,0.38826978,-0.20219044
631,1747638752610,0.010153031,0.6012546,0.6678439,1.3684505,-0.114533864,-0.12033691
632,1747638752620,0.0162509485,0.595034725,0.69127513,1.3272947,-0.177451132,-0.08002099
633,1747638752630,0.022348866,0.58881485,0.71470636,1.2861389,-0.2403684,-0.03970507
634,1747638752640,0.07677277,0.51975596,0.7330001,1.3166813,-0.12003148,0.01099525
635,1747638752650,0.0668789,0.54292803,0.6641851000000001,1.3026699499999999,0.06784222999999998,0.029015245000000002
636,1747638752660,0.05698503,0.5661001,0.5953701,1.2886586,0.25571594,0.04703524
637,1747638752670,0.054789782499999995,0.5835554000000001,0.5893789,1.2572,0.27679016999999995,0.0522274415
638,1747638752680,0.052594535,0.6010107,0.5833877,1.2257414,0.2978644,0.057419643
639,1747638752690,0.016494865,0.66421556,0.6090294,1.0948673,0.10353861,0.029931515
640,1747638752700,0.030398115000000003,0.65397108,0.6179323750000001,1.0708916,-0.05528168,0.0259610075
641,1747638752710,0.044301365,0.6437266,0.62683535,1.0469159,-0.21410197,0.0219905
642,1747638752720,0.049911447,0.61369437,0.62342054,1.0843302,-0.10903624,0.026266431
643,1747638752730,0.0301541975,0.626881085,0.6356316200000001,1.09116405,-0.09834641,0.0302369405
644,1747638752740,0.010396948,0.6400678,0.6478427,1.0979979,-0.08765658,0.03420745
645,1747638752750,-0.0018293752,0.68473506,0.6134199,1.0051491,-0.021685077,0.03603999
646,1747638752760,0.017089411399999997,0.6846131099999999,0.651974,1.002973,0.16618863650000001,0.035734565999999995
647,1747638752770,0.036008198,0.68449116,0.6905281,1.0007969,0.35406235,0.035429142
648,1747638752780,0.03137378,0.70668757,0.71519417,1.1222792,0.34367794,0.00061084726
649,1747638752790,0.0144063275,0.7125415850000001,0.63782686,1.23039915,0.28870168500000004,0.037261681629999995
650,1747638752800,-0.002561125,0.7183956,0.56045955,1.3385191,0.23372543,0.073912516
651,1747638752810,-0.016708292,0.7518426,0.4721007,1.2668209,0.22517358,0.0775776
652,1747638752820,-0.0015702135000000006,0.7728194500000001,0.46685648999999996,1.081772325,0.23433629,0.12339115
653,1747638752830,0.013567865,0.7937963,0.46161228,0.89672375,0.243499,0.1692047
654,1747638752840,0.043760175,0.7638479174999999,0.48193359,0.8462525000000001,0.29053424,0.158514865
655,1747638752850,0.073952485,0.7338995349999999,0.5022549000000001,0.79578125,0.33756948,0.14782503
656,1747638752860,0.072138354,0.71010244,0.5407023,0.7970793,1.0718079,0.017103724
657,1747638752870,0.061756652,0.71473685,0.5239787499999999,0.82510193,1.15243975,0.0024433895000000004
658,1747638752880,0.05137495,0.71937126,0.5072552,0.85312456,1.2330716,-0.012216945
659,1747638752890,-0.03670946,0.7657459,0.38621157,0.7671478,1.211081,0.028709821
660,1747638752900,-0.06655114000000001,0.80729559,0.35380876,0.5554510375,1.057452925,0.1018587805
661,1747638752910,-0.09639282,0.8488452799999999,0.32140595,0.343754275,0.90382485,0.17500774
662,1747638752920,-0.059912033,0.9212123,0.4750582,-0.18241426,0.49577892,0.26266432
663,1747638752930,0.0010976254999999976,0.8416497350000001,0.60427305,-0.2836622,0.707437485,0.255639575
664,1747638752940,0.062107284,0.76208717,0.7334879,-0.38491014,0.91909605,0.24861483
665,1747638752950,0.0623512,0.74330556,0.7605932,-0.3164189,1.0760838,0.2583884
666,1747638752960,0.036488409900000005,0.7537330074999999,0.74502825,-0.21921782,1.2089431,0.27488127500000004
667,1747638752970,0.0106256198,0.764160455,0.7294632999999999,-0.12201674,1.3418024,0.29137415
668,1747638752980,-0.018171793,0.80065644,0.6571115,0.22005773,1.7345772,0.39643988
669,1747638752990,-0.018171793,0.80065644,0.6571115,0.22005773,1.7345772,0.39643988
670,1747638753000,0.08945644,0.8606905,0.40962756,0.4462239,1.7076999,0.55770355
671,1747638753010,0.112521815,0.8745937500000001,0.362658355,0.401708415,1.6008016,0.507614075
672,1747638753020,0.13558719,0.888497,0.31568915,0.35719293,1.4939033,0.4575246
673,1747638753030,0.24638632,0.86800796,0.32788497,0.11293039,1.0217184,0.10445488
674,1747638753040,0.20940246,0.81004728,0.386333525,0.10792908000000001,0.9481112999999999,-0.18359778499999999
675,1747638753050,0.1724186,0.7520866,0.44478208,0.10292777,0.8745042,-0.47165045
676,1747638753060,0.10433535,0.7657459,0.43356186,0.22257747,0.9722398,-0.52357244
677,1747638753070,0.08579006375,0.762270075,0.3954270175,0.27709559500000003,1.0479848999999999,-0.48783788
678,1747638753080,0.0672447775,0.75879425,0.357292175,0.33161372,1.12373,-0.45210332
679,1747638753090,0.05844853,0.79184496,0.22611076,0.20387027,1.0204967,-0.42339352
680,1747638753100,0.0444843025,0.8344923075,0.2654651775,0.12132953499999999,0.93955945,-0.42919656500000003
681,1747638753110,0.030520075,0.877139655,0.304819595,0.0387888,0.8586222,-0.43499961
682,1747638753120,0.0222878865,0.8740372775,0.3589309975,-0.011071606999999997,0.480469558,-0.531818905
683,1747638753130,0.014055698,0.8709349,0.4130424,-0.060932014,0.102316916,-0.6286382
684,1747638753140,-0.08357195,0.7115659,0.4630758,0.30977592,-0.25930467,-0.6512395
685,1747638753150,-0.11273523,0.71668815,0.427448725,0.40949673999999997,-0.294122965,-0.58954393
686,1747638753160,-0.14189851,0.7218104,0.39182165,0.50921756,-0.32894126,-0.52784836
687,1747638753170,-0.1738821,0.7969977,0.18315093,0.41132927,-0.30572906,-0.35681117
688,1747638753180,-0.163988225,0.8357957,0.21097268,0.12785797000000004,-0.243728065,-0.326841475
689,1747638753190,-0.15409435,0.8745937,0.23879443,-0.15561333,-0.18172707,-0.29687178
690,1747638753200,-0.1211656,0.83041435,0.3064203,-0.26968905,-0.07605048,-0.31588438
691,1747638753210,-0.1182995825,0.7780027325,0.370532285,-0.239757545,0.018325419999999995,-0.30821061000000005
692,1747638753220,-0.11543356499999999,0.725591115,0.43464427,-0.20982604,0.11270132,-0.30053684
693,1747638753230,-0.1972981,0.7511109,0.41401803,0.28862533,0.2410556,-0.22967857
694,1747638753240,-0.20571323,0.77381038,0.37875685,0.39078954,0.1732133775,-0.1688992675
695,1747638753250,-0.21412836,0.79650986,0.34349567,0.49295375,0.105371155,-0.108119965
696,1747638753260,-0.17642797999999998,0.80394933,0.23050126199999998,0.540638025,-0.055892522499999986,-0.026266432500000006
697,1747638753270,-0.1387276,0.8113888,0.117506854,0.5883223,-0.2171562,0.0555871
698,1747638753280,-0.04256346,0.7982173,-0.10433535,0.25495237,-0.26663482,0.048256934
699,1747638753290,-0.046710042,0.8012662500000001,-0.099929607,0.13095037885,-0.209215185,0.041843038
700,1747638753300,-0.050856624,0.8043152,-0.095523864,0.0069483877,-0.15179555,0.035429142
701,1747638753310,-0.055033702,0.7374211,-0.04454528,-0.3974325,0.029015245,0.08063184
702,1747638753320,-0.0561923055,0.749022375,0.028614475999999993,-0.4980314,-0.042301172725,0.11972606250000001
703,1747638753330,-0.057350909,0.7606236500000001,0.10177423199999999,-0.5986303,-0.11361759045,0.158820285
704,1747638753340,-0.03670946,0.79306453,0.16339368,-0.65658444,-0.5482354,0.15149012
705,1747638753350,-0.0254892925,0.798811815,0.17865372000000002,-0.717802795,-0.768903975,0.11774080925
706,1747638753360,-0.014269125,0.8045591,0.19391376,-0.7790211499999999,-0.98957255,0.0839914985
707,1747638753370,-0.008171208,0.79550374,0.23147692,-1.0653176,-1.3423369,-0.058641337
708,1747638753380,-0.0185376665,0.7830639699999999,0.27272931,-1.13915375,-1.3169867499999999,-0.0791047215
709,1747638753390,-0.028904125,0.7706242,0.3139817,-1.2129899,-1.2916366,-0.099568106
710,1747638753400,-0.074790955,0.7154686,0.46527106,-1.214288,-1.0283613,-0.07574506
711,1747638753410,-0.07710816000000001,0.70229707,0.48040912,-1.07375495,-0.79074175,0.008857284999999993
712,1747638753420,-0.079425365,0.68912554,0.49554718,-0.9332219,-0.5531222,0.09345963
713,1747638753430,-0.0755227,0.7140051,0.45380697,-0.89084435,-0.4315636,0.13499725
714,1747638753440,-0.063433579,0.7258350499999999,0.431961165,-0.9422700749999999,-0.310615835,0.13896775500000003
715,1747638753450,-0.051344458,0.737665,0.41011536,-0.9936958,-0.18966807,0.14293826
716,1747638753460,-0.045978293,0.71351725,0.4499043,-1.0684482,-0.1927223,0.12888877
717,1747638753470,-0.0573356635,0.717663825,0.529101,-1.0734495,-0.38422290000000003,0.086434885
718,1747638753480,-0.068693034,0.7218104,0.6082977,-1.0784508,-0.5757235,0.043981
719,1747638753490,-0.08040103,0.68863773,0.6375677,-0.94818765,-0.7186618,0.0659715
720,1747638753500,-0.070888281,0.697784615,0.557166665,-0.851635605,-0.842969215,0.09284877999999999
721,1747638753510,-0.061375532,0.7069315,0.47676563,-0.75508356,-0.96727663,0.11972606
722,1747638753520,-0.006219875,0.73010355,0.35349622,-0.9282588,-0.8725953,0.13011047
723,1747638753530,-0.006219875,0.73010355,0.35349622,-0.9282588,-0.8725953,0.13011047
724,1747638753540,0.05552153,0.7271766,0.4269761,-1.23918,-0.8408313,0.0904054
725,1747638753550,0.04680150975,0.7139441074999999,0.5993870825000001,-1.5396786749999998,-1.06272155,-0.011758807499999996
726,1747638753560,0.0380814895,0.7007116149999999,0.771798065,-1.8401773499999998,-1.2846118,-0.11392301499999999
727,1747638753570,-0.010854292,0.6522637,1.0736908,-1.5943114,-1.9366913,-0.17103723
728,1747638753580,-0.013537375,0.62419802,1.05013755,-1.4288863,-2.0842109,-0.15515520500000002
729,1747638753590,-0.016220458,0.59613234,1.0265843,-1.2634612,-2.2317305,-0.13927318
730,1747638753600,0.028934615,0.61467,0.7803504,-0.7245412,-1.5084873,0.051922016
731,1747638753610,0.05370740375000001,0.6138772775,0.6750394,-0.7231095375000001,-1.07616015,0.078188447
732,1747638753620,0.0784801925,0.6130845549999999,0.5697284,-0.721677875,-0.643833,0.104454878
733,1747638753630,0.08872469,0.58613175,0.48554665,-0.9039776,0.12804885,0.09162709
734,1747638753640,0.0950665225,0.602840025,0.49884009500000004,-1.003507525,0.183788665,0.0699420115
735,1747638753650,0.101408355,0.6195483,0.51213354,-1.10303745,0.23952848,0.048256933
736,1747638753660,0.107506275,0.60491335,0.7371467,-1.375628,-0.39185852,-0.09773556
737,1747638753670,0.1084819375,0.596742125,0.805855,-1.4198763,-0.73576556,-0.13621894
738,1747638753680,0.1094576,0.5885709,0.8745633,-1.4641246,-1.0796726,-0.17470232
739,1747638753690,0.08409027,0.5421963,1.039024,-1.2871315,-1.7192296,-0.18019994
740,1747638753700,0.0865294375,0.52339945,0.9484851999999999,-0.9475768,-1.4113626,-0.059252184
741,1747638753710,0.088968605,0.5046026,0.8579464,-0.6080221,-1.1034956,0.061695572
742,1747638753720,0.115799434,0.48655275,0.61122465,-0.4821112,-0.32344362,0.15149012
743,1747638753730,0.123010222,0.483503825,0.509206525,-0.59336175,0.34852654,0.17897825
744,1747638753740,0.13022101,0.4804549,0.4071884,-0.7046123,1.0204967,0.20646638
745,1747638753750,0.15804276,0.48033293,0.46931093,-0.8964947,1.0684482499999999,0.18569757
746,1747638753760,0.18586451,0.48021096,0.53143346,-1.0883771,1.1163998,0.16492876
747,1747638753770,0.20464608,0.4853332,0.63732374,-1.3918154,0.6869741,0.045813546
748,1747638753780,0.181458755,0.51425257,0.7924242699999999,-1.5638071,-0.1487031299999999,-0.088572852
749,1747638753790,0.15827143,0.54317194,0.9475248,-1.7357988,-0.98438036,-0.22295925
750,1747638753800,0.11262852,0.4538679,1.1232363,-1.453511,-2.1266646,-0.24861483
751,1747638753810,0.111652855,0.435436975,1.10687865,-1.2871697,-2.02831825,-0.203412135
752,1747638753820,0.11067719,0.41700605,1.090521,-1.1208284,-1.9299719,-0.15820944
753,1747638753830,0.10531103,0.3498985,0.78474087,-0.58870405,-0.617872,0.03420745
754,1747638753840,0.05308236918,0.32878444,0.620249585,-0.5927509049999999,-0.09525399000000001,0.095597595
755,1747638753850,0.00085370836,0.30767038,0.4557583,-0.59679776,0.42736402,0.15698774
756,1747638753860,0.00085370836,0.30767038,0.4557583,-0.89084435,0.9044357,0.24372806
757,1747638753870,-0.01109820882,0.30828017,0.5095724,-1.377498725,0.874198765,0.35398599
758,1747638753880,-0.023050126,0.30888996,0.5633865,-1.8641531,0.84396183,0.46424392
759,1747638753890,0.15388094,0.3420931,1.1186019,-2.6878808,-0.78524417,0.6065713
760,1747638753900,0.24039512000000002,0.364167565,1.363982,-2.5906796500000002,-1.235744035,0.5815265700000001
761,1747638753910,0.3269093,0.38624203,1.6093621,-2.4934785,-1.6862439,0.55648184
762,1747638753920,0.36377123,0.36721656,1.6484193,-1.4584742,-2.7058244,0.22051586
763,1747638753930,0.37182048,0.343175515,1.3816812,-0.895845685,-2.4721371000000003,0.02535016000000001
764,1747638753940,0.37986973,0.31913447,1.1149431,-0.33321717,-2.2384498,-0.16981554
765,1747638753950,0.3776745,0.31840274,0.81672454,-0.3101577,-1.2855281,-0.26022094
766,1747638753960,0.36925936000000004,0.31748804750000004,0.6573554525,-0.537431075,-0.37931705250000003,-0.3222601175
767,1747638753970,0.36084422,0.316573355,0.49798636500000004,-0.76470445,0.526893995,-0.384299295
768,1747638753980,0.33422682,0.3062069,0.42087823,-1.3663126,1.8463622,-0.5150206
769,1747638753990,0.339105145,0.27875102500000004,0.634168115,-1.825517,1.9605906000000002,-0.6939988500000001
770,1747638754000,0.34398347,0.25129515,0.847458,-2.2847214,2.074819,-0.8729771
771,1747638754010,0.28151032,0.2195555,1.1774163,-2.202486,1.091355,-1.0128611
772,1747638754020,0.187312755,0.20711575,1.2912644,-1.7370204999999999,-0.04944045000000008,-0.98659465
773,1747638754030,0.09311519,0.194676,1.4051125,-1.271555,-1.1902359,-0.9603282
774,1747638754040,0.0723670285,0.18382169999999998,1.3739978499999999,-0.98651835,-1.6043903,-0.86106555
775,1747638754050,0.051618867,0.1729674,1.3428832,-0.7014817,-2.0185447,-0.7618029
776,1747638754060,0.06161945,0.14756958,1.1468961,-0.020463383,-2.1394925,-0.2443389
777,1747638754070,0.09548575750000002,0.14263026875,0.9067525599999999,-0.110334287975,-1.67341605,-0.10246962500000001
778,1747638754080,0.12935206500000002,0.1376909575,0.66660902,-0.20020519295,-1.2073396,0.03939965
779,1747638754090,0.2517525,0.14683785,0.5721675,-0.9145911,-0.06688777,0.19730367
780,1747638754100,0.27335436999999996,0.1293978,0.62220093,-1.1806151,0.19337134,0.181116215
781,1747638754110,0.29495624,0.11195775,0.67223436,-1.4466391,0.45363045,0.16492876
782,1747638754120,0.3032494,0.08387684,1.1088451,-1.922718,0.54831177,0.04459185
783,1747638754130,0.29006265,0.0699735915,1.27319925,-1.63233655,-0.031420465000000064,0.004581354000000003
784,1747638754140,0.2768759,0.056070343,1.4375534,-1.3419551,-0.6111527,-0.035429142
785,1747638754150,0.2768759,0.056070343,1.4375534,-0.8515974,-1.0686773,-0.014660334
786,1747638754160,0.2637044,0.0592412615,1.2504998,-0.5774606175,-1.1694671,0.042148458750000006
787,1747638754170,0.2505329,0.06241218,1.0634462,-0.303323835,-1.2702569000000001,0.09895725150000001
788,1747638754180,0.27614418,0.060704764,0.8623369,-0.17370969,-0.8365553,0.1808108
789,1747638754190,0.277485715,0.050810894,0.770334585,-0.272170635,-0.54365405,0.179283675
790,1747638754200,0.27882725,0.040917024,0.67833227,-0.37063158,-0.2507528,0.17775655
791,1747638754210,0.2517525,0.029696856,0.4926202,-1.1600753,0.78593135,0.15149012
792,1747638754220,0.21917437,0.0006555264999999998,0.58986675,-1.7143046499999999,1.0379058749999999,0.19119519000000001
793,1747638754230,0.18659624,-0.028385803,0.6871133,-2.268534,1.2898804,0.23090026
794,1747638754240,0.20659742,-0.046679553,0.95557404,-2.5700636,0.7456154,0.32924667
795,1747638754250,0.267119245,-0.0573051715,1.18412402,-2.50075145,0.24315537250000008,0.3370349775
796,1747638754260,0.32764107,-0.06793079,1.412674,-2.4314393,-0.259304655,0.34482328500000003
797,1747638754270,0.4189269,-0.061070636,1.5129846,-1.657305,-1.4516785,0.21074231
798,1747638754280,0.4189269,-0.061070636,1.5129846,-1.657305,-1.4516785,0.21074231
799,1747638754290,0.46993598,-0.09085896,1.4256015,-0.89336413,-1.7723733,-0.029931515
800,1747638754300,0.432952105,-0.082443835,1.2703942499999998,-0.582748295,-1.6715835,-0.1594311275
801,1747638754310,0.39596823,-0.07402871,1.115187,-0.27213246,-1.5707937,-0.28893074
802,1747638754320,0.3515754,-0.06915038,0.7359271,-0.5301391,-0.46760356,-0.2699945
803,1747638754330,0.3503558,-0.07427263,0.7023733,-0.6905628500000001,-0.13648617999999996,-0.265413135
804,1747638754340,0.3491362,-0.07939488,0.6688195,-0.8509866,0.1946312,-0.26083177
805,1747638754350,0.33934906,-0.10500612,0.7022666,-1.3931135,1.1780953,-0.27610296
806,1747638754360,0.31703069500000003,-0.13051066,0.8558884,-1.5158556,1.09990685,-0.28801448
807,1747638754370,0.29471233,-0.1560152,1.0095102,-1.6385977,1.0217184,-0.299926
808,1747638754380,0.29077914,-0.16504012,1.1027473,-1.5481924,0.57396734,-0.26938364
809,1747638754390,0.288218035,-0.17028433,1.1408135000000001,-1.40895735,0.11854254000000003,-0.229983995
810,1747638754400,0.28565693,-0.17552854,1.1788797,-1.2697223,-0.33688226,-0.19058435
811,1747638754410,0.32129923,-0.21824445,1.1571407,-0.72202146,-1.3111837,-0.0787993
812,1747638754420,0.326299515,-0.21568332,1.14213985,-0.60458608,-1.4043379,-0.061390150000000004
813,1747638754430,0.3312998,-0.21312219,1.127139,-0.4871507,-1.4974921,-0.043981
814,1747638754440,0.34962407,-0.2160492,0.973136,-0.18371232,-1.3032427,-0.018325418
815,1747638754450,0.362917515,-0.222512995,0.87491385,-0.30458372,-0.9403994,-0.0103844035
816,1747638754460,0.37621096,-0.22897679,0.7766917,-0.42545512,-0.5775561,-0.002443389
817,1747638754470,0.37340592,-0.238016945,0.76521237,-0.517960295,-0.4227063,0.0103844035
818,1747638754480,0.37060088,-0.2470571,0.75373304,-0.61046547,-0.2678565,0.023212196
819,1747638754490,0.35450238,-0.26949742,0.8352622,-1.108306,0.06933116,0.13560809
820,1747638754500,0.35755135250000003,-0.271753655,0.9075606174999999,-1.1715669,0.018630838999999996,0.16370706
821,1747638754510,0.360600325,-0.27400989,0.979859035,-1.2348278,-0.032069482,0.19180603
822,1747638754520,0.3693813,-0.27437577,1.1164066,-0.98995435,-0.5971032,0.3023694
823,1747638754530,0.376576835,-0.273522065,1.1339686,-0.865036075,-0.718050965,0.31641888
824,1747638754540,0.38377237,-0.27266836,1.1515306,-0.7401178,-0.83899873,0.33046836
825,1747638754550,0.46432588,-0.29635876,1.0624706,-0.3768164,-1.0167552,0.36467582
826,1747638754560,0.453822215,-0.28268418,1.01097365,-0.42759308500000004,-0.9608627,0.34543413
827,1747638754570,0.44331855,-0.2690096,0.9594767,-0.47836977,-0.9049702,0.32619244
828,1747638754580,0.41551206,-0.25047192,0.94093907,-0.61985725,-0.7895201,0.34085277
829,1747638754590,0.406837765,-0.24057805,0.958013235,-0.722326875,-0.7275191,0.38727716
830,1747638754600,0.39816347,-0.23068418,0.9750874,-0.8247965,-0.6655181,0.43370155
831,1747638754610,0.41404852,-0.2529111,1.0060953,-0.8092199,-0.609931,0.45691374
832,1747638754620,0.4310617175,-0.265594775,1.0125590999999998,-0.8042567700000001,-0.5699204849999999,0.463327645
833,1747638754630,0.44807491499999996,-0.27827845,1.0190229,-0.79929364,-0.52990997,0.46974155
834,1747638754640,0.47431122,-0.29945345749999996,1.04910845,-0.7777994450000001,-0.47417016999999995,0.4527905325
835,1747638754650,0.500547525,-0.320628465,1.0791940000000002,-0.75630525,-0.41843037,0.43583951499999996
836,1747638754660,0.51140183,-0.33123884,1.1076256,-0.6161158,-0.23731416,0.37200597
837,1747638754670,0.502376885,-0.32440917,1.10774755,-0.553160365,-0.18691926,0.35734563500000005
838,1747638754680,0.49335194,-0.3175795,1.1078695,-0.49020493,-0.13652436,0.3426853
839,1747638754690,0.46700895,-0.29611483,1.0907649,-0.31267744,-0.10964708,0.32497075
840,1747638754700,0.476887585,-0.29879791499999997,1.06379685,-0.245064285,-0.098957255,0.321916505
841,1747638754710,0.48676622,-0.301481,1.0368287999999999,-0.17745113,-0.08826743,0.31886226
842,1747638754720,0.51237744,-0.28754726,1.0114615,-0.066506,-0.019241689,0.25655586
843,1747638754730,0.51420682,-0.291709095,0.981810335,-0.025388341499999995,0.0653988355,0.14935216
844,1747638754740,0.5160362,-0.29587093,0.95215917,0.015729317,0.15003936,0.04214846
845,1747638754750,0.49579114,-0.30099317,0.9043211,-0.015423893,0.25449425,-0.061084725
846,1747638754760,0.4869491475,-0.30032240499999996,0.904016165,-0.056388839,0.31909134250000004,-0.11896250250000001
847,1747638754770,0.478107155,-0.29965164,0.90371123,-0.097353785,0.38368843500000005,-0.17684028000000002
848,1747638754780,0.45136783,-0.32245782,0.9504518,-0.14316733,0.4970006,-0.255945
849,1747638754790,0.4173262,-0.3301412,1.0191447999999999,-0.013896777500000013,0.42583689,-0.25899923
850,1747638754800,0.38328457,-0.33782458,1.0878378,0.115373775,0.35467318,-0.26205346
851,1747638754810,0.376332935,-0.32721421,1.0833254,0.2241045875,0.267016605,-0.23364907000000001
852,1747638754820,0.3693813,-0.31660384,1.078813,0.3328354,0.17936003,-0.20524468
853,1747638754830,0.35718548,-0.3305071,0.9826488,0.603288,-0.02779355,-0.08429692
854,1747638754840,0.36755194,-0.31282313,0.94043595,0.590803835,-0.04214846,-0.03542914
855,1747638754850,0.3779184,-0.29513916,0.8982231,0.57831967,-0.05650337,0.01343864
856,1747638754860,0.4091702,-0.29757833,0.98020965,0.35650572,0.11331217,0.07941014
857,1747638754870,0.4250248,-0.3032493925,1.046288175,0.338752985,0.13656254,0.069942009
858,1747638754880,0.44087940000000003,-0.308920455,1.1123667,0.32100025,0.15981291,0.060473878
859,1747638754890,0.4782291,-0.36346635,1.2796783,0.6450547,0.38826978,-0.09162709
860,1747638754900,0.47188729,-0.369564265,1.27931245,0.78119728,0.46096059,-0.13163759
861,1747638754910,0.46554548,-0.37566218,1.2789466,0.91733986,0.5336514,-0.17164809
862,1747638754920,0.41648772,-0.32831186,1.163757,1.305457,0.80242425,-0.18447587
863,1747638754930,0.414536385,-0.28365986,1.0623486,1.3088929500000002,0.9194014749999999,-0.11025792999999999
864,1747638754940,0.41258505,-0.23900786,0.9609402,1.3123289,1.0363787,-0.03603999
865,1747638754950,0.4101459,-0.21848835,0.9660624,1.207645,1.0345461,-0.01343864
866,1747638754960,0.400252025,-0.21995186,1.04050275,1.15560845,0.9755994,-0.0204633835
867,1747638754970,0.39035815,-0.22141537,1.1149431,1.1035719,0.9166527,-0.027488127
868,1747638754980,0.366561025,-0.235943645,1.1822946,1.20623245,0.8322030499999999,0.003970507499999998
869,1747638754990,0.3427639,-0.25047192,1.2496461,1.3088929999999999,0.7477534,0.035429142000000004
870,1747638755000,0.32398233,-0.25339893,1.2921181,1.4020472,0.6906392,0.064138964
871,1747638755010,0.3430078,-0.2087317,1.2513535,1.827655,0.5654155,0.22418094
872,1747638755020,0.3430078,-0.2087317,1.2513535,1.827655,0.5654155,0.22418094
873,1747638755030,0.4413672,-0.1633327,1.1405544,1.9678445,0.77066016,0.25411245
874,1747638755040,0.45443199,-0.15040511499999998,1.11029345,1.93543135,0.8580113300000001,0.1811162075
875,1747638755050,0.46749678,-0.13747753,1.0800325,1.9030182,0.9453625,0.108119965
876,1747638755060,0.40499315,-0.09524946,1.0707637,1.6569232,1.1945882,-0.07574506
877,1747638755070,0.371683275,-0.09281029199999999,1.1176262000000001,1.5715573,1.28590985,-0.11331217
878,1747638755080,0.3383734,-0.090371124,1.1644887,1.4861914,1.3772315,-0.15087928
879,1747638755090,0.30715206,-0.08427321,1.2040032,1.533532,1.3173685,-0.1771457
880,1747638755100,0.27481785999999997,-0.073540875,1.2271905,1.6397813,1.17870615,-0.16095825
881,1747638755110,0.24248366,-0.06280854,1.2503778,1.7460306,1.0400438,-0.1447708
882,1747638755120,0.22611076,-0.03887422,1.226474,1.917984,0.7450046,-0.07269082
883,1747638755130,0.23356546,-0.0255807615,1.1710744499999999,1.9983486,0.5947361600000001,-0.026877277500000005
884,1747638755140,0.24102016,-0.012287303,1.1156749,2.0787132,0.44446772,0.018936265
885,1747638755150,0.24102016,-0.012287303,1.1156749,2.0787132,0.44446772,0.018936265
886,1747638755160,0.22832124,0.011997649999999999,1.07027595,2.0011356,0.44232976,0.02687728
887,1747638755170,0.21562232,0.036282603,1.024877,1.923558,0.4401918,0.034818295
888,1747638755180,0.214158835,0.0521524345,1.0651537,1.8500655,0.45271417,0.0607793025
889,1747638755190,0.21269535,0.068022266,1.1054304,1.776573,0.46523654,0.08674031
890,1747638755200,0.23025733,0.069241844,1.1429935,1.7454197,0.42797485,0.10262234
891,1747638755210,0.23899259750000001,0.0730225545,1.13909085,1.8033546999999999,0.4009448575,0.085671327
892,1747638755220,0.247727865,0.076803265,1.1351882,1.8612897,0.373914865,0.068720314
893,1747638755230,0.2371175,0.08729168,1.063934,2.008924,0.3265742,0.035429142
894,1747638755240,0.23271175,0.09838989000000001,1.0446494,2.0129899250000003,0.2900760825,0.04749337375
895,1747638755250,0.228306,0.1094881,1.0253648,2.01705585,0.253577965,0.0595576055
896,1747638755260,0.20415826,0.12561709,1.0326823,2.007702,0.1738624,0.083075225
897,1747638755270,0.20367043,0.14073992,1.006324025,2.0095728,0.23128204000000002,0.0900999675
898,1747638755280,0.2031826,0.15586275,0.97996575,2.0114436,0.28870168,0.09712471
899,1747638755290,0.2031826,0.15586275,0.97996575,2.0114436,0.28870168,0.09712471
900,1747638755300,0.226491885,0.17868420499999998,0.934094175,1.9351259,0.558696165,0.045202695
901,1747638755310,0.24980117,0.20150566,0.8882226,1.8588082,0.82869065,-0.00671932
902,1747638755320,0.27224147,0.22787915,0.8730997,1.7852775,0.9642987,-0.120947756
903,1747638755330,0.258094315,0.24117260499999998,0.8650352,1.7619126,0.91817977,-0.192416878
904,1747638755340,0.24394716,0.25446606,0.8569707,1.7385477,0.87206084,-0.263886
905,1747638755350,0.15022218,0.26251534,0.84038436,1.6388268,0.5574745,-0.40873316
906,1747638755360,0.08055348050000001,0.256295445,0.89480833,1.6335201,0.40690065,-0.335087895
907,1747638755370,0.010884781,0.25007555,0.9492323,1.6282134,0.2563268,-0.26144263
908,1747638755380,-0.010366458,0.27446723,0.9480126,1.7117467,0.14698513,-0.098957255
909,1747638755390,-0.010366458,0.27446723,0.9480126,1.7117467,0.14698513,-0.098957255
910,1747638755400,0.016494865,0.25153908,0.83013994,1.8513253,0.2978644,0.16187452
911,1747638755410,0.05321956750000001,0.27216527,0.7620414200000001,1.7488175,0.506468725,0.201579595
912,1747638755420,0.08994427,0.29279146,0.6939429,1.6463097,0.71507305,0.24128467
913,1747638755430,0.16339368,0.33645257,0.6488183,1.5366626,0.7761578,0.18936265
914,1747638755440,0.13386451500000002,0.373192515,0.73289337,1.4681331499999999,0.55533652,0.10292776249999999
915,1747638755450,0.10433535,0.40993246,0.81696844,1.3996037,0.33451524,0.016492875
916,1747638755460,0.022836698,0.42261612,0.8865151,1.5285689,-0.02779355,0.0219905
917,1747638755470,0.003308120000000001,0.42310396,0.8702794,1.60614655,-0.18417045,0.058641335
918,1747638755480,-0.016220458,0.4235918,0.8540437,1.6837242,-0.34054735,0.09529217
919,1747638755490,0.0345447,0.42212826,0.69296724,1.7285451,-0.37780902,0.2858765
920,1747638755500,0.065781277,0.42517722999999996,0.63573832,1.57029745,-0.08548043,0.272437865
921,1747638755510,0.097017854,0.4282262,0.5785094,1.4120498,0.20684816,0.25899923
922,1747638755520,0.08043153,0.47825962,0.60415107,1.2107756,0.52815384,0.24250636
923,1747638755530,0.08750511,0.49717841,0.6600385,1.17744625,0.5941253200000001,0.25808298
924,1747638755540,0.09457869,0.5160972,0.71592593,1.1441169,0.6600968,0.2736596
925,1747638755550,0.12924534,0.5778386,0.76913023,1.2338351,0.43958095,0.26571855
926,1747638755560,0.156701215,0.605416415,0.726780215,1.2883532,0.19764726200000002,0.172258925
927,1747638755570,0.18415709,0.63299423,0.6844302,1.3428713,-0.044286426,0.0787993
928,1747638755580,0.177068255,0.634335785,0.65368145,1.30610595,-0.098957253,0.010689828499999998
929,1747638755590,0.16997942,0.63567734,0.6229327,1.2693406,-0.15362808,-0.057419643
930,1747638755600,0.06726002,0.62076795,0.6314698,0.97155255,0.044286426,-0.1123959
931,1747638755610,0.0594394435,0.622856475,0.6561205999999999,0.9353980399999999,0.131675763,-0.0787993
932,1747638755620,0.051618867,0.624945,0.6807714,0.89924353,0.2190651,-0.0452027
933,1747638755630,0.052350618,0.61857265,0.74080545,0.9453625,0.5446467,0.047646087
934,1747638755640,0.067122819,0.626881075,0.701641575,0.9992315999999999,0.7126297,0.07482879049999999
935,1747638755650,0.08189502,0.6351895,0.6624777,1.0531007,0.8806127,0.102011494
936,1747638755660,0.09677394,0.6444583,0.6490623,1.0388222,0.91237676,0.08246438
937,1747638755670,0.080065645,0.659337225,0.6472329,1.0268152000000002,0.84289287,0.0697892995
938,1747638755680,0.06335735,0.67421615,0.6454035,1.0148082,0.7734089799999999,0.057114218999999994
939,1747638755690,0.030642033,0.7018092,0.61659086,1.033859,0.40048674,0.123391144
940,1747638755700,0.021495157,0.7030288,0.5970622800000001,1.0466104,0.304889145,0.16370706699999998
941,1747638755710,0.012348281,0.7042484,0.5775337,1.0593618,0.20929155,0.20402299
942,1747638755720,0.044438568,0.708395,0.528003385,1.03038475,0.14908491199999999,0.255639575
943,1747638755730,0.076528855,0.7125416,0.47847307,1.0014077,0.088878274,0.30725616
944,1747638755740,0.1521735,0.72010297,0.4974985,0.88114715,0.17447324,0.21868332
945,1747638755750,0.150222175,0.719737115,0.50847475,0.859042125,0.23494712,0.162790795
946,1747638755760,0.14827085,0.71937126,0.519451,0.8369371,0.295421,0.10689827
947,1747638755770,0.11262852,0.745013,0.5277442,0.7839461,0.43408334,0.01343864
948,1747638755780,0.11055523,0.749281525,0.5218902,0.770545635,0.433472485,0.010689826999999999
949,1747638755790,0.10848194,0.75355005,0.5160362,0.75714517,0.43286163,0.007941014
950,1747638755800,0.13241626,0.77989304,0.468442,0.6263475,0.43347248,-0.043370154
951,1747638755810,0.137416545,0.786234885,0.479677385,0.6213461849999999,0.42919655,-0.072996247
952,1747638755820,0.14241683,0.79257673,0.49091277,0.61634487,0.42492062,-0.10262234
953,1747638755830,0.082626775,0.7672094,0.5597278,0.77401984,0.31435728,-0.22967857
954,1747638755840,0.04456052815,0.7642824,0.53605262,0.840067685,0.19337134,-0.19150062
955,1747638755850,0.0064942813,0.7613554,0.51237744,0.90611553,0.0723854,-0.15332267
956,1747638755860,0.029178532,0.7818444,0.5296955,0.93039674,-0.11880979,-0.086129464
957,1747638755870,0.08384635599999998,0.8213893999999999,0.5262807,0.96246622,-0.38788799499999993,-0.117893522
958,1747638755880,0.13851418,0.8609344,0.5228659,0.9945357,-0.6569662,-0.14965758
959,1747638755890,0.16217409,0.87849635,0.47258857,0.9833877,-0.78035736,-0.31771693
960,1747638755900,0.151197845,0.883984505,0.47197877,0.90298495,-0.7043068800000001,-0.426447735
961,1747638755910,0.1402216,0.88947266,0.47136897,0.8225822,-0.6282564,-0.53517854
962,1747638755920,0.07499675625,0.84902822,0.4870558675,0.7534419,-0.41018393000000003,-0.568775145
963,1747638755930,0.009771912500000002,0.80858378,0.502742765,0.6843016,-0.19211146,-0.60237175
964,1747638755940,-0.04402696,0.79550374,0.40231007,0.5976377,0.0827698,-0.4130091
965,1747638755950,-0.05233537,0.79820207,0.322015755,0.52754297,0.075134212,-0.34333435
966,1747638755960,-0.06064378,0.8009004,0.24172144,0.45744824,0.067498624,-0.2736596
967,1747638755970,-0.013049542,0.8599587,0.17193076,0.1546207,0.207459,-0.064138964
968,1747638755980,-0.0160985,0.820413735,0.26663141,0.17054091,0.0009544499999999956,-0.14324368199999998
969,1747638755990,-0.019147458,0.78086877,0.36133206,0.18646112,-0.2055501,-0.2223484
970,1747638756000,-0.08893812,0.7640385,0.30349332,0.37643462,-0.6062659,-0.18936265
971,1747638756010,-0.07625445,0.78625015,0.203548465,0.39296567,-0.703085185,-0.07482878999999999
972,1747638756020,-0.06357078,0.8084618,0.10360361,0.40949672,-0.79990447,0.03970507
973,1747638756030,0.010640865,0.86947143,0.0140252095,0.252509,-0.78035736,0.10140064
974,1747638756040,0.0538293595,0.8943661650000001,-0.018430952749999997,0.12289484,-0.731184155,0.09468132
975,1747638756050,0.097017854,0.9192609,-0.050887115,-0.00671932,-0.68201095,0.087962
976,1747638756060,0.21830542,0.8452932,0.045033116,-0.37246412,-0.07116371,-0.11850437
977,1747638756070,0.21830542,0.8452932,0.045033116,-0.37246412,-0.07116371,-0.11850437
978,1747638756080,0.063113436,0.80041254,0.18046784,-0.28961796,0.39010233,-0.2974826
979,1747638756090,-0.023781875,0.8216333,0.18193135,-0.1537808,0.3106922,-0.19180603
980,1747638756100,-0.023781875,0.8216333,0.18193135,-0.1537808,0.3106922,-0.19180603
981,1747638756110,-0.017683959,0.86971533,0.08043153,-0.04535541,-0.033291176,0.037261683
982,1747638756120,0.054926990499999995,0.8877651950000001,0.006722957500000001,-0.12634994100000002,-0.212727558,0.07330166899999999
983,1747638756130,0.12753794,0.90581506,-0.066985615,-0.207344472,-0.39216394,0.109341655
984,1747638756140,0.12753794,0.90581506,-0.066985615,-0.2945811,-0.4407263,0.08429692
985,1747638756150,0.15877450999999998,0.87323695,-0.0348953283,-0.49180840000000003,-0.3747548,-0.030542360000000005
986,1747638756160,0.19001108,0.84065884,-0.0028050416,-0.6890357,-0.3087833,-0.14538164
987,1747638756170,0.027471114,0.7520866,0.20415826,-0.9058101,-0.19150062,-0.37086064
988,1747638756180,-0.038051003,0.752696375,0.24051708,-0.9030231,-0.23334366,-0.32012214
989,1747638756190,-0.10357312,0.75330615,0.2768759,-0.9002361,-0.2751867,-0.26938364
990,1747638756200,-0.16754027,0.7608676,0.3676739,-0.91390383,-0.589773,0.0684149
991,1747638756210,-0.11463321525,0.766721575,0.3771866575,-0.922341165,-0.6936170500000001,0.221432135
992,1747638756220,-0.06172616050000001,0.77257555,0.386699415,-0.9307785,-0.7974611,0.37444937
993,1747638756230,0.09970094,0.77281946,0.41426197,-0.88275063,-0.67468077,0.3243599
994,1747638756240,0.11935147500000001,0.7675752650000001,0.402553975,-0.848810435,-0.581832005,0.25472330499999996
995,1747638756250,0.13900201,0.76233107,0.39084598,-0.81487024,-0.48898324,0.18508671
996,1747638756260,0.11043327,0.7557453,0.2810225,-0.73507833,0.02535016,-0.038483378
997,1747638756270,0.064073859,0.74121702,0.253810545,-0.83073319,0.12373474749999998,-0.06337540424999999
998,1747638756280,0.017714448,0.72668874,0.22659859,-0.92638805,0.22211933499999997,-0.0882674305
999,1747638756290,0.008689531,0.7342501,0.2476059,-1.2074159,0.09193251,-0.031764057
