timestamp,acc_x,acc_y,acc_z,gyro_x,gyro_y,gyro_z,id
1747533818550,-0.3985455049999999,0.288597685,1.0045396,-0.10226539,-0.3520699,-0.155262275,1
1747533818560,-0.15302389,0.060892281,0.8140529700000001,0.260723475,-1.0711233999999998,-0.08415589,2
1747533818570,-0.14082102,0.07492557,0.79611474,0.29028457,-1.0647318,-0.06657903,3
1747533818580,-0.11519502,0.10884953,0.76389915,0.273506635,-1.015463325,-0.12703279,4
1747533818590,-0.08566409,0.13911264,0.7231416,0.2514024,-0.98590225,-0.165116,5
1747533818600,-0.056133166,0.16180995,0.6726217,0.1736381,-0.8767126,-0.2796319,6
1747533818610,-0.0229413815,0.138014375,0.5886661,-0.04314321,-0.4735100449999999,-0.6258428650000001,7
1747533818620,-0.020012695,0.12422514,0.5757311,-0.08628642,-0.38242993,-0.700944,8
1747533818630,-0.020744866,0.08005078,0.54790854,-0.13954964,-0.26738137,-0.78989357,9
1747533818640,-0.02757847,0.03929322,0.5354616,-0.214384475,-0.18775286,-0.83729785,10
1747533818650,-0.076389918,-0.018792408,0.53216683,-0.26152242,-0.23409187,-0.79575255,11
1747533818660,-0.101649843,-0.0263581825,0.5502270499999999,-0.29268141,-0.3371562,-0.708667185,12
1747533818670,-0.11251039,-0.029042812,0.5662128,-0.3089267,-0.396811,-0.65726817,13
1747533818680,-0.1210524,-0.04271002,0.6240544,-0.34461305,-0.5251754,-0.55340487,14
1747533818690,-0.104700563,-0.015497635,0.7271686,-0.35899411,-0.6500776500000001,-0.455400555,15
1747533818700,-0.087372495,0.004271002,0.77341745,-0.34780884,-0.6673882,-0.44421527,16
1747533818710,-0.08236932,0.0087860615,0.786962635,-0.31851406,-0.66046395,-0.59921125,17
1747533818720,-0.08053889,0.009030119,0.79269797,-0.3110572,-0.6679208,-0.664725,18
1747533818730,-0.068824145,-0.0153756061,0.801728065,-0.335291985,-0.7568703999999999,-0.867924225,19
1747533818740,-0.0507639084999999,-0.0704105154999999,0.8275980949999999,-0.4540689499999999,-0.97338545,-1.0319749,20
1747533818750,-0.040147416,-0.1212964525,0.873480855,-0.5544701,-1.1472899,-1.1318434,21
1747533818760,-0.0422219035,-0.141187115,0.931688545,-0.75580512,-1.4628744,-1.18750355,22
1747533818770,-0.042465962,-0.15107143,0.96573454,-0.8186557,-1.5526229,-1.1914983,23
1747533818780,-0.036120474,-0.18060236,1.0777569,-0.92038846,-1.6309199,-1.1456919,24
1747533818790,-0.032703671,-0.19146291,1.334383,-0.7363640300000001,-1.36460375,-0.976581185,25
1747533818800,-0.03636453,-0.19231711,1.4489679,-0.5523396,-1.1531488,-0.87564737,26
1747533818810,-0.055400997,-0.18645974,1.5204766,-0.2247708,-0.89162636,-0.7318367,27
1747533818820,-0.0707766,-0.19451363,1.5077857,0.14061491,-0.660464,-0.56885123,28
1747533818830,-0.065163285,-0.21501444,1.4143118,0.4777711,-0.4394216,-0.4079963,29
1747533818840,-0.029530926,-0.24112856,1.2988727,0.72917354,-0.27004454,-0.2657835,30
1747533818850,0.098111015,-0.22172601,1.04212445,0.7917578249999999,-0.26232137,-0.160322305,31
1747533818860,0.12202863,-0.200371,1.0306537,0.666322925,-0.479369,-0.218112895,32
1747533818870,0.14985114,-0.12983845,1.0225998,0.5784386,-0.6412892,-0.25832662,33
1747533818880,0.153512,-0.026114125,1.0099089,0.21598238,-1.11586455,-0.3536678,34
1747533818890,0.162786185,0.09957536,1.0158883,-0.03382214,-1.28630685,-0.38589205,35
1747533818900,0.17596528,0.13325526,1.0374874,-0.1571265,-1.3369069,-0.39627838,36
1747533818910,0.18621568,0.12178457,1.0967933,-0.5496765,-1.2751216,-0.42077947,37
1747533818920,0.19756434,0.10750722,1.13498825,-0.6428871,-1.1829761,-0.43196473,38
1747533818930,0.22123789,0.0728510875,1.2154051,-0.6511429,-1.14356135,-0.443150015,39
1747533818940,0.25870067,0.005857374,1.3716017,-0.6018744,-1.0855045,-0.4841627,40
1747533818950,0.27871338,-0.06760386,1.3691611,-0.4032026,-0.96992326,-0.58483016,41
1747533818960,0.24954853,-0.1031141875,1.3111975500000002,-0.4032026,-0.96992326,-0.58483016,42
1747533818970,0.22990192,-0.111290105,1.283497,-0.23329292,-0.6689861,-0.680704,43
1747533818980,0.143139575,-0.0999414469999999,1.2216285999999998,-0.19600865,-0.5390238,-0.68176925,44
1747533818990,0.0708986315,-0.067115746,1.15707545,-0.18242654,-0.45833002,-0.533963815,45
1747533819000,0.0257480395,-0.036120474,1.09374255,-0.16804547,-0.47404267,-0.361390975,46
1747533819010,0.023429496,-0.029774986,1.07434,-0.15499598,-0.50387007,-0.29933932,47
1747533819020,0.10592084,-0.059305906,1.0040516,-0.13954964,-0.76912093,-0.16405073,48
1747533819030,0.143383625,-0.0612583679999999,0.9918487,-0.176567585,-0.933970615,-0.164317045,49
1747533819040,0.202323455,-0.05344854,0.9902623,-0.238352925,-1.17232355,-0.173105475,50
1747533819050,0.24661986,-0.038194959,1.0219897,-0.268446635,-1.28497525,-0.1970739249999999,51
1747533819060,0.26943922,-0.032703668,1.0431006,-0.27377295,-1.3241237,-0.21252026,52
1747533819070,0.33948365,-0.0394152455,1.1064336,-0.280164555,-1.4303838,-0.36671729,53
1747533819080,0.3648656,-0.040513504,1.1307173,-0.27324033,-1.442368,-0.46498793,54
1747533819090,0.36974674,-0.04075756,1.1517061,-0.23861924,-1.2964269,-0.56618804,55
1747533819100,0.39024755,-0.06199054,1.1848979,-0.20453078,-1.1552793,-0.6956177,56
1747533819110,0.39342028,-0.12349297,1.1917315,-0.17150758,-0.9965549,-0.8490158,57
1747533819120,0.35485923,-0.14423785,1.1573195,-0.1587244,-0.43888897,-1.1430287,58
1747533819130,0.275052525,-0.1598574999999999,1.1166839,-0.223439225,0.059122175,-1.27405635,59
1747533819140,0.21257386,-0.1624201,1.0987457,-0.30067089,0.33742252,-1.30122055,60
1747533819150,0.140454943,-0.16046764,1.09447475,-0.3869573,0.501473245,-1.2753879,61
1747533819160,0.102259986,-0.15936938,1.0958171,-0.42557314,0.53955644,-1.2500879,62
1747533819170,0.012446919,-0.153512,1.1160738,-0.5022722,0.51718587,-1.0428939,63
1747533819180,0.006833603,-0.16351835,1.1324255,-0.4708469,0.49747851,-0.912399,64
1747533819190,0.0572314245,-0.2131840099999999,1.1747696,-0.35926044,0.4599279149999999,-0.75314195,65
1747533819200,0.0928637795,-0.25455171,1.17672205,-0.249538195,0.505734295,-0.668453415,66
1747533819210,0.1272758475,-0.28591306,1.1654954000000002,-0.0346210949999999,0.7400924799999999,-0.556334345,67
1747533819220,0.1483868,-0.30019042,1.1612244,0.11930962,0.9289106,-0.48363006,68
1747533819230,0.14228538,-0.2962855,1.1597601,0.2647182,1.077515,-0.43303,69
1747533819240,0.10933764,-0.28029976,1.10960635,0.39574575,1.2218584,-0.38615838,70
1747533819250,0.087372495,-0.28225223,1.05237485,0.505468,1.3454291,-0.3472762,71
1747533819260,0.060648227,-0.2850588699999999,0.99233675,0.6026733500000001,1.36886485,-0.3624562249999999,72
1747533819270,0.046614934,-0.28261828,0.9684192,0.59761333,1.3534185,-0.37763625,73
1747533819280,-0.0073217175,-0.25613809,0.903499935,0.5328985500000001,1.3712617,-0.40480049,74
1747533819290,-0.0479572515,-0.23734567,0.882633035,0.4775048,1.3579459,-0.392549945,75
1747533819300,-0.0806609225,-0.219407455,0.8777519,0.422111035,1.2660668,-0.3336941,76
1747533819310,-0.08566409,-0.205618225,0.93376305,0.39468047,1.1941614,-0.28975195,77
1747533819320,-0.07736614,-0.20061506,0.9894081,0.3882889,0.82344943,-0.10546118,78
1747533819330,-0.0414897315,-0.21196372,1.1027726,0.5387574749999999,0.74861457,0.0284958245,79
1747533819340,-0.033191785,-0.21965154,1.1251038,0.6087986,0.77125144,0.07403588,80
1747533819350,0.0051252021,-0.26956123,1.06103895,0.9403622,0.994158085,0.248472935,81
1747533819360,0.012935034,-0.28579104,1.0282133,1.0937603,1.05594345,0.32916671,82
1747533819370,0.01513155,-0.28701133,0.9498709,1.0998856,1.0354371,0.32384038,83
1747533819380,0.014643434,-0.23990828,0.87226063,0.9752496,0.9821738,0.24021713,84
1747533819390,0.050275792,-0.113364595,0.8928834649999999,0.67910608,0.618652325,0.0079894844999999,85
1747533819400,0.035754385,-0.039293218,0.95963315,0.34514567,0.1525991199999999,-0.3520699025,86
1747533819410,-0.037584817,-0.0189144375,1.04175845,0.0676442925,-0.20852553,-0.662594495,87
1747533819420,-0.082247294,-0.026846299,1.0777569,0.010652645,-0.283893,-0.71798825,88
1747533819430,-0.1585151799999999,-0.107385185,1.2135747,-0.019707393,-0.49161956,-0.680704,89
1747533819440,-0.2238005049999999,-0.2329526499999999,1.3834385,0.032490566,-0.7414241,-0.5438175,90
1747533819450,-0.26699865,-0.31385764,1.4972912,0.37444046,-0.5928197,-0.17204021,91
1747533819460,-0.21782109,-0.3414361099999999,1.717919,0.61385863,-0.3818973,0.0098536965,92
1747533819470,-0.20769271,-0.340948,1.7386639,0.7078682,-0.2428803,0.050600063,93
1747533819480,0.05515693435,-0.278835405,1.7015671,1.0948255800000002,0.418382615,-0.105727498,94
1747533819490,0.1164153,-0.20769271,1.6283499,1.2104067500000002,0.381630995,-0.601608095,95
1747533819500,0.51691324,0.183287,1.0965492,1.1057445,-0.33662357,-1.2753879,96
1747533819510,0.56987363,0.24820623,0.9510911,1.0029465,-0.81066626,-1.5456988,97
1747533819520,0.45199403,0.22526483,0.9288819,0.7414241,-1.8434402,-2.0639498,98
1747533819530,0.46761367,0.19475769,1.0265048,0.5411543,-3.3481262,-2.6093652,99
1747533819540,0.5864696,0.19646609,1.1646413,0.5752428,-4.3627906,-2.992328,100
1747533819550,0.60855675,0.1004295615,0.8992289,0.7078682,-4.557734,-3.9489353,101
1747533819560,0.43881494,0.053936653,0.8346757,0.32277513,-3.2597091,-4.4725127,102
1747533819570,0.022697324,0.00707766,0.25211114,-0.103863284,-0.39414784,-4.6482816,103
1747533819580,0.077244122,0.01244692,0.1990286849999999,-0.6492787,3.4301515,-4.379302,104
1747533819590,0.0364865635,0.16510472,0.339605665,-2.2479743,7.09279685,-3.004312,105
1747533819600,-0.1452140615,0.316664265,0.554009945,-3.4514568,8.218515,-2.253567,106
1747533819610,-0.417093815,0.420266585,1.040782075,-4.351073,9.279519,-1.9622171,107
1747533819620,-0.6025773,0.48152497,1.479719,-4.534298,9.283247,-1.8354506,108
1747533819630,-1.410895,0.72558224,2.9096506,-4.0165796,5.1100736,-1.4050838,109
1747533819640,-0.5103237,0.489456785,1.94538035,-2.38752395,2.20376585,-0.7044060799999999,110
1747533819650,-0.26455804,0.318616735,2.21774825,-1.4231933,1.5371766,-0.40107206,111
1747533819660,-0.27907945,0.30775619,2.6005521,0.48336373,-0.0119842249999999,0.202932877,112
1747533819670,-0.28408262,0.33460248,2.7248993,1.1574098,-0.48309743,0.41918156,113
1747533819680,-0.19548985,0.27383223,2.642408,2.660498,-0.37124467,0.8495484,114
1747533819690,-0.20769271,0.28920785,2.4356914,3.4914043,0.118776985,1.087635,115
1747533819700,0.22001763,0.509835625,1.91145645,3.4914043,0.118776985,1.087635,116
1747533819710,0.64772797,0.7304634,1.3872215,3.5819516,1.4434333,-0.0053263223,117
1747533819720,0.6889736,0.8859278,1.3806318,2.9097698,1.3704628,-0.43303,118
1747533819730,0.7385172,1.0513986,1.2908187,2.2423816,1.1456919,-0.87777793,119
1747533819740,0.60806865,0.9708597,1.45494725,1.72732635,0.19414448,-1.74650105,120
1747533819750,0.4478450499999999,0.82222885,1.5749014,1.72599475,-1.14542557,-2.2306638000000003,121
1747533819760,0.353883,0.7695125,1.5544006,1.7816548,-1.6522251,-2.2967103,122
1747533819770,0.13105874,0.80685323,1.5880805,1.9307919,-2.6098979,-2.1800637,123
1747533819780,0.14179726,0.79318607,1.8404356,2.2285333,-3.4509242,-1.9228023,124
1747533819790,-0.30751215,0.9796458,3.28549865,5.41846775,-1.84823385,-0.7531419850000001,125
1747533819800,-0.241860751,0.7458389249999999,3.88075425,7.99960375,-1.6026904,-0.2825613999999999,126
1747533819810,0.1408210339999999,0.382925815,3.5058824,8.8283795,-2.6732812,-0.936900065,127
1747533819820,0.22794947,0.21599068,3.282326,9.047824,-3.2152344,-1.9981698,128
1747533819830,0.23039004,0.1718163,2.8818278,9.117599,-3.1595743,-2.5278726,129
1747533819840,-0.24674188,0.36950266,2.9213653,9.302422,-2.6434538,-2.6333337,130
1747533819850,-0.51618108,0.30324112,2.90891835,9.4923055,-2.45330405,-1.5813850500000002,131
1747533819860,-0.311539085,0.069800375,3.09562205,9.727729,-2.8149613,-1.64636625,132
1747533819870,-0.29994637,0.00707766,3.2342465,9.917612,-2.9917953,-1.7305222,133
1747533819880,-0.3104408,-0.16888762,3.3757997,10.546118,-3.2117724,-1.8514296,134
1747533819890,-0.3397277,-0.58329684,3.3901992,12.191686,-4.0072585,-1.85755485,135
1747533819900,-0.3149558799999999,-0.8395569249999999,3.4624401,13.066268,-4.4141895,-1.97393505,136
1747533819910,-0.36205891,-1.091546025,3.1627378,13.8580255,-4.770787,-2.1552963,137
1747533819920,-0.422829155,-1.24139715,2.7018358,14.2553695,-4.958273500000001,-2.29484595,138
1747533819930,-0.468589905,-1.22638765,2.2814471000000003,14.04205,-4.86000285,-2.3076291500000004,139
1747533819940,-0.55095926,-1.16720375,1.92951655,13.563746,-4.78383635,-2.2269353,140
1747533819950,-0.58842206,-1.1314493,1.7984579,13.275326,-4.776113,-2.1640847,141
1747533819960,-0.75047603,-1.08934955,1.52596795,12.3293705,-5.0224555,-1.8943065,142
1747533819970,-0.81149036,-1.0665302,1.4592183,12.016183,-5.178783,-1.7875137,143
1747533819980,-0.45931572,-1.048714,1.5966225,10.9653,-5.942578,-1.6255935,144
1747533819990,-0.15082738,-0.9276616,1.7450093,10.859306,-5.8136806,-2.0250678,145
1747533820000,-0.10396838,-0.9220483,1.6993706,10.762899,-5.4040866,-2.4394555,146
1747533820010,-0.368892505,-1.04834795,1.2527458500000002,9.8073575,-4.47517595,-2.63386645,147
1747533820020,-0.5620638,-1.1072878,1.0011228,9.160742,-3.9452069,-2.5262747,148
1747533820030,-0.5691415,-1.1177822,0.8463905,8.331966,-3.2559807,-2.1976407,149
1747533820040,-0.5933032,-1.0845904,0.68409246,7.4696345,-2.5624936,-1.7688717,150
1747533820050,-0.5852493,-1.0811737,0.5547421,6.407033,-1.8780613,-1.1020161,151
1747533820060,-0.51544887,-1.0897156,0.5034901,5.680523,-1.5654061,-0.5336975,152
1747533820070,-0.14130914,-1.0350468,0.26504618,5.0749197,-1.4258565,-0.06764429,153
1747533820080,0.009518232,-1.0884954,0.12178457,3.995807,-0.8341021,0.45380265,154
1747533820090,0.24820623,-1.121199,0.017572122,3.5547874,-0.37284255,0.2759035,155
1747533820100,0.37267542,-1.1251038,-0.034900185,3.268764,-0.015446335,-0.1784318,156
1747533820110,0.051496077,-1.4367651,-0.14106509,3.3044503,-0.070307456,-1.2639363,157
1747533820120,-0.4419877,-1.8494658,-0.27310005,3.5862129,-0.39574575,-1.4615428,158
1747533820130,-1.26470465,-2.4486265,-0.479938535,4.27623775,-0.811198885,-0.99309278,159
1747533820140,-1.5063213,-2.552595,-0.5613316,4.4714475,-0.8431568,-0.75633776,160
1747533820150,-1.756236,-2.4389861,-1.0311419000000002,4.7414923,-0.8580705,-0.10705908,161
1747533820160,-1.7027875,-2.3417292,-1.3462198,4.6695867,-0.92305166,0.94488955,162
1747533820170,-1.60870335,-2.2713188,-1.530483,4.36811685,-0.84102628,1.102548725,163
1747533820180,-1.1758677999999998,-2.0654564,-1.9721046,2.54278625,-0.2295644925,1.55262295,164
1747533820190,-1.07922115,-2.02201425,-1.9223169,1.4554176,0.2239718524999999,1.76594215,165
1747533820200,-1.11363325,-2.04422355,-1.60467645,0.1736380999999999,0.91053478,2.4202808,166
1747533820210,-1.1673259,-2.0749748,-1.3613514,-0.5832323,1.3507553,2.952913,167
1747533820220,-1.1294969,-2.080588,-1.2659249,-0.98377174,1.4679344,3.5984633,168
1747533820230,-0.97561885,-2.09523155,-1.2057648,-1.53797555,1.62799045,4.59581715,169
1747533820240,-0.9056965,-2.0783916,-1.1990532,-1.7273263,1.6809874,4.9135323,170
1747533820250,-0.50922546,-1.9805246,-1.35049075,-2.871953,1.92706335,5.8666778,171
1747533820260,-0.28078786,-1.95465455,-1.3589107500000002,-3.92763005,2.0562266,6.4749436,172
1747533820270,-0.22697324,-1.9717386,-1.3140042,-4.3153863,2.0676782,6.6680226,173
1747533820280,-0.09152147,-1.9919952,-1.1668377,-5.217665,1.9238676,7.141533,174
1747533820290,0.20281157,-1.8872948,-1.0038075,-5.8674765,1.7507621,7.3023877,175
1747533820300,0.66029688,-1.94403795,-0.328012935,-6.66429435,1.047155,7.3199647,176
1747533820310,0.76170266,-1.9363501,-0.24015234,-6.717025,0.8724516,7.294931,177
1747533820320,1.0055158,-1.8982773,-0.11519502,-6.7074375,0.46552056,7.125554,178
1747533820330,1.1441404,-1.8955926,0.034900185,-6.6120963,-0.007456851,6.941796,179
1747533820340,1.1155857,-1.9046228,0.21086545,-6.377206,-0.48842376,6.852846,180
1747533820350,1.2124764,-2.0361695,0.3943965,-5.31300665,-1.96488035,7.1460602,181
1747533820360,1.4018649,-2.0444674,0.35949633,-5.0871706,-2.3979104,7.2416677,182
1747533820370,1.5914973,-2.0198178,0.35119838,-4.815528,-2.999252,7.306116,183
1747533820380,1.7467177,-2.0237226,0.35046622,-4.64002565,-3.35105575,7.45791635,184
1747533820390,1.9384247,-2.01786525,0.4072095,-4.7193878,-3.15664495,7.5575185,185
1747533820400,1.9846735,-2.04703005,0.49836491,-4.8416268,-2.87701295,7.6259617,186
1747533820410,1.9680777,-2.0683851,0.53643787,-4.873052,-2.8059065,7.6475334,187
1747533820420,1.9951681,-2.1657639,0.66944903,-4.876248,-2.7771444,7.772702,188
1747533820430,2.1579542,-2.233856,0.82491344,-4.71326255,-2.9494508,8.1900195,189
1747533820440,2.76187385,-2.20005405,1.16098025,-4.41605375,-3.1467911,8.485896499999999,190
1747533820450,3.1659106,-2.13171805,1.3550057999999998,-4.08608815,-3.26796495,8.576444,191
1747533820460,3.27829895,-2.0963297,1.4312737,-3.9649143,-3.2783513,8.556737,192
1747533820470,3.2898917,-2.0800998,1.4445748,-3.7822216,-3.125486,8.536497,193
1747533820480,3.3028266,-2.0559382,1.4257824,-3.661314,-2.8852687,8.54715,194
1747533820490,3.2786648,-2.0339732,1.4409139,-3.5734296,-2.6732812,8.619055,195
1747533820500,3.397765,-1.8952265,1.6122421999999998,-3.28687345,-1.98565295,8.689362,196
1747533820510,3.504296,-1.8010205,1.6913167,-3.1505196,-1.7757958,8.656872,197
1747533820520,3.589838,-1.7530633,1.6781375,-2.9342709,-1.4663365,8.5716505,198
1747533820530,3.6564658,-1.6398207,1.5980868,-2.8133633,-1.3235911,8.501876,199
1747533820540,3.776786,-1.3633038,1.3886857,-2.63812745,-1.4197312000000002,8.6941555,200
1747533820550,3.8773375,-1.2464004,1.2359059,-2.5800705,-1.5377092,8.87312,201
1747533820560,4.145800599999999,-1.06262525,1.1497537,-2.7947212500000003,-1.53105135,9.1402355,202
1747533820570,4.2771034,-0.9901402,1.1219312,-2.8873992,-1.4764565,9.158611,203
1747533820580,4.565823,-0.76463133,1.0682385,-3.0823426,-1.2303804,8.956743,204
1747533820590,4.97876785,0.2353932099999999,1.0942307,-3.32682095,-0.7819041,7.5537905,205
1747533820600,5.0370975,1.11229087,1.1997855,-3.3507893,-0.89642,6.4544375,206
1747533820610,5.131425699999999,1.61651315,1.32071585,-3.3087113,-1.071656,6.126336,207
1747533820620,5.2284384,1.8575197,1.372578,-3.2053807,-1.5153387,5.5244613,208
1747533820630,5.516426,2.426173,1.5258459,-3.1867387,-1.866876,4.8932924,209
1747533820640,6.0402948,3.38202335,2.01762135,-3.21656595,-1.03836654,3.2328114,210
1747533820650,6.356715,3.8109539,2.2816913,-3.2059133,-0.15339808,2.2610238,211
1747533820660,6.472886,4.0223074,2.6353302,-2.8751488,1.7752632,0.65034395,212
1747533820670,5.944013999999999,3.45035935,2.95992625,-2.2503712,3.0871365,-0.7568704,213
1747533820680,5.747304,3.2210677,2.9064777,-0.28655612,3.9974048,-3.3348105,214
1747533820690,5.073461999999999,2.45423965,2.63679445,1.47379335,3.35744725,-4.7569385,215
1747533820700,4.8623524,2.186997,2.5123253,2.0612867,3.0083067,-5.171859,216
1747533820710,4.58620195,1.49851155,1.94220745,3.2858081500000003,1.6969663,-6.31515405,217
1747533820720,4.34751395,0.88617191,1.35378552,3.41071045,0.93184005,-7.18281195,218
1747533820730,4.17801595,0.331307715,0.89093097,2.90737295,0.81572625,-7.827829599999999,219
1747533820740,4.167643249999999,0.0586957659999999,0.8267439000000001,2.3126890500000004,1.3638048,-8.06058985,220
1747533820750,4.16264,-0.049787678,0.8459024,2.0682108,1.6895094,-8.149273,221
1747533820760,4.118466,-0.18938842,1.0438329,1.8663434,2.3249397,-8.264854,222
1747533820770,4.354957649999999,-0.56084358,1.46409945,2.3499734,2.8730183,-8.566856,223
1747533820780,4.433056,-0.64138246,1.560502,2.9694247,2.5710158,-8.8571415,224
1747533820790,4.4738135,-0.8070973,1.7620933,4.28422725,1.6005598499999998,-9.3551525,225
1747533820800,4.460024150000001,-1.08129565,1.87533585,5.257879,0.92411692,-9.673933000000002,226
1747533820810,4.454289,-1.1766,1.8494658,5.743906,0.60240704,-9.831326,227
1747533820820,4.2653885,-1.5392691,1.2571388,7.054181,-0.45380265,-10.395383,228
1747533820830,4.0613565,-1.6390884,0.9010593,7.0728235,-0.76592517,-10.519486,229
1747533820840,3.64096815,-1.722556,0.5363158299999999,6.8070397,-0.9635317,-10.550379,230
1747533820850,3.3216193,-1.7429348,0.37389572,6.358031,-1.026915,-10.468886,231
1747533820860,3.1554163,-1.7464737,0.31678632,5.80143,-1.0082728,-10.258496,232
1747533820870,2.7285602,-1.6627622,0.30336314,4.71273,-0.92731273,-9.717342,233
1747533820880,2.5696788,-1.6063848,0.33045352,4.225904,-0.89535475,-9.444102,234
1747533820890,2.4910922,-1.560258,0.4458926,3.755057,-0.9012137,-9.133045,235
1747533820900,2.4154346,-1.5104704,0.5715821,3.444,-1.0128002,-8.8241185,236
1747533820910,2.1774788,-1.496071,0.8053889,3.3635726,-1.0881677,-8.689363,237
1747533820920,2.0683851,-1.518036,0.89056486,3.396063,-1.1217234,-8.531171,238
1747533820930,2.0129843,-1.539025,0.8983747,3.4232273,-1.1222562,-8.423578,239
1747533820940,1.89119965,-1.53084905,0.8376044250000001,3.3678336,-1.0684602,-8.3783045,240
1747533820950,1.65251165,-1.56269855,0.8548105,3.15478065,-0.912399,-8.1364895,241
1747533820960,1.4692247,-1.5912533,0.8768977,3.0503848,-0.8165252,-7.945275,242
1747533820970,1.36598845,-1.61163205,0.920828,3.0644995,-0.80267675,-7.790279,243
1747533820980,0.98696755,-1.6516574,1.1211989999999998,3.35984405,-0.8974853,-7.09652535,244
1747533820990,0.836140125,-1.65141335,1.2223607,3.6860813,-1.0213223,-6.7311395,245
1747533821000,0.57170409,-1.6665449,1.2079613500000002,3.8722363,-1.0807108,-6.548713,246
1747533821010,0.299580275,-1.7254847,1.1085080500000002,4.656271,-1.03011073,-5.56840385,247
1747533821020,0.21916342,-1.7635576,1.057012,4.77345,-0.96992326,-5.3518887,248
1747533821030,0.013057062,-1.84287635,0.6676186,4.862932,-0.799481,-4.92525,249
1747533821040,-0.0622346,-1.8694785,0.5120321,4.6062036,-0.6327671,-4.43949,250
1747533821050,-0.23527119,-2.04861665,0.104822591,3.89620475,-0.5869607,-4.0780986,251
1747533821060,-0.32898918,-2.1213458,-0.041001618,3.6213665,-0.5651228,-3.9926112,252
1747533821070,-0.4515059,-2.1843123,-0.030019043,2.4937842,-0.25726137,-3.8434741,253
1747533821080,-0.84309575,-2.3030462,-0.00854200305,1.9544939,0.2274339625,-3.6703688,254
1747533821090,-1.26470465,-2.39420165,-0.0279445555,1.64876305,0.77018616,-3.1949945,255
1747533821100,-1.620174,-2.47364225,-0.0784644085,1.4921692,1.2852415,-2.4708809,256
1747533821110,-1.7081566,-2.5089085,-0.12007617,1.4897723,1.4386396,-2.1363878,257
1747533821120,-1.86362115,-2.67608785,-0.343144475,1.4628744,1.4066817500000002,-1.4048175,258
1747533821130,-1.8914437,-2.7422273,-0.42099872,1.4181333,1.28337735,-0.9118664,259
1747533821140,-2.0392204,-2.7826188,-0.67310989,1.28124685,0.917725275,-0.018375825,260
1747533821150,-1.98089075,-2.7064729,-0.83064887,1.0788466,0.454068975,0.899083225,261
1747533821160,-1.8992535,-2.6543665,-0.873725,0.9832391,0.2806972,1.186172,262
1747533821170,-1.7069364,-2.5374632,-0.8922733,0.7621967,-0.008522116,1.690042,263
1747533821180,-1.5436621,-2.395666,-0.8261338,0.5544701,-0.18322548,2.1614215,264
1747533821190,-1.3960074,-2.2572856,-0.75169635,0.38029942,-0.21837921,2.6280074,265
1747533821200,-1.1065556,-2.037634,-0.56474847,0.09374327,0.00958738,3.7705035,266
1747533821210,-0.9369358,-1.943916,-0.5269196,-0.037284255,0.21624869,4.237622,267
1747533821220,-0.7678041,-1.8555672,-0.5440036,-0.22423817,0.49481535,4.6259108,268
1747533821230,-0.63064396,-1.7767367,-0.58232063,-0.50173956,0.80587256,4.971589,269
1747533821240,-0.63064396,-1.7767367,-0.58232063,-0.50173956,0.80587256,4.971589,270
1747533821250,-0.141675235,-1.5114466,-0.701542565,-2.1086909,1.78804635,5.96601375,271
1747533821260,-0.08517598,-1.4609268,-0.6999562,-2.3675501,1.8732675,6.0459085,272
1747533821270,0.03807293,-1.4038173,-0.66139513,-3.00085,1.9467708,6.2312646,273
1747533821280,0.15253578,-1.3701375,-0.5864696,-3.4487936,1.965413,6.352172,274
1747533821290,0.37633629,-1.29936085,-0.354005015,-4.0123185,1.80269375,6.5319352,275
1747533821300,0.53058047,-1.2649488,-0.158271115,-4.24800835,1.57978715,6.65683735,276
1747533821310,0.5857374,-1.2539662,-0.08127106,-4.275439,1.4823155,6.69785,277
1747533821320,0.7165521,-1.2612879,0.05588911,-4.2051315,1.2287825,6.7713537,278
1747533821330,0.86298645,-1.2783719,0.18011424,-4.052266,0.90281165,6.829943,279
1747533821340,1.14096765,-1.2343195,0.183164965,-3.9507995,0.13688649,6.8810758,280
1747533821350,1.28081245,-1.2243132,0.21269589,-4.0703755,-0.41438786,6.9921298,281
1747533821360,1.3220581,-1.2346857,0.25943285,-4.139085,-0.5422196,7.066432,282
1747533821370,1.4736177,-1.2556745,0.36974674,-4.280765,-0.5837649,7.218765,283
1747533821380,1.6803341,-1.2318790000000002,0.607092415,-4.4315,-0.46232477,7.3125076,284
1747533821390,1.83579855,-1.23676015,0.9259532,-4.523113,-0.25300032,7.3710976,285
1747533821400,1.9343977,-1.2495731,1.1370627,-4.378237,0.2545982,7.56178,286
1747533821410,2.01274,-1.257627,1.21089,-4.252269500000001,0.420779465,7.59799885,287
1747533821420,2.4151905,-1.1990532,1.2112561,-3.73535,1.1920309,7.5372787,288
1747533821430,2.46497825,-1.1204668,1.1139993,-3.8503985,1.1869709,7.261108849999999,289
1747533821440,2.4359354,-1.011251225,1.05481545,-4.0551955,1.0426276,6.8970546,290
1747533821450,2.3571048,-0.98062205,1.0928884,-4.144944,0.9033443,6.8091702,291
1747533821460,2.2977989,-1.004173575,1.17147485,-4.20113675,0.75926725,6.8480525,292
1747533821470,2.226046,-1.0948408,1.3633038,-4.3180494,0.44101948,7.145794,293
1747533821480,2.3461223,-1.1336459,1.5107143,-4.3148537,0.34408042,7.4158387,294
1747533821490,2.5721195,-1.1643971,1.6595892,-4.194479,0.3392867,7.56178,295
1747533821500,2.9521165,-1.14499455,1.8663058,-3.55931485,0.66312713,7.385744900000001,296
1747533821510,3.082565,-1.10033205,1.88741665,-2.8815404,0.5667206850000001,7.074954,297
1747533821520,3.159565,-1.0611609,1.8567874,-2.3936493,0.41278997,6.834204,298
1747533821530,3.159565,-1.0611609,1.8567874,-2.3936493,0.41278997,6.834204,299
1747533821540,3.0875682,-0.8372383999999999,1.4799631,-1.6937705,-0.42557314,6.516755,300
1747533821550,3.0333874,-0.77366143,1.4365209,-1.4812502,-0.72171664,6.46509,301
1747533821560,2.9870167,-0.72777873,1.3869773,-1.3267869,-0.90654004,6.502907,302
1747533821570,2.9823797,-0.6953191,1.2085714,-1.23837,-0.62104917,6.6818714,303
1747533821580,3.0014162,-0.70410514,1.0755602,-1.4519554,-0.29667616,6.8086376,304
1747533821590,3.15029105,-0.61319382,1.0030753,-1.9403792,0.233559233,6.95351385,305
1747533821600,3.31417545,-0.466271365,1.09203415,-2.16541625,0.52517538,6.926083200000001,306
1747533821610,3.46329435,-0.147288547,1.2359059,-2.1377194,0.65034395,6.6294070000000005,307
1747533821620,3.5234544,0.082003236,1.3108315,-2.0325246,0.6562029,6.378271,308
1747533821630,3.5444436,0.4131889,1.3357253,-1.7422401,0.50813115,6.126336,309
1747533821640,3.619125,0.72753465,1.3669646,-1.3390374,0.31052458,5.8371167,310
1747533821650,3.6972232,1.206375,1.2722704,-0.86179894,0.15446335,5.3273873,311
1747533821660,3.6479237,1.5226732,1.0450531,-0.63436496,0.10279802,4.914065,312
1747533821670,3.482941,2.0427592,0.71313524,-0.58509648,0.1145159249999999,4.54068975,313
1747533821680,3.4731786,2.3470986,0.485918,-0.7185209,0.12836437,3.8994005,314
1747533821690,3.77153875,2.8389959,0.434665965,-0.8612663,0.07084008,3.5563853,315
1747533821700,3.8827069,2.9960468,0.43417785,-0.9374327,-0.0053263223,3.1382692,316
1747533821710,4.4516044,3.4131405,0.6372335,-0.8863,-0.041012682,2.6274748,317
1747533821720,4.749842,3.5002692,0.76194674,-0.2428803,0.06924219,1.045557,318
1747533821730,4.9736423,3.4377902,0.8278422,0.383495185,0.2295644899999999,-0.5454153749999999,319
1747533821740,4.96949385,3.0959881,0.8908089299999999,0.5906891,0.26418558,-1.1297129,320
1747533821750,4.8867583,2.94211,0.91570276,1.23996785,0.0684432429999999,-3.15398165,321
1747533821760,4.102114,1.9951681,1.0030752,1.5867114,-0.200003407,-4.277303,322
1747533821770,3.678187,1.5683119,1.0716554,1.6644757,-0.3121225,-4.5247107,323
1747533821780,3.3350422,1.1995413,1.1331578,1.8391791,-0.408795235,-4.7580037,324
1747533821790,3.1228345,0.8112463,1.1507299,1.96674445,-0.2348908075,-4.7273775,325
1747533821800,3.107825,0.7060576,1.1434082,2.18618895,0.1142496175,-4.8048755,326
1747533821810,3.402158,0.5747548,1.0548154,2.3313313,0.3254383,-4.922587,327
1747533821820,3.543955,0.45589894,0.97281224,2.461826,0.4133226,-5.252819,328
1747533821830,3.5964275,0.2372236499999999,0.87714175,2.5904569,0.29534457,-5.8341873500000005,329
1747533821840,3.55518175,0.092619728,0.84761082,2.6634275,0.14674018,-6.192116,330
1747533821850,3.45255575,-0.079928747,0.8254016200000001,2.732936,-0.12863068,-6.589193249999999,331
1747533821860,3.381169,-0.18694785,0.8102701,2.764894,-0.32277513,-6.8208885,332
1747533821870,3.3502959,-0.3130034,0.7787866800000001,2.5896579,-0.50972904,-7.03234335,333
1747533821880,3.3445604,-0.3441207,0.7792748,2.5129588,-0.5273059,-7.0797477,334
1747533821890,3.33199155,-0.4626105,0.84980732,2.27780175,-0.4274373649999999,-7.16150675,335
1747533821900,3.3006303,-0.5898863350000001,0.9787916,2.17074265,-0.313720385,-7.21503625,336
1747533821910,3.2779331,-0.66847277,1.0787331,2.13479,-0.2609898,-7.25019,337
1747533821920,3.2706113,-0.750232,1.1748916,2.2370553,-0.360592,-7.3220954,338
1747533821930,3.17847955,-0.86127803,1.26629105,2.53373145,-0.64102288,-7.4472638,339
1747533821940,3.1278377,-0.89007676,1.2996049,2.6541064,-0.75154406,-7.483483,340
1747533821950,2.94857775,-0.99404518,1.2501832,3.31004295,-1.40321965,-7.6906765,341
1747533821960,2.9189248,-1.0023432,1.2180897,3.3912694,-1.5094798,-7.739146,342
1747533821970,2.8535173,-1.022844,1.1670818,3.4951327,-1.6692694,-7.804127,343
1747533821980,2.7637043,-1.0396838,1.0765365,3.534015,-1.7374463,-7.823835,344
1747533821990,2.5879831,-1.0423685,0.897276465,3.41949895,-1.64503465,-7.76204935,345
1747533822000,2.4615613,-1.0492021,0.7839119,3.329484,-1.5606124,-7.717841,346
1747533822010,2.3751649500000003,-1.0520087500000002,0.721433235,3.0874027,-1.46660285,-7.6065206,347
1747533822020,2.25155005,-1.04395485,0.6676186049999999,2.89565505,-1.4064154,-7.5276911,348
1747533822030,2.110119,-1.02589465,0.63491497,2.8075044,-1.3784522,-7.494668,349
1747533822040,1.9419636,-1.0039295,0.64894823,2.5331988,-1.3073458,-7.39266895,350
1747533822050,1.79247845,-0.992824875,0.67652668,2.41575345,-1.26526785,-7.323426700000001,351
1747533822060,1.7472057,-0.99184865,0.6828722,2.3936493,-1.257012,-7.289072,352
1747533822070,1.6517794,-1.0094208,0.6723777,2.3813988,-1.24023415,-7.2387383,353
1747533822080,1.5302389,-1.027481,0.64943635,2.3539681,-1.11320135,-7.0190275,354
1747533822090,1.24713255,-1.06262525,0.5828087,2.3587618,-0.99788647,-6.74871665,355
1747533822100,1.0437108,-1.0877631,0.5136185,2.36009335,-0.92704639,-6.43233325,356
1747533822110,0.92998015,-1.09984395,0.4599259,2.34544595,-0.94568852,-6.20623075,357
1747533822120,0.873725,-1.1050912,0.4339338,2.32067855,-1.00907175,-5.94124615,358
1747533822130,0.71765037,-1.1348661,0.40550112,2.299906,-1.0958907999999998,-5.53777715,359
1747533822140,0.64638564,-1.1569533,0.4014741699999999,2.30443335,-1.18856885,-5.15987465,360
1747533822150,0.6059941200000001,-1.189535,0.4413775399999999,2.35769655,-1.31267215,-4.94895245,361
1747533822160,0.5940353,-1.2073512,0.48542988,2.4000409,-1.3885722,-4.8581386,362
1747533822170,0.5730464,-1.27873795,0.618319075,2.6093652,-1.5180018,-4.75321,363
1747533822180,0.473227,-1.38148605,0.6040417,3.2807482500000003,-1.721201,-4.82351765,364
1747533822190,0.3056817049999999,-1.4648316,0.511543985,3.63761185,-1.9129486,-5.0589409,365
1747533822200,0.1112901135,-1.5415876,0.372431355,3.68767925,-2.0277308,-5.273858049999999,366
1747533822210,0.007321717,-1.5971106,0.28286234,3.6639771,-2.0676782,-5.3811836,367
1747533822220,-0.5277737849999999,-1.78613305,-0.140698997,3.327886,-2.0330572,-5.535647,368
1747533822230,-0.88824635,-1.9540443,-0.3391175349999999,2.3134881,-1.77233375,-5.5684037,369
1747533822240,-1.49289815,-2.2370286000000004,-0.40916197,0.993092828,-1.137169825,-5.2624063,370
1747533822250,-2.09327895,-2.4996343000000003,-0.27615077,-0.177366522,-0.398142585,-4.7545413,371
1747533822260,-2.44020635,-2.62617805,-0.0089080849999999,-0.4250405,-0.16884442,-4.531102,372
1747533822270,-2.6079957,-2.6799927,0.1313028,-0.551807,0.23542345,-3.9425437,373
1747533822280,-2.916484,-2.7424712,0.32679266,-0.36218992,0.54648066,-3.2197618,374
1747533822290,-3.2387618,-2.736614,0.296651585,0.3928162755,0.661262925,-1.41786707,375
1747533822300,-3.26365565,-2.71294035,0.132279025,0.7781757,0.6540724,-0.46658584,376
1747533822310,-3.08756825,-2.6483872,-0.0567433099999999,0.9962886,0.595216515,0.90148005,377
1747533822320,-2.9694445,-2.604579,-0.15229172,1.0120013,0.58962387,1.3385048,378
1747533822330,-2.03507145,-2.2275105,-0.51215415,0.2596582149999999,0.84049365,3.0887343,379
1747533822340,-1.6777715999999998,-2.0532536,-0.5430273999999999,-0.1374191,1.0436928,3.45598415,380
1747533822350,-1.3722119,-1.88741675,-0.55571835,-0.539822735,1.2756542,3.70605505,381
1747533822360,-1.14047955,-1.74366705,-0.5447358,-0.924116885,1.4905713500000002,3.9052596,382
1747533822370,-1.044321,-1.6786258,-0.528384,-1.107875,1.5861788,4.0021987,383
1747533822380,-0.8090498,-1.4938743,-0.39073566,-1.58777665,1.51773555,4.3920852,384
1747533822390,-0.5848831800000001,-1.3991802,-0.39720316,-1.73318525,1.4269218,4.545216999999999,385
1747533822400,-0.453580375,-1.3225462,-0.381827545,-1.86634335,1.36487015,4.69302245,386
1747533822410,-0.39537275,-1.279104,-0.35876414,-1.9180087,1.347027,4.7585363,387
1747533822420,-0.16144387,-1.12888685,-0.22172601,-2.01095295,1.2937637,5.06639765,388
1747533822430,-0.12422514,-1.0982577,-0.19671014,-2.0096214,1.2868395,5.130846,389
1747533822440,0.016595893,-1.0426126,-0.17767367,-2.0112193,1.2415657,5.22672,390
1747533822450,0.1790159949999999,-0.93852215,-0.17584325,-2.0852553,1.1206581999999998,5.25202,391
1747533822460,0.31776253,-0.862742385,-0.13545177,-2.2429143,0.970455925,5.151619,392
1747533822470,0.41074833,-0.81783587,-0.10152781,-2.364887,0.86392945,5.058941,393
1747533822480,0.50617475,-0.74840155,-0.0439303025,-2.505502,0.76059884,4.9412293,394
1747533822490,0.5361938,-0.7319277,-0.028798755,-2.6690202,0.6854977,4.8059406,395
1747533822500,0.51642515,-0.740713745,0.0641870585,-2.8362665,0.6812366,4.714328,396
1747533822510,0.46712559,-0.7864744699999999,0.239664225,-2.96543005,0.701476635,4.818191499999999,397
1747533822520,0.42954078,-0.818568,0.36632994,-2.9395974,0.7094661,4.884238,398
1747533822530,0.43015089,-0.8460244299999999,0.47054239,-2.835734,0.6562029,5.0584083,399
1747533822540,0.4412555,-0.84834296,0.49641246,-2.7063043,0.54275227,5.2421665,400
1747533822550,0.6275932049999999,-0.842607645,0.56059945,-2.3744746,0.1845570715,5.5111455,401
1747533822560,0.76389915,-0.83760446,0.5688974,-2.194445,0.007989483,5.605954,402
1747533822570,0.8617661,-0.8324793,0.4978768,-2.149171,0.01438107,5.618737,403
1747533822580,0.9303462,-0.8576172,0.40684342,-2.2258701,0.1438107,5.6304555,404
1747533822590,1.00478367,-0.9275396,0.28798756,-2.5329325000000003,0.4977448,5.65469,405
1747533822600,1.03407055,-1.0134477,0.33130771,-2.9401299,0.7294398,5.74710185,406
1747533822610,1.048836,-1.11936855,0.50702894,-3.269563,0.82051995,5.9604212,407
1747533822620,1.112901,-1.1991753,0.7217993199999999,-3.26663355,0.7629957,6.2853267,408
1747533822630,1.2398108,-1.24847485,0.90130345,-3.1092406500000003,0.65087658,6.620352199999999,409
1747533822640,1.3159567,-1.2627522,0.967443,-3.0024478,0.58483016,6.7596354,410
1747533822650,1.80590165,-1.317421,0.926807435,-2.53053565,0.39947416,7.21769935,411
1747533822660,1.8963249,-1.3193735,0.90130347,-2.4740767,0.4133226,7.2752237,412
1747533822670,2.1006007,-1.330112,0.7934301,-2.4562335,0.4546016,7.300523849999999,413
1747533822680,2.2538686,-1.3396302,0.6977597,-2.4964473,0.51505536,7.3316827,414
1747533822690,2.365403,-1.3764828,0.63454884,-2.6264095,0.41225734,7.3465962,415
1747533822700,2.5430765,-1.4130915000000002,0.91570277,-2.6413232,-0.17310545,7.563377750000001,416
1747533822710,2.7589451,-1.43127375,1.2374922000000002,-2.3454461,-0.60134177,7.855260250000001,417
1747533822720,2.8618152,-1.4343245,1.3306,-2.1704764,-0.66152924,7.97457,418
1747533822730,3.073657,-1.4221216,1.4252943,-1.8008295,-0.49534798,8.161524,419
1747533822740,3.2928205,-1.4331042,1.4138237,-1.5073493,-0.07882957,8.302671,420
1747533822750,3.7764199,-1.2970423000000002,1.04663945,-1.45275435,1.14649092,8.1213105,421
1747533822760,3.8548844,-1.261532,0.9608534,-1.5164039,1.2958943,8.001202,422
1747533822770,3.9744723,-1.1258361,0.7829357,-1.7587516,1.3709954,7.6635127,423
1747533822780,3.944209,-0.93986446,0.84248555,-1.9707392,1.031176,7.273093,424
1747533822790,3.83011235,-0.706057615,1.06103885,-1.7670074,0.1741707149999999,6.9489862,425
1747533822800,3.71747985,-0.5414410199999999,1.16000405,-1.55102505,-0.261788735,6.8557755,426
1747533822810,3.6945384,-0.49421594,1.1968567,-1.4769892,-0.3174488,6.850183,427
1747533822820,3.6715972,-0.31873876,1.1685461,-1.3640711,-0.13528858,6.8858695,428
1747533822830,3.7514038,-0.08419975,1.1172941,-1.25861,0.26897928,6.919958,429
1747533822840,4.0413438,0.5159370050000001,0.7604824050000001,-1.37072905,0.9363675,6.113286499999999,430
1747533822850,4.1738667,0.84785485,0.55840296,-1.5345135,1.1872373,5.4829164,431
1747533822860,4.1738667,1.2366381,0.417826,-1.8141453,1.1361046,4.779309,432
1747533822870,3.8766053,1.72755925,0.7041051700000001,-1.7070863,0.8245147,4.255199,433
1747533822880,3.8678192,2.1213456,0.75938412,-1.3659354,-0.0231695049999999,3.9694418,434
1747533822890,3.9625132,2.2877927,0.7734174,-1.2128036,-0.27324033,3.884487,435
1747533822900,4.5819307,3.3145416,0.666276305,-0.51878379,-0.83516732,2.9854036,436
1747533822910,4.889565,3.61534205,0.651998935,-0.2729740149999999,-0.67804082,2.3771376,437
1747533822920,5.0575986,3.7618983,0.6472398,-0.13635385,-0.5123922,2.016013,438
1747533822930,5.3897605,3.9739842,0.61502427,0.25566345,0.12037488,0.80107886,439
1747533822940,5.4167285,3.6397478,0.51178805,0.5400891,0.5006743,-0.41278997,440
1747533822950,5.217456,3.2989216,0.5042223,0.9310411,0.44421527,-2.8943236,441
1747533822960,4.787915,2.7310007,0.64089435,1.1616709,0.11984225,-3.908988,442
1747533822970,4.22878,2.1723535,0.7394935,1.3736585,-0.25726137,-4.60141,443
1747533822980,3.6564658,1.6017478,0.79513854,1.4956313,-0.557665945,-5.007542000000001,444
1747533822990,3.19592965,0.8423635949999999,0.856884975,1.4831144,-0.33875409,-5.062403,445
1747533823000,3.3072196,0.69666142,0.916556925,1.52173025,-0.0034621099999999,-5.12871575,446
1747533823010,3.3980088,0.630888,0.9488945,1.5781893,0.09267801,-5.1958275,447
1747533823020,3.5232103,0.51569295,0.9784255,1.778459,0.16831179,-5.438708,448
1747533823030,3.6247385,0.36706212,0.9928249,2.0287962,0.10013486,-5.755091,449
1747533823040,3.63205985,-0.0013423099999999,0.990506325,2.6314695,-0.640756565,-6.65683735,450
1747533823050,3.55628015,-0.17816179,0.979279695,2.7750139,-0.93876433,-6.921822049999999,451
1747533823060,3.5190616,-0.26651052,0.97427654,2.8245487,-1.0764498,-7.0366044,452
1747533823070,3.4045985,-0.3785328,0.97452056,2.871953,-1.2037488,-7.163903,453
1747533823080,3.3113687,-0.4742032,0.9969738,2.8794098,-1.2442288,-7.1985245,454
1747533823090,3.26023865,-0.6240544,1.1398694,2.8818067000000003,-1.3888385,-7.1218255,455
1747533823100,3.27073325,-0.68689913,1.270562,2.97954475,-1.5238608,-7.08187815,456
1747533823110,3.2784212,-0.7067898,1.300337,3.10471335,-1.5614114,-7.08880235,457
1747533823120,3.285743,-0.7192367,1.296188,3.1686292,-1.562743,-7.0973244,458
1747533823130,3.3134431500000003,-0.7464490699999999,1.14633685,3.2871398000000003,-1.6213324999999998,-7.24672775,459
1747533823140,3.2702449,-0.763899145,1.08337005,3.2210935000000003,-1.6956347,-7.35431925,460
1747533823150,3.1858011,-0.7915996750000001,1.05335105,3.09326175,-1.7957695500000002,-7.439008,461
1747533823160,3.1393082,-0.8102701,1.044321,3.0146985,-1.850897,-7.474961,462
1747533823170,3.0580373,-0.8778739,1.0553036,2.902313,-1.8833876,-7.5149083,463
1747533823180,2.7505253,-1.013203635,1.1352323,2.8554413,-1.8213359,-7.50239135,464
1747533823190,2.4508228,-1.0753162,1.1909994,2.92628145,-1.7731327,-7.40518595,465
1747533823200,2.23361175,-1.07055715,1.1994193,3.03227535,-1.80828645,-7.24779295,466
1747533823210,2.1386735,-1.0626253,1.1907552,3.16809655,-1.9310581,-6.97348735,467
1747533823220,2.07119195,-1.002587165,1.10069815,3.3007219,-2.0730046,-6.779342850000001,468
1747533823230,2.0655786,-0.962927865,1.02101348,3.3617083,-2.18565645,-6.79106065,469
1747533823240,2.0527656,-0.9413288,0.96451426,3.371562,-2.2439797,-6.816627,470
1747533823250,1.8958367,-0.94169485,0.82369325,3.2597092,-2.41735135,-6.86776,471
1747533823260,1.8316495,-0.9447456,0.7902574,3.2117724,-2.4570324,-6.876815,472
1747533823270,1.5107143,-0.9701275,0.66066295,3.0003173,-2.4319987,-6.7857347,473
1747533823280,1.3098553000000002,-0.97940172,0.54583403,2.851713,-2.3382554,-6.6733494,474
1747533823290,1.2510375,-0.9808661,0.5108118,2.6770096,-2.2210765,-6.5252776,475
1747533823300,1.1243718,-0.98794377,0.42905265,2.4778051,-2.1108215,-6.334595,476
1747533823310,1.002709225,-0.983916785,0.3819495899999999,2.2471753,-2.0479709,-6.0618875,477
1747533823320,0.7824476,-0.9808661,0.34778157,1.8823223,-2.0703416,-5.503689,478
1747533823330,0.722409455,-0.946942125,0.380119175,1.77606215,-2.1747374,-5.143896,479
1747533823340,0.71093875,-0.94206095,0.38780698,1.7539579,-2.179531,-5.036038,480
1747533823350,0.63369465,-0.9752527,0.35388301,1.67512835,-1.8634138,-4.7255132,481
1747533823360,0.5891542,-0.99795,0.32557237,1.6335831,-1.6543556,-4.59129,482
1747533823370,0.29018407,-1.10008805,0.331429735,1.70175995,-1.37925115,-4.1899513,483
1747533823380,0.11470691,-1.1567093000000002,0.311783135,1.7872474,-1.27671945,-3.8320225,484
1747533823390,0.0267242685,-1.19734485,0.22733933,1.8591528,-1.226652,-3.5665054,485
1747533823400,0.0283106404999999,-1.1956365,0.111046048,1.82959175,-1.18670455,-3.59766445,486
1747533823410,0.049299564,-1.176356,0.059305906,1.7678064,-1.1675298,-3.7321541,487
1747533823420,-0.029286871,-1.16940035,0.0040269419999999,1.5243934,-1.1483551,-4.030428,488
1747533823430,-0.2923806,-1.2725145,-0.1261776,1.1712582,-1.0833739,-4.280765,489
1747533823440,-0.63564709,-1.4733736,-0.201957375,0.54195328,-0.8093347,-4.459197,490
1747533823450,-1.158539765,-1.7037637,-0.2040318649999999,0.32597092,-0.6791061,-4.475176,491
1747533823460,-1.5524482,-1.8621569,-0.18865626,-0.5502091,-0.17097494,-4.1428137,492
1747533823470,-1.67996815,-1.92854035,-0.134597575,-0.6527408,-0.11504856,-3.98408915,493
1747533823480,-2.0193298,-2.1247623,0.027334413,-0.79735047,0.070307456,-3.432282,494
1747533823490,-2.3076834,-2.2258021,0.2020794,-0.390153108,0.3073288,-2.32520595,495
1747533823500,-2.45436185,-2.28242345,0.1591253275,-0.104928546,0.40586576,-1.7193369,496
1747533823510,-2.5176947,-2.3226929,0.076633975,0.175236,0.4612595,-1.139833,497
1747533823520,-2.5560114,-2.3517356,-0.09615856,0.31691617,0.43675843,-0.57577544,498
1747533823530,-2.5533268,-2.3339193,-0.23966423,0.33609092,0.36591834,-0.019707393,499
1747533823540,-2.4701035,-2.2995074,-0.33094162,0.2727077,0.3387541,0.6327671,500
1747533823550,-2.08473705,-2.1766245,-0.369990785,0.14407702,0.4071973399999999,1.75049575,501
1747533823560,-1.9924834,-2.136233,-0.3841461,0.11984225,0.4314321,1.9499665,502
1747533823570,-1.8040712,-2.0400746,-0.42197496,0.040480047,0.48363006,2.3052323,503
1747533823580,-1.5956463,-1.9322013,-0.46663743,-0.15259913,0.60107545,2.7678235,504
1747533823590,-1.4235859,-1.824572,-0.4915313,-0.22849922,0.6412892,2.914031,505
1747533823600,-0.9959976,-1.5495195000000002,-0.448089115,-0.644484995,0.6916229700000001,3.53268325,506
1747533823610,-0.831259,-1.453971,-0.400497965,-0.71106404,0.7036072,3.6288233,507
1747533823620,-0.6899498500000001,-1.3701373,-0.35449315,-0.8245147,0.76113147,3.807788,508
1747533823630,-0.6240544,-1.3296238,-0.3338703,-0.9358348,0.871919,3.9888828,509
1747533823640,-0.3205692,-1.17647795,-0.2486943449999999,-1.27725205,1.2823121,4.47544215,510
1747533823650,-0.197930435,-1.1136332,-0.211475605,-1.3544837,1.3736585,4.574778,511
1747533823660,-0.14521407,-1.0836142,-0.19402552,-1.5281218,1.5797871,4.7686563,512
1747533823670,-0.04368625,-1.0340706,-0.15302388,-1.7172064,1.7827201,4.9513493,513
1747533823680,0.05686534,-0.98892,-0.1330112,-2.09883725,2.1451763,5.21100735,514
1747533823690,0.2716357199999999,-0.8856837799999999,-0.0591838845,-2.4679514,2.40483455,5.3454969000000006,515
1747533823700,0.34387667,-0.852858075,-0.042465962,-2.8586372,2.6069684,5.4216634,516
1747533823710,0.42246309,-0.8255236450000001,-0.0192805215,-3.13986695,2.6674221,5.40222225,517
1747533823720,0.47005424,-0.81271064,-0.006833603,-3.42615675,2.68526525,5.32312625,518
1747533823730,0.5576708,-0.79489445,0.056011138,-3.71031605,2.6674222,5.20381685,519
1747533823740,0.55596238,-0.835285925,0.1526578,-4.062385900000001,2.5571673,5.06932735,520
1747533823750,0.5103237,-0.901669505,0.2584566299999999,-4.32284305,2.3805997,5.0544135,521
1747533823760,0.4761557,-0.93986446,0.31263736,-4.3713126,2.2945797,5.107943,522
1747533823770,0.4339338,-1.0106411,0.41538543,-4.3739758,2.0905814,5.3002234,523
1747533823780,0.44955346,-1.074584,0.5020258,-4.2994075,1.8503643,5.536712,524
1747533823790,0.66993713,-1.1708647,0.48128088,-4.1678472,1.35608165,5.89597235,525
1747533823800,0.894103715,-1.2271199,0.39158985,-4.21471885,0.994957,6.0214073500000005,526
1747533823810,1.01906105,-1.27629735,0.34973402,-4.38782435,0.7893609500000001,6.0238042,527
1747533823820,1.0733638,-1.3042419,0.33631086,-4.494351,0.6945524,6.0224724,528
1747533823830,1.12656825,-1.4504322,0.63223028,-4.754808,0.51984906,6.049637,529
1747533823840,1.1343781,-1.5380487,0.87640953,-4.979046,0.34780884,6.182795,530
1747533823850,1.2916729500000002,-1.64665435,1.1841658000000002,-4.735633,0.52118065,7.057377000000001,531
1747533823860,1.3591548,-1.6744769,1.2625082,-4.629639,0.6130597,7.254451,532
1747533823870,1.4725194,-1.7099872,1.3176651,-4.3611927,0.6993461,7.5750957,533
1747533823880,2.20859605,-1.80175265,1.3329187,-3.9364184,0.562992275,7.810518999999999,534
1747533823890,2.5547912,-1.8282329,1.2737348,-3.5515916,0.050600065,7.72236835,535
1747533823900,2.9785967,-1.8134674,1.28898845,-3.08500585,-0.596015475,7.497864,536
1747533823910,3.1480944,-1.7649,1.31522455,-2.6775422,-0.98084225,7.34020485,537
1747533823920,3.2137458,-1.7303659,1.3284036,-2.2900523,-1.24902255,7.294131999999999,538
1747533823930,3.1883638,-1.5968665,1.3196175,-1.78964435,-1.41573645,7.40971315,539
1747533823940,3.33333385,-1.34024035,1.1944162,-1.39017015,-1.31693315,7.55592075,540
1747533823950,3.40167,-1.291795,1.1346222,-1.2980248,-1.1680624,7.5910745,541
1747533823960,3.59838,-1.1395033,0.86115598,-1.4580807,-0.329433033,7.4491282,542
1747533823970,3.674282,-1.0621371,0.7241178,-1.6490294,0.103863284,7.319965,543
1747533823980,3.6635435,-0.98977415,0.7870846,-1.8026938,0.300404572,7.077617249999999,544
1747533823990,3.652805,-0.9174112,0.8500514,-1.9563582,0.49694586,6.8352695,545
1747533824000,3.5561583,-0.723751755,0.92107203,-1.6551547,0.247673983,6.4816015,546
1747533824010,3.5144246,-0.65041256,0.93278676,-1.32412375,-0.060986392,6.2682825,547
1747533824020,3.4515798,-0.0153756099999999,0.43344569,-1.0679276,-0.33502567,5.9977053,548
1747533824030,3.4308348,0.2289256949999999,0.20561823,-0.9938917,-0.45007423,5.8136806,549
1747533824040,3.3612783,0.43539813,0.063454884,-1.54489975,-0.3251719799999999,5.28158115,550
1747533824050,3.2106950000000003,0.55962327,0.043808274,-2.1584922,-0.0929443225,4.8855691,551
1747533824060,2.92710055,0.73607667,0.26541226,-2.8506477500000003,0.3350256574999999,4.58409925,552
1747533824070,2.74076285,1.0154002,0.499341145,-3.1824775,0.61625546,4.476241,553
1747533824080,2.847782,1.31620075,0.617708915,-3.2197617,0.75234303,4.479969799999999,554
1747533824090,3.1081911,1.62908215,0.7268025,-3.10125105,0.6604639999999999,4.383297,555
1747533824100,3.45316585,1.9535563,0.8068532500000001,-2.92308565,0.47803744,4.1758367,556
1747533824110,4.09747685,2.39749645,0.9930689,-2.3960461,0.08628641,3.5204327,557
1747533824120,4.7652177,2.82496255,1.13694065,-1.6769926000000002,-0.3043993299999999,2.57288,558
1747533824130,5.16486145,3.0843953500000003,1.05286295,-1.1345066350000002,-0.47164585,1.5068165850000002,559
1747533824140,5.42929745,3.1671308500000004,0.90179155,-0.803742035,-0.502005875,0.273772955,560
1747533824150,5.4942169,2.96871235,0.8079515500000001,-0.7331682500000001,-0.380033095,-0.90840428,561
1747533824160,5.1280088,2.2746136,0.8759215,-0.8380968,-0.0559263849999999,-2.3805997000000003,562
1747533824170,4.55532835,1.4826478,1.074096,-0.92624745,0.340618285,-3.47915365,563
1747533824180,4.167521499999999,1.0427346,1.2770296,-0.840759985,0.6535397000000001,-3.7486656,564
1747533824190,3.9587306,0.79831125,1.40137675,-0.49188588,1.2133362,-3.79926565,565
1747533824200,4.11468305,0.60684833,1.3922246,0.050600055,1.83917915,-4.01178595,566
1747533824210,4.3630114,0.43173729,1.2889884,0.54195328,2.0570257,-4.4570665,567
1747533824220,4.4303712,0.3199590599999999,1.17367135,0.98989698,1.8929749,-4.92498385,568
1747533824230,4.448919500000001,0.222702235,1.0692148499999998,1.4194649,1.47539125,-5.39077065,569
1747533824240,4.430127199999999,0.1062869275,0.95243345,1.7864485,0.96619485,-5.86960695,570
1747533824250,4.2401285,-0.1194660225,0.82344915,2.13292565,0.3312972449999999,-6.5282068,571
1747533824260,3.9579984,-0.33801928,0.75108615,2.34784275,-0.1499359699999999,-7.0576434,572
1747533824270,3.7405435,-0.44711287,0.7508421000000001,2.3824639,-0.301469835,-7.233411999999999,573
1747533824280,3.5538397,-0.52435699,0.7742716000000001,2.37793665,-0.31185617,-7.30292055,574
1747533824290,3.3982531,-0.6095329549999999,0.83064885,2.3925840000000003,-0.116113828,-7.31703545,575
1747533824300,3.3175921500000003,-0.68519072,0.89166317,2.4666198,0.083090627,-7.3199649,576
1747533824310,3.31088065,-0.73900535,0.93364102,2.5984463,0.1171790875,-7.34260175,577
1747533824320,3.31722615,-0.81783582,0.99514345,2.80697175,0.0319579325,-7.4259585,578
1747533824330,3.30185055,-0.899717005,1.06775045,3.102849,-0.20213393,-7.56897,579
1747533824340,3.2621913,-0.963171885,1.1037489,3.45465265,-0.5637912,-7.742342,580
1747533824350,3.1729883,-1.05115455,1.0849565,4.02456915,-1.30201947,-8.055529499999999,581
1747533824360,3.1012354,-1.1097283,1.0594525,4.4107275,-1.8327875,-8.277104,582
1747533824370,2.941866,-1.1712307,0.95670444,4.630172,-2.1694112,-8.403872,583
1747533824380,2.71281835,-1.2434717000000002,0.6543175,4.6586678,-2.4559672,-8.482700999999999,584
1747533824390,2.5474696,-1.27361275,0.44308594,4.2871568,-2.56702105,-8.452341,585
1747533824400,2.4657104,-1.2982624500000002,0.3898814499999999,3.75798665,-2.6431874,-8.345814,586
1747533824410,2.4312983,-1.309123,0.38439015,3.551059,-2.6743464,-8.277104,587
1747533824420,2.3685756,-1.2991167,0.41050428,3.160107,-2.6855316,-8.081629,588
1747533824430,2.358081,-1.2898425,0.42148685,2.8128307,-2.6290727,-7.871772,589
1747533824440,2.3195201,-1.2246793,0.4111144399999999,2.05436245,-2.35609865,-7.62036945,590
1747533824450,2.23068325,-1.2052767,0.46590529,1.6221314,-2.0620857,-7.58787865,591
1747533824460,2.195783,-1.2210184,0.49812084,1.5174692,-1.9238676,-7.60439,592
1747533824470,2.0735104,-1.2459122,0.5459561,1.4013554,-1.5781893,-7.642207,593
1747533824480,1.9461124,-1.2808125,0.5603554,1.3491575,-1.2564794,-7.6794915,594
1747533824490,1.61980795,-1.3338949,0.5233808,1.3667343500000002,-0.8956210499999999,-7.575095749999999,595
1747533824500,1.56306465,-1.33084415,0.49348375,1.42985125,-0.81386205,-7.4190345,596
1747533824510,1.5312152,-1.3196175,0.4685899,1.4604776,-0.85594,-7.32103,597
1747533824520,1.4521407,-1.2656809,0.39464056,1.4466292,-1.0338391,-7.1814804,598
1747533824530,1.4121152,-1.2185779,0.34241232,1.3853765,-1.2911005,-7.079215,599
1747533824540,1.3440233,-1.17220695,0.311783135,1.17844885,-1.56247665,-6.856840999999999,600
1747533824550,1.2267538,-1.14731315,0.350100115,1.0434266,-1.59443455,-6.6499135,601
1747533824560,1.1817253,-1.1351103,0.3704789,1.0135992,-1.5680692,-6.576943,602
1747533824570,1.0211355,-1.1545128,0.44479431,1.02238755,-1.3478258,-6.3527047,603
1747533824580,0.84065515,-1.18001675,0.48591797,1.16619825,-1.010403325,-6.0533655,604
1747533824590,0.59989272,-1.20320215,0.49775477,1.361408,-0.744619845,-5.6869145,605
1747533824600,0.48909074,-1.2156491,0.49641246,1.4343786,-0.72171664,-5.542571,606
1747533824610,0.2630937,-1.227364,0.48006064,1.5680692,-0.7462177,-5.197958,607
1747533824620,0.1313028,-1.2781278,0.46663743,1.7054884,-0.76965356,-4.8437576,608
1747533824630,0.012690976,-1.3550059,0.3738957,1.7827201,-0.7350325,-4.5247107,609
1747533824640,-0.20671648,-1.5778301,0.15692882,1.716141,-0.29028457,-4.387824,610
1747533824650,-0.56352821,-1.82359585,-0.0623566219999999,1.4191986,0.1483380779999999,-4.4831655,611
1747533824660,-0.6965394,-1.9026704,-0.16498269,1.2405005,0.26897928,-4.5007424,612
1747533824670,-0.95621634,-2.1464834,-0.43295756,0.727043,0.32330775,-4.5119276,613
1747533824680,-1.56477315,-2.5020748,-0.51483877,-0.481765812,0.32517198,-4.31991365,614
1747533824690,-1.7746623,-2.59310815,-0.36584181,-1.1899003499999998,0.3978762799999999,-4.1707766,615
1747533824700,-2.0500809,-2.69414795,-0.1599795265,-1.32652055,0.50333745,-3.9132489,616
1747533824710,-2.2194567,-2.7439356,-0.041245673,-1.3289174,0.5539375,-3.7406762,617
1747533824720,-2.527701,-2.8042178,0.19036464,-1.0375676,0.50173956,-3.1792817,618
1747533824730,-2.83496895,-2.860595,0.311783135,-0.19867183,0.1177117215,-2.0485036,619
1747533824740,-2.8594967,-2.8476599,0.24552159,0.705737705,-0.4569984435,-0.73876094,620
1747533824750,-2.6892669,-2.79567575,0.12898425,1.4357102,-0.913197935,0.506533235,621
1747533824760,-2.5713873,-2.7656567,0.06467517,1.5691346,-0.968858,0.84581995,622
1747533824770,-2.3556406,-2.6358182,-0.07565775,1.6490294,-0.89801794,1.4327807,623
1747533824780,-2.1616151,-2.5010989,-0.20647243,1.4189323,-0.379500455,2.2405175,624
1747533824790,-1.5680678,-2.1509984500000003,-0.44723491,0.895354765,0.5563343199999999,2.9728868000000004,625
1747533824800,-1.4523847,-2.0800998,-0.47786412,0.49641323,1.2442288,3.4487936,626
1747533824810,-1.23615,-1.9426957,-0.528384,0.019707393,1.9265307,3.8621163,627
1747533824820,-1.001611,-1.8072438,-0.58158845,-0.62371236,2.6610305,4.3164515,628
1747533824830,-0.9088692,-1.7528190499999998,-0.591106655,-0.8860337300000001,2.91056875,4.4818339,629
1747533824840,-0.718138415,-1.6478745,-0.6045298,-1.6735305,3.5537221,4.934838,630
1747533824850,-0.168399495,-1.31485845,-0.497144625,-2.7089674,4.0123186,5.336975,631
1747533824860,-0.08297946,-1.2415192,-0.41148052,-3.6048548,4.1012683,5.59903,632
1747533824870,0.207936775,-1.15280445,-0.216234715,-4.0338899,3.95399525,5.74683545,633
1747533824880,0.2774931,-1.142432,-0.13032657,-4.138552,3.8685079,5.7955713,634
1747533824890,0.388173075,-1.04615135,0.0968907275,-4.1563958,3.35105565,5.823267899999999,635
1747533824900,0.46480705,-0.999902515,0.2362474199999999,-4.1065946,3.1766186,5.8253984,636
1747533824910,0.5012936,-0.98452693,0.28798756,-3.9063249,2.801113,5.7992997,637
1747533824920,0.6555378,-0.88836837,0.37267542,-3.3784862,1.9728698,5.6171393,638
1747533824930,0.7285109,-0.83491987,0.34460884,-3.1366713,1.5313177,5.4594803,639
1747533824940,0.80990395,-0.7763461,0.27749309,-2.88553515,0.9020127,5.152950499999999,640
1747533824950,0.82198477,-0.7592621,0.25333142,-2.8234835,0.7036072,5.0477557,641
1747533824960,0.7817154,-0.77024466,0.2072046,-2.7659593,0.35792887,4.8890314,642
1747533824970,0.7653635,-0.80514485,0.21159762,-2.8027108,-0.14807177,4.858671,643
1747533824980,0.7922098,-0.8561529,0.21135357,-2.892193,-0.28176245,4.9641323,644
1747533824990,0.8027043,-0.9005712,0.2362474,-3.018427,-0.3073288,5.129248,645
1747533825000,0.85883745,-0.98550312,0.29958027,-3.2645029,-0.11611382835,5.43284895,646
1747533825010,0.878118,-1.0352908,0.3214234,-3.3566482,-0.0063915867,5.5335164,647
1747533825020,0.9257092,-1.0904478,0.33582276,-3.8301582,0.6583334,5.8605523,648
1747533825030,1.007712435,-1.1662275,0.38683073,-4.1135187,0.8926916,6.0235376,649
1747533825040,1.1393813,-1.2422514,0.41257878,-4.6631952000000005,1.12704975,6.33858985,650
1747533825050,1.35781245,-1.347074,0.508005175,-5.1502872,1.2138688000000002,6.5455174,651
1747533825060,1.4975352,-1.4072341,0.59061855,-5.468535,1.2447615,6.6664248,652
1747533825070,1.5941819,-1.496071,0.7809832,-5.632586,1.2543489,6.785202,653
1747533825080,1.64409165,-1.6255433,1.10252865,-5.6421733,1.3166668,6.924219,654
1747533825090,1.62834995,-1.6742327,1.2853275,-5.494634,1.3725933,7.07815,655
1747533825100,1.6110219,-1.6922929,1.3689171,-5.222459,1.3235911,7.258712,656
1747533825110,1.790404,-1.7725879,1.5788063,-4.261058,0.8335694,7.6635127,657
1747533825120,2.0286038,-1.8265244,1.4955828,-3.913249,0.5448828,7.853662,658
1747533825130,2.3707721,-1.8669159,1.4339584,-3.7630467,0.21944448,8.064585,659
1747533825140,2.4901161,-1.8743596,1.4497001,-3.6788907,-0.07137272,8.257398,660
1747533825150,2.9684683,-1.96453875,1.77624855,-2.96436475,-0.221042375,8.587895750000001,661
1747533825160,3.0419295,-1.9846735,1.8150537,-2.7419908,-0.18429075,8.641958,662
1747533825170,3.2281451,-2.0233565,1.67813765,-2.49511575,-0.133957005,8.6954875,663
1747533825180,3.3975209,-1.98394135,1.43139575,-1.7672737,-0.026365295,8.994827,664
1747533825190,3.4980726,-1.9426957,1.2852055,-1.6788567,-0.0314253,9.094163,665
1747533825200,4.165081,-1.2572609,0.95218933,-1.7283915,-0.5539375,8.945559,666
1747533825210,4.258799,-1.091424,0.93278676,-1.71188,-0.9709886,8.694689,667
1747533825220,4.3844886,-0.7770783,1.056768,-1.5073493,-1.4002901,8.351141,668
1747533825230,4.4555089500000005,-0.230145978,1.1301071,-0.8926916250000001,-1.8964371,7.79507265,669
1747533825240,4.6516091500000005,0.339849712,0.97269015,-0.47191216,-2.0556941,7.395864850000001,670
1747533825250,4.86918635,0.90533035,0.7303413000000001,-0.063383235,-1.9507655,6.47813935,671
1747533825260,4.9304447,1.0862988,0.6274712,0.1486044,-1.8120148,5.773733,672
1747533825270,4.996706,1.6526336499999998,0.3413140799999999,-0.0055926405,-1.39762695,4.55746745,673
1747533825280,4.76326525,1.99760855,0.179260055,-0.431698413,-0.98536965,3.53028625,674
1747533825290,4.394495,2.3109782,0.208913,-0.91799165,-0.60613549,2.78992755,675
1747533825300,4.4106025,2.39932695,0.325816425,-1.0737866,-0.48203218,2.6530411,676
1747533825310,4.4934599,2.57651245,0.564504425,-1.22984785,-0.05885586,2.25809445,677
1747533825320,4.6769909,2.73234295,0.802460215,-1.07138975,0.267115065,1.826396,678
1747533825330,4.936057699999999,2.80446185,1.007224265,-0.62264706,0.62397865,1.04502445,679
1747533825340,5.0400262,2.71818755,1.09142405,-0.31265512,0.8133294,0.5336975,680
1747533825350,4.9131162,2.4937769000000003,1.05957455,1.0857708,0.61598916,-1.88738235,681
1747533825360,4.8245234,2.3607657,1.0321181,1.3401027,0.45593318,-2.3531692,682
1747533825370,4.2215803,1.69375735,0.868721775,1.96301605,-0.221308692,-3.9036615,683
1747533825380,3.71174495,1.1759898,0.8095378799999999,2.3132217500000003,-0.672181865,-4.7774445,684
1747533825390,3.44279375,0.8693318800000001,0.78928113,2.5150893,-0.86206525,-5.076784,685
1747533825400,3.26573015,0.61526835,0.7361987,2.7057717,-0.9669938,-5.2506885,686
1747533825410,3.1995907,0.50568664,0.6977597,2.7984498,-1.0034791,-5.3178,687
1747533825420,3.1556603,0.2677308,0.51129991,2.8120318500000003,-0.97524963,-5.4419037,688
1747533825430,3.1883639,0.140699,0.3764583099999999,2.70950005,-0.93317167,-5.5593492,689
1747533825440,3.2106951,0.0495436195,0.3014107,2.44851025,-0.93743272,-5.827795699999999,690
1747533825450,3.2039836,-0.0234294955,0.325206285,2.17740045,-0.9968212,-6.1353907,691
1747533825460,3.201543,-0.07175283,0.34729347,2.0943098,-1.0301107,-6.2429824,692
1747533825470,3.1532197,-0.20732663,0.4477230199999999,1.91827495,-1.09003185,-6.4839985,693
1747533825480,3.1490707,-0.25845662,0.4807928,1.8727349,-1.1046792,-6.5455174,694
1747533825490,3.09623225,-0.47432527,0.6201494599999999,1.67139995,-1.15474665,-6.70424175,695
1747533825500,3.0791482500000003,-0.525333225,0.693366645,1.5984292999999998,-1.17951405,-6.69864915,696
1747533825510,3.06621325,-0.576341175,0.7845220150000001,1.54862815,-1.201352,-6.680539850000001,697
1747533825520,3.0983068,-0.644677215,0.93168855,1.56620505,-1.28790475,-6.7327377,698
1747533825530,3.1314986,-0.68653303,1.0301657,1.6016251,-1.3646038,-6.792126,699
1747533825540,3.1346714,-0.7128912,1.104115,1.7070863,-1.5275892,-6.932741,700
1747533825550,3.0829312,-0.7928199499999999,1.19600255,1.8375812,-1.7299895,-7.076552,701
1747533825560,3.0631626,-0.8254016,1.227608,1.9904467,-1.9393139,-7.193731,702
1747533825570,2.9958029,-0.87860614,1.2776396,2.2221417,-2.1523669,-7.337009,703
1747533825580,2.9281988,-0.9264413,1.2844733,2.4224114,-2.2354574,-7.4403396,704
1747533825590,2.7100116,-0.97330033,1.19063325,2.91083515,-2.370746,-7.5378115,705
1747533825600,2.6670575,-0.98159826,1.1517061,3.0003173,-2.3915186,-7.539942,706
1747533825610,2.56443155,-1.0013669,0.94804035,3.1228228,-2.43679235,-7.53488175,707
1747533825620,2.5396597,-1.0096649,0.8812907,3.129747,-2.4602282,-7.5303545,708
1747533825630,2.5123253,-1.0201592,0.7839119,3.0642333,-2.582201,-7.5548553,709
1747533825640,2.20542335,-1.0151561,0.58073423,2.65597055,-2.94918465,-7.76631045,710
1747533825650,1.99480195,-1.00929875,0.54449173,2.4663534,-2.97048985,-7.74420645,711
1747533825660,1.9012059,-1.0106411,0.532777,2.3675501,-2.9593046,-7.7103844,712
1747533825670,1.7481819,-1.0077124,0.50641876,2.10016885,-2.76569285,-7.557252249999999,713
1747533825680,1.41016275,-0.99404515,0.433323635,1.93318865,-2.5992452,-7.4398069,714
1747533825690,1.1503639,-0.99062835,0.382559745,1.69377045,-2.3688818,-7.19479615,715
1747533825700,1.0068582,-0.98635735,0.3525407,1.47086385,-2.16781315,-6.90690835,716
1747533825710,0.886659965,-0.989163985,0.28200815,1.25621305,-2.0080235,-6.5447185,717
1747533825720,0.81014803,-0.995753535,0.208058805,1.03756755,-1.85595705,-6.18252865,718
1747533825730,0.76255688,-0.9996585,0.175599185,0.899882125,-1.7550232,-5.9721388,719
1747533825740,0.716918165,-1.00502775,0.164738635,0.777376725,-1.64077355,-5.77506495,720
1747533825750,0.703861085,-1.01564415,0.17547716,0.6759103,-1.5108112500000002,-5.6075523,721
1747533825760,0.659442665,-1.0200372,0.20134723,0.577107035,-1.2618057,-5.4648068,722
1747533825770,0.56426033,-1.02613865,0.227949475,0.522512235,-1.008805425,-5.35481815,723
1747533825780,0.5193538,-1.0333383,0.23844394,0.5203817,-0.93636745,-5.315137,724
1747533825790,0.391101745,-1.0667742,0.231854395,0.5414206500000001,-0.707069285,-5.1686630000000005,725
1747533825800,0.209401118,-1.1232735,0.18523946,0.52810485,-0.5784385999999999,-5.01792815,726
1747533825810,0.017938208,-1.16171255,0.121418485,0.46578688,-0.52490905,-4.8637312,727
1747533825820,-0.150339275,-1.19758895,0.07089863,0.36751623,-0.520381675,-4.7252469,728
1747533825830,-0.3234979,-1.248963,0.046614936,0.251668715,-0.49907641,-4.544152,729
1747533825840,-0.466393425,-1.2827649,0.0666276309999999,0.164050725,-0.450873185,-4.3425505,730
1747533825850,-0.638209725,-1.3543957,0.122394715,0.181893905,-0.27590349,-4.0621196,731
1747533825860,-0.8330894,-1.43883955,0.143261605,0.258060315,-0.0561926975,-3.87809525,732
1747533825870,-0.9274175,-1.4658079,0.12813005,0.28815404,0.022903185,-3.8701057,733
1747533825880,-1.25530845,-1.5827112,0.027334413,0.26525085,0.2809635,-3.76118245,734
1747533825890,-1.466662,-1.7058381,-0.052106222,0.191747605,0.4479436999999999,-3.58807695,735
1747533825900,-1.7414705,-1.91206645,-0.14094306,0.06604639825,0.6988135,-3.18567335,736
1747533825910,-1.9202425,-2.0500808,-0.19231711,-0.03328951425,0.88337055,-2.68393385,737
1747533825920,-2.1553916,-2.1805295,-0.20818082,-0.0340884625,0.8543421,-2.25543115,738
1747533825930,-2.2627767,-2.259848,-0.18780205,0.05592638,0.72145037,-1.8002969000000002,739
1747533825940,-2.35820315,-2.2879146,-0.15192564,0.434361585,0.386957305,-0.9323727,740
1747533825950,-2.4051843,-2.2829115,-0.1330112,0.74248934,0.14008227,-0.2977414,741
1747533825960,-2.3319669,-2.2455707,-0.17523311,1.0466223,-0.030360037,0.3121225,742
1747533825970,-2.09706185,-2.1355009000000003,-0.33228394,1.32092795,-0.09001485,1.1619372,743
1747533825980,-1.8976672,-2.03165455,-0.454922705,1.35075535,-0.02077266,1.6524915,744
1747533825990,-1.57697595,-1.87692225,-0.613193815,1.124653,0.291349835,2.23439215,745
1747533826000,-1.24762065,-1.7156004,-0.762434815,0.73316828,0.7323693,2.7142937,746
1747533826010,-1.02321003,-1.5829553,-0.847732815,0.268712961,1.1595403,2.9329393,747
1747533826020,-0.83528593,-1.45214065,-0.905086285,-0.261788719,1.5928366500000002,3.073288,748
1747533826030,-0.69336665,-1.34988065,-0.91143182,-0.74834825,1.9449066,3.15424815,749
1747533826040,-0.54705434,-1.22956045,-0.8357740650000001,-1.3845775,2.34331545,3.28261245,750
1747533826050,-0.42905264,-1.12424975,-0.71215903,-1.92519915,2.6304042,3.4479947,751
1747533826060,-0.361692835,-1.07434005,-0.5989164499999999,-2.1707426,2.69751585,3.6173718,752
1747533826070,-0.300312445,-1.0379755,-0.49580227,-2.3475766,2.6706179,3.8219025,753
1747533826080,-0.228437595,-0.998316165,-0.39976576,-2.47407675,2.56622205,4.0373524,754
1747533826090,-0.070410518,-0.92619723,-0.260775165,-2.6088327500000004,2.35822915,4.3185825,755
1747533826100,0.102259987,-0.851393665,-0.1232489125,-2.7079023500000003,2.15529635,4.531102499999999,756
1747533826110,0.21342807,-0.8013619750000001,-0.04112364565,-2.72947385,2.02693205,4.583833,757
1747533826120,0.32715874,-0.749133725,0.01830429385,-2.7345338,1.9579561,4.597149,758
1747533826130,0.45760734,-0.66798465,0.112632422,-2.7430561,1.72120105,4.5345645,759
1747533826140,0.5298483,-0.614048,0.18304294,-2.71429385,1.5057513,4.40966235,760
1747533826150,0.54900678,-0.5647485000000001,0.294333025,-2.64425265,1.32838475,4.29115155,761
1747533826160,0.54766446,-0.5527897,0.33240595,-2.6045716,1.28897,4.2631884,762
1747533826170,0.49336173,-0.551203315,0.42380541,-2.3896545,1.232511,4.297010500000001,763
1747533826180,0.43051699,-0.5643824,0.441377535,-2.21521745,1.19709095,4.454137,764
1747533826190,0.400375915,-0.5840289999999999,0.42197499,-2.0831246,1.1486214,4.650412,765
1747533826200,0.410382255,-0.605506025,0.362913135,-2.0756677000000003,1.1073424,4.7966195,766
1747533826210,0.41636166,-0.61892915,0.32459614,-2.1755362,1.0426276,4.9300440000000005,767
1747533826220,0.430150915,-0.6521209800000001,0.269195125,-2.3686155,0.947286435,5.0565441,768
1747533826230,0.48555189,-0.72997523,0.3824377,-2.677276,0.949150635,5.3441653,769
1747533826240,0.56011137,-0.822228825,0.54168507,-2.91882475,1.07858025,5.6767942,770
1747533826250,0.61221762,-0.8685997249999999,0.67457422,-2.9688921,1.22292355,5.91594615,771
1747533826260,0.6491923,-0.8947139,0.7487676,-2.93799935,1.3739248000000002,6.1785338,772
1747533826270,0.7734174,-0.96573454,0.86933196,-2.835734,1.53291555,6.4267404,773
1747533826280,0.9405966,-1.0164984,0.937912,-2.769155,1.6112125,6.5396585,774
1747533826290,1.37648285,-1.07385195,0.6754284500000001,-2.8056404,1.9973709,6.86802625,775
1747533826300,1.4815495,-1.095451,0.507639095,-3.1292145,2.1510353,6.927681,776
1747533826310,1.5143752,-1.1097283,0.43246946,-3.338539,2.2258701,6.95884,777
1747533826320,1.5784402000000002,-1.2205303,0.44088943,-4.301804,2.2394523,7.32688905,778
1747533826330,1.6195638,-1.2634844,0.4876264,-4.570517,2.2077606,7.4866786,779
1747533826340,2.15526955,-1.42797895,1.21089,-4.9966227,1.798699,8.226505,780
1747533826350,2.5119593,-1.4290772,1.5202326,-4.6283075,1.5755261,8.228902000000001,781
1747533826360,2.80177735,-1.4046715,1.69253705,-4.0522659,1.3227921500000002,8.0930805,782
1747533826370,2.9699328,-1.3719678000000002,1.61919785,-3.18860285,0.882038975,7.90772435,783
1747533826380,3.0387568500000004,-1.3202277,1.43566675,-2.49911045,0.413588915,7.87443485,784
1747533826390,3.12210225,-1.24786475,1.287524,-2.3134881,0.19307918,7.9964075,785
1747533826400,3.202275,-1.2090596,1.2080834,-2.2959112,0.163518095,8.1018685,786
1747533826410,3.35115,-1.1370627,1.1263242,-2.3153522,0.19014971,8.147142,787
1747533826420,3.79972745,-0.93705785,1.0821498,-2.38645875,0.5768407,7.9247687,788
1747533826430,4.0550113,-0.70849822,1.0415143,-2.36568605,0.8841695,7.591873400000001,789
1747533826440,4.06819015,-0.49360578,0.997217935,-2.22533745,1.02265385,7.42036605,790
1747533826450,4.08295565,-0.240152315,0.915702835,-1.958755,1.04928545,7.33727535,791
1747533826460,4.1106563,-0.11861181,0.8600578,-1.59922825,0.7872304299999999,7.183078,792
1747533826470,4.305658,0.11153416,0.673842,-1.3997575,0.55606806,7.056844,793
1747533826480,4.608044850000001,0.738883365,0.0768780399999999,-1.2468921,-0.037284255,6.5508437,794
1747533826490,4.47381355,1.13462215,-0.196344055,-1.7640779,-1.0737866,5.116465,795
1747533826500,4.23231885,1.2593354,-0.2399082699999999,-3.1119038,-0.47271107,4.2253713,796
1747533826510,4.117978,1.3013133,-0.25137895,-3.875432,0.14966966,3.865312,797
1747533826520,3.577147,1.61663525,0.58256463,-4.3281695,1.2604741499999998,3.4695663,798
1747533826530,3.47513105,1.8576418,1.0722655,-3.98142585,1.5254587,3.24586075,799
1747533826540,3.54468755,2.10548185,1.43456855,-3.1696943500000003,1.40508385,2.97501725,800
1747533826550,3.84585435,2.4787674,1.5036368,-1.74889793,0.7877631,2.29724275,801
1747533826560,4.073804,2.7678533,1.5007081,-0.76485986,0.2775014,1.7704695,802
1747533826570,4.2836931,2.88060775,1.3429250499999998,-0.0844222049999999,-0.20532972,0.815992565,803
1747533826580,4.45624135,2.9377172,1.0933765,0.74595144,-0.730238795,-0.655670285,804
1747533826590,4.3516629,2.6090941,0.90484225,0.89588743,-0.77231675,-1.1728562,805
1747533826600,4.0517166,2.1550255,0.82186275,0.8633968,-0.29667616,-2.9566414,806
1747533826610,3.8190079,1.973935,0.835652,0.8633968,-0.29667616,-2.9566414,807
1747533826620,3.568361,1.5885686,0.8812907,0.7078682,0.8815063,-4.0677123,808
1747533826630,3.4041104,1.3057063,0.91472656,0.7387609,1.3118732,-4.3249736,809
1747533826640,3.34907555,1.1036269,0.938888255,0.8865662999999999,1.4333133,-4.527640099999999,810
1747533826650,3.3334559500000003,0.75535718,0.9442575,1.2684636,1.40721435,-5.0091398,811
1747533826660,3.3945922,0.54278332,0.899472955,1.61893565,1.1518172,-5.456284500000001,812
1747533826670,3.41082195,0.41587356,0.84907518,1.83971175,0.93184005,-5.79237525,813
1747533826680,3.3706745,0.286035095,0.8085617,2.04797095,0.69322083,-6.1252706,814
1747533826690,3.3360183,0.21672285,0.7924539,2.1518342,0.56672066,-6.2903867,815
1747533826700,3.256944,0.0959145,0.8007518,2.299906,0.39254996,-6.464557,816
1747533826710,3.2076445,-0.10543273,0.7822035,2.4559672,0.19920446,-6.6493807,817
1747533826720,3.1961736500000004,-0.2039098349999999,0.823083035,2.491121,0.157925455,-6.76043465,818
1747533826730,3.20093285,-0.276394825,0.882755085,2.5129589,0.115847512,-6.83020915,819
1747533826740,3.20569205,-0.341802165,0.98330665,2.5246768,0.091080114,-6.865629,820
1747533826750,3.2117934,-0.37413976,1.0477377,2.615757,0.011717909,-6.942861,821
1747533826760,3.158589,-0.48445365,1.283497,3.1776838,-0.26525086,-7.1346087,822
1747533826770,3.12710555,-0.59342518,1.3441453,3.6293559,-0.60879865,-7.2571142,823
1747533826780,3.1101435,-0.6559038699999999,1.36366985,3.9265647,-0.92172007,-7.3149047,824
1747533826790,3.0732908,-0.70691187,1.3603751000000002,4.3611928,-1.4828481,-7.36497215,825
1747533826800,2.97566795,-0.73424625,1.31559065,4.7313722,-2.04850355,-7.396929999999999,826
1747533826810,2.8909801,-0.74193402,1.24286155,4.85201335,-2.361425,-7.42356155,827
1747533826820,2.8471719,-0.75230647,1.13205955,4.8549428,-2.561961,-7.4611122,828
1747533826830,2.8178852,-0.758774,1.0650659,4.8235173,-2.62854,-7.480287,829
1747533826840,2.6392351,-0.77219713,0.84053315,4.374508649999999,-2.48819135,-7.435812,830
1747533826850,2.52098925,-0.79574865,0.7529166,3.88821535,-2.1691447,-7.3327477,831
1747533826860,2.42434265,-0.79782313,0.78574227,3.4740937,-1.90256235,-7.228085549999999,832
1747533826870,2.31439495,-0.80514485,0.82881842,3.335343,-1.840777,-7.1884047,833
1747533826880,2.2594821,-0.81539524,0.8422416,3.264503,-1.84370645,-7.1833447,834
1747533826890,1.9002298,-0.890198855,0.79159969,3.2389367,-1.8642128,-7.1900024,835
1747533826900,1.8101726,-0.90130347,0.77634615,3.2389367,-1.8642128,-7.1900024,836
1747533826910,1.52145295,-0.96756498,0.667008415,3.2021849,-2.08019515,-6.94552435,837
1747533826920,1.334017,-0.98623528,0.581466365,3.1273501,-2.15636155,-6.74711885,838
1747533826930,1.0895936,-0.96817507,0.5070289099999999,2.96223415,-2.26022475,-6.37827085,839
1747533826940,0.88775823,-0.939620405,0.4557769,2.7808729,-2.3331954,-5.970807,840
1747533826950,0.79245388,-0.918387435,0.41880224,2.64878005,-2.3182818,-5.66800565,841
1747533826960,0.71472165,-0.8986187800000001,0.373163525,2.50283885,-2.28099755,-5.3492255,842
1747533826970,0.6718896000000001,-0.88116868,0.3407039,2.34491335,-2.25489855,-5.04855465,843
1747533826980,0.6378436000000001,-0.87250467,0.34741549,2.20243415,-2.2290659,-4.7984838,844
1747533826990,0.5920828499999999,-0.89068697,0.359618365,2.0980383,-2.12360465,-4.4762413,845
1747533827000,0.52557727,-0.91533675,0.355225325,2.0754014,-2.01654555,-4.1667818,846
1747533827010,0.45955982,-0.93778995,0.327890905,2.12600145,-2.00296345,-3.96198465,847
1747533827020,0.3848783,-0.9820864,0.25418561,2.1875205,-2.0410467,-3.7135118,848
1747533827030,0.3397277,-1.0111293,0.20622836,2.2178805,-2.0735373,-3.5723643,849
1747533827040,0.17254847,-1.0599406,0.011714748,2.2322617,-2.3158848,-3.103648,850
1747533827050,0.096280588,-1.0360230499999998,-0.118001676,2.0839235,-2.3957798,-3.0485205,851
1747533827060,0.035876416,-1.0291895,-0.1803583,1.9995013,-2.396845,-3.05145,852
1747533827070,-0.182798885,-1.0834922,-0.25333143,1.6096146,-2.352104,-3.1334753,853
1747533827080,-0.347659565,-1.07873305,-0.2238005,0.8878979300000001,-2.44957565,-3.5505264,854
1747533827090,-0.4556549,-1.0833701,-0.20696054,0.51505536,-2.4543693,-3.794472,855
1747533827100,-0.738883285,-1.2082054,-0.0795626605,-0.067111665,-2.19630895,-4.01631345,856
1747533827110,-0.86371857,-1.2561626,-0.008786061,-0.2444782,-2.0751352,-4.0490704,857
1747533827120,-1.0748281,-1.3508569,0.18597162,-0.47404268,-1.7486316,-3.9750342,858
1747533827130,-1.4161421,-1.5457366,0.38585451,-0.40346892,-1.06739497,-3.58275065,859
1747533827140,-1.5836874,-1.6425053,0.43979117,-0.2695119,-0.77125144,-3.358246,860
1747533827150,-1.77942145,-1.8105387,0.32313179,-0.112918034,-0.5858955,-3.1031153,861
1747533827160,-1.8455609,-1.8660617,0.2608972,-0.036218993,-0.37444046,-2.755839,862
1747533827170,-1.9998052,-1.9466007,0.14106509,-0.05486112,-0.15233281,-2.3318639,863
1747533827180,-2.13013175,-1.99492395,0.0733392029999999,-0.103064335,0.1408812209999999,-1.42772065,864
1747533827190,-2.15941865,-1.99406975,0.062234599,-0.0825579975,0.309991955,-0.74781563,865
1747533827200,-2.15758815,-1.9683217,0.0628447459999999,-0.060720075,0.35313517,-0.51505536,866
1747533827210,-2.1547813,-1.9536783,0.06613952,0.006924219,0.40107206,-0.023435818,867
1747533827220,-2.0793676,-1.9112122,0.082003236,0.15233281,0.40852892,0.5763081,868
1747533827230,-1.9600239,-1.8409238,0.08005078,0.3089267,0.41225734,1.026915,869
1747533827240,-1.62151635,-1.6462881500000002,0.0194025505,0.45060685,0.40959418,1.4487597,870
1747533827250,-1.45384905,-1.55110585,-0.0045150594999999,0.6274408,0.56139435,2.36009345,871
1747533827260,-1.3574464,-1.5007081,-0.018304294,0.6306366,0.6269081,2.5177526,872
1747533827270,-1.1697664,-1.3938109,-0.06589546,0.5581986,0.8021441,2.7611654,873
1747533827280,-1.1697664,-1.3938109,-0.06589546,0.5581986,0.8021441,2.7611654,874
1747533827290,-0.6792113,-1.0850785,-0.22697324,0.101200126,1.3587449,3.0242858,875
1747533827300,-0.5605995,-1.0062481,-0.23551524,-0.7984157,2.3366575,3.1782165,876
1747533827310,-0.49079913,-0.9440134,-0.22843759,-1.0218549,2.57341255,3.2144355,877
1747533827320,-0.44491637,-0.90374404,-0.19036464,-1.6783241,3.2474587,3.3523872,878
1747533827330,-0.395982885,-0.8706742000000001,-0.0575975149999999,-2.34304915,3.9390819,3.65731915,879
1747533827340,-0.37243137,-0.8588374,0.01854835,-2.71189705,4.33296335,3.921504600000001,880
1747533827350,-0.298604055,-0.83211318,0.081881203,-2.86875715,4.4530716,4.0932785,881
1747533827360,-0.26821893,-0.82003236,0.09835507,-2.9348035,4.4842305,4.173706,882
1747533827370,-0.0420998724999999,-0.72704655,0.088104665,-3.1736891,4.2733085,4.310060050000001,883
1747533827380,0.0158637214999999,-0.698857925,0.070410513,-3.25251875,4.09114825,4.27224325,884
1747533827390,0.053204477,-0.67933332,0.0494215895,-3.3369409,3.86957315,4.21551775,885
1747533827400,0.065407336,-0.67091334,0.039537273,-3.3811493,3.7502635,4.1859565,886
1747533827410,0.07980672,-0.67042524,0.01952458,-3.4914043,3.510579,4.1369543,887
1747533827420,0.081149035,-0.7665838300000001,-0.0590618535,-4.0013995,3.1478565,4.2040662,888
1747533827430,0.087982635,-0.8264998800000001,-0.040635532,-4.2717104,3.03280795,4.3028695500000005,889
1747533827440,0.095304355,-0.88299913,0.020500809,-4.55613625,2.8394624,4.45706655,890
1747533827450,0.111656195,-0.939986475,0.1158051675,-4.7958208,2.5875273,4.6458847,891
1747533827460,0.12202863,-0.96719885,0.17084008,-4.8858356,2.463424,4.738829,892
1747533827470,0.240030305,-1.0594525,0.442109715,-4.992362,2.016013,5.1324444,893
1747533827480,0.333382205,-1.0789771,0.5318007499999999,-4.9100703,1.63997465,5.38251495,894
1747533827490,0.441499565,-1.0960611,0.5976962,-4.80194595,1.4112091,5.54656575,895
1747533827500,0.6373555,-1.10899615,0.631742185,-4.66372775,1.17152455,5.819806,896
1747533827510,0.7797629,-1.1172941,0.64016217,-4.5859632,1.0396981,6.007026,897
1747533827520,0.9884319,-1.1336459,0.65944266,-4.5327,1.0173275,6.1540327,898
1747533827530,1.1133891,-1.1131451,0.6501685,-4.542288,0.9805759,6.228069,899
1747533827540,1.2078394,-1.0985017,0.66920495,-4.6008773,0.7840346,6.27281,900
1747533827550,1.42517225,-1.1479233,1.04908012,-4.2583947,-0.15952335,6.26295615,901
1747533827560,1.5268221,-1.1578076,1.1499978,-4.091681,-0.38456047,6.2531023,902
1747533827570,1.6095576,-1.1787965,1.3230344,-3.5883434,-0.8357,6.2823973,903
1747533827580,1.7591646,-1.23798035,1.3546398,-2.70470645,-1.361408,6.4605625,904
1747533827590,1.92414725,-1.2269978,1.1108266,-2.4325314,-1.474326,6.557768,905
1747533827600,2.1401379,-1.1664716,0.8901988000000001,-2.3718113,-0.880174785,7.3998595,906
1747533827610,2.234344,-1.1302291,0.8715284,-2.5028389,-0.66206187,7.542605,907
1747533827620,2.4923124,-1.1143653,0.8808026,-2.8399951,-0.083090626,7.7114496,908
1747533827630,2.7540639,-1.05664585,1.00209905,-3.31696715,0.847684185,7.68881245,909
1747533827640,2.8261828,-1.0384636,1.0604287,-3.4535873,1.123854,7.6342177,910
1747533827650,3.0507157,-1.0636015,1.2844733000000002,-3.51697065,1.4266554,6.7561733,911
1747533827660,3.0560849,-1.0919122,1.3288918,-3.439739,1.3523532,6.5524416,912
1747533827670,3.0160596,-1.1302291,1.3306,-3.1451933,0.8127968,6.27281,913
1747533827680,2.882316,-1.1050912,1.2053988,-3.0418627,0.34621096,6.3979783,914
1747533827690,3.0139849,-1.11460945,1.25091545,-2.9814088,-0.119575935,7.0264845,915
1747533827700,3.3121009,-1.01271555,1.4077222,-2.68686315,-0.26897928,7.089601249999999,916
1747533827710,3.5190616,-0.9132622,1.5119346,-2.4399881,-0.30839407,7.152718,917
1747533827720,3.7661694,-0.6671305000000001,1.50351465,-1.9230686,-0.27324033,6.74365665,918
1747533827730,3.8905166,-0.4275883099999999,1.38685525,-1.56780295,-0.229031855,6.38253215,919
1747533827740,4.01584,0.072485,1.018694925,-1.30947635,-0.14274544,5.62619425,920
1747533827750,4.075756,0.44516042,0.73461235,-1.222391,-0.08575379,5.0594735,921
1747533827760,4.1001616,0.7128912,0.50837123,-1.5446335,-0.098004326,4.488492,922
1747533827770,4.0018067,0.9288819,0.4127008,-2.060754,-0.08468852,3.942011,923
1747533827780,3.8033884,1.1075318,0.50666285,-2.6013758,0.07563378,3.4844801,924
1747533827790,3.40606295,1.4568997,1.12791055,-2.95424465,0.8615326350000001,2.8889972,925
1747533827800,3.36664765,1.63079055,1.33084415,-2.8730183,0.98430437,2.8314729,926
1747533827810,3.367746,1.7293897,1.4309076,-2.427205,1.1009508,2.7233486,927
1747533827820,3.462196,1.9612441,1.5785623,-1.4610102,1.133974,2.4676852,928
1747533827830,3.94738195,2.36650105,1.385879,0.44022054,0.66126295,1.458346965,929
1747533827840,4.199737,2.5308735,1.1546348,1.3699301,0.3222425,0.80533993,930
1747533827850,4.28881815,2.52538235,0.64614156,2.11694685,-0.462058445,-0.513457465,931
1747533827860,4.2614837,2.4881637,0.49738866,2.2722092,-0.74035877,-0.9619338,932
1747533827870,4.036951,2.2567973,0.2037878,2.271144,-1.1531488,-1.8173412,933
1747533827880,3.4842833,1.66349415,0.0874945245,1.51027865,-1.1515508,-3.0455911,934
1747533827890,3.1922688,1.3625716,0.122516744,0.79575255,-0.81093255,-3.62056755,935
1747533827900,2.9012305,0.92204823,0.351320415,0.43888898,-0.347808863,-3.716974,936
1747533827910,2.847904,0.80441266,0.43173727,0.29188246,-0.083090626,-3.7401435,937
1747533827920,2.84204665,0.55364385,0.6683507500000001,0.17630127,0.4788364,-3.8008635,938
1747533827930,2.8627916,0.38573247,0.7831797,0.418382615,1.07911292,-4.1364219,939
1747533827940,2.8781672,0.28286234,0.8363842,0.7368967,1.181112,-4.47357825,940
1747533827950,2.8193493,0.1449700119999999,0.82381522,0.9781791,1.03170863,-4.698349,941
1747533827960,2.7900624,0.108117364,0.8263778,1.0972224,0.92518216,-4.799549,942
1747533827970,2.7677313000000003,-0.026724269,0.83077088,1.47698915,0.395213105,-5.0653325,943
1747533827980,2.7740767,-0.120564275,0.8350418500000001,1.68205255,0.03169162,-5.2490905,944
1747533827990,2.7845712,-0.1865817599999999,0.84089923,1.7912422,-0.19600866,-5.40355385,945
1747533828000,2.8127599,-0.24332508,0.87323688,1.78511695,-0.19068234,-5.4898405,946
1747533828010,2.8325286,-0.2809099,0.9017916,1.7768611,-0.16405073,-5.5351143,947
1747533828020,2.856202,-0.3692586,0.99550945,1.8050907,-0.03195793,-5.6379123,948
1747533828030,2.8701131,-0.42587993,1.0858107,1.9100192,0.1486044,-5.7476344,949
1747533828040,2.8745062,-0.5608435,1.1368186,2.347843,0.46498793,-5.9670787,950
1747533828050,2.8786552,-0.59159476,1.0953289,2.5449169,0.44315,-6.0661483,951
1747533828060,2.8369215,-0.6028214,1.0470055,2.7249465,0.3339604,-6.1833277,952
1747533828070,2.779568,-0.62063754,0.99160457,2.8581045,0.15819177,-6.284528,953
1747533828080,2.6810909,-0.65346328,0.913262225,2.92255295,-0.294545615,-6.4485785,954
1747533828090,2.5978675,-0.66066295,0.89983908,2.91110135,-0.5824333500000001,-6.5508438,955
1747533828100,2.5711432,-0.6557818,0.91570276,2.9113677,-0.6556703,-6.5817366,956
1747533828110,2.515254,-0.6811638,0.9342511,2.9449236,-0.7435546,-6.625945,957
1747533828120,2.460585,-0.7246059,0.9589009,3.0024478,-0.8085357,-6.6733494,958
1747533828130,2.387612,-0.7480355,0.9942892,3.3262883,-1.129180325,-6.7889304500000005,959
1747533828140,2.1269588500000003,-0.81637148,0.93498335,3.54679805,-1.41254065,-6.83100845,960
1747533828150,1.98418545,-0.8232050500000001,0.88678205,3.6506613,-1.60828295,-6.808105149999999,961
1747533828160,1.9046228,-0.8166155,0.8546885,3.6922066,-1.700162,-6.787865,962
1747533828170,1.6495829999999998,-0.80026375,0.70678978,3.7747647,-2.2109563000000003,-6.72048715,963
1747533828180,1.56123425,-0.78915913,0.63625723,3.7241646,-2.40004085,-6.6736154,964
1747533828190,1.4872849,-0.7786646500000001,0.5742667,3.60592015,-2.59232115,-6.5902585,965
1747533828200,1.462147,-0.77903074,0.5440036,3.5270905,-2.692456,-6.537528,966
1747533828210,1.4516525,-0.77720032,0.52020803,3.44959255,-2.7555729,-6.50237415,967
1747533828220,1.3511009,-0.7797629,0.49421594,3.1494544,-2.9305425,-6.348976,968
1747533828230,1.3511009,-0.7797629,0.49421594,3.08234275,-2.99445835,-6.2869245,969
1747533828240,1.1109485499999998,-0.7826916,0.439425055,3.00963825,-3.05358055,-6.2051654,970
1747533828250,1.0085666,-0.7767121800000001,0.410382245,2.8818065,-3.15371535,-6.052300000000001,971
1747533828260,0.967443,-0.77073276,0.39708114,2.828277,-3.178749,-5.9894495,972
1747533828270,0.90801502,-0.7820814300000001,0.351930545,2.60084315,-3.1209585,-5.8379157500000005,973
1747533828280,0.84858704,-0.7934301,0.30677995,2.3734093,-3.063168,-5.686382,974
1747533828290,0.7519404000000001,-0.81344282,0.30336314,2.16568275,-2.9300098,-5.5548215,975
1747533828300,0.6443111699999999,-0.8396790000000001,0.3407038999999999,2.03438885,-2.7830033,-5.3721288000000005,976
1747533828310,0.58110034,-0.85859346,0.37804466,1.9699403,-2.6090989,-5.15215165,977
1747533828320,0.50324607,-0.88641596,0.3973252,1.9734024,-2.5326662,-5.0626693,978
1747533828330,0.329721335,-0.95560615,0.4272222049999999,2.0676783,-2.37873555,-4.66745615,979
1747533828340,0.254063585,-0.971469885,0.424781635,2.1683458,-2.35556605,-4.3638558,980
1747533828350,0.2238005,-0.97085977,0.41245672,2.1952437,-2.26848065,-4.09194715,981
1747533828360,0.174745,-0.9925808,0.2020794,2.163552,-2.1880531,-3.9803607,982
1747533828370,0.10884953,-0.9894081,0.12080834,1.9792614,-2.0660803,-4.001666,983
1747533828380,0.036120474,-0.98428285,0.031483386,1.7028252,-1.8855181,-4.087952,984
1747533828390,-0.1228828274999999,-1.0201593,-0.065163287,1.1278488,-1.540905,-4.26744935,985
1747533828400,-0.39488462,-1.0888614,-0.082979462,0.4948153625,-1.1797804,-4.4269727,986
1747533828410,-0.709596455,-1.1807489,-0.068458057,-0.1707086275,-0.77897463,-4.6062035,987
1747533828420,-0.96561253,-1.27715155,-0.026602242,-0.564590155,-0.501739545,-4.70580565,988
1747533828430,-1.1138773,-1.3313323,0.0,-0.71958613,-0.38722363,-4.7308393,989
1747533828440,-1.54720095,-1.4911898,0.13166888,-0.9520801,-0.076965355,-4.278901149999999,990
1747533828450,-1.9030365,-1.6021138,0.29860404,-0.87191895,0.066845345,-3.640275,991
1747533828460,-2.1115835,-1.6625179,0.41123646,-0.7765778,0.09054748,-3.3662357,992
1747533828470,-2.178699,-1.6622739,0.49934113,-0.45327002,0.09640643,-2.8165593,993
1747533828480,-2.2403235500000003,-1.6476305,0.47176268,-0.07190535,0.08628642,-2.3611586,994
1747533828490,-2.3051207,-1.6450678,0.34546304,0.4905542699999999,0.02663161,-1.535046,995
1747533828500,-2.3185438,-1.6673990500000002,0.20952315,0.7459514,0.073236935,-0.8847020999999999,996
1747533828510,-2.25557695,-1.69363525,0.134475547,0.7898935499999999,0.20399814,-0.4751079499999999,997
1747533828520,-2.17113315,-1.70486195,0.0643090845,0.78589883,0.36778255,-0.075101145,998
1747533828530,-2.1289113,-1.7044959,0.028798755,0.76965356,0.4527374,0.12410331,999
1747533828540,-2.0183535,-1.6815544,-0.044418417,0.57444386,0.8516789199999999,0.9259811,1000
