timestamp,acc_x,acc_y,acc_z,gyro_x,gyro_y,gyro_z,id
1747533773860,2.7946995,-0.385610444485,1.8566655,-0.84129259,1.09296138,0.16218655,1
1747533773870,5.89203,-0.77024466,2.7773714,-0.213851825,1.32731955,-4.37584005,2
1747533773880,5.9188763,-0.81112428,2.5473474,0.5949502,0.94542223,-8.1434145,3
1747533773890,5.6953197,-0.9288819,2.0491047,0.5454154,1.5041534,-8.718657,4
1747533773900,5.410993,-1.0782449,1.8809491,0.49215218,2.0543625,-9.048356,5
1747533773910,4.86674545,-1.65348785,1.7618493000000002,0.8799084500000001,2.9286784,-9.27126275,6
1747533773920,4.7649736,-1.7313421,1.790648,1.0492855,2.914031,-9.3231945,7
1747533773930,4.485284,-1.7960173,1.8836339,1.5089471,2.4474452,-9.406285,8
1747533773940,4.2902827,-1.8467811,2.0476403,3.02055725,0.80054625,-9.5708685,9
1747533773950,3.5780014,-1.8550791,2.2774203,4.3087283,-0.51638695,-9.647834,10
1747533773960,3.35859395,-1.8299412,2.2112809,4.7148604,-0.8841695,-9.63585,11
1747533773970,3.2710993,-1.8160299,2.147704,5.4115434,-1.4130733,-9.616674,12
1747533773980,3.20325135,-1.80333895,2.02140425,5.67013645,-1.56460715,-9.624664,13
1747533773990,2.988237,-1.7642899,1.6124862,6.268016,-1.8764633,-9.65609,14
1747533774000,2.668766,-1.7022992,1.0706791,6.4874606,-2.0847225,-9.604424,15
1747533774010,2.7532098,-1.6591012,0.7641432,6.322345,-2.1502364,-9.720006,16
1747533774020,2.7278279000000003,-1.6304245000000002,0.57402262,6.015815,-2.06128675,-9.84490825,17
1747533774030,2.5474696000000003,-1.5994292,0.17425687,4.957208250000001,-1.7739316,-9.958624749999998,18
1747533774040,2.2321477,-1.586128,-0.107385196,3.4157705,-1.3406353,-9.731191,19
1747533774050,2.0408068,-1.5522041,-0.11006982,2.644519,-1.1456919,-9.413742,20
1747533774060,1.9304928,-1.5207207,-0.029042812,1.69616735,-0.98829905,-8.793225,21
1747533774070,1.8992535,-1.4787428,0.122760795,1.4370418,-0.9555422,-8.566856,22
1747533774080,1.8619128,-1.3169329,0.4698102,1.2231899,-0.9126653,-8.1178475,23
1747533774090,1.9724706,-1.2324891,0.6662763,1.149953,-0.94755274,-7.222493,24
1747533774100,2.1982236,-1.1172941,0.818568,1.4769892,-1.0407634,-7.021691,25
1747533774110,2.2841318,-1.0506665,0.84199744,1.8722023,-1.1334413,-6.9140987,26
1747533774120,2.2787626,-1.0440769,0.73583263,2.511361,-1.2857742,-6.7772126,27
1747533774130,2.2218973,-1.08471245,0.66944903,2.58779365,-1.2817794500000002,-6.7351346,28
1747533774140,2.110363,-1.1802609,0.5020258,2.69884735,-1.1406319,-6.5609636,29
1747533774150,2.046054,-1.25640675,0.35876414,2.683401,-1.0913634,-6.5194182,30
1747533774160,2.0227466,-1.2771516,0.307024,2.5662222,-1.0040118,-6.433132,31
1747533774170,2.0046864,-1.3359693,0.2518671,2.3457124,-0.8793758,-6.387326,32
1747533774180,1.77929945,-1.3432911,0.324718185,2.2040322000000003,-0.74488615,-6.36016165,33
1747533774190,1.5539125,-1.3506129,0.39756927,2.0266657,-0.43196473,-6.250972,34
1747533774200,1.3999124,-1.3596429,0.45394647,2.0426445,-0.28176245,-6.1359234,35
1747533774210,1.2075952,-1.3694052,0.5188657,2.112952,-0.15819177,-5.9415126,36
1747533774220,0.76511943,-1.4101628,0.8358961,2.535862,-0.2796319,-5.3939667,37
1747533774230,0.58964235,-1.4414021,0.99160457,2.7340012,-0.376304665,-5.270396,38
1747533774240,0.44833317,-1.5473229,1.0611609,3.4882085,-0.6530071,-5.012602,39
1747533774250,0.20061506,-1.7401282,0.93986446,3.8115163,-0.68336713,-5.0248523,40
1747533774260,-0.6252746849999999,-2.06631075,0.53521755,3.3984599,-0.59095545,-4.7324372,41
1747533774270,-1.0409042,-2.1977355,0.39244407,2.9870014,-0.5470133,-4.4858284,42
1747533774280,-1.3020455,-2.3090258,0.33069757,2.5118935,-0.3685815,-4.0224385,43
1747533774290,-1.4748379,-2.430566,0.24161668,2.0271983,-0.15978967,-3.530819,44
1747533774300,-1.6678872,-2.6043348,0.106164895,1.5249261,0.10439592,-3.1068437,45
1747533774310,-1.8621569,-2.8501005,-0.022697324,0.97258645,0.34887412,-2.654639,46
1747533774320,-2.32855,-3.3833656,-0.24405725,-0.4596616,0.7765778,-1.5808525,47
1747533774330,-2.4679068,-3.4715923,-0.192073055,-0.7342335,0.90760535,-1.30201955,48
1747533774340,-2.76431445,-3.59447515,-0.0446624775,-1.1105382,1.1693941,-0.6769756100000001,49
1747533774350,-3.10392,-3.7025924,0.12080834,-1.1486214499999998,1.2399678500000002,0.9203885,50
1747533774360,-3.129302,-3.725778,0.08908089,-1.0998856,1.1627362,1.3331785,51
1747533774370,-2.800801,-3.5554261,0.025137896,-0.75793564,0.6892261,2.799515,52
1747533774380,-2.6496075,-3.47915815,-0.054302742,-0.75820197,0.65007765,3.0610374,53
1747533774390,-2.1760144,-3.180798,-0.32215557,-0.9933591,0.6801714,3.6346824,54
1747533774400,-1.8714309,-2.9362526,-0.51471674,-1.5797871,0.95447695,3.8072553,55
1747533774410,-1.4201691,-2.6426518,-0.6731099,-2.8671594,1.4327807,4.027765,56
1747533774420,-1.274955,-2.5442967,-0.6484601,-3.4818168,1.649562,4.237622,57
1747533774430,-1.1282767,-2.4964616,-0.53814626,-3.9558597,1.8237327,4.5566688,58
1747533774440,-0.93986446,-2.4273934,-0.37658033,-4.278900849999999,1.9981698,5.24882435,59
1747533774450,-0.54461375,-2.3089036,-0.212451835,-4.3308325,2.0399814,5.5100803,60
1747533774460,-0.3077562,-2.2582617,-0.15497635,-4.291418,1.9483687,6.7596354,61
1747533774470,0.05662128,-2.21604,-0.21916342,-4.4038033,1.8455707,7.486146,62
1747533774480,0.28469279,-2.19480685,-0.221970075,-4.51725385,1.7595506,7.72023775,63
1747533774490,0.86152214,-2.123542,-0.2072046,-4.9353704,1.427987,8.290421,64
1747533774500,1.2712942,-2.161859,-0.18401916,-5.350291,0.7190535,8.736767,65
1747533774510,2.11951515,-2.47998765,-0.100551583,-5.8685417,0.7190535,8.736767,66
1747533774520,2.220921,-2.561869,-0.065407336,-7.1101074,0.52464277,9.097891,67
1747533774530,2.3013378,-2.6752335,-0.0106164869999999,-7.4448669,0.5741775650000001,9.173791,68
1747533774540,2.660224,-3.2459614,0.50715095,-8.856608,0.7456851,9.396698,69
1747533774550,2.660224,-3.2459614,0.50715095,-8.856608,0.7456851,9.396698,70
1747533774560,2.7988486,-3.5451758,1.0809295,-8.816129,0.62371236,9.591108,71
1747533774570,3.00166,-3.576903,1.1495095,-8.6765785,0.42557314,9.598033,72
1747533774580,3.1122180000000004,-3.5712896,1.1614683499999998,-8.61479325,0.286822455,9.497898,73
1747533774590,3.475619,-3.418754,1.308879,-8.3647225,-0.208791815,8.932242500000001,74
1747533774600,3.4599996,-3.3269882,1.4140676,-8.176437,-0.5656554,8.466722,75
1747533774610,3.3345542,-3.2335143,1.5124228,-7.294931,-1.6895094,7.1495223,76
1747533774620,3.179334,-3.176649,1.5590377,-6.6536417,-2.3803334,6.5843997,77
1747533774630,2.9762783,-3.1105096,1.5041249,-6.17853385,-2.8125645,6.326072849999999,78
1747533774640,2.809343,-3.0836632,1.4035733,-4.9843726,-3.9068575,5.873868,79
1747533774650,2.6675458,-3.0724368,1.0282133,-4.3670516,-4.474643,5.933523,80
1747533774660,2.680969,-3.068776,0.8983747,-3.6607814,-5.31780025,6.85471065,81
1747533774670,2.7141607,-3.052668,0.8705522,-3.5883434,-5.3987603,7.0802803,82
1747533774680,2.8449752,-3.0638947,0.9693954,-3.47862115,-5.3798518,7.31383945,83
1747533774690,3.0492513,-3.0599897,1.1172941,-3.0072415,-5.1899686,7.9154477,84
1747533774700,3.4604878,-2.834481,1.4570218,-1.6373115,-4.9044776,8.172176,85
1747533774710,3.7648273,-2.6324015,1.5436621,-0.8745821,-4.947621,8.068846,86
1747533774720,3.9041839,-2.340265,1.5109584,-0.14168017,-5.083442,7.9431443,87
1747533774730,4.00876245,-2.152951,1.40930855,0.141946485,-5.1276505,7.88056015,88
1747533774740,4.393275,-1.5080298,1.0389518,0.72437984,-5.0711913,7.5500617,89
1747533774750,4.784498,-0.33142975,0.45321432,0.29933932,-4.2685146,6.678143,90
1747533774760,4.7146983,0.2037878,0.2979939,-0.42876893,-3.6586509,6.11302,91
1747533774770,4.4808908,0.58158845,0.25943285,-1.4125407,-2.8533108,5.584649,92
1747533774780,4.209255,0.8788501,0.34338856,-2.7846012,-1.8636801,5.2576127,93
1747533774790,3.912726,1.0992339,0.63162017,-3.8733015,-1.3885722,5.1984906,94
1747533774800,4.3613033,1.7103533,1.6320108,-4.9412293,-1.9723371,5.640043,95
1747533774810,4.8974967,2.313907,1.9207305,-5.119128,-2.7718182,6.2951803,96
1747533774820,5.9528003,3.3267446,2.281203,-5.2725263,-3.4999263,7.117032,97
1747533774830,6.9747898500000005,3.70137215,2.3101239,-5.51008035,-3.4477284,7.10691185,98
1747533774840,7.9967794,4.608533,2.6870704,-6.5172877,-1.5472966,5.3593454,99
1747533774850,7.9967794,4.11871,5.7121596,-6.694122,5.122324,-1.2820457,100
1747533774860,7.9967794,3.1031878,6.760386,-1.7757958,5.918609,-3.7470677,101
1747533774870,7.8554707,1.9487971,6.3794127,1.5558188,4.7585363,-5.3087454,102
1747533774880,7.1799202,1.23578385,5.08651915,3.6405412,3.04239525,-5.9399147,103
1747533774890,6.427004,0.13471961,2.2514281,5.947904,0.87511474,-6.9567094,104
1747533774900,6.2887450000000005,-0.21538052,1.00161097,5.33591,1.5014902,-7.278952,105
1747533774910,6.228829,-0.33191785,0.70361704,4.321778,2.6407907,-7.477624,106
1747533774920,6.0474944,-0.6230781,0.31068486,3.1590416,3.6565201,-7.6262283,107
1747533774930,5.0148883,-1.159516,0.45321432,1.0588728,4.729774,-7.513843,108
1747533774940,4.6319623,-1.2461562,0.96329397,0.9534117,4.5918226,-7.183611,109
1747533774950,4.4579496,-1.1614684,1.3957634,1.3992249,4.1939464,-6.9162292,110
1747533774960,4.4486756,-1.0880072,1.6398207,2.1800637,3.674097,-6.867227,111
1747533774970,4.3085866,-1.1419438,1.5875924,3.9441416,2.624279,-7.354053,112
1747533774980,4.194978,-1.18916885,1.5174259,4.330299950000001,2.361425,-7.521566,113
1747533774990,3.8207161,-1.325963,1.2517697,5.347095,1.536644,-8.009191,114
1747533775000,3.568117,-1.4079663,1.0557917,5.820072,0.964597,-8.304269,115
1747533775010,3.28257,-1.4560456,0.8859278,6.188654,0.30200246,-8.59775,116
1747533775020,2.7998247,-1.4985116,0.42026657,6.162022,-0.37550572,-8.848619,117
1747533775030,2.707571,-1.4904575,0.2306341,5.8813252,-0.509729,-8.935971,118
1747533775040,2.6072636,-1.4475036,0.03734076,5.480786,-0.54275227,-9.0148,119
1747533775050,2.485235,-1.4331042,-0.09152147,4.9934273,-0.5699165,-9.080847,120
1747533775060,2.3380685,-1.40699,-0.1261776,4.491688,-0.62531024,-9.070726,121
1747533775070,2.1391618,-1.3952752,-0.15009521,3.2876724,-0.824781,-8.7207875,122
1747533775080,2.1584423,-1.3860011,-0.11153416,3.0242858,-0.892159,-8.636632,123
1747533775090,2.1386735,-1.3569584,-0.059549972,2.6615632,-1.0034791,-8.558867,124
1747533775100,2.063504,-1.3459758,-0.024649782,2.3185482,-1.0684602,-8.476842,125
1747533775110,1.8975451,-1.2766634,0.040513504,1.9813919,-1.077515,-8.297877,126
1747533775120,1.9541665,-1.2183337,0.08956901,1.3582122,-0.93849796,-7.5649757,127
1747533775130,1.98674815,-1.1763559,0.129594405,1.2524847,-0.88416948,-7.37136385,128
1747533775140,2.1076784,-1.0833701,0.23917611,1.0077401,-0.7435546,-6.8448567,129
1747533775150,2.196027,-1.0843463,0.336799,0.9598033,-0.70467246,-6.58653,130
1747533775160,2.340265,-1.1800168,0.5696296,1.2974921,-0.62104917,-6.2749405,131
1747533775170,2.4330065,-1.2027141,0.56474847,1.5893745,-0.55979645,-6.278669,132
1747533775180,2.438864,-1.1949043,0.50031734,1.8439728,-0.45380265,-6.4049025,133
1747533775190,2.3563728,-1.2007617,0.44784504,2.0213394,-0.34141725,-6.60677,134
1747533775200,2.2231174,-1.2246792,0.43027294,2.1603563,-0.2247708,-6.7804084,135
1747533775210,2.0400746,-1.3852689,0.375116,2.3510387,-0.018642128,-6.957242,136
1747533775220,1.9414753,-1.4682485,0.43124917,2.453304,-0.049534798,-6.923154,137
1747533775230,1.7718556,-1.5385369,0.47444725,2.5806031,-0.12144015,-6.760168,138
1747533775240,1.6772834,-1.5650171,0.500195325,2.65676955,-0.163251775,-6.558833,139
1747533775250,1.2598236,-1.551472,0.58207655,2.8650289,-0.23808661,-5.929795,140
1747533775260,1.1302291,-1.5031487,0.64211464,3.0972564,-0.27537087,-5.0355053,141
1747533775270,1.0023432,-1.4675162,0.68653303,3.2101743,-0.26525086,-4.7105994,142
1747533775280,0.89398164,-1.4926541,0.7743936,3.3401368,-0.30679616,-4.5289717,143
1747533775290,0.571338,-1.6387224,0.8501734000000001,3.5446675,-0.45912898,-4.4639907,144
1747533775300,0.3321619,-1.7508667,0.8361401,3.7997983,-0.55979645,-4.473578,145
1747533775310,-0.062478654,-1.8372629,0.7585299,4.165184,-0.83942837,-4.4975467,146
1747533775320,-0.5293602,-2.0188415,0.5554743,4.1366882,-0.907338985,-4.43629385,147
1747533775330,-0.5293602,-2.0188415,0.5554743,4.1081924,-0.9752496,-4.375041,148
1747533775340,-1.52047665,-2.3977404,0.037584825,3.568636,-1.1936288,-3.6112466,149
1747533775350,-1.8576417,-2.71172,-0.4056231449999999,2.6578348,-0.37230992,-2.834136,150
1747533775360,-2.0132282,-2.8476598,-0.6228341,1.9212044,0.23861924,-2.4921863,151
1747533775370,-2.5674822,-2.9508963,-1.0194272,0.7728494,0.5470133,-1.9425098,152
1747533775380,-2.5674822,-2.9508963,-1.0194272,0.7728494,0.5470133,-1.9425098,153
1747533775390,-3.02997065,-3.38983315,-0.741445915,-1.6799221,1.0721886,-0.81705785,154
1747533775400,-3.1402845,-3.504418,-0.5518134,-2.4602282,0.96939063,-0.094808534,155
1747533775410,-3.3640852,-3.5921565500000003,-0.5210622300000001,-2.492719,0.56885123,0.33449304,156
1747533775420,-3.4385226,-3.6139996,-0.54766446,-2.5337315,-0.021837922,0.9060074,157
1747533775430,-3.47806,-3.589594,-0.58256465,-2.711098,-0.6897587,1.5441009,158
1747533775440,-3.1271053,-3.3925179,-0.093351889,-3.1699608,-1.20028675,2.65676955,159
1747533775450,-2.878899,-3.3462691,0.048567392,-3.3593116,-1.222391,3.1569111,160
1747533775460,-2.48010985,-3.17725935,0.40525706,-3.20032075,-0.747283025,3.95878915,161
1747533775470,-2.3090258,-3.1102657,0.4881145,-3.107909,-0.5944176,4.1939464,162
1747533775480,-2.0188415,-2.988725,0.44833317,-2.98327305,-0.05992112,4.9329735,163
1747533775490,-1.12278535,-2.73990855,0.144237835,-2.9864688,0.12410331,5.171859,164
1747533775500,-0.9449896,-2.6941478,0.10030753,-3.3822147,0.8961537500000001,6.253635,165
1747533775510,-0.45272618,-2.5678482,0.033069758,-3.561978,1.038366515,6.6973177,166
1747533775520,-0.31068486,-2.541856,0.034168016,-3.6464002,1.081776,6.9295454,167
1747533775530,0.014887493,-2.5323381,0.0302631,-3.8480015,1.01519705,7.6941387,168
1747533775540,0.906550635,-2.5771226,0.107507215,-3.9020636,0.9518138,7.954862,169
1747533775550,1.56050205,-2.6228832,0.148874915,-4.0136503,0.73609775,9.369001,170
1747533775560,1.7789333,-2.6599798,0.15424417,-4.08315885,0.730505105,9.855294,171
1747533775570,2.3124423,-2.7561386,0.27651685,-4.1092577,0.72491246,10.082728,172
1747533775580,2.8022654,-2.7637043,0.48616204,-4.009123,0.588026,10.304303,173
1747533775590,3.1549282,-2.715381,0.70068836,-3.750796,0.31158987,10.301107,174
1747533775600,3.3509061,-2.651438,0.83150303,-3.0770164,-0.31318775,10.01828,175
1747533775610,3.2937965,-2.592376,0.76072645,-2.8288097,-0.4628574,9.86861,176
1747533775620,3.2376635,-2.549422,0.69556314,-2.7073696,-0.59388494,9.713081,177
1747533775630,3.2213116,-2.5521066,0.6130718,-2.7158918,-0.69987875,9.673134,178
1747533775640,3.291356,-2.634598,0.5613316,-2.7920582,-0.90494215,9.690711,179
1747533775650,3.4519458,-2.7978723,0.66969305,-2.67594435,-1.75236005,9.68405275,180
1747533775660,3.60960675,-2.79872655,0.7585299649999999,-2.5209483,-1.9891151,9.58018975,181
1747533775670,3.60557975,-2.71586905,0.81319878,-2.4357271,-2.0751352,9.509616,182
1747533775680,3.5610392,-2.6448483,0.84517026,-2.0836573,-2.0351877,9.064868,183
1747533775690,3.424123,-2.5601604,0.9176552,-1.7534252,-1.7411747,8.779377,184
1747533775700,3.2947729,-2.5047596,0.94157284,-1.4327807,-1.5030881,8.577509,185
1747533775710,3.2498662,-2.4649782,0.9313224,-1.0982877,-1.3704628,8.368185,186
1747533775720,3.23119595,-2.41860725,0.9640261,-0.34993938,-1.6945695,8.254468,187
1747533775730,3.2784212,-2.4110415,0.9898962,0.04261058,-1.9441077,8.295215,188
1747533775740,3.396545,-2.331723,1.0308977,0.45859635,-2.193912,8.446482,189
1747533775750,3.5961833,-2.2370288,1.0513986,0.8005462,-2.3355923,8.633436,190
1747533775760,3.92688105,-2.0082249,1.20222605,1.087635,-2.1821942,8.728777,191
1747533775770,4.0362186,-1.9051108,1.2905748,1.5222629,-1.6831179,8.563128,192
1747533775780,4.2242646,-1.5944259500000002,1.3685511,2.4682178,-0.41172472,7.56178,193
1747533775790,4.509934,-0.90130347,1.3059504,2.910835,0.3387541,6.8933263,194
1747533775800,4.5536203,-0.4271002,0.90081537,3.149987,1.0562097,6.2046328,195
1747533775810,4.4977307,0.04783522,0.28798756,3.0535805,1.4876418,5.5447016,196
1747533775820,3.909309,0.9862353,-0.8283303,1.6980315,1.4098775,5.0056777,197
1747533775830,3.6806273,1.5102262,-1.0887394,0.55553544,0.96406436,5.0706587,198
1747533775840,4.05940415,2.1407481,-1.026382775,-0.0282295049999999,0.77604518,5.0855725,199
1747533775850,4.438181,2.77127,-0.96402615,-1.9180087,0.5219796,4.632835,200
1747533775860,4.865037,3.7506716,-0.26162934,-2.803776,0.52464277,4.069843,201
1747533775870,5.14912,4.415484,0.23893206,-3.093528,0.6514092,4.0874195,202
1747533775880,5.5233818,4.7996300000000005,0.339117565,-2.6871295,0.7680557,4.10766,203
1747533775890,7.5795637,6.143409,0.198540565,-2.3206787,0.9438243,3.3619747,204
1747533775900,7.9967794,6.29204,0.11299851,-2.0335898,1.2234563,1.6325178,205
1747533775910,7.9967794,5.364866449999999,0.0395372769999999,-1.7896442,1.496164,-0.8431568,206
1747533775920,7.9967794,4.5672874,0.12080834,-1.0812434,0.13741912,-5.9329906,207
1747533775930,6.90743,3.07377915,0.44491637,-0.6279734,-1.0498182,-6.799583,208
1747533775940,6.532924,2.7131844,0.4148973,-0.45912898,-1.7086842,-6.9636335,209
1747533775950,6.3557386,2.1667402,0.03636453,-0.83250415,-1.5712651,-7.018495,210
1747533775960,6.3096123,1.2302926,-0.58256465,-3.10737645,0.94275905,-7.6342177,211
1747533775970,6.0379763,0.7834238,-0.44808912,-3.5238948,1.4705976,-7.755125,212
1747533775980,5.8561535,0.61331589,-0.289451895,-3.973969,2.1544974,-7.8371506,213
1747533775990,5.4073324,0.18914436,0.27773714,-3.68714665,2.39870915,-7.7817567,214
1747533776000,5.212575,0.034168016,0.8754333,-3.4115095,2.3819313,-7.756723,215
1747533776010,4.9887743,-0.16547081,0.99795,-2.0655477,2.0777984,-7.7460704,216
1747533776020,4.864793,-0.2638259,1.1119248,-1.3475596,2.040514,-7.8051925,217
1747533776030,4.7349544,-0.3785328,1.1656175,-0.6689861,2.1342573,-7.8952074,218
1747533776040,4.557525,-0.5208182,1.189047,-0.049534798,2.3430493,-7.96445,219
1747533776050,4.3971796,-0.61673266,1.227364,0.51984906,2.6290727,-8.065117,220
1747533776060,4.0840539,-0.92753955,1.1830675,1.9334549,3.26929665,-8.833173,221
1747533776070,3.9981458,-1.0118613,1.1931958,2.3137543,3.3204293,-9.069129,222
1747533776080,3.8980824,-1.1366966500000002,1.17794225,2.9885995,3.1052458,-9.437711,223
1747533776090,3.525407,-1.4719093,1.1302291,3.6634445,2.6711507,-9.788715,224
1747533776100,2.8464396,-1.889003,0.89056486,4.255199,2.1150825,-10.044378,225
1747533776110,2.5015867,-2.0400746,0.74364245,4.873052,0.9598033,-10.017747,226
1747533776120,2.1965153,-2.1196373,0.575487,4.8400292,0.525708,-9.689646,227
1747533776130,2.1644218000000004,-2.12500645,0.518743685,4.5950184,0.28229508,-9.241702,228
1747533776140,2.2316594,-2.0791237,0.417826,4.2445464,0.2146508,-8.79216,229
1747533776150,2.8236203,-1.8361647,0.52460106,3.3348105,0.34194988,-8.160991,230
1747533776160,2.9408898,-1.8253042,0.59989274,3.0743532,0.45806372,-8.083227,231
1747533776170,3.0451021,-1.8216432,0.78586435,3.0434606,0.69135666,-8.027833,232
1747533776180,3.08036855,-1.8581298,0.8671353749999999,3.1257522,0.8034757299999999,-7.994010999999999,233
1747533776190,3.2252166,-1.9131647,1.0106411,3.52496,1.0508834,-7.9085236,234
1747533776200,3.3294291,-1.8511744,0.9108216,4.19874,0.8655274,-8.105064,235
1747533776210,3.27768895,-1.9042568,0.916068875,4.339621,0.657800815,-8.18416,236
1747533776220,3.175429,-2.0365357,0.893249545,4.6096655,0.2809634975,-8.2834965,237
1747533776230,2.9264903,-2.2140872,0.79318607,5.04456,-0.007989483,-8.123174,238
1747533776240,2.6748674,-2.2855961,0.71191496,5.226187,0.05965481,-7.9047947,239
1747533776250,2.204081,-2.3414853,0.63454884,5.1462927,-0.03568636,-7.1713605,240
1747533776260,1.88949125,-2.1984677,0.627105085,5.1185956,0.09374327,-6.8714886,241
1747533776270,1.7823502,-2.1579542,0.614048,5.0184608,0.13369069,-6.644587,242
1747533776280,1.4980234,-2.1059701,0.6040417,4.885303,0.16564862,-6.372945,243
1747533776290,0.96012117,-2.0658225000000003,0.7713429199999999,4.9273808,-0.0697748199999999,-5.5577509,244
1747533776300,0.68384844,-2.080832,0.8295506,5.0157976,-0.2396845,-5.093562,245
1747533776310,0.44613665,-2.1379416,0.6626154,4.961469,-0.46978164,-4.6972837,246
1747533776320,0.23258655,-2.2553332,0.38536638,4.654673,-0.71798825,-4.308995,247
1747533776330,0.1360619115,-2.3237911,0.267974855,4.364921,-0.817057845,-4.1188451,248
1747533776340,-0.16766733,-2.460097,-0.05686534,3.266101,-0.8767126,-3.5691686,249
1747533776350,-0.7912336,-2.4110415,-0.34924594,1.2032162,-0.054328486,-2.8437235,250
1747533776360,-1.1192465,-2.4779134,-0.38927132,0.13741912,0.598146,-2.412824,251
1747533776370,-1.5087619,-2.4832826,-0.35363895,-0.7819041,1.1771172,-1.9845877,252
1747533776380,-1.7933327,-2.5032952,-0.30458343,-1.7060211,1.6010925,-1.4615428,253
1747533776390,-2.0998685,-2.515498,-0.2809099,-2.241849,1.619202,-1.005077,254
1747533776400,-2.2619226,-2.4456975,-0.14106509,-2.5614283,1.3608754,-0.53529537,255
1747533776410,-2.2284868,-2.3595455,-0.08322352,-2.51722,0.5970807,0.21198763,256
1747533776420,-2.2660715500000004,-2.0473962,-0.484575665,-2.312689,0.23169503,0.48469532,257
1747533776430,-2.3561287,-1.8714309,-0.80343646,-2.4857945,-0.40533313,0.71319455,258
1747533776440,-2.53355835,-1.72475255,-0.90935728,-2.9092371,-0.4569984649999999,0.79894835,259
1747533776450,-2.710988,-1.5780742,-1.0152781,-3.3326797,-0.5086638,0.88470215,260
1747533776460,-2.8330164,-1.5163277,-0.84565836,-3.8051245,-0.43675843,1.051416,261
1747533776470,-2.8420465,-1.5888127,-0.5637722,-3.89727,-0.34780884,1.1648667,262
1747533776480,-2.8930547,-1.6556844,-0.2604091,-3.683152,-0.25193503,1.2958943,263
1747533776490,-3.0026364,-1.6508032,-0.026602242,-3.2213597,-0.19387813,1.4764565,264
1747533776500,-3.3097825,-1.6245671,0.19353741,-1.5419703,-0.340352,2.26794805,265
1747533776510,-3.320155,-1.6410409,0.17108414,-1.196292,-0.34088463,2.4900556,266
1747533776520,-3.320155,-1.6410409,0.17108414,-1.196292,-0.34088463,2.4900556,267
1747533776530,-2.676576,-1.6381122,-0.41245672,-0.37444046,-0.10972224,3.5521243,268
1747533776540,-1.88705065,-1.5667255,-0.63198625,-0.4261058,0.32117724,4.5540056,269
1747533776550,-1.6395767,-1.530727,-0.6897058,-0.64075655,0.51771855,4.761732,270
1747533776560,-1.1873385,-1.4550693,-0.7721971,-0.92518216,0.6562029,4.825648,271
1747533776570,-0.85590875,-1.3838045499999998,-0.78415592,-1.22505413,0.67138293,4.8562745,272
1747533776580,-0.4003759,-1.30887895,-0.776346085,-1.6543557,0.63489763,4.93323975,273
1747533776590,-0.033191785,-1.3381659,-0.6633476,-1.9909793,0.4628574,5.1143346,274
1747533776600,0.18182266,-1.3764828,-0.50934744,-2.0879183,0.39361522,5.3257895,275
1747533776610,0.37487194,-1.4067459,-0.35827604,-2.0527647,0.38935417,5.711948,276
1747533776620,0.71996886,-1.4492118,-0.110557936,-1.9675435,0.43303,6.058159,277
1747533776630,0.81295468,-1.4642214,-0.0841997505,-1.9251992,0.5685849000000001,6.37294465,278
1747533776640,1.1026506,-1.48338,-0.0656514,-1.9771309,0.9709886,6.9018483,279
1747533776650,1.2542102,-1.4733735,-0.09469421,-2.2210765,1.2804478,7.0318108,280
1747533776660,1.4431105,-1.4894813,-0.117147475,-2.6120284,1.5638082,7.1058464,281
1747533776670,1.8414118,-1.5997953,-0.22990192,-3.8685079,2.0714068,7.3535204,282
1747533776680,2.0347052,-1.743545,-0.31312546,-4.785168,2.4250746,7.5202346,283
1747533776690,2.3081714,-2.1132918,-0.263703855,-6.72261775,3.0911311,7.61104825,284
1747533776700,2.404696,-2.254601,-0.16547081,-7.2635055,3.2346754,7.593205,285
1747533776710,2.455216,-2.6607122,1.0077124,-8.040084,3.353985,7.249657,286
1747533776720,2.313907,-2.6206868,1.7066923,-7.4824176,3.129747,6.9561768,287
1747533776730,2.2306833,-2.5040274,2.2497199,-6.3670855,2.6120284,6.5572352,288
1747533776740,2.08132,-2.4237325,2.383463,-4.92525,1.9121497,6.0949106,289
1747533776750,1.8948604,-2.3839512,2.2304392,-3.4669032,1.0498182,5.706089,290
1747533776760,1.5024164,-2.2782743,1.6817985,-0.7637946,-1.6612799,5.234177,291
1747533776770,1.4080883,-2.26448515,1.48984745,-0.3837615128,-2.2024343,5.23391075,292
1747533776780,1.1685461,-2.2114027,0.99087244,0.4346279,-3.444,5.401956,293
1747533776790,1.11888045,-2.1680825,0.7340022049999999,0.6098639,-3.7049897,5.694371,294
1747533776800,1.1343781,-2.1596625,0.68994987,0.54435013,-2.9332057,6.49198795,295
1747533776810,1.3950312,-2.101089,0.6472398,0.4543353,-2.2945797,6.9071746,296
1747533776820,1.5502517,-2.0686293,0.652365,0.28868666,-1.4183996,7.3162365,297
1747533776830,1.7210917,-2.0151806,0.61795294,0.04527374,-0.53795856,7.692807,298
1747533776840,1.9297606,-2.0315325,0.53302103,-0.44900897,0.5022722,8.1098585,299
1747533776850,2.464246,-2.0234787,0.33875147,-1.0018812,1.1728562,8.337293,300
1747533776860,2.6328895,-2.029824,0.36559775,-2.0863204,1.5659387,8.415589,301
1747533776870,2.762972,-2.0464199,0.4893348,-2.3329291,1.1590078,8.4203825,302
1747533776880,2.8154443,-2.00590645,0.53228887,-2.29324805,0.8173241849999999,8.45340575,303
1747533776890,3.29343045,-1.7407384,0.698247775,-1.61787035,-0.7768441,8.720255,304
1747533776900,3.95250725,-1.27373483,0.401230125,-1.1986888,-1.4202638,8.9684615,305
1747533776910,4.43208,-0.89813066,0.07565775,-1.0540792,-1.653823,9.106946,306
1747533776920,4.667107,-0.62527466,-0.10384636,-1.47459235,-1.37099535,8.9852395,307
1747533776930,5.31215,0.06443111,-0.40000984,-2.9593046,-0.22849922,8.590293,308
1747533776940,5.7163086,0.37243137,-0.2489384,-4.0165796,0.58909124,8.196677,309
1747533776950,6.065311,0.9176552,0.79513854,-4.7356334,0.94329166,7.5585837,310
1747533776960,6.6576375,1.773808,1.1813591,-4.541755,0.49747851,7.309312,311
1747533776970,6.923172,2.02958,1.2754432,-4.225904,-0.099069595,7.015299,312
1747533776980,7.597258,2.587739,1.4294434,-3.850931,-0.4564658,6.6371303,313
1747533776990,7.9967794,3.261093,1.4902135,-3.47649045,0.12037487,3.92763,314
1747533777000,7.9967794,4.175087,1.3440232,-3.4546525,0.67218184,1.952097,315
1747533777010,7.9967794,4.1284723,1.5839316,-3.3273535,1.0865698,0.046339005,316
1747533777020,7.9967794,3.8248653,1.8624009,-3.3273535,1.0865698,0.046339005,317
1747533777030,7.9967794,3.2881835,2.0024896,-2.910835,1.1174624,-1.6053536,318
1747533777040,7.9967794,2.5352666,2.0193298,-1.38883855,1.023452825,-5.09223035,319
1747533777050,6.8509307,1.359399,1.6800901,-1.0578076,1.1755193,-5.8514977,320
1747533777060,6.22590035,0.528139865,1.1992973,-1.3813817,2.1270668,-6.7242155,321
1747533777070,6.011618,0.23722363,1.1109486,-1.5616777,2.551841,-7.0382023,322
1747533777080,5.4588284,-0.2997023,1.3274274,-1.5574167,3.0306773,-7.325291,323
1747533777090,5.061625299999999,-0.75438095,1.7669744,-1.1190603,3.184608,-7.497331,324
1747533777100,5.0129356,-0.9130182,1.8772882,0.5837649,2.7947214,-7.9623194,325
1747533777110,5.044663,-1.0545714,1.7186512,1.4429007,2.5337315,-8.317585,326
1747533777120,5.0251384,-1.1907552,1.5766098,2.227468,2.2567627,-8.767126,327
1747533777130,5.0161085,-1.27336865,1.4792309499999998,2.896454,1.9563582,-9.286976,328
1747533777140,4.743740600000001,-1.71499025,1.20466655,3.4557178,1.6026903,-9.846772,329
1747533777150,4.5995026,-1.9129207,1.1704986,4.6829023,0.5225122,-11.109643,330
1747533777160,4.3598385,-2.1137798,1.1111927,5.2565475,0.046871636,-11.598599,331
1747533777170,4.0867386,-2.3109782,0.88739216,5.6645436,-0.3898868,-12.008726,332
1747533777180,3.87148,-2.4820623,0.5264315,5.75083,-0.793622,-12.326708,333
1747533777190,3.6340122,-2.6077516,0.09518232,5.4435015,-1.0418286,-12.490226,334
1747533777200,3.235955,-2.617514,-0.47737598,3.8978026,-1.1009508,-12.12697,335
1747533777210,3.175917,-2.5779767,-0.626495,2.8655615,-0.813862,-11.74454,336
1747533777220,3.1219804,-2.5608926,-0.6367454,1.8141453,-0.3930826,-11.362111,337
1747533777230,3.06950805,-2.5595503,-0.55584042,0.64768076,0.10652645,-10.857708,338
1747533777240,2.928931,-2.5901794,-0.21452633,-0.032490566,0.47564057,-10.405503,339
1747533777250,2.7444239,-2.5782208,0.5525456,-0.25513083,1.2389026,-9.535715,340
1747533777260,2.58359,-2.5123253,0.89032084,0.16937704,1.5361114,-9.021725,341
1747533777270,2.5512525,-2.4661984500000003,1.03748737,0.50786484,1.6471652,-8.742625499999999,342
1747533777280,2.5560114,-2.3117104,1.2629962,1.6431705,1.8690065,-7.9921465,343
1747533777290,2.753942,-2.2690003,1.171963,2.3558323,1.7768611,-7.722102,344
1747533777300,3.0631626,-2.2441063,0.71899265,3.17182495,0.759267235,-8.03981725,345
1747533777310,2.929419,-2.2436182,0.6357691,3.1894019,0.5342301,-8.148208,346
1747533777320,2.4371557,-2.2416658,0.7641432,3.160107,0.06391586,-8.280833,347
1747533777330,2.25801765,-2.21738205,0.82576768,3.231746,-0.06551377,-8.186291,348
1747533777340,1.7218238,-2.0903504,0.97281224,3.540939,0.026631612,-7.755125,349
1747533777350,1.4933863,-1.9732028,0.8993509,3.7918088,0.33981937,-7.36151,350
1747533777360,1.2939916,-1.8682582,0.758774,3.965447,0.6535397,-6.9551115,351
1747533777370,1.1094842,-1.6542201,0.5008055,4.0448093,0.91346425,-6.5284734,352
1747533777380,1.0112512,-1.6045544,0.428320485,3.9755671,0.907871625,-6.15962555,353
1747533777390,0.75950617,-1.4784988,0.36218095,3.8024614,0.6114618,-5.555354,354
1747533777400,0.53228885,-1.44323245,0.396226945,3.7433393,0.2082592,-5.331649,355
1747533777410,0.4588276,-1.4470154,0.43491003,3.7880805,-0.24767399,-5.103682,356
1747533777420,-0.056133166,-1.568556,0.47054234,4.1039314,-0.97951066,-4.4906225,357
1747533777430,-0.3265486,-1.6185876,0.46297657,4.2733083,-1.1973573,-4.035754,358
1747533777440,-0.46639338,-1.7789333,0.36510965,4.386226,-1.1749867,-3.6426718,359
1747533777450,-0.67579454,-1.9683217,0.119588055,4.29994,-0.67005134,-3.4402716,360
1747533777460,-1.120955,-2.2106707,-0.38341394,3.829093,-0.06231797,-3.3486588,361
1747533777470,-2.007615,-2.8147123,-1.4726415,1.6410398,1.1872373,-2.6391926,362
1747533777480,-2.566994,-2.9233177,-1.8968128,-0.01438107,1.5808525,-2.0820594,363
1747533777490,-2.915264,-3.036072,-2.0244548,-1.7795243,1.7273263,-1.5345135,364
1747533777500,-3.2269249,-3.3038028,-1.5408555,-3.7622479,1.70495575,-0.8415588999999999,365
1747533777510,-3.3234495,-3.5051502,-0.830770915,-4.256797,1.6229304,-0.6269081,366
1747533777520,-3.3545668,-3.6349888,-0.34070393,-4.3340282,0.42024684,0.120907515,367
1747533777530,-3.508567,-3.610339,-0.0043930304,-3.4056504,-0.63383234,0.922519,368
1747533777540,-3.515889,-3.5573785,0.088104665,-2.6210833,-1.4306501,1.7193369,369
1747533777550,-3.3921516,-3.4294925,0.05662128,-2.0458405,-1.9169434,2.4474452,370
1747533777560,-2.88829565,-2.99324015,-0.01745009205,-1.7808558,-1.8303906,3.4703653,371
1747533777570,-2.5770006,-2.7490609,-0.0388051,-1.8253306,-1.5739282,3.86691,372
1747533777580,-2.2873044,-2.5838342,0.03099527,-2.0612867,-1.0199907,4.098605,373
1747533777590,-2.0212822,-2.472056,0.15473229,-2.26635,-0.4213121,4.318582,374
1747533777600,-1.7359792,-2.3717482,0.25308737,-2.25649645,0.549942785,4.8637315,375
1747533777610,-1.1746475,-2.1642997,0.39854547,-2.1427794,0.95927066,5.189436,376
1747533777620,-0.8288184,-2.0642362,0.41343296,-1.8791265,1.0860372,5.5649414,377
1747533777630,-0.47859627,-1.9512378,0.38194957,-1.5973641,1.200553,5.9052935,378
1747533777640,-0.07834238,-1.8531268,0.36388937,-1.3299826,1.3299826,6.192915,379
1747533777650,0.797335,-1.6576368,0.12983845,-1.0029465,1.6990968,6.5614963,380
1747533777660,1.0858107,-1.5834434,-0.03636453,-1.257012,1.9262644,6.5958512,381
1747533777670,1.2525018,-1.5470788,-0.15082738,-1.4056164,1.988316,6.5934544,382
1747533777680,1.3183973,-1.5417097,-0.1952458,-1.9531624,2.1060278,6.6525764,383
1747533777690,1.3327967,-1.5744133,-0.15448824,-2.4623587,2.172607,6.810768,384
1747533777700,1.5695321999999998,-1.68997435,0.112998511,-3.6424055,2.3475765,7.572698649999999,385
1747533777710,1.7217019,-1.7428127999999998,0.245887685,-4.07303855,2.52893785,7.92530115,386
1747533777720,1.7984579,-1.7728319,0.31703037,-4.2860913,2.641856,8.094412,387
1747533777730,1.9043787,-1.8394594,0.4729829,-4.6919575,2.9550436,8.383632,388
1747533777740,2.13269435,-1.91035815,0.74449667,-5.025385,3.299124,8.592423,389
1747533777750,2.323059,-1.96880985,0.89129707,-5.6309879,3.0743532,8.36712,390
1747533777760,2.391517,-2.0007813,0.9200958,-5.7012954,2.8969867,8.223842,391
1747533777770,2.4503348,-2.0342171,0.9701275,-5.781723,2.420281,7.8414116,392
1747533777780,2.4723,-2.1169527,0.9989263,-5.8152785,1.8658108,7.404653,393
1747533777790,2.4232442,-2.2550888,0.9776934,-5.8238006,1.4013554,6.961503,394
1747533777800,2.0261633,-2.49219045,1.2607998,-5.539908,0.34940675,6.433665,395
1747533777810,1.9585594,-2.5272126,1.3388981,-5.114867,-0.33449304,6.4224796,396
1747533777820,1.8990094,-2.53148365,1.4328601,-4.4932857,-1.0221212,6.541789,397
1747533777830,1.7852788,-2.4747405,1.6761851,-3.6863477,-1.5318503,6.715427,398
1747533777840,1.83287,-2.4144583,1.6859474,-2.6029737,-1.8967034,6.896522,399
1747533777850,2.0200617,-2.289013,1.3418267,-1.2580773,-2.1422467,6.868293,400
1747533777860,2.0732663,-2.2253141,1.0862988,-0.9060074,-2.1784658,6.761766,401
1747533777870,2.0880318,-2.1967593,0.98452692,-0.7637946,-2.3105586,6.6861324,402
1747533777880,2.12195575,-2.1506325,0.80709732,-0.76139775,-2.3861923,6.70557355,403
1747533777890,2.2155519,-2.1015768,0.7394935,-0.793622,-2.4517062,6.8970547,404
1747533777900,2.4442334,-2.0901062,0.9159469,-0.766191455,-1.048220225,7.548464,405
1747533777910,2.6197107,-2.05423,1.0667742,-0.69348717,-0.56725335,7.671502,406
1747533777920,2.762362,-2.00175755,1.07397395,-0.574710175,-0.21811291,7.703726250000001,407
1747533777930,3.05144775,-1.84604895,0.94437955,-0.39734364,0.391750995,7.7149115,408
1747533777940,3.5839806,-1.4660518,0.36950266,-0.5448828,0.8644621,7.556986,409
1747533777950,4.584615,-0.47688788,-0.6411384,-1.7912422,0.4644553,6.930078,410
1747533777960,4.77973915,0.139722772,-0.82857435,-2.9044435,0.11930962,6.3356605,411
1747533777970,4.7134776,0.31361356,-0.7499879,-4.094344,-0.03355583,5.784919,412
1747533777980,3.85097935,0.80697525,-0.0503978099999999,-5.7020942,0.454335285,5.60169315,413
1747533777990,3.542491,0.9488945,0.24186075,-6.227536,0.7206514,5.6560216,414
1747533778000,3.9128478,1.5827111500000002,1.7131598499999998,-6.33965495,1.43677545,6.629939800000001,415
1747533778010,4.79853135,2.0340950500000003,1.7598968,-6.2717443,1.3907027,6.823019,416
1747533778020,5.3673067,2.2743695,1.701323,-6.433132,0.88044107,6.709568,417
1747533778030,6.808221,2.7803001,1.9573392,-6.608368,0.21624869,6.0176787,418
1747533778040,7.7131853,3.303315,2.4964616,-6.59665,-0.1555286,4.942827,419
1747533778050,7.9967794,3.554938,4.0035152,-5.519135,0.8836369,1.5744609,420
1747533778060,7.9967794,3.2254605,4.664666,-4.359062,1.6437031,-0.3552657,421
1747533778070,7.9967794,2.527701,5.1476555,-2.428803,1.8679413,-2.3483756,422
1747533778080,7.2593608,1.01649842,4.540685,0.8410263,1.5014902,-4.3542686,423
1747533778090,6.838728,0.5342413,3.79618835,2.13665425,1.97127195,-5.3039518,424
1747533778100,6.618588,0.31361356,3.3923957,2.3947146,2.2482407,-5.5718656,425
1747533778110,6.125837,-0.036852647,2.4925568,2.4064324,3.0019152,-5.9431105,426
1747533778120,5.712404,-0.5615757,1.5917413,2.137453,3.722034,-6.421947,427
1747533778130,5.420267,-0.5615757,1.5917413,1.8333201,4.1555967,-6.421947,428
1747533778140,4.8222053,-0.88714812,1.82615825,2.1768679,3.76198135,-7.05444735,429
1747533778150,4.7146983,-0.9198518,1.9285403,2.453304,3.6043222,-7.1575117,430
1747533778160,4.653928,-1.0042956,1.8016307,3.1478565,3.3119073,-7.4174366,431
1747533778170,4.4650273,-1.2734908,1.6137065,3.80725525,3.0413301500000003,-7.83288955,432
1747533778180,4.088203,-1.4597064,1.428223,5.036038,2.4607608,-8.593489,433
1747533778190,3.901499,-1.5291407,1.3307221500000002,5.2637382,2.23013105,-8.708270500000001,434
1747533778200,3.5027096,-1.7276812,0.9959976,5.7348514,1.4152038,-8.9327755,435
1747533778210,3.2925763,-1.7735641,0.77097684,5.759885,0.9171927,-8.960472,436
1747533778220,3.1773813,-1.7879633,0.64040625,5.4024887,0.24660872,-9.056878,437
1747533778230,3.1612735,-1.7869871,0.60306543,5.303419,0.07563378,-9.246495,438
1747533778240,3.090741,-1.8179823,0.64309084,5.274657,-0.12357068,-9.535182,439
1747533778250,2.937229,-1.850442,0.6382097,5.3002234,-0.29188246,-9.853696,440
1747533778260,2.6694982,-1.9446481,0.49958518,5.2618737,-0.38083205,-10.099772,441
1747533778270,2.1723535,-2.0713139,0.11324256,4.7233825,-0.17576863,-10.249442,442
1747533778280,1.9326893,-2.0932791,-0.017816179,4.245079,0.0958738,-10.096577,443
1747533778290,1.75648,-2.0752187,-0.10323621,3.5478632,0.41598576,-9.675264,444
1747533778300,1.70657025,-1.9777179,0.1178796499999999,3.0418627,0.56672066,-9.190569,445
1747533778310,1.7140139,-1.9156054,0.2962855,2.549178,0.41918156,-8.121043,446
1747533778320,1.768927,-1.836775,0.54205114,2.6008432,0.051665325,-7.5335503,447
1747533778330,2.0144486,-1.8448287,0.7385172,2.8133633,-0.340352,-6.9769497,448
1747533778340,2.57565825,-1.82347375,0.8966663500000001,3.1755533,-0.5784386,-6.609966,449
1747533778350,2.7180655,-1.7823502,0.9061846,4.01871015,-0.609863905,-6.7108998,450
1747533778360,2.8887836,-1.7463516,0.82039845,4.427239,-0.62371236,-6.925817,451
1747533778370,2.8486362,-1.7857668,0.7809832,4.6978164,-0.6780408,-7.2086444,452
1747533778380,2.57443785,-1.931347,0.6042857699999999,4.898086,-0.71798825,-7.431285,453
1747533778390,2.4615614,-1.9785721,0.5252112,4.969991,-0.76059884,-7.5655084,454
1747533778400,2.2328796,-2.1855328,0.25211114,4.568919,-1.2841763,-7.542605,455
1747533778410,1.5910091,-2.1752822,0.16132185,4.111388,-1.700162,-7.332748,456
1747533778420,1.3149804,-2.1032853,0.15180361,3.5638423,-2.0660803,-7.00944,457
1747533778430,1.1365746,-2.028848,0.2438132,3.0349383,-2.257828,-6.6493807,458
1747533778440,1.0330943,-1.9356179,0.40733153,2.654639,-2.2168152,-6.2893214,459
1747533778450,0.6432128850000001,-1.7835704,0.70837618,2.1491711,-1.77153475,-5.489308,460
1747533778460,0.5515694,-1.7789333,0.7326599,2.0975058,-1.653823,-5.350291,461
1747533778470,0.41416514,-1.7994341,0.7316837,1.9952403,-1.3038837,-5.1175303,462
1747533778480,0.23039004,-1.8357986,0.69898,1.9355855,-1.10601085,-5.0392334000000005,463
1747533778490,-0.11324256,-1.9004737,0.609655,1.6964337,-0.531567,-4.8192563,464
1747533778500,-1.0064921,-2.1118274,0.40147418,1.0748519,0.18056233,-4.191816,465
1747533778510,-1.4060138,-2.2101824,0.2848148,0.64555025,0.46019423,-3.7065878,466
1747533778520,-1.7498904,-2.2738814,0.24234885,0.38269625,0.5566006649999999,-3.4059168,467
1747533778530,-2.0327528,-2.3614979,0.2489384,-0.19014971,0.77231675,-2.612561,468
1747533778540,-2.4934109500000003,-2.5031731,0.243447105,-0.3584615,0.97258645,-2.159291,469
1747533778550,-2.7595553,-2.554059,0.21208574,-0.187486545,1.19575935,-0.8018778,470
1747533778560,-2.9733496,-2.5992098,-0.016839951,-0.15180019,1.1323761,-0.4745753,471
1747533778570,-2.9872608,-2.6057992,-0.2762728,-0.23702134,0.8857674,0.13741912,472
1747533778580,-2.9743257,-2.553571,-0.5598673,-0.515588,0.62104917,0.57364494,473
1747533778590,-3.13442715,-2.54173425,-0.80563295,-1.73691373,0.3174488,1.11639715,474
1747533778600,-3.2391276,-2.5818818,-0.8110022,-2.481001,0.22743396,1.4034859,475
1747533778610,-3.26768255,-2.7096455,-0.300922565,-2.96835935,0.476439525,2.1734058000000003,476
1747533778620,-3.2642658,-2.725387,-0.08371163,-3.005111,0.598146,2.4772725,477
1747533778630,-3.2166746,-2.6956124,0.24698594,-2.7435887,0.9502159,3.1798143,478
1747533778640,-3.0385127,-2.6101923,0.38829508,-2.17260695,1.73371785,4.2522693,479
1747533778650,-2.5423443,-2.315371,0.1330112,-1.9755329,2.1385183,4.683435,480
1747533778660,-2.2184803,-2.2358084,-0.04612682,-2.0410466,2.5513084,4.98384,481
1747533778670,-1.8765563,-2.1171966,-0.2186753,-2.2386532,2.9752836,5.1984906,482
1747533778680,-1.4631232,-1.986626,-0.34802565,-2.5699506,3.3907368,5.4024887,483
1747533778690,-1.0714114,-1.875824,-0.46444094,-2.8591697,3.6080508,5.5271244,484
1747533778700,-0.43076107,-1.7081566,-0.46322066,-3.327886,3.6288233,5.759352,485
1747533778710,-0.16693515,-1.6520236,-0.375116,-3.3896716,3.3667684,5.907424,486
1747533778720,0.09176553,-1.5712405,-0.2203837,-3.3140378,2.9491847,6.0768013,487
1747533778730,0.09176553,-1.5712405,-0.2203837,-3.3140378,2.9491847,6.0768013,488
1747533778740,0.36144876,-1.5448823,-0.10494461,-3.1462586,2.4485104,6.201437,489
1747533778750,0.93107843,-1.6525116,0.18182266,-2.6525085,1.4040185,6.4597635,490
1747533778760,1.0499343,-1.688388,0.31141704,-2.518818,1.29909,6.625945,491
1747533778770,1.147069,-1.7359792,0.37267542,-2.4261398,1.257012,6.821954,492
1747533778780,1.4290772,-1.77868925,0.379386985,-2.6551716,1.2114720499999998,7.32262775,493
1747533778790,1.5853959,-1.7979698,0.38097337,-2.8788772,1.1856394,7.6038575,494
1747533778800,1.86728195,-1.84336445,0.430150885,-3.5087148,1.3459616,7.959922349999999,495
1747533778810,1.9695419,-1.85874,0.45931572,-3.752394,1.4040185,8.046475,496
1747533778820,2.114024,-1.8489777,0.5269196,-4.0173785,1.4919028,8.096276,497
1747533778830,2.2199447,-1.8860743,0.61770886,-4.946023,1.8908445,8.167382,498
1747533778840,2.309758,-2.037634,0.9396204,-5.781723,2.2700787,7.99694,499
1747533778850,2.3383124,-2.145019,1.090936,-5.9894495,2.3334618,7.8174434,500
1747533778860,2.3306246,-2.17943115,1.16464125,-6.01022225,2.27540485,7.71544435,501
1747533778870,2.2790065,-2.2409337,1.3886857,-5.891978,1.8679413,7.3897395,502
1747533778880,2.2233615,-2.2809591,1.4687365,-5.632586,1.3773869,7.185209,503
1747533778890,2.12903345,-2.2760779,1.60077145,-4.8189901,0.274039265,6.909039,504
1747533778900,2.1128037,-2.2589939,1.6725243,-4.3404202,-0.28442562,6.778278,505
1747533778910,2.1274471,-2.220433,1.6788697,-3.5792885,-0.8133294,6.5428543,506
1747533778920,2.0327528,-2.1296434,1.5009521,-2.5241442,-1.2895026,6.216883,507
1747533778930,2.0154247,-2.1223218,1.3918585,-2.117213,-1.3923006,6.0991716,508
1747533778940,2.0107877,-2.0996244,1.2520137,-1.7907095,-1.3843112,6.027799,509
1747533778950,1.9126767,-2.0146925,1.0789771,-1.5765914,-1.2729911,6.01182,510
1747533778960,1.8570317,-1.9605118,0.8925173,-1.6335831,-0.8516789,6.174273,511
1747533778970,1.8938842,-1.8948604,0.65065664,-1.8423749,-0.6327671,6.372412,512
1747533778980,1.9607558,-1.8314055,0.7770783,-1.88578445,-0.53263224,6.565491,513
1747533778990,1.9607558,-1.8314055,0.7770783,-1.929194,-0.43249738,6.75857,514
1747533779000,2.4805977,-1.4760582,1.010397,-1.4945661,-0.2082592,7.080813,515
1747533779010,2.903061,-1.1700104,0.9469421,-1.1403656,-0.16138756,6.9002504,516
1747533779020,3.812174,-0.3316738,0.17742962,-1.1387677,-0.07403588,5.7763963,517
1747533779030,4.0515943,0.22013964,-0.2716357,-1.7113473,0.026631612,4.8986187,518
1747533779040,4.003759,0.677747,-0.5613316,-2.696717,-0.015978966,4.0240364,519
1747533779050,3.8185196,0.88983274,-0.58158845,-3.9542618,-0.10865697,3.3326797,520
1747533779060,2.6580274,0.87616557,0.4834774,-5.442436,0.1933455,2.9736857,521
1747533779070,2.0901062,1.1221752,1.3537855,-6.4640245,1.3006879,3.6709013,522
1747533779080,2.1850445,1.5029045,2.0991364,-5.965481,1.2202604,4.3249736,523
1747533779090,2.936497,1.8353105,2.3595455,-5.1782503,0.43089947,4.8554754,524
1747533779100,4.287842,2.307073,2.3571048,-4.3276367,-0.7749799,5.096758,525
1747533779110,6.9915075,3.8309665,2.102065,-3.0423954,-3.2682314,4.2967443,526
1747533779120,7.49414345,4.21779725,1.9464785,-2.9747510000000004,-3.3582462,3.5848813,527
1747533779130,7.9967794,4.7837663,1.5709965,-3.2874062,-2.4612935,0.88203895,528
1747533779140,7.9967794,4.2256074,1.7706354,-3.981426,0.11558119,-1.6703347,529
1747533779150,7.9967794,3.3408997,2.3819988,-4.0703754,2.0437098,-3.1547806,530
1747533779160,6.293016,1.5199885,3.6715972,-2.2045648,3.0834079,-4.1444116,531
1747533779170,6.051399,1.0179628,3.6830678,-0.94488955,2.5848641,-4.205664,532
1747533779180,6.0931334,0.6662763,3.2113054,-0.0628506,2.23599,-4.4501424,533
1747533779190,5.94438025,0.40952807,2.6230053,0.44474792,2.3094933,-4.89276,534
1747533779200,5.836873,0.34924594,2.4654663,0.79681784,2.8107002,-5.3636065,535
1747533779210,5.307269,0.055400997,1.866794,1.5584819,3.8019288,-6.33353,536
1747533779220,5.0383177,-0.11861181,1.666667,1.9323897,3.5659728,-6.750581,537
1747533779230,4.6995664,-0.22990192,1.5072975,2.3004386,2.9843383,-7.1143684,538
1747533779240,4.366184,-0.34802565,1.4216335,2.6599653,2.273807,-7.4041204,539
1747533779250,4.042076,-0.4373506,1.3284036,2.9651637,1.5883093,-7.599064,540
1747533779260,3.4343739,-0.5183776,1.0301657,3.1606395,0.7701862,-7.716776,541
1747533779270,3.1829946,-0.5605995,0.95987713,3.0551784,0.6306366,-7.658186,542
1747533779280,2.9709089,-0.5859815,0.9798898,2.9481194,0.5906891,-7.5548553,543
1747533779290,2.8850007,-0.6325964,1.0321181,2.922553,0.52624065,-7.5095816,544
1747533779300,2.8015332,-0.7568215,1.0787331,3.196326,0.44900897,-7.7173085,545
1747533779310,2.83863,-0.8659151,1.052863,3.58967495,0.32091092,-8.06591635,546
1747533779320,2.9262464,-0.989164,0.993313,3.7332194,0.25726137,-8.212124,547
1747533779330,2.9823797,-1.1407236,0.91057765,4.040015,0.004261058,-8.584967,548
1747533779340,3.022405,-1.3079028,0.83882475,4.3239083,-0.42770368,-9.004148,549
1747533779350,2.7978723,-1.6273737,0.6347929,4.6584015,-1.4002901,-9.67846,550
1747533779360,2.5865185,-1.743545,0.52203846,4.5833,-1.7928401,-9.754626,551
1747533779370,2.3461223,-1.79016,0.4127008,4.364921,-1.8690065,-9.558085,552
1747533779380,2.2001762,-1.7735641,0.2860351,3.9979374,-1.7022926,-9.168731,553
1747533779390,2.2699765000000003,-1.55915975,0.010372433,2.6016422,-0.43382895,-8.0430127,554
1747533779400,2.3463664,-1.513643,-0.02391761,2.2951124,-0.11132014,-7.8595214,555
1747533779410,2.5590622,-1.42419605,0.042465962,1.54303555,0.6655239749999999,-7.5604482,556
1747533779420,2.617758,-1.4165082,0.09322987,1.3406353,0.8772453,-7.5037227,557
1747533779430,2.7596775,-1.5934497,0.4615122499999999,1.1933625,1.0080065,-7.486678599999999,558
1747533779440,2.7507693,-1.7442771,0.72765669,1.64982835,0.702541915,-7.50239125,559
1747533779450,2.7097676,-1.7755165,0.78537625,2.0570257,0.43675843,-7.512245,560
1747533779460,2.5042714,-1.81480965,0.78391185,2.7758128500000003,0.1312938425,-7.49546695,561
1747533779470,2.426173,-1.820911,0.7512082,2.9917953,0.051665325,-7.4813523,562
1747533779480,2.2236056,-1.8279889,0.63162017,3.2943304,-0.05965481,-7.383348,563
1747533779490,1.9196323,-1.89217585,0.398057375,3.4740937,-0.24021713,-7.01183685,564
1747533779500,1.8199348,-1.9409873,0.29774985,3.4764905,-0.36005938,-6.809703,565
1747533779510,1.704984,-1.973691,0.2489384,3.3683662,-0.55766594,-6.488526,566
1747533779520,1.4548253,-1.9966323,0.1513155,3.264503,-0.65247446,-6.0810623,567
1747533779530,1.34890445,-1.94721065,0.116171255,3.134008,-0.7978831,-5.6070194,568
1747533779540,1.103871,-1.7728319,0.049787678,3.0019152,-0.9358348,-5.1638694,569
1747533779550,0.9232686,-1.632987,-0.0019524579,2.70870115,-0.99282649,-4.28609155,570
1747533779560,0.7582859,-1.5939379,0.051740136,2.6578348,-0.98856544,-4.1428137,571
1747533779570,0.6548056,-1.5705084,0.15741692,2.624279,-0.99548966,-3.9052596,572
1747533779580,0.5427833,-1.6056527,0.23942018,2.6839337,-0.99708754,-3.7081857,573
1747533779590,0.18231077,-1.6122422,0.20232345,2.8144288,-1.0785803,-3.6341498,574
1747533779600,-0.106164895,-1.6000394,0.026602242,2.8160267,-0.8873653,-3.717773,575
1747533779610,-0.734490275,-1.7944309500000002,-0.574144675,1.81174845,-0.38775626,-3.8887478,576
1747533779620,-0.97696114,-1.8946164,-0.79440635,1.3369069,-0.20399815,-3.9254994,577
1747533779630,-1.5077857,-2.127203,-1.1148535,0.07989483,0.03195793,-3.7252297,578
1747533779640,-1.965637,-2.4574125,-1.194172,-1.3140037,0.1667139,-3.3268209,579
1747533779650,-2.4273934,-3.0499835,-0.39146784,-3.1132355,0.6945524,-2.6264095,580
1747533779660,-2.7951877,-3.2110612,0.08297946,-3.202185,0.8586032,-2.4431841,581
1747533779670,-3.9194373,-3.4305905,0.30677995,-2.3904535,0.5336974999999999,-1.3928332,582
1747533779680,-4.4808908,-3.5251627,0.3053156,-1.9616845,0.23861924,-0.6716492,583
1747533779690,-4.635135,-3.525407,0.23331872,-1.9616845,0.23861924,-0.6716492,584
1747533779700,-4.6012115,-3.4512136,0.14765464,-1.4274544,-0.16192019,1.2149341,585
1747533779710,-4.4415975,-3.32528,0.030507157,-1.3129385,-0.18801917,2.1268005,586
1747533779720,-3.785572,-2.9704208,-0.076389916,-1.4066817,-0.0015978967,3.5414717,587
1747533779730,-3.3430963,-2.7771275,-0.1300825,-1.5536882,0.24074976,3.965447,588
1747533779740,-2.71049985,-2.5206233,-0.324230035,-2.0461067,0.9187906,4.46079465,589
1747533779750,-2.36332845,-2.352834,-0.49421591,-2.4527714,1.3385048,4.68556565,590
1747533779760,-2.2148197,-2.2780304,-0.5759751,-2.6775422,1.5313177,4.7878313,591
1747533779770,-1.7511108,-2.075707,-0.6118515,-3.5228295,1.9441077,5.205415,592
1747533779780,-1.5678238,-2.054718,-0.44369608,-3.6511939,2.031992,5.594769,593
1747533779790,-1.27483305,-2.0510571,-0.30690199,-3.6511939,2.031992,5.594769,594
1747533779800,-0.761092525,-2.0344611,-0.196344055,-3.26104085,1.96301605,6.959639,595
1747533779810,-0.54034275,-2.021526,-0.22258021,-3.1792817,1.9286613,7.208112,596
1747533779820,-0.041245685,-2.008713,-0.26724268,-3.4573157,1.7145431,7.829161,597
1747533779830,0.8251576,-1.9705181,-0.23649146,-3.700196,1.572863,7.820639,598
1747533779840,1.2068631,-1.9937037,-0.0669937115,-4.1018008,1.32412375,7.7234335,599
1747533779850,1.3069266,-2.0112758,-0.004148973,-4.237622,1.2378373,7.694405,600
1747533779860,1.5659933,-2.13598895,0.348879825,-4.466121,1.0657971,7.6683064,601
1747533779870,1.6922929999999998,-2.2505739,0.60648225,-4.6541405,0.7504788,7.811052,602
1747533779880,1.7230443,-2.2958465,0.6770148,-4.6626625,0.65726817,7.9862876,603
1747533779890,1.9034024,-2.4061604,0.7524285,-4.726312200000001,0.660197645,8.248875,604
1747533779900,1.9802804,-2.4591208,0.76072645,-4.7888966,0.65886605,8.342086,605
1747533779910,2.584078,-2.5723634,0.8886124,-4.9960904,0.34780884,8.255267,606
1747533779920,2.68938885,-2.5641874,0.90801495,-5.06187035,0.20532972,8.1191795,607
1747533779930,2.8879294,-2.553571,1.0716554,-5.2203283,-0.21145499,7.6640453,608
1747533779940,2.82508455,-2.5732176,1.38050985,-5.1990232,-0.38029942,7.3657713,609
1747533779950,2.7737105,-2.5711432,1.4753261,-5.0248523,-0.3898868,7.1031833,610
1747533779960,2.4710796,-2.502319,1.862889,-4.149738,-0.15819177,6.6946545,611
1747533779970,2.2799828,-2.4356914,1.973935,-3.2133703,-0.1272991,6.519951,612
1747533779980,2.0665546,-2.35381005,1.86716,-1.9779298,-0.401072075,6.39105415,613
1747533779990,2.0090792,-2.336848,1.7930887,-1.5781893,-0.5305017,6.3553677,614
1747533780000,1.9551427,-2.2733932,1.5936939,-0.298274065,-1.2950953,6.2262045,615
1747533780010,1.8983993,-2.03519345,1.064211665,0.46285741,-1.80988435,6.1082263,616
1747533780020,1.9156054,-1.9819889,0.97598493,0.66845345,-1.9483687,6.0570936,617
1747533780030,1.8706989,-1.9075515,0.84150934,0.99495703,-2.1140172,5.9574914,618
1747533780040,1.8233517,-1.8948604,0.73680884,1.2436962,-2.2306638,5.929795,619
1747533780050,1.8772882,-1.9300048,0.6079466,1.619202,-1.9622171,6.208361,620
1747533780060,2.021038,-1.9029144,0.56426036,1.7859159,-1.5542208,6.4272733,621
1747533780070,2.264851,-1.8685023,0.35412705,1.8090854,-1.29216575,6.4983795,622
1747533780080,2.5569878,-1.8270127,0.10006347,1.71188,-0.5001417,6.6222167,623
1747533780090,2.9601703,-1.7220681,-0.12739788,1.4615428,-0.04580637,6.5849323,624
1747533780100,3.703569,-1.1231514,-0.7573096,0.51665324,0.3850931,6.054963,625
1747533780110,3.9078445,-0.73510045,-0.98208636,-0.11132014,0.29294774,5.6677394,626
1747533780120,3.999366,-0.29164842,-1.2244352,-0.9060074,0.17949706,5.2959623,627
1747533780130,3.943233,0.15473229,-1.4872849,-2.3467777,0.12676647,4.718056,628
1747533780140,3.5524971,0.52203846,-1.4289552,-3.7209687,0.25193503,4.321778,629
1747533780150,2.0105436,0.87299275,0.099087246,-5.5010257,1.2112057,4.92525,630
1747533780160,2.025675,1.0845904,1.3462198,-4.9635997,1.3124058,5.7795925,631
1747533780170,3.1549282,1.4606826,2.1589303,-3.4269557,0.88203895,6.567355,632
1747533780180,4.601455,2.0073707,1.9053549,-1.7955033,-0.01917476,6.942861,633
1747533780190,6.4099197,2.8852448,0.5691415,-0.51292485,-1.2815131,6.617955,634
1747533780200,7.9967794,5.3141026,0.088104665,0.57417756,-3.2101743,3.5100465,635
1747533780210,7.9967794,6.1983223,-0.3414361,0.20932446,-2.945989,1.7198695,636
1747533780220,7.9967794,6.14707,-0.63186425,-0.6812366,-1.9856529,-0.2247708,637
1747533780230,7.9967794,5.6509013,-0.46151224,-1.6623452,-0.7089335,-1.6160061,638
1747533780240,7.7205067,4.19387985,0.4898228895,-2.70923375,0.9020127,-3.118029,639
1747533780250,7.3994497,3.0730468,1.1348662,-2.93080875,1.6900421,-4.25253565,640
1747533780260,7.297312,2.7224586,1.2708061,-2.9012477,1.8700718,-4.680772,641
1747533780270,6.9573402,2.062528,1.4733735,-2.6887274,2.1475732,-5.526059,642
1747533780280,5.973545,0.853956315,1.6362818,-1.72279895,2.13771945,-6.8022461,643
1747533780290,5.2355160000000005,0.1559525726,1.6588571,-0.9502159,1.7965685,-7.29493095,644
1747533780300,5.056866,0.0021965152,1.6310346,-0.6870956,1.6229304,-7.3929353,645
1747533780310,4.7395916,-0.15863721,1.551716,-0.20453078,1.2777847,-7.5756283,646
1747533780320,4.4655156,-0.25723633,1.478987,0.24021713,0.94488955,-7.716776,647
1747533780330,4.2517214,-0.35656762,1.3628157,0.6098639,0.6487461,-7.858989,648
1747533780340,3.564944,-0.55840298,1.1515841,1.28790475,0.5848302,-7.96950985,649
1747533780350,3.24266645,-0.6253966950000001,1.1148535,1.4263891,0.6673882,-7.9239697,650
1747533780360,3.0873241,-0.65334123,1.1031388,1.8077538,0.8745821,-7.8019967,651
1747533780370,2.9455268,-0.71996886,1.074096,2.1534321,0.91186637,-7.8115845,652
1747533780380,2.8244743,-0.82125264,1.0318741,2.5284052,0.8538095,-7.9197087,653
1747533780390,2.50183085,-1.16134645,0.89080898,3.4333474,0.457797405,-8.241951,654
1747533780400,2.3887103,-1.2753212,0.7382731849999999,3.67409725,0.2319613425,-8.373778000000001,655
1747533780410,2.3475866,-1.3303561,0.64772797,3.7577205,0.105993815,-8.442754,656
1747533780420,2.2023727,-1.4312737,0.42661208,3.7249635,-0.311057215,-8.607337,657
1747533780430,2.09510945,-1.4705669,0.27004934,3.671434,-0.45060685,-8.644089,658
1747533780440,2.0351934,-1.4858205,0.17328064,3.0748858,-0.81013364,-8.619055,659
1747533780450,2.0351934,-1.4858205,0.17328064,2.7505128,-0.848483145,-8.486962,660
1747533780460,1.9273201,-1.478987,0.20940112,2.4261398,-0.88683265,-8.354869,661
1747533780470,1.99065295,-1.4147998,0.31519992,1.8229338,-1.12864765,-7.9415465,662
1747533780480,2.0176213,-1.4082103,0.3219115,1.7070863,-1.1813782,-7.867511,663
1747533780490,2.0793677500000003,-1.3975938,0.397691295,1.38670805,-1.3291837,-7.6464684,664
1747533780500,2.1128036000000003,-1.40076655,0.49445999,1.24822365,-1.4165354,-7.434214349999999,665
1747533780510,2.131352,-1.4052817,0.55059314,1.2000204,-1.4551512,-7.3029203,666
1747533780520,2.3296485,-1.5496415,0.71716225,1.31933,-1.2911005,-6.9143653,667
1747533780530,2.3765074000000004,-1.62407895,0.84199753,1.5464977,-0.93903062,-6.6882628,668
1747533780540,2.29560245,-1.59283965,0.92143816,1.83305385,-0.559263855,-6.54818065,669
1747533780550,2.2575295,-1.5709965,0.95646036,1.9984361,-0.37124467,-6.4821343,670
1747533780560,2.1630795,-1.500464,0.9257092,2.3489082,-0.075101145,-6.4384584,671
1747533780570,2.0178654,-1.48240375,0.8858058,2.66502535,-0.0716390349999999,-6.47174785,672
1747533780580,1.649949,-1.4555574,0.734856365,3.4746263,-0.618386035,-6.560165,673
1747533780590,1.5371945500000002,-1.4302975,0.609655015,3.62402965,-1.021056,-6.6051725,674
1747533780600,1.4953387,-1.4206573,0.541319,3.6666403,-1.2261194,-6.631804,675
1747533780610,1.4265146,-1.4460392,0.44491637,3.632552,-1.6160061,-6.6685553,676
1747533780620,1.1953924,-1.4948506,0.35144243,3.4408042,-1.8631475,-6.459231,677
1747533780630,0.97281224,-1.4838681,0.37926495,3.375823,-1.6383767,-6.1875887,678
1747533780640,0.75535715,-1.4545813,0.39537275,3.365703,-1.3693974,-5.8632154,679
1747533780650,0.2606531425,-1.53670645,0.46456297,3.56970115,-0.9712549,-5.42139725,680
1747533780660,-0.009274175,-1.6517794,0.47981656,3.9239015,-0.61199445,-5.0562778,681
1747533780670,-0.41099238,-1.7086449,0.24649782,4.173706,-0.4063984,-4.8245826,682
1747533780680,-0.78586435,-1.7755165,-0.040269446,4.0527987,-0.509729,-4.4400225,683
1747533780690,-0.9791577,-1.8829017,-0.3756041,3.632552,-0.6854977,-3.942011,684
1747533780700,-1.0965492,-1.9639287,-0.643823,2.1017667,-0.7275756,-2.8056402,685
1747533780710,-1.4201691,-2.0447116,-1.0553036,1.2202604,-0.7094661,-2.2162826,686
1747533780720,-1.66105365,-2.156734,-1.133768,-0.475107962,-0.651142925,-1.6176041,687
1747533780730,-1.888271,-2.2732712,-1.015278175,-1.7004284,-0.658067125,-1.3965617,688
1747533780740,-2.1372094,-2.3915169,-0.82479149,-2.8218856,-0.554203825,-1.3741912,689
1747533780750,-2.553815,-2.7153809,-0.3871968385,-3.79979835,0.058589545,-1.392567,690
1747533780760,-2.8554697,-2.9826236,-0.047103047,-4.314321,0.55766594,-1.3635385,691
1747533780770,-3.55274145,-3.15700245,0.41367704,-4.00645965,0.8719189700000001,-0.7568704,692
1747533780780,-3.87318865,-3.19714985,0.57878177,-3.50525265,0.6279734,-0.1659149349999999,693
1747533780790,-3.9910684,-3.2127695,0.6240544,-2.60057685,0.0346210849999999,0.980309615,694
1747533780800,-3.8082693,-3.0880564,0.4499195099999999,-1.75928425,-0.41731735,2.20855955,695
1747533780810,-3.645239,-3.018012,0.38927132,-1.5238608,-0.47564057,2.6205506,696
1747533780820,-3.2320502,-2.843999,0.21672285,-1.3736585,-0.19867182,3.0972564,697
1747533780830,-2.73649195,-2.66827785,0.0056133189999999,-1.505485,0.61865234,3.6618465,698
1747533780840,-2.3557626000000003,-2.4886519,-0.133499311,-1.72785895,1.21866255,4.03069435,699
1747533780850,-1.94562435,-2.3286723,-0.226485125,-1.8588865,1.5137408,4.2205777,700
1747533780860,-1.56318665,-2.23666265,-0.2380778399999999,-2.4487766,2.3515712,5.26187375,701
1747533780870,-1.09093585,-2.12171175,-0.24222681,-2.5845978,2.40350285,5.61607405,702
1747533780880,-0.580246075,-1.98235505,-0.252965335,-2.69991265,2.25516475,5.8959723,703
1747533780890,0.143383625,-1.75879855,-0.1647386425,-2.8013792,1.79363895,6.1353905,704
1747533780900,0.80636515,-1.5664815,-0.0274564424999999,-2.8660941,1.3222595,6.308496,705
1747533780910,1.16988845,-1.5041248500000002,0.074559485,-2.8911278,1.1765846,6.366553,706
1747533780920,1.4891153,-1.4808173,0.2148923999999999,-3.058108,0.95927063,6.546849,707
1747533780930,1.6410409,-1.4770344,0.29921418,-3.1206923,0.9305085,6.617955,708
1747533780940,1.995412,-1.6047985,0.6666424,-3.5979306,1.6860474,6.7628315,709
1747533780950,1.9979746,-1.6608096,0.8667693000000001,-3.720436,1.9526298,6.74632,710
1747533780960,1.943916,-1.6866796,0.9862353,-3.8743668,2.4351945,6.7612333,711
1747533780970,1.8443406,-1.7345148,1.189047,-3.8615837,2.8160267,6.8746843,712
1747533780980,1.8255482,-1.811881,1.2700739,-3.7444046,2.9822078,6.929013,713
1747533780990,1.8555672,-1.9024262,1.3313323,-3.5697012,2.974751,6.9268823,714
1747533781000,1.794797,-2.1350129,1.172451,-3.212305,2.6770096,6.618488,715
1747533781010,1.5553769,-2.3213506,0.94913865,-3.0868701,2.08818465,6.60703635,716
1747533781020,1.5202327,-2.399571,0.8583493,-3.0791469,1.8743328,6.6541743,717
1747533781030,1.4999758,-2.5679703,0.6782351,-3.228284,1.5329156,6.8491178,718
1747533781040,1.8275006,-2.96700395,0.529726235,-4.22617035,0.6743124,7.6123799,719
1747533781050,1.8752138,-3.08305325,0.6386978050000001,-4.60567075,0.51505537,7.886153,720
1747533781060,1.8811932,-3.1217363,0.72875494,-4.7739825,0.45167214,8.041149,721
1747533781070,1.9322013,-3.1554163,0.98013395,-4.9129996,0.29188246,8.346347,722
1747533781080,2.0539858,-3.1473622,1.1944162,-4.8570733,-0.0010652645,8.576444,723
1747533781090,2.8854889000000004,-2.93954755,1.6386003,-4.0932786,-1.38697435,8.707471250000001,724
1747533781100,3.05779325,-2.8452195,1.83531045,-3.5406728,-1.8469022,8.629973249999999,725
1747533781110,3.1168551,-2.8015332,1.9263439,-3.2261534,-2.0192087,8.59189,726
1747533781120,3.1117299,-2.6797485,2.0686293,-2.308428,-2.0069582,8.632903,727
1747533781130,3.0812228,-2.5350225,2.105726,-1.5478293,-1.7379789,8.759137,728
1747533781140,3.4894086,-2.1863868,1.4631232,-0.58749332,-1.0460897,8.720255,729
1747533781150,3.6415782,-2.0942552,1.2659249,-0.69109032,-1.10334765,8.4720485,730
1747533781160,3.8597653,-1.8318938,0.99819416,-0.8111989,-1.2149341,8.338358,731
1747533781170,4.23585765,-1.56977615,0.993923165,-1.2349078,-1.7254621,8.174573,732
1747533781180,4.539953000000001,-1.0172306,1.1027727,-1.39842585,-1.6066851,8.0470075,733
1747533781190,4.7819355,-0.324840227,1.080563465,-1.5488944999999998,-0.97977697,7.833155899999999,734
1747533781200,4.925075,0.204764023,0.8563968150000001,-1.87619705,-0.1637844,7.4661724,735
1747533781210,4.975595,0.4720067,0.7246059,-2.1065605,0.27483824,7.218232,736
1747533781220,4.7093287,1.0152781,0.5950116,-2.7451866,0.94808537,6.6413913,737
1747533781230,4.5447120000000005,1.8021188,1.15097405,-3.2234902,1.2277173,6.236591,738
1747533781240,4.75460125,2.3202523,1.3781913,-3.0146985,0.35739622,5.602226,739
1747533781250,5.12288355,3.0206966,1.5381708,-1.76141475,-1.1259845,5.56334385,740
1747533781260,5.3831706,3.405575,1.5709965,-1.2341089,-1.5760587,5.6459017,741
1747533781270,6.4379864,4.242935,1.2207743,-0.08362326,-1.969674,5.503156,742
1747533781280,7.8332615,5.1571736,0.63967407,0.3888215,-1.653823,4.5167212,743
1747533781290,7.9967794,6.0445657,0.010494461,0.10333065,0.33449304,0.62903863,744
1747533781300,7.9967794,5.4972675,0.26870704,-0.14860439,1.0961571,-1.93478655,745
1747533781310,7.9967794,5.164007,0.4271002,-0.15286545,1.1728562,-2.6530411,746
1747533781320,7.482551,4.4149957,0.6653,0.010652645,1.0231866,-3.7593184,747
1747533781330,6.6029687,3.0944018,0.916679,0.23009712,0.7728494,-5.2411013,748
1747533781340,6.41846165,2.1573442,1.1416998,0.589623875,0.86179895,-6.123939050000001,749
1747533781350,6.353664500000001,1.5379268,1.2864257,0.6530071,0.9619338,-6.3931847,750
1747533781360,6.320839,1.2586032,1.3486603,0.80587256,1.1345067,-6.9673624,751
1747533781370,5.636623800000001,0.1419192984999999,1.61724535,1.3752564,1.1536814,-7.968977000000001,752
1747533781380,5.488603,-0.035144243,1.6652026,1.5313177,1.1009508,-8.069378,753
1747533781390,5.1557093,-0.30946457,1.7635576,1.9611518,0.9400959,-8.214254,754
1747533781400,4.8606443,-0.50446635,1.7972375,2.4719462,0.72651035,-8.319182,755
1747533781410,4.567531,-0.66798466,1.8052914,3.0242858,0.48469532,-8.358065,756
1747533781420,4.19424575,-0.73510043,1.71999345,4.2253714,-0.22104238,-8.245147,757
1747533781430,3.564456,-0.8542004,1.5209647,4.57557705,-0.5755091250000001,-8.2174505,758
1747533781440,3.2845223,-0.9005712,1.4267586,4.9257827,-0.92997587,-8.189754,759
1747533781450,2.8256949,-0.96207365,1.16988845,5.2357748,-1.40508385,-8.164719999999999,760
1747533781460,2.6450925,-0.98062205,1.0233321,5.3055496,-1.6218652,-8.131164,761
1747533781470,2.5645535,-0.97378844,0.98403883,5.264537,-1.8423749,-8.168981,762
1747533781480,2.48486885,-1.032850225,0.8828771,5.1497547,-2.11028885,-8.3820335,763
1747533781490,2.3988387,-1.1113147,0.7874506800000001,5.0903664,-2.1774006,-8.470983,764
1747533781500,2.3422174,-1.1524384,0.74510676,4.629106650000001,-2.45010825,-8.728244499999999,765
1747533781510,2.1284232,-1.2676333,0.622346,4.396879,-2.556102,-8.770322,766
1747533781520,2.1071904,-1.2778838,0.5688974,4.0788975,-2.6290727,-8.71333,767
1747533781530,2.1015771,-1.2049106,0.5865916,3.56330965,-2.61016425,-8.6427565,768
1747533781540,2.0896182,-1.172695,0.6040417,3.3907368,-2.576342,-8.619587,769
1747533781550,2.075707,-1.1160738,0.68140787,2.77927495,-2.1371869,-8.353537750000001,770
1747533781560,2.0473962,-1.0855666,0.71045065,2.5017736,-2.02347,-8.282432,771
1747533781570,2.0432472,-1.0382195,0.73436826,2.1869879,-1.7678064,-8.04541,772
1747533781580,2.0327528,-1.0211354,0.7585299,1.9734024,-1.4839134,-7.8344874,773
1747533781590,2.0139604,-0.98892,0.9454777,1.8663434,-0.89162636,-7.35139,774
1747533781600,1.9417195,-0.9437694,1.0455412,2.1260015,-0.908936925,-6.9290128,775
1747533781610,1.956119,-0.9786696,1.0899596,2.2407837,-0.9827065,-6.7915936,776
1747533781620,1.9758875,-1.0328503,1.0902036,2.5081651,-1.3422332,-6.5465827,777
1747533781630,1.9251237,-1.0584763,1.0074683,2.7462518,-1.7422401,-6.326073,778
1747533781640,1.8409238,-1.0645777,0.92082804,2.896454,-2.08419,-6.1034327,779
1747533781650,1.57978255,-1.0345586,0.6823840299999999,2.8253476,-2.2229407,-5.5859804,780
1747533781660,1.4975352,-1.0308977,0.64235866,2.7585022,-2.1278658,-5.4680023,781
1747533781670,1.2626302,-1.0437108,0.638209725,2.5326662,-1.63811045,-5.0189933,782
1747533781680,1.1866064,-1.0431006,0.64040625,2.4580977,-1.4460965,-4.862932,783
1747533781690,0.95694848,-1.1495096,0.6334506,2.1398499,-0.95447695,-4.28981995,784
1747533781700,0.8452923,-1.2186998,0.6654221,2.0812604,-0.94062853,-4.15932515,785
1747533781710,0.75804182,-1.28557155,0.71850455,2.1321268,-1.05248128,-4.11138825,786
1747533781720,0.694831,-1.3230344,0.7387613,2.1907163,-1.1456919,-4.1124535,787
1747533781730,0.31117299,-1.52694415,0.636745365,2.26848065,-1.61227775,-4.17557045,788
1747533781740,-0.19256117,-1.7018112,0.53521757,2.257828,-1.784318,-4.1934137,789
1747533781750,-0.5452239,-1.8157859,0.49006698,1.83518435,-1.5819177,-3.77529715,790
1747533781760,-0.9188756,-1.9575832,0.52033,1.7496969,-1.3113406,-3.6005938,791
1747533781770,-1.3650122,-2.059355,0.4971446,1.5920377,-0.48469532,-3.03121,792
1747533781780,-1.6830188,-2.02701745,0.390735665,1.4721955,0.27324033,-2.221609,793
1747533781790,-1.62993635,-1.97442305,0.1768194844999999,1.2756542,0.529170135,-0.9001485,794
1747533781800,-1.45397105,-1.9225609,-0.0512520255,1.13557195,0.069242195,-0.469249,795
1747533781810,-1.3733101,-1.9004737,-0.13179092,1.0982877,-0.20133498,-0.5368933,796
1747533781820,-1.4057697,-1.9256116,-0.43588626,0.8644621,-0.753142,-0.9033443,797
1747533781830,-1.5834434,-2.1948068,-0.865427,0.22690132,-1.1552793,-1.3246564,798
1747533781840,-2.85107675,-3.0188662,-1.10777585,-2.4351946,-0.75553877,-1.06659603,799
1747533781850,-3.2714654,-3.3345542000000004,-0.8347978,-3.3862095,-0.17496968,-0.2340918649999999,800
1747533781860,-3.432177,-3.475131,-0.6548056,-3.8056574,0.15339808,0.25193503,801
1747533781870,-3.5041742,-3.6330361,-0.25211114,-4.26958,0.74035877,1.257012,802
1747533781880,-3.18689955,-3.6564655,0.12861817,-4.22909975,1.3366406,2.87967615,803
1747533781890,-2.87169955,-3.5543277,0.1137306785,-4.0338901,1.4365091,3.71670765,804
1747533781900,-2.7515013,-3.4988048,0.051496077,-3.98089335,1.3488911,4.17477145,805
1747533781910,-2.4464297,-3.4277842,-0.110801995,-3.981426,1.2857742,4.3963466,806
1747533781920,-1.7885735,-3.2635336,-0.3450969499999999,-4.1364219,1.01226755,4.96679565,807
1747533781930,-1.19075533,-3.0946459500000003,-0.35559141,-4.248541149999999,0.668986065,5.583051,808
1747533781940,-0.80441266,-2.9731054,-0.30873242,-4.2994075,0.41864893,6.020342,809
1747533781950,-0.4471129,-2.8203256,-0.053936653,-3.8498657,0.29188246,6.7772126,810
1747533781960,-0.036608588,-2.5928643,0.16180995,-3.2096417,0.36432046,7.4685693,811
1747533781970,0.211475606,-2.49267875,0.164860665,-2.86689295,0.36831519,7.75991915,812
1747533781980,0.9791577,-2.19139,0.03099527,-1.76194745,-0.1115864499999999,8.51385975,813
1747533781990,2.03336295,-1.6876559,-0.34107001,-1.6293220000000002,-0.66552396,8.572982249999999,814
1747533782000,2.182848,-1.607117,-0.36950266,-1.6996294,-0.87511474,8.536497,815
1747533782010,2.182848,-1.607117,-0.36950266,-1.6996294,-0.87511474,8.536497,816
1747533782020,2.55161855,-1.5207207,-0.147776673,-2.0975057,-1.03623602,8.3868275,817
1747533782030,2.74442375,-1.5384148,0.307390097,-2.5041704,-0.860467375,8.414524,818
1747533782040,2.8317962,-1.5568411,0.5964759,-2.44371665,-0.22849921,8.648349,819
1747533782050,2.9811594,-1.5199885,0.77146494,-2.3744745,0.06657903,8.704808,820
1747533782060,3.0995271,-1.4428664,0.82344913,-2.257828,0.5683186,8.6680565,821
1747533782070,3.201787,-1.3103434,0.7726852,-2.3547671,1.01599595,8.36419,822
1747533782080,3.234979,-1.23615,0.7128912,-2.4341292,1.1275824,8.230765,823
1747533782090,3.0321672,-1.223459,0.68482465,-3.0679617,1.5595472,7.63262,824
1747533782100,2.8876853,-1.2424954,0.71045065,-3.5153728,1.7235979,7.305051,825
1747533782110,2.6961005,-1.2759314,0.7307074,-3.8738341,1.758219,7.079215,826
1747533782120,2.5192809,-1.3545178,0.7454728500000001,-4.200071299999999,1.6575514999999998,6.954579,827
1747533782130,2.1887054,-1.5368285,0.7792748,-4.802212,1.3688648,6.7931914,828
1747533782140,2.059111,-1.6315227,0.8759214,-4.967328,1.1526161,6.7702885,829
1747533782150,2.01737725,-1.6747208,0.92436682,-4.983040750000001,1.0530138999999998,6.76309775,830
1747533782160,1.9756435,-1.7179189,0.97281224,-4.9987535,0.9534117,6.755907,831
1747533782170,1.94647855,-1.7597747,1.09496285,-4.0504018,0.1680454645,6.5212827,832
1747533782180,1.9832092,-1.7085227500000002,1.06640815,-3.62669275,-0.1294296355,6.4299362,833
1747533782190,1.9815009,-1.683507,1.0509106,-3.3987262,-0.28708878,6.4006414,834
1747533782200,2.01249605,-1.5544006,1.0472497,-2.69032535,-0.8487494499999999,6.462426799999999,835
1747533782210,2.2544788,-1.38356055,0.985015075,-2.4538367,-1.0306433,6.4917216,836
1747533782220,2.52245365,-1.1889249,0.871284395,-1.6543556,-1.7038904,6.392652,837
1747533782230,2.5945725,-1.1150976,0.81978834,-1.4141386,-1.8983012,6.228069,838
1747533782240,2.699029,-0.87616557,0.70923036,-1.2980248,-1.758219,6.0560284,839
1747533782250,2.8676727,-0.6936107,0.66920495,-1.2857742,-1.2026836,5.833921,840
1747533782260,3.0638947,-0.51398456,0.6294237,-1.3374395,-0.4878911,5.596367,841
1747533782270,3.1413828,-0.207082573,0.49409392,-1.5464977,-0.06364955,5.34123615,842
1747533782280,3.236443,0.45760733,0.14497001,-2.2295985,0.10546118,4.7841024,843
1747533782290,3.317226,0.8778739,-0.054424766,-2.9332056,-0.4745753,4.5412226,844
1747533782300,3.2854986,1.5060773,0.002928687,-3.7321541,-1.1062771,4.298875,845
1747533782310,3.3020947,2.062528,0.20281157,-4.4895573,-1.5616777,4.085289,846
1747533782320,3.910041,2.7827406,0.7490117,-5.657087,-1.6186694,3.9063249,847
1747533782330,4.356422,3.0167916,1.2337095,-6.026734,-1.2916331,4.0954094,848
1747533782340,4.654904,3.287939,1.7279254,-6.1300645,-1.0679276,4.134291,849
1747533782350,5.2518682,3.611071,2.247035,-5.9500346,-1.0295781,4.0325584,850
1747533782360,7.3078065,4.2697816,2.8369215,-5.380651,-0.59761333,2.163552,851
1747533782370,7.825452,4.1233473,3.3316255,-4.969991,0.11930962,0.44208476,852
1747533782380,7.5123262,3.6593943,4.05672,-4.1353564,0.9006811,-1.1488878,853
1747533782390,7.0037107,3.078294,4.5973067,-2.7723508,1.4524881,-2.3078954,854
1747533782400,6.3584235,2.0838829,4.3364094,-1.1478225,1.6314526,-3.1547806,855
1747533782410,6.102651,1.6539761,3.9639778,2.0325246,1.3315805,-4.6685214,856
1747533782420,6.0147907,1.47557015,3.6349888,2.398443,1.37285955,-4.9926282,857
1747533782430,5.620394,1.0064921,2.7048864,3.0882018,1.5861788,-5.8744006,858
1747533782440,5.2455225,0.759018,2.2636309,3.1782165,1.7896442,-6.2669506,859
1747533782450,4.3721636,0.27798121,1.6065068,3.21550085,2.0631509,-6.775081999999999,860
1747533782460,4.206083,0.2255089,1.5251138,3.2431977,2.0133498,-6.829943,861
1747533782470,3.9390838,0.16449459,1.4523847,3.3779535,1.6500946,-6.90824,862
1747533782480,3.65182865,0.0737052875,1.40454945,3.6554549,1.0450244,-7.0366044,863
1747533782490,3.5756829,0.045882765,1.3901501,4.1550641,0.44448158,-7.2882731,864
1747533782500,3.333822,-0.13667206,1.2988727,4.4022055,0.26045716,-7.4174366,865
1747533782510,3.261825,-0.21769907,1.2215066,4.616856,0.25885928,-7.5841503,866
1747533782520,3.1192956,-0.3109289,1.1102165,4.8102016,0.27377295,-7.7796264,867
1747533782530,2.9216093,-0.48787046,0.9147266,5.00194935,0.168311785,-8.0512685,868
1747533782540,2.7760291500000003,-0.6449212799999999,0.7676821199999999,5.0477557,0.09960223,-8.1285,869
1747533782550,2.6715727,-0.80160603,0.59427942,5.01659675,-0.8231831199999999,-8.534366250000001,870
1747533782560,2.66400695,-0.896666315,0.43015091,4.9438925,-1.0258497,-8.606272,871
1747533782570,2.6702304,-0.93522733,0.34704942,4.6498795,-1.3017532,-8.768724,872
1747533782580,2.6267881,-1.0106411,0.21232979,4.217382,-1.407747,-8.896556,873
1747533782590,2.47974355,-1.17843045,0.18072439,3.2178976,-1.19948785,-8.809470999999998,874
1747533782600,2.4095771,-1.2520137,0.20525214,2.7238812,-1.026915,-8.694156,875
1747533782610,2.3993268,-1.3137602,0.29604146,2.3222766,-0.81226414,-8.542356,876
1747533782620,2.37443305,-1.33108825,0.35400504,2.1771343,-0.69668297,-8.470184,877
1747533782630,2.2758338,-1.3801438,0.50324607,1.8056233,-0.2130529,-8.121576,878
1747533782640,2.2707086,-1.3059504,0.7653635,1.7731327,-0.03888215,-7.864315,879
1747533782650,2.2736373,-1.2712942,0.78684056,2.0309267,-0.123038046,-7.408914,880
1747533782660,2.25997,-1.2507933,0.8454143,2.241849,-0.19760656,-7.1995897,881
1747533782670,2.27998285,-1.2504273,0.8790941999999999,2.3760723,-0.233026605,-7.1061127,882
1747533782680,2.4093332,-1.330112,0.916679,2.8043087,-0.38722363,-6.8832064,883
1747533782690,2.4784014,-1.4362769,0.88055855,3.10205,-0.53316486,-6.7985177,884
1747533782700,2.3603995,-1.4517746,0.58305275,3.54466745,-0.9422264,-6.6786755,885
1747533782710,2.302436,-1.4343245,0.5130083,3.5515916,-1.0546118,-6.676545,886
1747533782720,2.1201253,-1.4091865,0.4166057,3.4402716,-1.180313,-6.6174226,887
1747533782730,1.9204865,-1.3798997,0.37584817,3.2762208,-1.2905679,-6.4847975,888
1747533782740,1.51144645,-1.2383465500000002,0.442719845,2.91989,-1.5792545,-6.14338,889
1747533782750,1.4472595,-1.2195541,0.5235027800000001,2.65330745,-1.6391757500000002,-5.9180768,890
1747533782760,1.4367651,-1.2222387,0.56987363,2.5832663,-1.6218652,-5.8472366,891
1747533782770,1.3823403,-1.240787,0.6552937,2.5379925,-1.5201324,-5.717274,892
1747533782780,1.2754432,-1.3057063,0.72558224,2.5486453,-1.3933659,-5.584649,893
1747533782790,0.92497694,-1.398692,0.9159469,2.8218856,-0.9267801,-5.0339074,894
1747533782800,0.66847277,-1.4487238,0.9445015,3.026949,-0.6737798,-4.6594667,895
1747533782810,0.546688235,-1.5165717,0.9009373,3.0908648000000003,-0.59681443,-4.4879591,896
1747533782820,0.15375607,-1.6632501,0.7128912,3.161705,-0.598146,-4.000601,897
1747533782830,-0.1398448,-1.6576368,0.45248213,2.9795446,-0.9257148,-3.7539918,898
1747533782840,-0.4729829,-1.744277,-0.0021965152,1.9574234,-1.3289174,-3.5127096,899
1747533782850,-0.6789673,-1.8775325,-0.10592084,1.2900352,-1.087635,-3.426423,900
1747533782860,-0.93888825,-2.088398,-0.17084008,0.47564057,-0.4857606,-3.3603768,901
1747533782870,-1.3586667,-2.421536,-0.36510965,-0.21837921,0.049534798,-3.3428,902
1747533782880,-1.6287159999999998,-2.55674375,-0.422829195,-0.9374327,0.4676511,-3.15265,903
1747533782890,-2.953825,-3.2034955,-0.58256465,-2.2445123,1.1792477,-1.9430424,904
1747533782900,-3.3045352,-3.376776,-0.50788313,-2.7206855,1.3177321,-1.0588728,905
1747533782910,-3.4268076,-3.4382787,-0.38390204,-3.035471,1.325189,-0.24501082,906
1747533782920,-3.4436476,-3.4141169,-0.17669745,-3.0924628,1.2474247,0.4293016,907
1747533782930,-3.36286485,-3.3008741500000003,-0.0763899175,-2.60324,0.6415555300000001,1.493234375,908
1747533782940,-3.3052673,-3.2330263,-0.11519502,-2.295645,0.17949706,2.018676,909
1747533782950,-3.1532197,-3.1183195,-0.24112856,-2.1273332,-0.3110572,2.4250746,910
1747533782960,-2.9291751,-2.9670038,-0.32850105,-2.0554278,-0.6396913,2.735599,911
1747533782970,-2.7385664,-2.792747,-0.36730617,-2.056493,-0.783502,2.9619677,912
1747533782980,-2.5169625,-2.5015867,-0.32215557,-2.172607,-0.40266997,3.5196338,913
1747533782990,-2.4654663,-2.38688,-0.25430766,-2.198706,0.056459017,3.9718385,914
1747533783000,-2.2233615,-2.2231176,-0.24491144,-2.1552963500000004,0.7339672150000001,4.7875647,915
1747533783010,-2.1015768,-2.1708894,-0.25723633,-2.13479,0.94808537,5.0568104,916
1747533783020,-1.2886223,-1.8902234,-0.37999713,-2.082592,1.6964337,5.932458,917
1747533783030,-0.8468786,-1.7520871,-0.45711923,-2.1060278,1.8839202,6.108759,918
1747533783040,-0.3790209,-1.615903,-0.5850052,-2.2343922,1.9781961,6.1630874,919
1747533783050,0.04905551,-1.4562895,-0.6975156,-2.4868598,1.9430424,6.155098,920
1747533783060,0.53814626,-1.3657444,-0.7309515,-2.8250813,1.6953684,6.064018,921
1747533783070,1.0511546,-1.253478,-0.5349735,-3.6288233,0.92305166,5.891978,922
1747533783080,1.13718475,-1.26873155,-0.422219035,-3.82083715,0.7803062300000001,5.9210063,923
1747533783090,1.3668426,-1.3818521499999998,0.1170254484999999,-4.428837,0.62051654,6.1732078,924
1747533783100,1.483502,-1.4716652,0.61124135,-4.818191,1.32012895,6.60677,925
1747533783110,1.560014,-1.5265781,0.9445015,-4.923652,1.7406421,6.808105,926
1747533783120,1.59235155,-1.5271882,1.12815465,-4.8048753,1.85515805,6.85044935,927
1747533783130,1.69290305,-1.5124227,1.6512914,-4.2546663,1.9286613,6.9354043,928
1747533783140,1.7125497,-1.5155954,1.7027875,-3.7401435,1.7134778,6.949785,929
1747533783150,1.7791773,-1.5473229,1.7066923,-3.240002,1.4109428,6.947122,930
1747533783160,1.8728954,-1.5624546,1.5500076,-2.8138962,1.1142666,6.923154,931
1747533783170,1.87326145,-1.5605021,1.4887492,-2.2498386,0.7888283,6.8283453,932
1747533783180,1.8577638,-1.5741693,1.3154685,-2.1800637,0.7680557,6.8198233,933
1747533783190,1.8577638,-1.599063,1.1863623,-2.2248049,0.7765778,6.841661,934
1747533783200,1.95026145,-1.6589792,0.90520833,-2.6338663,1.02185495,6.82727985,935
1747533783210,2.004198,-1.6764293,0.8978866,-2.8836708,1.1909657,6.7942567,936
1747533783220,2.02836,-1.6815544,0.93376297,-3.035471,1.3720607,6.7116985,937
1747533783230,2.0159128,-1.6739886,0.9823304,-3.0679617,1.5342471,6.577209,938
1747533783240,1.9487971,-1.7044959,1.0199152,-3.0482543,1.5760587,6.5497785,939
1747533783250,1.8272566,-1.675453,1.03040975,-2.8698225,1.5478293,6.56629,940
1747533783260,1.7850347,-1.6542201,0.9894081,-2.4309335,1.1653993,6.6424565,941
1747533783270,1.7843026,-1.6429933,0.88007045,-2.2572954,0.9241169,6.6493807,942
1747533783280,1.8184706,-1.6268855,0.72777873,-2.1875205,0.7126619,6.6339345,943
1747533783290,1.9300048,-1.6300584,0.5703618,-2.229066,0.5475459,6.593987,944
1747533783300,2.0276275,-1.564651,0.61795294,-2.3073628,0.3222425,6.532202,945
1747533783310,2.0876658,-1.6005274,0.7365648,-2.3254724,-0.10279802,6.5593657,946
1747533783320,2.1789432,-1.6180996,0.9091133,-2.207228,0.090014845,6.661631,947
1747533783330,2.2904773,-1.6024799,1.0601847,-2.0287962,0.5049353,6.795322,948
1747533783340,2.4459417,-1.5585496,1.0687267,-1.8881812,0.9177253,6.9338064,949
1747533783350,3.2034955,-0.91082165,0.716186,-1.9829898,1.3837786,6.8927937,950
1747533783360,3.427052,-0.6962953,0.6257628,-2.2280006,1.3635385,6.5268755,951
1747533783370,3.6977115,-0.38146147,0.53912246,-2.6019084,1.1185277,5.7705374,952
1747533783380,3.6720853,-0.2818861,0.6042857,-3.003513,0.793622,4.9406967,953
1747533783390,2.830088,-0.0776102,0.73510045,-3.4216294,0.64075655,4.4346957,954
1747533783400,2.45973095,0.320935285,1.03358247,-4.352138,0.8362326,5.1233892,955
1747533783410,2.4830384,0.49299565,1.1180263,-4.6386943,0.99069595,5.813148,956
1747533783420,2.9833558,0.91545874,1.2908187,-4.760667,0.90281165,6.218481,957
1747533783430,3.8731883,1.2537221,1.4255384,-4.6845,0.5118596,6.2557654,958
1747533783440,5.8756785,2.5181828,1.3633038,-4.5279064,-1.8173412,4.957208,959
1747533783450,6.2295613,3.1031878,1.5185242,-4.5625277,-3.0929954,4.2855587,960
1747533783460,6.607606,3.5317523,1.7674625,-4.592888,-3.6362803,4.0549293,961
1747533783470,7.2248263,3.9459176,1.9815009,-4.6498795,-2.7872643,3.522297,962
1747533783480,7.9696894,4.327135,2.0739985,-4.7622647,-1.2703278,2.450641,963
1747533783490,7.9967794,3.72114085,2.605067,-4.944425,0.04261058,1.0482203,964
1747533783500,7.9967794,3.4336414,2.8169088,-4.6658583,1.6042882,-1.907356,965
1747533783510,7.9967794,2.7229466,3.3116128,-3.9452069,2.0501015,-3.2858083,966
1747533783520,7.3461227,1.8472692,3.6867287,-2.8943236,2.4346619,-4.5007424,967
1747533783530,6.4794755,1.1334019,3.857813,-0.2868225,2.9015141,-5.66028275,968
1747533783540,4.61548865,0.15107143,3.24120225,1.69510205,2.8522456,-6.01182,969
1747533783550,4.23927425,-0.03758482,2.6432619,2.6389264,2.39817665,-6.15776115,970
1747533783560,4.1072392,-0.12007617,2.3466103,2.9454563,2.1230721,-6.2488413,971
1747533783570,3.7758098,-0.19915071,1.8765563,3.2650356,1.4897723,-6.4485784,972
1747533783580,3.3531024,-0.16229807,1.5805148,3.3864758,0.9033443,-6.516755,973
1747533783590,3.11246205,-0.070654573,1.07592635,3.193663,0.27217507,-6.5007763,974
1747533783600,3.1144145,-0.07590181,1.0052718,2.9071066,0.20026971,-6.634467,975
1747533783610,3.0453465,-0.1330112,1.0001466,2.6003106,0.15925704,-6.8208885,976
1747533783620,2.949432,-0.21989559,1.1224194,2.5031052,0.10839066,-6.91303375,977
1747533783630,2.8342366,-0.366574,1.3696493,2.4889903,-0.11717909,-7.155914,978
1747533783640,2.7898185,-0.65382934,1.7237762,3.3475935,-0.14114754,-7.3726954,979
1747533783650,2.8603508,-0.8075854,1.7315861,4.2458779,-0.136886485,-7.73195565,980
1747533783660,2.9640753,-0.9601213,1.6503152,4.5412226,-0.18429075,-7.879761,981
1747533783670,3.1180754,-1.1863623,1.4745939,5.053082,-0.4495416,-8.245147,982
1747533783680,3.2132578,-1.3833165,1.2759314,5.42033195,-1.165132975,-9.022524,983
1747533783690,3.13101055,-1.6911946,0.6844585999999999,5.23524235,-1.5853798,-9.502425,984
1747533783700,3.1046524,-1.7384197,0.5876899,5.0397663,-1.6729978,-9.612413,985
1747533783710,3.082199,-1.7979698,0.4217309,4.5891595,-1.6570189,-9.65822,986
1747533783720,3.0831752,-1.8084643,0.29262465,4.0586576,-1.5025555,-9.635317,987
1747533783730,3.103676,-1.8282329,0.2169669,2.96489725,-0.984038075,-9.422531,988
1747533783740,3.1196616500000003,-1.91353085,0.239420155,2.437325,-0.70840085,-9.273128,989
1747533783750,3.1546838,-1.9570951,0.25259924,1.9893813,-0.47137952,-9.070194,990
1747533783760,3.179334,-1.9815009,0.30507156,1.6154735,-0.24927188,-8.851282,991
1747533783770,3.18323875,-1.8301853,0.39842346,0.94329165,0.42264365,-8.576177999999999,992
1747533783780,3.1000152,-1.8473914,0.50385619,0.90840425,0.61279335,-8.57990625,993
1747533783790,2.96468535,-1.8938842,0.625884825,1.05487815,0.7568703999999999,-8.56153075,994
1747533783800,2.8813398,-1.9160933,0.68214005,1.1744541,0.8175905,-8.54715,995
1747533783810,2.681701,-1.9395229,0.76926845,1.546764,0.8127968,-8.517322,996
1747533783820,2.2277546,-1.9497733,0.79831123,2.4410534,0.45327002,-8.345282,997
1747533783830,2.0046864,-1.9124327,0.7658516,2.8708878,0.26525086,-8.198276,998
1747533783840,1.7659982,-1.850442,0.65138876,3.213903,0.082025364,-8.016115,999
1747533783850,1.4576319,-1.75440555,0.45174997,3.48501265,-0.216248675,-7.584150299999999,1000
