timestamp,acc_x,acc_y,acc_z,gyro_x,gyro_y,gyro_z,id
1747533323600,-0.21013328,0.17328064,1.0011228,0.12783173,-0.05965481,0.23595607,1
1747533323610,-0.008542004,0.2723679,0.6399181,0.53316486,0.53742594,1.5803198,2
1747533323620,0.95646036,0.43710655,-0.6677406,0.53556171,0.51239221,1.56460715,3
1747533323630,0.9386441,0.42124277,-0.64357895,0.5917544,0.41864893,1.5291871,4
1747533323640,0.921072,0.41074833,-0.65041256,0.6625945,0.36432046,1.5270566,5
1747533323650,0.9752528,0.38194957,-0.7560893,0.70840085,0.23542345,1.4812502,6
1747533323660,0.9850151,0.3790209,-0.8117344,0.6609966,0.18056233,1.4370418,7
1747533323670,0.9775713,0.38036321,-0.8157613699999999,0.6301039500000001,0.1627191499999999,1.4258565,8
1747533323680,0.99477735,0.38670871,-0.8216187349999999,0.4775048149999999,0.2178465849999999,1.3590111,9
1747533323690,1.0448091,0.41172457,-0.81490713,0.35579833,0.2908172,1.303351,10
1747533323700,1.0535952,0.44930938,-0.8019721,0.25992453,0.4261058,1.257012,11
1747533323710,1.1058234,0.4971446,-0.8156393,0.17044231,0.57311225,1.1952267,12
1747533323720,1.1387711,0.51776745,-0.82186278,0.13608753,0.623978645,1.13823505,13
1747533323730,1.21796765,0.574998865,-0.8145410799999999,0.137152795,0.5885586199999999,0.9060074,14
1747533323740,1.3054622,0.65675807,-0.82247293,0.27803403,0.294013,0.5225122,15
1747533323750,1.3467078,0.6882414,-0.85956967,0.36005938,0.05273059,0.2806972,16
1747533323760,1.3737983,0.7058135,-0.9288819,0.36538571,-0.04980111,0.1539307214999999,17
1747533323770,1.3867333,0.74510676,-1.0660421,0.251668735,-0.23755397,-0.2234392185,18
1747533323780,1.38197415,0.74291028,-1.08568875,0.0327568849999999,-0.325704605,-0.593618615,19
1747533323790,1.3313323,0.737541,-1.1138773,-0.27537087,-0.31478566,-0.9177253,20
1747533323800,1.2891104,0.72485006,-1.0977695,-0.47031426,-0.3121225,-1.0780476,21
1747533323810,1.28374115,0.6940988299999999,-1.0577441,-0.56672068,-0.3320962,-1.1699267,22
1747533323820,1.27751765,0.6489482200000001,-0.97866955,-0.7507451,-0.4202468299999999,-1.4058828,23
1747533323830,1.2783718,0.62759319,-0.8941037199999999,-0.8327704499999999,-0.55846488,-1.63012095,24
1747533323840,1.2714162,0.6175868200000001,-0.81612745,-0.8000136,-0.700944,-1.7947042999999998,25
1747533323850,1.1734272,0.5662128,-0.72118914,-0.6306366,-0.9400959,-2.1278658,26
1747533323860,1.1377949,0.5532778,-0.7250941,-0.6306366,-0.9400959,-2.1278658,27
1747533323870,1.1004542,0.54790854,-0.72753465,-0.55766594,-0.94329166,-2.2647521,28
1747533323880,1.08898345,0.5435155,-0.734368275,-0.55127437,-0.93823168,-2.2796659,29
1747533323890,1.0975254,0.5344854,-0.75999427,-0.5566007,-0.88843054,-2.3292007,30
1747533323900,1.138039,0.54888475,-0.77610207,-0.58483016,-0.8069378,-2.372344,31
1747533323910,1.2522577,0.592571,-0.8319912,-0.64714813,-0.6860303,-2.534264,32
1747533323920,1.2996049,0.6125837,-0.85542065,-0.6892261,-0.753142,-2.6498454,33
1747533323930,1.308757,0.6169766999999999,-0.862498325,-0.73343456,-0.8831042,-2.7771444,34
1747533323940,1.3022895,0.61490222,-0.8734809,-0.765392515,-0.95021585,-2.835734,35
1747533323950,1.2639725,0.5876899,-0.85956967,-0.8724516,-1.1302456,-2.9928606,36
1747533323960,1.2049106,0.5625519,-0.81466305,-1.0018812,-1.2058793,-3.1643682,37
1747533323970,1.18526405,0.563650185,-0.792087775,-1.0125339,-1.1906993,-3.1883366000000004,38
1747533323980,1.1487775,0.5549862,-0.74510676,-1.0237192,-1.1142666,-3.251187,39
1747533323990,1.1309613,0.5508372,-0.72094506,-0.99708754,-1.051416,-3.2836776,40
1747533324000,1.0850785,0.528628,-0.6635916,-0.9406285,-1.0333065,-3.3305492,41
1747533324010,1.0770246,0.5132524,-0.6487042,-0.74302197,-1.2069446,-3.4935348,42
1747533324020,1.0550594,0.49934113,-0.6765267,-0.66525763,-1.3203954,-3.6011264,43
1747533324030,0.9823304,0.4978768,-0.7067898,-0.6221144,-1.4146712,-3.6788907,44
1747533324040,0.93376297,0.51349646,-0.7387613,-0.6103965,-1.4375744,-3.6938045,45
1747533324050,0.873725,0.5039782,-0.7770783,-0.73769563,-1.2921658,-3.742274,46
1747533324060,0.8102701,0.4978768,-0.74169,-0.7957525,-1.2144015,-3.7129793,47
1747533324070,0.7829357,0.48787045,-0.7143555,-0.829841,-1.1265172,-3.6639771,48
1747533324080,0.77732235,0.47981656,-0.66847277,-0.83996105,-1.0519487,-3.661314,49
1747533324090,0.67555046,0.46322066,-0.5315567,-0.8127968,-0.9869675,-3.6778255,50
1747533324100,0.63308454,0.4720067,-0.5086153,-0.6737798,-0.96299905,-3.6266928,51
1747533324110,0.6347929,0.46834585,-0.5261874,-0.63915867,-1.0226538,-3.6043222,52
1747533324120,0.6379656499999999,0.478230175,-0.5302143500000001,-0.642887085,-1.0612697,-3.60698545,53
1747533324130,0.64784995,0.5004394,-0.54851865,-0.6732471250000001,-1.0695255499999998,-3.60884975,54
1747533324140,0.65212095,0.520086,-0.60038084,-0.819721,-0.8564726,-3.5856802,55
1747533324150,0.70312893,0.54766446,-0.6389419,-1.0860372,-0.44315,-3.5483959,56
1747533324160,0.72338563,0.53228885,-0.6653,-1.1787151,-0.3552657,-3.6320193,57
1747533324170,0.65114474,0.50617474,-0.60721445,-1.1851068,-0.37816888,-3.701794,58
1747533324180,0.62844742,0.49372783,-0.5870797050000001,-1.1542141,-0.42876894,-3.722034,59
1747533324190,0.515692985,0.44638072,-0.5380241800000001,-1.02638232,-0.62051655,-3.767574,60
1747533324200,0.35485923,0.43661842,-0.5176454,-0.8048073,-0.86179894,-3.7193708,61
1747533324210,0.3482697,0.4527262,-0.6025773,-0.78776306,-0.8873653,-3.645335,62
1747533324220,0.35461518,0.456265025,-0.63515895,-0.850081,-0.8942895,-3.6096487,63
1747533324230,0.3790209,0.471518605,-0.68287215,-0.8993495,-0.88550105,-3.60778435,64
1747533324240,0.3385074,0.48713827,-0.62063754,-1.1313108,-0.6854977,-3.5899413,65
1747533324250,0.40659937,0.4729829,-0.6452874,-1.2016183,-0.61412495,-3.6405413,66
1747533324260,0.3687705,0.4497975,-0.6357691,-1.2618058,-0.67484504,-3.7795582,67
1747533324270,0.319592965,0.433689725,-0.6034315,-1.25647945,-0.748348295,-3.8235004,68
1747533324280,0.16571487,0.34949,-0.49860895,-1.2133362,-0.903344275,-3.87969315,69
1747533324290,-0.0707766,0.27724904,-0.31263736,-0.9395633,-1.0221212,-3.8141794,70
1747533324300,-0.08005078,0.25772443,-0.33045352,-0.8335694,-0.91186637,-3.697533,71
1747533324310,-0.061014313,0.23942018,-0.3968371,-0.81253045,-0.884968435,-3.6775593,72
1747533324320,-0.10909359,0.24625377,-0.39659303,-0.7749798999999999,-0.86206525,-3.6456014,73
1747533324330,-0.113608645,0.23868799,-0.393664345,-0.7387608999999999,-0.88044105,-3.6187034,74
1747533324340,-0.28554696,0.13179092,-0.336799,-0.6514092,-0.9108011,-3.632552,75
1747533324350,-0.38780698,0.11861181,-0.3053156,-0.55074173,-0.8580705,-3.5100465,76
1747533324360,-0.3973252,0.065407336,-0.41636166,-0.52837116,-0.8410263,-3.4285536,77
1747533324370,-0.4351540499999999,0.0521062179999999,-0.42771033,-0.55660066,-0.8463526,-3.41257465,78
1747533324380,-0.5132523499999999,0.0290428105,-0.42551381,-0.6348976,-0.83037364,-3.2900693,79
1747533324390,-0.6577343,-0.071020655,-0.40293851,-0.87298423,-0.6849651,-3.1057785,80
1747533324400,-0.7592621,-0.12764193,-0.29433304,-0.99229383,-0.62744075,-2.9960563,81
1747533324410,-0.85590875,-0.19207305,-0.17987019,-1.0604708,-0.5592638,-2.8495824,82
1747533324420,-0.942305,-0.28164205,-0.061258372,-1.0578076,-0.479369,-2.6759443,83
1747533324430,-0.97683915,-0.3272807599999999,-0.000488116,-0.96619487,-0.4111921,-2.492719,84
1747533324440,-1.2241911,-0.5183776,0.30433938,-0.40053943,-0.37390783,-2.031992,85
1747533324450,-1.2925272,-0.5637722,0.36218095,-0.03568636,-0.3920173,-1.7773937,86
1747533324460,-1.2978964,-0.61624455,0.28725538,0.121173835,-0.37097834,-1.6602146,87
1747533324470,-1.2964321,-0.633572605,0.2097672099999999,0.36645098,-0.32463935,-1.44902595,88
1747533324480,-1.33230855,-0.6482160299999999,0.070288493,0.473510055,-0.28762141,-1.2588763,89
1747533324490,-1.5370725,-0.63064396,-0.118855886,0.43303,-0.26045716,-0.89109373,90
1747533324500,-1.54390615,-0.60465185,-0.0964026125,0.14594123,-0.1304949,-0.1933455,91
1747533324510,-1.5338998,-0.5950116,-0.07565775,0.027696876,-0.03089267,0.17789917,92
1747533324520,-1.4372531,-0.5037342,0.021721095,0.040480047,0.061252706,0.9438243,93
1747533324530,-1.3562261,-0.44686884,0.0019524579,0.10652645,0.08628642,1.2293152,94
1747533324540,-1.2820327,-0.38487828,-0.040269446,0.15339808,0.12942964,1.4807175,95
1747533324550,-1.1990532,-0.3316738,-0.0776102,0.18056233,0.20985709,1.6948358,96
1747533324560,-1.108508,-0.2169669,-0.04905551,0.21891184,0.2806972,1.8764633,97
1747533324570,-1.02516245,-0.19451363,-0.0389271324999999,0.5091964,0.27377295,2.1523669,98
1747533324580,-0.878118,-0.118855886,-0.054424766,0.72011876,0.13901702,2.2343922,99
1747533324590,-0.8395569,-0.06589546,-0.107873306,0.8343683799999999,0.0359526799999999,2.27780175,100
1747533324600,-0.8263778,-0.012690976,-0.22428861,1.0189254,-0.1571265,2.422944,101
1747533324610,-0.8163715,0.04368625,-0.49934113,0.93796533,-0.11930962,2.5699506,102
1747533324620,-0.729975225,0.0804168625,-0.530458415,0.6687197500000001,0.087618,2.7055055,103
1747533324630,-0.58378494,0.16937573,-0.5271637,0.26391927,0.38296257,2.8722193000000003,104
1747533324640,-0.5513253,0.2208718,-0.45516676,-0.053795855,0.5800365,2.9736857,105
1747533324650,-0.53863436,0.2660224,-0.43759465,-0.17257284,0.6844324,3.0668964,106
1747533324660,-0.4611461799999999,0.29823796,-0.4026944649999999,-0.227167645,0.7504788,3.1446607,107
1747533324670,-0.25211114,0.3900035,-0.33142975,-0.230097125,0.7621967,3.18301025,108
1747533324680,-0.21769907,0.4549227,-0.30677995,-0.025566347,0.47297743,3.0376017,109
1747533324690,-0.21086545,0.4795725,-0.2933568,0.14594123,0.17576863,2.932673,110
1747533324700,-0.20940112,0.48567393,-0.30043447,0.3009372,-0.025033714,2.829875,111
1747533324710,-0.26577836,0.532777,-0.39293218,0.49002165,-0.016511599,2.7979171,112
1747533324720,-0.28249627,0.5532777849999999,-0.445892605,0.4599279349999999,0.0532632235,2.83120665,113
1747533324730,-0.29530928,0.614048,-0.6269831,0.22104238,0.3520699,2.9726205,114
1747533324740,-0.24674188,0.6125837,-0.66969305,-0.08042747,0.61838603,3.0642333,115
1747533324750,-0.2203837,0.6467517,-0.55571836,-0.5901565,1.0460896,3.2581112,116
1747533324760,-0.127886,0.63357264,-0.5137405,-0.73343456,1.1259845,3.323625,117
1747533324770,0.0061014313,0.6560259,-0.45199403,-0.79255676,1.0530139,3.281547,118
1747533324780,0.12471326,0.6879974,-0.35119838,-0.7105314,0.8085357,3.1174965,119
1747533324790,0.18401916,0.7165521,-0.23185438,-0.47404268,0.39468047,2.9087045,120
1747533324800,0.08029483,0.6909261,-0.08786061,0.20026971,-0.37124467,2.5816684,121
1747533324810,-0.019036464,0.6653,-0.06028214,0.55074173,-0.51026165,2.5582325,122
1747533324820,-0.119588055,0.694831,-0.08102701,0.84688526,-0.44315,2.6684875,123
1747533324830,-0.10348027,0.7243619,-0.21232979,1.0301107,-0.0974717,2.9364014,124
1747533324840,0.057109397,0.82003236,-0.47786412,0.80374205,0.6492787,3.2415998,125
1747533324850,0.200371,0.85175985,-0.54205114,0.55766594,0.90014845,3.277286,126
1747533324860,0.4412555,0.8759214,-0.6240544,0.2695119,0.9821738,3.1361384,127
1747533324870,0.5197199,0.90252368,-0.62307815,0.145674911,0.92837795,2.9699572,128
1747533324880,0.55803687,0.92692943,-0.59501155,-0.13475595,0.624245,2.4309335,129
1747533324890,0.11031388,0.72485006,-0.37828872,-0.20612867,0.29294774,2.1960428,130
1747533324900,0.01708401,0.729853215,-0.32361991,-0.19707392,0.1579254625,2.1736722,131
1747533324910,-0.07614586,0.73485637,-0.2689511,0.03195793,-0.06498113,2.7100327,132
1747533324920,0.00622346,0.760970505,-0.272123835,0.05592638,0.113716975,2.85544135,133
1747533324930,0.31703037,0.82393724,-0.32630453,0.0761664099999999,0.53849119,3.0746195,134
1747533324940,0.6130718,0.9283937,-0.34753752,0.04314321,1.2218584,3.0929954,135
1747533324950,0.7721971,0.9476743,-0.34949,0.10333065,1.0855045,2.8618329,136
1747533324960,0.79489446,0.97037166,-0.3436326,0.2082592,0.79735047,2.5507758,137
1747533324970,0.68994987,0.94206095,-0.31434575,0.2777677,0.615456555,2.4096283,138
1747533324980,0.5276518,0.8551766,-0.2706595,0.51718587,0.11717909,2.0948424,139
1747533324990,0.27480847,0.716308,-0.28383857,0.8692558,-0.1768339,2.1054952,140
1747533325000,0.23307467,0.68482465,-0.38048524,0.8745821,-0.094808534,2.2365227,141
1747533325010,0.22990192,0.6901939,-0.49079913,0.7488809,0.104928546,2.4133565,142
1747533325020,0.28261828,0.71215904,-0.5940353,0.49534798,0.41758367,2.6029737,143
1747533325030,0.40196228,0.7268025,-0.6118515,0.20772657,0.77870834,2.7537086,144
1747533325040,0.6984919,0.7307074,-0.45370242,-0.053795855,1.1334413,2.7744813,145
1747533325050,0.82759815,0.7399816,-0.37023485,0.027164243,1.0125339,2.5566347,146
1747533325060,0.8605459,0.73729694,-0.27090356,0.3435478,0.5342301,2.1800637,147
1747533325070,0.80709733,0.73412422,-0.25247722,0.51798485,0.2881540235,2.0599551,148
1747533325080,0.67335393,0.7187486000000001,-0.26809687,0.82504735,-0.1491370265,1.89590435,149
1747533325090,0.49860895,0.6977597,-0.4502856,1.0205233,-0.47830373,1.9318571,150
1747533325100,0.503856175,0.7104506500000001,-0.5363158,0.94196005,-0.405066805,2.01494775,151
1747533325110,0.73778504,0.8085616,-0.77317333,0.12516858,0.4362258,2.2903185,152
1747533325120,0.7774443200000001,0.8029483,-0.728754935,-0.22104238,0.82611257,2.283927,153
1747533325130,0.818568,0.77634615,-0.49031103,-0.098803275,0.8202536,2.144111,154
1747533325140,0.78757274,0.70288485,-0.22062775,0.14434333,0.6311692,2.060754,155
1747533325150,0.80343646,0.70190865,-0.22624107,0.49801114,0.30679616,1.9547603,156
1747533325160,0.78464407,0.7246059,-0.3355787,0.75793564,0.04527374,1.8732675,157
1747533325170,0.7807391,0.7499879,-0.5112999,0.8111989,-0.06977482,1.865278,158
1747533325180,0.81344277,0.7900133,-0.6765267,0.67484504,-0.02130529,1.8951055,159
1747533325190,0.9066727,0.8156393,-0.76975656,0.12250541,0.31638354,1.8572886,160
1747533325200,0.8960562000000001,0.8075854,-0.7200909,-0.07456851,0.44847634,1.8178738,161
1747533325210,0.8606679,0.78183735,-0.61624452,-0.11025487,0.4767058199999999,1.8058896,162
1747533325220,0.82808627,0.74071373,-0.515937,-0.115581195,0.49002162,1.78351905,163
1747533325230,0.8090498,0.681896,-0.40147418,0.053795855,0.39041942,1.7406421,164
1747533325240,0.788670975,0.63235232,-0.4181921,0.36272255,0.10226539,1.6421051,165
1747533325250,0.77781045,0.62259,-0.43979117,0.43995422,0.002130529,1.6064188,166
1747533325260,0.74169,0.609655,-0.49470404,0.43729106,-0.018109497,1.6357136,167
1747533325270,0.7314396,0.57988006,-0.54156303,0.25726137,0.070307456,1.659682,168
1747533325280,0.7426662,0.54986095,-0.503002,0.17576863,0.1635181,1.6820526,169
1747533325290,0.77854264,0.520086,-0.4544346,0.14327806,0.23382555,1.6841831,170
1747533325300,0.83736044,0.49641246,-0.41977844,0.19068234,0.2806972,1.6181368,171
1747533325310,0.8463905,0.4527262,-0.44223174,0.29561087,0.25992453,1.5414376,172
1747533325320,0.81930015,0.441011465,-0.45565487,0.397876285,0.1440770195,1.5078818,173
1747533325330,0.78562027,0.428320495,-0.4745693199999999,0.5954828,-0.13209279,1.4860439,174
1747533325340,0.77756643,0.4195344,-0.50666285,0.6535397,-0.21731395,1.5180018,175
1747533325350,0.787206665,0.41782599,-0.516303125,0.6679208,-0.21784659,1.5579493,176
1747533325360,0.83882475,0.40489095,-0.5757311,0.6103965,-0.118776985,1.603223,177
1747533325370,0.860911925,0.399521705,-0.5740226500000001,0.35899413,0.21678132,1.6884441,178
1747533325380,0.90398802,0.39268813,-0.5852492499999999,0.24714136,0.3291667,1.6836505,179
1747533325390,0.93888825,0.39659303,-0.6279593,0.12996227,0.37710363,1.6682042,180
1747533325400,0.9442575,0.38853914,-0.63162017,0.029827405,0.3797668,1.6516925,181
1747533325410,0.9725681,0.38316986,-0.5444917,0.008522116,0.24927188,1.603223,182
1747533325420,0.98721155,0.38316986,-0.513008335,0.048735848,0.182426535,1.5795209,183
1747533325430,1.00734625,0.38597654,-0.464196905,0.15286545,0.0391484675,1.53211665,184
1747533325440,1.0135698,0.38658667,-0.46444094,0.3270362,-0.14114754,1.4663365,185
1747533325450,1.0211354,0.40708748,-0.614048,0.23915187,-0.05273059,1.4050838,186
1747533325460,1.0243083,0.41855815,-0.6653,0.076166406,0.103863284,1.3752564,187
1747533325470,1.01417995,0.420510605,-0.67420813,-0.020772657,0.186154967,1.36433745,188
1747533325480,0.993679125,0.41758193,-0.6643238300000001,-0.28229508,0.39361522,1.3443637,189
1747533325490,0.97549677,0.4002539,-0.5418071,-0.33449304,0.43010053,1.3432984499999998,190
1747533325500,1.001855,0.38951537,-0.469078,-0.40852892,0.44315,1.2708606,191
1747533325510,1.0250404,0.38585448,-0.4373506,-0.3334278,0.35100463,1.2042814,192
1747533325520,1.0143019,0.38878322,-0.41636166,-0.2247708,0.21571605,1.1318434,193
1747533325530,0.99245875,0.38646466,-0.40855183,-0.1451422849999999,0.1017327545,1.10734235,194
1747533325540,0.94035256,0.38390204,-0.40903994,0.05273059,-0.21198763,1.077515,195
1747533325550,0.9706156,0.39366436,-0.43661842,0.19228023,-0.39148468,1.045557,196
1747533325560,0.9757409,0.38975942,-0.45052966,0.19973709,-0.3435478,1.0215886,197
1747533325570,0.9715919,0.3863426,-0.4588276,0.16298546,-0.22530343,1.0141318,198
1747533325580,0.9652464,0.3824377,-0.454800675,0.13369069,-0.149137022,1.0151970499999998,199
1747533325590,0.9864794,0.36462155,-0.42905265,0.058589544,0.080960095,1.0130665,200
1747533325600,0.98403883,0.353883025,-0.43722856,0.034088462,0.2253034275,0.99256015,201
1747533325610,0.98159826,0.3431445,-0.44540447,0.00958738,0.36964676,0.9720538,202
1747533325620,0.97574091,0.3148338499999999,-0.498364885,-0.038615836,0.451405825,0.98616855,203
1747533325630,1.0440769,0.29506522,-0.53643787,-0.050600063,0.34674358,0.92305166,204
1747533325640,1.1148535,0.33142975,-0.5535218,-0.010652645,0.16458336,0.819721,205
1747533325650,1.138527,0.34656128,-0.58305275,0.017576864,-0.12037488,0.5747102,206
1747533325660,1.1294969,0.37096703,-0.601113,-0.027696876,-0.17257284,0.46978164,207
1747533325670,1.13572035,0.3848782899999999,-0.613804,-0.071905353,-0.1717738899999999,0.4239752599999999,208
1747533325680,1.1550009,0.41929036,-0.6410164,-0.17417074,-0.1392833249999999,0.32916671,209
1747533325690,1.2556745,0.5422952,-0.690438,-0.5784386,0.2657835,0.05752428,210
1747533325700,1.3196175,0.5723142,-0.6901939,-0.7190535,0.42184472,-0.08628642,211
1747533325710,1.3564702,0.59110665,-0.6804316,-0.8245147,0.4958806,-0.26205507,212
1747533325720,1.3680629,0.584883225,-0.6624934,-0.8495484,0.47404268,-0.363787815,213
1747533325730,1.3768489499999998,0.5681653149999999,-0.6275932,-0.86872315,0.30146983,-0.6785734,214
1747533325740,1.3140042,0.54107493,-0.49201941,-0.6828345,-0.17896444,-1.1100056,215
1747533325750,1.258115,0.5405868,-0.44101146,-0.51771855,-0.42983422,-1.2554141,216
1747533325760,1.2460342,0.5399766699999999,-0.43783872,-0.4420847599999999,-0.52038171,-1.31213945,217
1747533325770,1.2266317,0.5430273999999999,-0.45248214,-0.3190467099999999,-0.64501765,-1.43091645,218
1747533325780,1.2141849,0.5706058,-0.5447358,-0.31372038,-0.60933125,-1.5739282,219
1747533325790,1.2268758,0.605506,-0.6450433,-0.6402239,-0.3153183,-1.6879115,220
1747533325800,1.2898425,0.6135599,-0.6282034,-0.80587256,-0.17257284,-1.7710022,221
1747533325810,1.3193735,0.6411384,-0.52911615,-0.87138635,-0.11771172,-1.892975,222
1747533325820,1.3508569,0.6496804,-0.44613665,-0.83996105,-0.14594123,-2.0314593,223
1747533325830,1.3872215,0.6540734,-0.38170552,-0.727043,-0.2514024,-2.191249,224
1747533325840,1.3933228,0.65797836,-0.40196228,-0.5699165,-0.3834952,-2.356365,225
1747533325850,1.3798997,0.65285313,-0.47981656,-0.34514567,-0.6945524,-2.7244139,226
1747533325860,1.3293798,0.65895456,-0.53228885,-0.3472762,-0.7504788,-2.8405278,227
1747533325870,1.3293798,0.65895456,-0.53228885,-0.3472762,-0.7504788,-2.8405278,228
1747533325880,1.3293798,0.65895456,-0.53228885,-0.3472762,-0.7504788,-2.8405278,229
1747533325890,1.3818521,0.690682,-0.49690056,-0.55606806,-0.5028048,-3.106311,230
1747533325900,1.4123594,0.7124031,-0.447601,-0.48629323,-0.4857606,-3.2144356,231
1747533325910,1.4560456,0.69239044,-0.42783237,-0.37444046,-0.5251754,-3.3529198,232
1747533325920,1.4678823,0.68531277,-0.449553445,-0.26205507,-0.5997439,-3.52496,233
1747533325930,1.4228537,0.66017485,-0.51788944,-0.16405073,-0.7392935,-3.7278929,234
1747533325940,1.34146065,0.6249085999999999,-0.55657252,-0.17310548,-0.89109373,-3.87703,235
1747533325950,1.2180897,0.56816524,-0.5872018,-0.21358553,-0.8772453,-3.9095206,236
1747533325960,1.1695224,0.55010504,-0.5427833,-0.2247708,-0.84848315,-3.942011,237
1747533325970,1.13450015,0.5363158,-0.508371225,-0.20612867,-0.8322378749999999,-3.948669,238
1747533325980,0.9828185,0.49909708,-0.42148685,0.0063915867,-0.7685883,-3.9169774,239
1747533325990,0.9515792,0.50715095,-0.47737598,0.0777643,-0.74941355,-3.8743668,240
1747533326000,0.9808661,0.52960426,-0.5757311,0.06764429,-0.7456851,-3.84667,241
1747533326010,1.0040516,0.56743306,-0.6972716,-0.06764429,-0.7888283,-3.850931,242
1747533326020,1.018451,0.58939826,-0.7455949,-0.212520255,-0.88177263,-3.8780953,243
1747533326030,1.0626253,0.5835409,-0.6999562,-0.4282363,-1.067395,-3.965447,244
1747533326040,1.0501783,0.5806122,-0.6469958,-0.43249738,-1.1526161,-4.0703754,245
1747533326050,0.9469421,0.5637722,-0.6321083,-0.42770368,-1.2128036,-4.164119,246
1747533326060,0.8329674,0.5508372,-0.66798466,-0.48522797,-1.1648667,-4.175304,247
1747533326070,0.74766937,0.51386254,-0.6726217800000001,-0.634631285,-0.98297278,-4.099137499999999,248
1747533326080,0.635281,0.48347743,-0.65138882,-0.90920323,-0.6402239,-3.9100533,249
1747533326090,0.60855675,0.49873099,-0.58646957,-0.91825798,-0.6098638999999999,-3.8738343,250
1747533326100,0.6108753,0.5015376,-0.50837123,-0.912399,-0.53529537,-3.8013961,251
1747533326110,0.7250941,0.54815257,-0.5188657,-0.8591358,-0.46232477,-3.840811,252
1747533326120,0.72485,0.555230235,-0.52752975,-0.8689895000000001,-0.460194245,-3.89727,253
1747533326130,0.6937327,0.56487048,-0.5147167500000001,-0.88603372,-0.45327003,-3.9878175,254
1747533326140,0.61819696,0.5730464,-0.464685,-0.8878979,-0.40053943,-4.0155144,255
1747533326150,0.62063754,0.52496713,-0.38219365,-0.82877576,-0.31798145,-4.1662493,256
1747533326160,0.54864067,0.47273886,-0.29921418,-0.7057377,-0.38402784,-4.273841,257
1747533326170,0.45394647,0.41074833,-0.28359452,-0.57577544,-0.4910869,-4.355334,258
1747533326180,0.34778157,0.37316352,-0.31947094,-0.47830373,-0.57311225,-4.391553,259
1747533326190,0.20403185,0.33826336,-0.35412705,-0.4165184,-0.6130597,-4.343616,260
1747533326200,0.10665302,0.3590082,-0.375116,-0.23595607,-0.5075985,-4.042146,261
1747533326210,0.12422514,0.36803833,-0.49201941,-0.2130529,-0.4250405,-3.9670448,262
1747533326220,0.0928637834999999,0.368160365,-0.535949735,-0.3009372,-0.36964676,-3.9409459,263
1747533326230,0.0557670814999999,0.355469385,-0.59452346,-0.36938044,-0.35633096,-3.9201732,264
1747533326240,0.03734076,0.3226437,-0.5933032,-0.6087986,-0.31638354,-3.8823564,265
1747533326250,0.0019524579,0.29433304,-0.4737151,-0.7057377,-0.35313517,-3.8962047,266
1747533326260,-0.03172744,0.28627914,-0.44027928,-0.8186557,-0.5363607,-3.94787,267
1747533326270,-0.05296042,0.27163571,-0.42563583,-0.86579365,-0.54887755,-3.9497342,268
1747533326280,-0.13398743,0.2403964,-0.34704942,-1.0167949,-0.5134575,-3.9169774,269
1747533326290,-0.13911264,0.2111095,-0.27871338,-1.0780476,-0.3850931,-3.8674426,270
1747533326300,-0.33484653,0.10201593,-0.10714114,-0.9187906,-0.17204021,-3.7763624,271
1747533326310,-0.3830478499999999,0.0934739275,-0.089202927,-0.8040083499999999,-0.177366535,-3.6970002,272
1747533326320,-0.4687119549999999,0.0626006855,-0.092741754,-0.60933125,-0.1850897,-3.54733055,273
1747533326330,-0.55815893,-0.0102504045,-0.18231077,-0.42876893,-0.19121496,-3.3449304,274
1747533326340,-0.5937913,-0.032215554,-0.22892569,-0.36911413,-0.21571605,-3.220827,275
1747533326350,-0.6242984,-0.038561042,-0.33655494,-0.42024684,-0.23542345,-3.0349383,276
1747533326360,-0.6294237,-0.05906185,-0.40440285,-0.54807854,-0.19760656,-2.99073,277
1747533326370,-0.6718896,-0.07614586,-0.400742,-0.70840085,-0.1438107,-2.9518478,278
1747533326380,-0.74583894,-0.110557936,-0.37682438,-0.87351686,-0.084155895,-2.882073,279
1747533326390,-0.92937,-0.20696054,-0.23819989,-1.0727214,0.17949706,-2.5901904,280
1747533326400,-1.040416,-0.28213018,-0.17108414,-1.0162623,0.30146983,-2.4250746,281
1747533326410,-1.1643971,-0.34338856,-0.14863087,-0.92038846,0.33449304,-2.2311964,282
1747533326420,-1.2827649,-0.41416514,-0.15692882,-0.82185155,0.30200246,-1.9909793,283
1747533326430,-1.3647681,-0.4978768,-0.17620933,-0.73343456,0.24660872,-1.7278589,284
1747533326440,-1.4928981,-0.63406074,-0.16522676,-0.60080916,0.1438107,-1.1914983,285
1747533326450,-1.5507398,-0.6772589,-0.10689708,-0.50173956,0.06018744,-0.9038769,286
1747533326460,-1.530727,-0.71777236,-0.06711575,-0.37710363,-0.029294772,-0.6306366,287
1747533326470,-1.5288966,-0.7259483,-0.0564992575,-0.302268795,-0.046871636,-0.507598535,288
1747533326480,-1.5863721,-0.7219213,-0.00097622897,0.010652645,-0.08948222,-0.007456851,289
1747533326490,-1.6346955,-0.647972,-0.037584815,0.39894155,-0.17204021,0.75101143,290
1747533326500,-1.5707525,-0.59086263,-0.09396204,0.5289038,-0.18588865,1.1291803,291
1747533326510,-1.4772785,-0.5171573,-0.14497001,0.6087986,-0.17576863,1.468467,292
1747533326520,-1.3518331,-0.4373506,-0.19817449,0.6508766,-0.1454086,1.7747306,293
1747533326530,-1.1966126,-0.37169918,-0.23722363,0.6609966,-0.1123854,2.0096214,294
1747533326540,-0.9554841,-0.18353106,-0.28871974,0.63702816,-0.0628506,2.2764702,295
1747533326550,-0.8891005,-0.105676785,-0.3128814,0.5965481,-0.08468852,2.3963125,296
1747533326560,-0.8361401,-0.03099527,-0.33411437,0.5581986,-0.09321064,2.4948494,297
1747533326570,-0.8086837,-0.0013423149999999,-0.338751465,0.5382249,-0.087351685,2.5435853,298
1747533326580,-0.7370529,0.09542638,-0.340948,0.49481535,-0.05486112,2.6972497,299
1747533326590,-0.5962319,0.22624107,-0.33069757,0.479369,-0.019707393,2.8479846,300
1747533326600,-0.51642513,0.27187976,-0.32850105,0.4543353,0.009054748,2.8410604,301
1747533326610,-0.493117665,0.28627914,-0.320325125,0.43995422,0.025033715,2.8221519,302
1747533326620,-0.452116065,0.31129501,-0.29750577,0.42104577,0.0508663785,2.7782097,303
1747533326630,-0.43368974,0.3653537,-0.24845028,0.44794372,0.046339005,2.7153592,304
1747533326640,-0.39366436,0.42807645,-0.19109683,0.551807,-0.04261058,2.664759,305
1747533326650,-0.41026023,0.48128092,-0.23502712,0.7749799,-0.22903186,2.5965822,306
1747533326660,-0.3900035,0.53106856,-0.33582276,0.7752462,-0.2079928899999999,2.61096325,307
1747533326670,-0.373163535,0.55437603,-0.39305418,0.717189275,-0.1187769915,2.6354643,308
1747533326680,-0.3577879,0.61892915,-0.5091034,0.45912898,0.123038046,2.6658244,309
1747533326690,-0.36096066,0.592571,-0.21062139,0.36964676,0.2892193,2.7116306,310
1747533326700,-0.35315084,0.5605995,-0.078830495,0.5635249,0.2647182,2.7292075,311
1747533326710,-0.32618251,0.55779285,-0.04014741925,0.7552725,0.19760655,2.7217506,312
1747533326720,-0.2208718,0.5781716,-0.056133166,1.2431636,0.03355583,2.654639,313
1747533326730,-0.22526483,0.6577343,-0.3802412,1.3305153,0.07456851,2.553439,314
1747533326740,-0.24747404,0.7241178,-0.5547421,1.0860372,0.34248254,2.6407907,315
1747533326750,-0.19915071,0.7609705,-0.6723777,0.7089335,0.7030745,2.7718182,316
1747533326760,-0.00024405724,0.8053889,-0.49958518,0.3568636,1.0029465,2.8549087,317
1747533326770,-0.00024405724,0.8053889,-0.49958518,0.3568636,1.0029465,2.8549087,318
1747533326780,0.07590180138,0.774515675,-0.296285495,0.2583266349999999,1.06846025,2.84532135,319
1747533326790,0.16083373,0.7487676,-0.04515059,1.1552793,0.19813919,2.2301311,320
1747533326800,0.04148973,0.7224094,-0.12666571,1.5675366,-0.19014971,2.0229373,321
1747533326810,-0.25381953,0.7185045,-0.5349735,1.6644757,-0.32330775,2.1140172,322
1747533326820,-0.25381953,0.7185045,-0.5349735,1.6644757,-0.32330775,2.1140172,323
1747533326830,-0.17401282,0.75194037,-0.77732235,0.92092115,0.42344263,2.5161545,324
1747533326840,-0.10543273,0.7563334,-0.70117646,0.5278385,0.783502,2.646117,325
1747533326850,-0.06809197,0.7507201,-0.5427833,0.29348037,1.0183928,2.7244139,326
1747533326860,0.3099527,0.707766,-0.36291313,0.3121225,0.93157375,2.449043,327
1747533326870,0.322033535,0.71691817,-0.364743565,0.46978164,0.69987875,2.118811,328
1747533326880,0.238687985,0.72082307,-0.39061362,0.53023537,0.557665945,2.03199195,329
1747533326890,-0.031483386,0.7158199,-0.5227706,0.60240704,0.19707392,2.0122845,330
1747533326900,-0.057109397,0.7721971,-0.6897058,0.46232477,0.17789917,2.2077606,331
1747533326910,0.2626056,0.90081537,-0.81246656,-0.13209279,0.69721556,2.4511735,332
1747533326920,0.29628549,0.917411235,-0.78708461,-0.2790992949999999,0.8631305300000001,2.459962,333
1747533326930,0.33008742,0.93498335,-0.69312258,-0.60560286,1.2548815,2.4772725,334
1747533326940,0.315077915,0.918387485,-0.521550325,-0.5912217799999999,1.2868394,2.48393035,335
1747533326950,0.38658667,0.8617661,-0.24771811,-0.267914,1.1403656,2.4090955,336
1747533326960,0.4319813249999999,0.8457803500000001,-0.25906677,0.07590009,0.85567367,2.19817315,337
1747533326970,0.42954075,0.8152732,-0.3231317999999999,0.53449644,0.42264367,1.89617075,338
1747533326980,0.324962225,0.7834237500000001,-0.420266585,0.70041138,0.17283916,1.7630127,339
1747533326990,0.17376876,0.7477914,-0.54717636,0.74728304,0.056459017,1.7560885,340
1747533327000,0.19085276,0.7226535,-0.6028214,0.6599313,0.23222765,1.9845877,341
1747533327010,0.21232979,0.7246059,-0.58183247,0.4000068,0.78936094,2.0873857,342
1747533327020,0.21550256,0.72777873,-0.5435155,0.34088463,0.968858,2.218946,343
1747533327030,0.27358818,0.72655845,-0.49348375,0.386691,0.9576728,2.299906,344
1747533327040,0.4002539,0.74461865,-0.5047104,0.4745753,0.8527442,2.2743397,345
1747533327050,0.6113634,0.81149036,-0.65065664,0.5502091,0.46711847,1.9259981,346
1747533327060,0.54766446,0.82393724,-0.68458056,0.51771855,0.28336033,1.7667412,347
1747533327070,0.49360579,0.8094158499999999,-0.68592288,0.488423765,0.215183415,1.7411748,348
1747533327080,0.41282284,0.78781678,-0.6727438,0.43942158,0.13102753,1.7387779,349
1747533327090,0.3880510299999999,0.7831797,-0.6313761,0.43089947,0.2380866099999999,1.86234855,350
1747533327100,0.52033,0.8261338,-0.61819696,0.44581318,0.56245965,2.040514,351
1747533327110,0.55059314,0.8690878,-0.6582224,0.39947417,0.65513766,2.0762005,352
1747533327120,0.57524294,0.88055855,-0.6984919,0.354999375,0.66818713,2.08738575,353
1747533327130,0.6648119,0.88055855,-0.7402256,0.17896444,0.6508766,2.0474384,354
1747533327140,0.7412019,0.9005712,-0.6965394,-0.10546118,0.5219796,1.6916399,355
1747533327150,0.6452874,0.85444444,-0.59916055,-0.16245283,0.44687843,1.568602,356
1747533327160,0.58305275,0.7919658,-0.48835856,-0.11824436,0.37337518,1.5254587,357
1747533327170,0.5773174249999999,0.7839119000000001,-0.45394648,-0.0391484715,0.32543829,1.52013235,358
1747533327180,0.56767714,0.7695125,-0.42246306,0.2806972,0.11451593,1.4839134,359
1747533327190,0.51496077,0.7512082,-0.48518583,0.53476274,-0.02396845,1.4780544,360
1747533327200,0.49812084,0.72704655,-0.54205114,0.5496765,0.046339005,1.5291871,361
1747533327210,0.47762007,0.7128912,-0.5703618,0.49801114,0.13156016,1.5797871,362
1747533327220,0.480304685,0.7004443,-0.580490175,0.460726885,0.172572845,1.59896195,363
1747533327230,0.54107493,0.6635916,-0.6289356,0.31798145,0.26525086,1.6202673,364
1747533327240,0.5541319849999999,0.657612225,-0.640772325,0.187752865,0.30067089,1.5912388000000002,365
1747533327250,0.5637722,0.630888,-0.6465077,-0.06977482,0.3552657,1.5584819,366
1747533327260,0.5537659,0.6203935,-0.6028214,-0.17044231,0.3685815,1.5792545,367
1747533327270,0.559867325,0.6072144,-0.57951393,-0.18588865,0.3616573,1.5899072,368
1747533327280,0.5703618,0.57451075,-0.51666915,-0.14434333,0.3520699,1.609082,369
1747533327290,0.6113634,0.55571836,-0.41123646,0.13954964,0.26684874,1.6788567,370
1747533327300,0.65944266,0.56474847,-0.43051702,0.3158509,0.17630127,1.700162,371
1747533327310,0.7124031,0.5715821,-0.49885303,0.3715109749999999,0.13981596,1.6977652,372
1747533327320,0.7298532,0.5808562749999999,-0.54510188,0.43143211,0.095607482,1.6903084000000002,373
1747533327330,0.80368054,0.5981843,-0.6772589,0.33822146,0.103863284,1.6484967,374
1747533327340,0.8061211,0.58036816,-0.76463133,-0.11824436,0.23009712,1.5483619,375
1747533327350,0.789037075,0.56633483,-0.7465711150000001,-0.21358553,0.257793995,1.5464977,376
1747533327360,0.7743936,0.51618105,-0.6677406,-0.44048685,0.31318775,1.5419703,377
1747533327370,0.78586435,0.4825012,-0.58232063,-0.457531075,0.3294330399999999,1.53238295,378
1747533327380,0.76975656,0.45370242,-0.4842096,-0.44315001,0.3518036,1.5137408,379
1747533327390,0.6882414,0.39927766,-0.33020946,-0.050600063,0.22583607,1.5456988,380
1747533327400,0.6850687,0.3841461,-0.32069123,0.18269286,0.10066749,1.582983,381
1747533327410,0.6971495299999999,0.37584816,-0.350100115,0.27403928,0.0543284865,1.5944346,382
1747533327420,0.73473433,0.36681806,-0.4195344,0.41225734,-0.0186421285,1.60881565,383
1747533327430,0.79855532,0.367062115,-0.5102016500000001,0.438888955,-0.033289515,1.5880429500000002,384
1747533327440,0.82149667,0.3785328,-0.6958072,0.09321064,0.06391586,1.4748586,385
1747533327450,0.808927735,0.3710890599999999,-0.6948309749999999,0.0034621099999999,0.08815063,1.4812502,386
1747533327460,0.76804817,0.34582913,-0.6445552,-0.2231729,0.19121496,1.532383,387
1747533327470,0.754625035,0.3385074,-0.6101431500000001,-0.2617887399999999,0.2277002699999999,1.5749935000000002,388
1747533327480,0.750232,0.31532198,-0.48616204,-0.30040458,0.2852245599999999,1.6650083,389
1747533327490,0.87030816,0.3397277,-0.3692586,-0.04261058,0.2796319,1.7768611,390
1747533327500,0.971836,0.353883,-0.38536638,0.09321064,0.21997711,1.7049558,391
1747533327510,0.9791577,0.36608586,-0.38878319,0.1632517799999999,0.179497065,1.6612799,392
1747533327520,0.9664667,0.38439016,-0.401474165,0.3568636,0.029294772,1.5755261,393
1747533327530,0.9313224,0.39878955,-0.44003522,0.43729106,-0.058056913,1.5648735,394
1747533327540,1.0474937,0.43808278,-0.53936654,0.44368264,-0.024501082,1.4658039,395
1747533327550,1.0333383,0.456143,-0.5527897,0.39095205,0.05219796,1.4040185,396
1747533327560,1.03370445,0.46029197,-0.51679125,0.3688478149999999,0.0793622049999999,1.3821806,397
1747533327570,1.0582323,0.48665017,-0.43954712,0.39095205,0.095873805,1.3283847999999998,398
1747533327580,1.1011863,0.49348375,-0.4368625,0.5203817,0.034621093,1.222391,399
1747533327590,1.150974,0.5125202,-0.46956614,0.57577544,-0.022370555,1.117995,400
1747533327600,1.1573195,0.53643787,-0.49006698,0.6002765,-0.06178534,1.0088054,401
1747533327610,1.189779,0.55693865,-0.4915313,0.59867865,-0.053263225,0.89109373,402
1747533327620,1.1431642,0.57402265,-0.4825012,0.664725,-0.009054748,0.64714813,403
1747533327630,1.1263242,0.576219175,-0.49177535,0.6910902999999999,-0.016777915,0.601608095,404
1747533327640,1.1224194,0.56865335,-0.55108124,0.76113147,-0.039947417,0.46179214,405
1747533327650,1.1265682,0.5720702,-0.6230781,0.7552725,-0.013848438,0.31318775,406
1747533327660,1.09118,0.5779276,-0.75047606,0.58696073,0.13262543,0.077231675,407
1747533327670,1.044565,0.57988006,-0.8171036,0.43196473,0.221575,-0.004261058,408
1747533327680,1.0160104,0.58842206,-0.878362,0.24554345,0.29614353,-0.058056913,409
1747533327690,1.0128375,0.601113,-0.93229866,0.03888215,0.36432046,-0.11025487,410
1747533327700,1.0664082,0.57914785,-0.82479149,-0.206661295,0.236755035,-0.376304675,411
1747533327710,1.0516427,0.5710939,-0.78757274,-0.19121496,0.14807177,-0.44101948,412
1747533327720,1.0169866,0.5447358,-0.75291663,-0.112918034,-0.06870956,-0.55287224,413
1747533327730,0.99209267,0.53033644,-0.74510676,-0.024501082,-0.24820662,-0.64555025,414
1747533327740,0.971836,0.5361938,-0.77659017,-0.0026631611,-0.28549087,-0.6860303,415
1747533327750,1.0243083,0.58085626,-0.89715445,-0.056459017,-0.23808661,-0.7323693,416
1747533327760,1.048714,0.605506,-0.95597225,-0.34674358,-0.05006743,-0.8452873,417
1747533327770,1.0836142,0.6125837,-0.9989263,-0.561927,0.004261058,-0.9257148,418
1747533327780,1.1275444,0.60038084,-0.9413288,-0.74461985,0.013848438,-1.0327739,419
1747533327790,1.16732585,0.57438875,-0.767316,-0.784567265,-0.217580267,-1.3619406500000002,420
1747533327800,1.1729392,0.562796,-0.690438,-0.73769563,-0.38402784,-1.5574167,421
1747533327810,1.1016744,0.55010504,-0.6718896,-0.65034395,-0.5305017,-1.6719326,422
1747533327820,1.0367552,0.5449798,-0.68409246,-0.60933125,-0.6354303,-1.7204021,423
1747533327830,1.0157663,0.55059314,-0.7058135,-0.62051654,-0.6609966,-1.736381,424
1747533327840,1.0340706,0.56767714,-0.72631437,-0.76059884,-0.509729,-1.7779263,425
1747533327850,1.1107045,0.6142921,-0.7043492,-0.8447547,-0.43249738,-1.8279938,426
1747533327860,1.1517061,0.6284474,-0.6653,-0.892159,-0.3920173,-1.8983012,427
1747533327870,1.1858741,0.6384538,-0.6123396,-0.8878979,-0.40533313,-1.9931098,428
1747533327880,1.2464004,0.6457755,-0.5720702,-0.829841,-0.46871635,-2.1278658,429
1747533327890,1.2754432,0.66237134,-0.60086894,-0.6540724,-0.67058396,-2.5390577,430
1747533327900,1.2295604,0.6616392,-0.6379657,-0.6348976,-0.73769563,-2.6754117,431
1747533327910,1.1802609,0.65944266,-0.67042524,-0.6492787,-0.75580513,-2.7462518,432
1747533327920,1.1534146,0.6545615,-0.6960513,-0.69295454,-0.7456851,-2.7846012,433
1747533327930,1.1565872,0.652365,-0.68336034,-0.7350325,-0.7323693,-2.825614,434
1747533327940,1.193684,0.6743302,-0.65212095,-0.7499462,-0.7052051,-2.9449236,435
1747533327950,1.1947822499999998,0.6849467,-0.6477279300000001,-0.72970617,-0.7366304,-3.0285468,436
1747533327960,1.189779,0.690438,-0.6540734,-0.7126619,-0.8069378,-3.145726,437
1747533327970,1.1956364,0.7106947,-0.673598,-0.7126619,-0.85753787,-3.238404,438
1747533327980,1.2412751,0.74364245,-0.77854264,-0.79894835,-0.9102685,-3.5063179,439
1747533327990,1.1900232,0.74413055,-0.80368054,-0.87777793,-0.93903065,-3.645335,440
1747533328000,1.0977695,0.7426662,-0.8095379,-0.9576728,-0.9416938,-3.7183056,441
1747533328010,1.0725096,0.7407137500000001,-0.8001417,-0.9944244,-0.9337043,-3.7241645,442
1747533328020,1.0393178,0.74291025,-0.7831797300000001,-1.0636665500000002,-0.90014845,-3.7316214,443
1747533328030,0.9898962,0.71899265,-0.65797836,-1.1345067,-0.7813715,-3.8131142,444
1747533328040,0.97439855,0.709230375,-0.6199054150000001,-1.10334765,-0.7832357,-3.84906685,445
1747533328050,0.91253006,0.67506236,-0.5198419,-0.9720538,-0.8266452,-3.9515984,446
1747533328060,0.87201655,0.6457755,-0.49201941,-0.85966843,-0.8990832,-4.0155144,447
1747533328070,0.84248555,0.65285313,-0.5025139,-0.7488809,-0.932639,-4.065582,448
1747533328080,0.75096416,0.6782351,-0.61795294,-0.7142598,-0.9491506,-4.083691,449
1747533328090,0.74242216,0.71020657,-0.6728658,-0.79628515,-0.8831042,-4.062386,450
1747533328100,0.81319875,0.7573096,-0.73388016,-0.9177253,-0.727043,-4.0293627,451
1747533328110,0.8920292,0.7834238,-0.77195305,-1.0679276,-0.5656554,-4.074104,452
1747533328120,0.8969103,0.7577977,-0.7302193,-1.2319783,-0.5161206,-4.2674494,453
1747533328130,0.63381666,0.6023333,-0.46810177,-1.2857742,-0.572047,-4.424576,454
1747533328140,0.5183776,0.4978768,-0.31068486,-1.1227888,-0.700944,-4.5247107,455
1747533328150,0.456143,0.4131889,-0.17791773,-0.8942895,-0.7728494,-4.5524077,456
1747533328160,0.3973252,0.328257,-0.13154685,-0.6375608,-0.8708537,-4.5992794,457
1747533328170,0.27773714,0.2660224,-0.14814276,-0.40906155,-0.9635317,-4.5992794,458
1747533328180,0.20866893,0.3014107,-0.37169918,-0.20240025,-0.99495703,-4.405934,459
1747533328190,0.1952458,0.31507793,-0.47737598,-0.340352,-0.8644621,-4.2978096,460
1747533328200,0.18231077,0.28383857,-0.47835222,-0.49641323,-0.7552725,-4.232828,461
1747533328210,0.14423785,0.24942651,-0.41562948,-0.55287224,-0.71133035,-4.2088595,462
1747533328220,0.0741934,0.27554062,-0.358032,-0.6679208,-0.57790595,-4.099138,463
1747533328230,0.079318605,0.27993366,-0.38707477,-0.7344999,-0.48735848,-3.9920785,464
1747533328240,0.15229172,0.2889638,-0.3443648,-0.90973586,-0.52144694,-4.040548,465
1747533328250,0.07224095,0.2608972,-0.28701133,-0.9518138,-0.58056915,-4.065049,466
1747533328260,-0.033435844,0.19304928,-0.21037734,-0.958738,-0.6109292,-4.027232,467
1747533328270,-0.17425688,0.2186753,-0.19817449,-0.80800307,-0.25992453,-3.6288233,468
1747533328280,-0.14106509,0.18401916,-0.24234885,-0.80800307,-0.25992453,-3.6288233,469
1747533328290,-0.18963248,0.21769907,-0.22355644,-0.70467246,-0.044208474,-3.5212317,470
1747533328300,-0.15229172,0.2306341,-0.2511349,-0.6066681,-0.013848438,-3.4690337,471
1747533328310,-0.19378147,0.21232979,-0.3243521,-0.47830373,-0.2806972,-3.598996,472
1747533328320,-0.35290676,0.19353738,-0.32166746,-0.45912898,-0.45220476,-3.5856802,473
1747533328330,-0.47225076,0.16498269,-0.34900185,-0.5086638,-0.5289038,-3.45412,474
1747533328340,-0.5293602,0.17840585,-0.35632357,-0.62584287,-0.48203218,-3.2868736,475
1747533328350,-0.52350277,0.23673552,-0.3900035,-0.84848315,-0.22796659,-3.0764837,476
1747533328360,-0.489700855,0.24198276,-0.398667515,-1.115065575,-0.0050599999999999,-3.00244785,477
1747533328370,-0.46639341,0.237833795,-0.34912388,-1.4612765,0.313720385,-2.9225531,478
1747533328380,-0.5266756,0.14521407,-0.17816179,-1.5638082,0.5592638,-2.9001825,479
1747533328390,-0.6282034,-0.011226633,-0.019036464,-1.4157364,0.56618804,-2.896454,480
1747533328400,-0.72216535,-0.13057062,0.0993313,-1.0865698,0.42344263,-2.886334,481
1747533328410,-0.93473923,-0.37218732,0.034168016,-0.28229508,-0.0010652645,-2.7920582,482
1747533328420,-1.1334019,-0.5008055,-0.043930303,-0.009054748,-0.2444782,-2.6945865,483
1747533328430,-1.24054295,-0.5596232750000001,-0.0535705665,0.2130529,-0.46392268,-2.3798008,484
1747533328440,-1.4528728,-0.7311955,-0.24820623,0.194677085,-0.39734365,-2.2282669,485
1747533328450,-1.7364672,-0.9342511,-0.4166057,-0.41918156,0.31798145,-1.2964269,486
1747533328460,-1.7697811,-0.96780905,-0.4067214,-0.599211265,0.472178475,-1.05168235,487
1747533328470,-1.803095,-1.001367,-0.3968371,-0.77924097,0.6263755,-0.8069378,488
1747533328480,-1.7952851,-1.0433447,-0.27505252,-1.0274476,0.777643,-0.33662358,489
1747533328490,-1.6900963999999998,-1.05237485,0.0281886149999999,-0.8586032,0.58909124,0.42876893,490
1747533328500,-1.5434179,-0.8776299,0.45516676,-0.39840892,-0.03888215,1.1430287,491
1747533328510,-1.4932642,-0.8258897199999999,0.436374355,0.25433187,-0.140881225,1.2895026,492
1747533328520,-1.3379217,-0.65382934,0.2762728,1.3321131,-0.35313517,1.700162,493
1747533328530,-1.2210184,-0.5051985,0.077122085,1.5441009,-0.33981937,1.9281287,494
1747533328540,-0.98525906,-0.20549619,-0.3441207,1.2974921,0.053795855,2.2764702,495
1747533328550,-0.8925173,-0.08078295,-0.42612398,0.9933591,0.27217507,2.3952472,496
1747533328560,-0.84578035,-0.0367306165,-0.442597825,0.835167325,0.34967306,2.4354609,497
1747533328570,-0.7133793,0.082735404,-0.4742032,0.38296258,0.5123922,2.5086977,498
1747533328580,-0.70117645,0.119588052,-0.4883585499999999,0.2029328825,0.54994278,2.5230788,499
1747533328590,-0.665056,0.18841219,-0.4790844,-0.22690132,0.64341974,2.572081,500
1747533328600,-0.6726217,0.24234885,-0.3099527,-0.43356264,0.66845345,2.6786075,501
1747533328610,-0.6645678500000001,0.25528389,-0.262849655,-0.40426787,0.65620291,2.72547915,502
1747533328620,-0.59135073,0.3214234,-0.14741059,-0.22050974,0.6178534,2.850115,503
1747533328630,-0.4698102,0.40489095,-0.102259986,0.010652645,0.60080916,2.8740835,504
1747533328640,-0.28383857,0.5703618,-0.21745501,0.25193503,0.57790595,2.8272119,505
1747533328650,-0.2677308,0.6023333,-0.3082443,0.5267733,0.545948,2.6083,506
1747533328660,-0.27773714,0.60843474,-0.3738957,0.55553544,0.4527374,2.4639566,507
1747533328670,-0.31751847,0.611729505,-0.38695277,0.553138585,0.40053943,2.4237429,508
1747533328680,-0.44516042,0.6160005,-0.4612682,0.4857606,0.29454562,2.389388,509
1747533328690,-0.4463807,0.6723777,-0.6147802,0.03195793,0.49854377,2.5699506,510
1747533328700,-0.3912238,0.737541,-0.60916686,-0.26205507,0.7174556,2.6189528,511
1747533328710,-0.35644563,0.7548690499999999,-0.5821985599999999,-0.388821535,0.823715735,2.63226855,512
1747533328720,-0.28615713,0.76987855,-0.4828672699999999,-0.5773733350000001,0.998152785,2.6341327,513
1747533328730,-0.11324256,0.7499879,-0.1901206,-0.571780685,1.03836655,2.56329255,514
1747533328740,-0.14692247,0.7143555,0.05515694,0.51718587,0.314253,2.0154803,515
1747533328750,-0.2818861,0.6472398,-0.019768637,0.98377174,-0.0628506,1.9180087,516
1747533328760,-0.340337825,0.64431113,-0.1428955184999999,1.09642347,-0.16351809,1.93238975,517
1747533328770,-0.412700815,0.66249341,-0.41501935,1.15581195,-0.249804515,2.01388245,518
1747533328780,-0.2889638,0.746083,-0.8561529,0.9105348,-0.129962266,2.14704045,519
1747533328790,-0.31263736,0.7124031,-0.72094506,-0.20879184,0.6897587,2.3936493,520
1747533328800,-0.345341,0.64211464,-0.49763274,-0.31505197,0.79122515,2.44318415,521
1747533328810,-0.31105095,0.6073364699999999,-0.39085768,-0.39095205,0.8900285,2.5592978,522
1747533328820,-0.20134722,0.554132,-0.205618225,-0.236755025,0.7680557,2.5222799,523
1747533328830,-0.017328065,0.53033644,-0.09786696,0.26844665,0.32437304,2.2860575,524
1747533328840,-0.24845028,0.48713827,-0.29140437,0.7233146,-0.16298546,2.150769,525
1747533328850,-0.32679266,0.48201308,-0.47932845,0.6625945,-0.17949706,2.2945797,526
1747533328860,-0.33008743,0.51654716,-0.583418875,0.37710363,-0.03834952,2.5065672,527
1747533328870,-0.2928687,0.585249245,-0.73754102,0.150468612,0.11824436,2.6277411,528
1747533328880,-0.12398108,0.665056,-0.7494998,-0.5587312,0.6679208,2.9523804,529
1747533328890,0.122272685,0.6999562,-0.4002539,-1.0434265,1.1243867,3.1276164,530
1747533328900,0.34509695,0.71264714,-0.1986626,-0.92038846,1.0562097,2.9651637,531
1747533328910,0.37621424,0.7285108849999999,-0.1010397007999999,-0.73396718,0.91479585,2.83999515,532
1747533328920,0.3788988749999999,0.743276365,0.0324596142,-0.2982740315,0.58083545,2.5984464,533
1747533328930,0.297993905,0.7144775999999999,0.050275792,0.1960086585,0.196541295,2.41468825,534
1747533328940,0.108117364,0.733148,-0.37633628,0.8740495,-0.28176245,2.3787355,535
1747533328950,0.12495731,0.8000197,-0.6025773,0.69029135,-0.07084008,2.5443842,536
1747533328960,0.24259292,0.878118,-0.74193406,0.31158987,0.32330775,2.7302728,537
1747533328970,0.41562948,0.95792466,-0.75291663,-0.11717909,0.7435546,2.8405278,538
1747533328980,0.478230165,0.98184233,-0.6530972150000001,-0.41225734,1.0354371,2.8304076,539
1747533328990,0.76463133,1.0177187,-0.25308737,-0.18748654,0.77231675,2.4234767,540
1747533329000,0.7687803,1.0343146,-0.2186753,0.084155895,0.47404268,2.1140172,541
1747533329010,0.69104805,1.0313859,-0.23636944,0.2085255124999999,0.3480751549999999,2.0125508,542
1747533329020,0.47884035,0.9698835,-0.35437113,0.47031426,0.08628642,1.8546255,543
1747533329030,0.33655494,0.91814333,-0.48323336,0.49694586,0.10066749,1.8663434,544
1747533329040,0.2853029,0.8937377,-0.51666915,0.32330775,0.3717773,2.0021646,545
1747533329050,0.2716357,0.8600578,-0.5103237,0.14647387,0.5592638,2.1161478,546
1747533329060,0.2873774,0.836872325,-0.467369615,0.112918035,0.5952165,2.1337247,547
1747533329070,0.353516925,0.7986773549999999,-0.3929321449999999,0.086020105,0.6218481499999999,2.1209415,548
1747533329080,0.49543622,0.8061211,-0.36291313,0.1571265,0.5454154,1.9483687,549
1747533329090,0.439059,0.8429737,-0.44101146,0.21837921,0.43409526,1.8077538,550
1747533329100,0.35827604,0.8293065,-0.49738866,0.23915187,0.2034655,1.7955033,551
1747533329110,0.38512233,0.82076454,-0.5103237,0.14913702,0.18855181,1.9558256,552
1747533329120,0.39403042,0.82308307,-0.49885301,0.126500152,0.230629755,1.9888488,553
1747533329130,0.425147725,0.82613375,-0.4646850099999999,0.091879057,0.3520699,2.0639499,554
1747533329140,0.49104318,0.8336995,-0.413677,0.09640643,0.53742594,2.1539648,555
1747533329150,0.562796,0.8417535,-0.40000984,0.12623383,0.5837649,2.1555626,556
1747533329160,0.75145227,0.88421935,-0.41026023,0.22956449,0.45859635,1.929194,557
1747533329170,0.75267255,0.8808026,-0.44516042,0.27324033,0.31318775,1.7566211,558
1747533329180,0.7194807750000001,0.87238265,-0.455654875,0.276436115,0.250337145,1.6977652,559
1747533329190,0.6245425,0.83784854,-0.45809543,0.2775014,0.1438107,1.6042882,560
1747533329200,0.5886661,0.8066092,-0.46590528,0.2428803,0.22796659,1.6980315,561
1747533329210,0.62356627,0.7963588,-0.44564855,0.24341293,0.27696875,1.7065537,562
1747533329220,0.6155123849999999,0.7884269500000001,-0.4399132,0.25592979,0.298007725,1.7108147,563
1747533329230,0.5645044,0.7570656,-0.4327135,0.29134983,0.3717773,1.7587516,564
1747533329240,0.55523026,0.716064,-0.4510178,0.29241508,0.43303,1.824798,565
1747533329250,0.71142685,0.70215267,-0.5110559,0.26045716,0.44581318,1.8098843,566
1747533329260,0.7224094,0.7250941,-0.53350914,0.18109496,0.35633096,1.6069515,567
1747533329270,0.6875093,0.6892177,-0.5342413,0.14221281,0.26844665,1.5654061,568
1747533329280,0.65212095,0.6653,-0.51520485,0.11504856,0.20293288,1.5584819,569
1747533329290,0.609655,0.6277153,-0.4407674,0.14008227,0.14221281,1.6021577,570
1747533329300,0.6023333,0.5588911,-0.35754386,0.28442562,0.20559604,1.7374463,571
1747533329310,0.6020892250000001,0.5525456,-0.35961834,0.31664987,0.253532935,1.7752632,572
1747533329320,0.6296676750000001,0.53839028,-0.374871925,0.36432046,0.3281014399999999,1.8423749,573
1747533329330,0.76133657,0.5437595550000001,-0.439059005,0.369380465,0.349140425,1.83811385,574
1747533329340,0.9017916,0.5962319,-0.5361938,0.3174488,0.32650355,1.6644757,575
1747533329350,0.78928113,0.54937285,-0.5281399,0.24554345,0.23062976,1.5920377,576
1747533329360,0.7656076,0.5274077,-0.50641876,0.2545982,0.20080236,1.6490294,577
1747533329370,0.77805454,0.50715095,-0.48494175,0.28655612,0.175236,1.6932379,578
1747533329380,0.7934301,0.49250755,-0.46663743,0.32650355,0.17789917,1.7235979,579
1747533329390,0.81539524,0.4790844,-0.45809543,0.3637878,0.27057716,1.8194717,580
1747533329400,0.85639685,0.485918,-0.46078008,0.39521313,0.33981937,1.8562233,581
1747533329410,0.881778825,0.485185825,-0.46517311,0.394147865,0.375239415,1.8623486,582
1747533329420,0.93376302,0.481769025,-0.47652177,0.385359425,0.4388889649999999,1.8554244,583
1747533329430,1.0064921,0.47444725,-0.47884035,0.36591834,0.48043427,1.780057,584
1747533329440,1.0160104,0.44808912,-0.45248213,0.45060685,0.35420042,1.5648735,585
1747533329450,1.0094208,0.43442193,-0.46712556,0.5278385,0.25726137,1.4887071,586
1747533329460,0.97085977,0.44369608,-0.5022698,0.5811018,0.16405073,1.4365091,587
1747533329470,0.93181056,0.45321432,-0.5337532,0.5965481,0.10173275,1.4231933,588
1747533329480,0.9086252,0.46419686,-0.5688974,0.55553544,0.07882957,1.4370418,589
1747533329490,0.93840015,0.48909074,-0.5976962,0.3472762,0.15446335,1.4514228,590
1747533329500,0.9498709,0.49446,-0.575487,0.21624869,0.21784659,1.433846,591
1747533329510,0.967443,0.5027579,-0.5503491,0.09960223,0.26045716,1.407747,592
1747533329520,0.95743656,0.5127643,-0.51691324,-0.010652645,0.2609898,1.3651364,593
1747533329530,0.93376297,0.51788944,-0.41538543,-0.0628506,0.23276028,1.3331785,594
1747533329540,0.9584128,0.5198419,-0.38121742,-0.05965481,0.23169503,1.3171995,595
1747533329550,0.97476465,0.5361938,-0.32996538,-0.008522116,0.21678132,1.2868395,596
1747533329560,0.97769335,0.5386343650000001,-0.301532715,-0.008522116,0.21678132,1.2868395,597
1747533329570,0.99184865,0.5264315,-0.24527754,0.20932446,0.15126756,1.2239889,598
1747533329580,0.997706025,0.524357,-0.2355152449999999,0.28229508,0.14514229,1.2125373,599
1747533329590,1.0272369,0.5183776,-0.24552159,0.6311692,0.1784318,1.1483551,600
1747533329600,1.03919575,0.5099576,-0.269561245,0.6902913749999999,0.21038973,1.1270498,601
1747533329610,1.0777569,0.4842096,-0.35022214,0.7930894,0.2972088,1.0711234,602
1747533329620,1.1587838,0.46688148,-0.41733786,0.7930894,0.32330775,0.9816412,603
1747533329630,1.2315128,0.473227,-0.48738232,0.76113147,0.32810146,0.82824314,604
1747533329640,1.1997855,0.52911615,-0.6028214,0.61891866,0.2977414,0.5049353,605
1747533329650,1.1521943,0.54961693,-0.63967407,0.5203817,0.29561087,0.41545314,606
1747533329660,1.1409676,0.55059314,-0.66090703,0.41545314,0.29827404,0.3472762,607
1747533329670,1.1587838,0.54766446,-0.6726217,0.30466563,0.30253512,0.2647182,608
1747533329680,1.2344415,0.58207655,-0.6784792,0.112918034,0.3371562,-0.017044231,609
1747533329690,1.244448,0.6045298,-0.69287854,0.041012682,0.31691617,-0.17736652,610
1747533329700,1.2410312,0.61770886,-0.6970275,-0.026631612,0.24394555,-0.3355583,611
1747533329710,1.244936,0.6460195,-0.6806757,-0.06551377,0.13635385,-0.4777711,612
1747533329720,1.2935034,0.69556314,-0.6530972,-0.04314321,0.0053263223,-0.6306366,613
1747533329730,1.3664765,0.7370529,-0.7050814,-0.0053263223,-0.2860235,-1.0444918,614
1747533329740,1.355738,0.73412424,-0.7370529,-0.0053263223,-0.2860235,-1.0444918,615
1747533329750,1.3193735,0.72826684,-0.7687803,-0.19547603,-0.4362258,-1.459945,616
1747533329760,1.2950898,0.71459964,-0.783301715,-0.276436125,-0.4162520899999999,-1.5182682,617
1747533329770,1.2151611,0.6792113,-0.80294836,-0.710797715,-0.30732879,-1.6913736,618
1747533329780,1.147069,0.6543175,-0.7490117,-0.87298423,-0.2647182,-1.7289242,619
1747533329790,1.1767219999999998,0.6407723249999999,-0.6372334500000001,-0.93610115,-0.2924151,-1.8184064,620
1747533329800,1.1929518,0.6406503,-0.5940353,-0.9305085,-0.31478566,-1.8615496,621
1747533329810,1.2039344,0.64309084,-0.53814626,-0.76725675,-0.4910869,-2.0831247,622
1747533329820,1.2083274,0.6657882,-0.5176454,-0.6801714,-0.59122175,-2.1981733,623
1747533329830,1.1905112,0.67555046,-0.5400987,-0.6801714,-0.59122175,-2.1981733,624
1747533329840,1.1844097,0.6796995,-0.5684093,-0.6562029,-0.70627034,-2.406965,625
1747533329850,1.1700104,0.6850687,-0.5735345,-0.69135666,-0.6801714,-2.47674,626
1747533329860,1.1690342,0.656514,-0.5544981,-0.77125144,-0.5768407,-2.5971148,627
1747533329870,1.1651293,0.647972,-0.52033,-0.7803062,-0.53529537,-2.650378,628
1747533329880,1.1643971,0.62600684,-0.48665017,-0.7536746,-0.5230448,-2.6961844,629
1747533329890,1.1629328,0.6128277,-0.44857723,-0.69987875,-0.53316486,-2.753176,630
1747533329900,1.1373067,0.6130718,-0.41733786,-0.6151902,-0.5475459,-2.7989824,631
1747533329910,1.1104605,0.60697037,-0.4368625,-0.5028048,-0.58696073,-2.843191,632
1747533329920,1.1033828,0.61038715,-0.46688148,-0.44288369,-0.6239786650000001,-2.89112785,633
1747533329930,1.0760484,0.62259,-0.5042223,-0.3685815,-0.6993461,-2.988067,634
1747533329940,1.0448091,0.6286915,-0.5444917,-0.40373522,-0.7174556,-3.0200248,635
1747533329950,1.0118613,0.6321083,-0.55645055,-0.47404268,-0.7190535,-3.0333405,636
1747533329960,1.01417985,0.63662335,-0.538878425,-0.53396381,-0.6894924,-3.0469226000000003,637
1747533329970,1.004295535,0.6411384,-0.5122761849999999,-0.6098639050000001,-0.64847973,-3.0796795,638
1747533329980,0.9237567,0.6357691,-0.47127452,-0.6269081,-0.6359629,-3.118029,639
1747533329990,0.8681116,0.63454884,-0.4195344,-0.561927,-0.67697555,-3.0924628,640
1747533330000,0.89715445,0.6377216,-0.40659937,-0.46498793,-0.75420725,-3.134008,641
1747533330010,0.880680575,0.6389418849999999,-0.415995585,-0.3824299399999999,-0.7941546749999999,-3.160906,642
1747533330020,0.8463905,0.67579454,-0.44149956,-0.2263687,-0.91612744,-3.1851406,643
1747533330030,0.89105296,0.716064,-0.4966565,-0.18908444,-0.9912286,-3.1798143,644
1747533330040,0.9169231,0.72607034,-0.54668826,-0.21252026,-1.0578076,-3.255448,645
1747533330050,0.8539563,0.72777873,-0.6020892,-0.43888897,-1.1227888,-3.4386737,646
1747533330060,0.80416864,0.69214636,-0.5864696,-0.529170135,-1.08790135,-3.46317485,647
1747533330070,0.7236297,0.65334123,-0.50837123,-0.72011876,-0.958738,-3.510579,648
1747533330080,0.64089435,0.63235235,-0.41855815,-0.73769563,-0.85966843,-3.486078,649
1747533330090,0.59061855,0.6384538,-0.37096703,-0.69508505,-0.7845673,-3.4312167,650
1747533330100,0.60697037,0.65334123,-0.3692586,-0.60773337,-0.7121293,-3.4200315,651
1747533330110,0.5942794,0.6660322,-0.36388937,-0.5571333,-0.67058396,-3.4408042,652
1747533330120,0.5452239,0.6635916,-0.35363895,-0.509729,-0.61678815,-3.439739,653
1747533330130,0.5195979,0.65212095,-0.32117933,-0.4394216,-0.5832323,-3.4333472,654
1747533330140,0.49226347,0.65919864,-0.30897647,-0.33502567,-0.5789712,-3.439739,655
1747533330150,0.4978768,0.68702114,-0.37169918,-0.15659387,-0.7163904,-3.5132422,656
1747533330160,0.50446635,0.68458056,-0.4373506,-0.18269286,-0.8271778,-3.5803537,657
1747533330170,0.53009236,0.6958072,-0.5015376,-0.28122982,-0.9347696,-3.6820867,658
1747533330180,0.41587356,0.68189593,-0.51435065,-0.49614693,-0.8556737,-3.7092509,659
1747533330190,0.30165476,0.66798466,-0.5271637,-0.97897804,-0.5603291,-3.6820867,660
1747533330200,0.22258021,0.6294237,-0.39537275,-1.1456919,-0.32437304,-3.6085835,661
1747533330210,0.20915705,0.6101431,-0.23942018,-1.0852382,-0.070307455,-3.52868845,662
1747533330220,0.19402552,0.60648227,-0.08542004,-0.9981528,0.0,-3.5068505,663
1747533330230,0.16547081,0.605262,0.042954076,-0.4463458,-0.04474111,-3.500459,664
1747533330240,0.25479576,0.5864696,0.024405725,-0.16245283,-0.1470065,-3.5883434,665
1747533330250,0.24967057,0.59135073,-0.020256752,0.10439592,-0.26205507,-3.6847498,666
1747533330260,0.25772443,0.5852493,-0.09615856,0.32277513,-0.41278997,-3.7848847,667
1747533330270,0.19841854,0.53058046,-0.21623473,0.4463458,-0.5944176,-3.9366848,668
1747533330280,0.061746486,0.4339338,-0.34924594,0.4708469,-0.7185209,-4.042146,669
1747533330290,-0.19744232,0.36510965,-0.358032,0.3089267,-0.73769563,-3.939348,670
1747533330300,-0.26577836,0.3316738,-0.33826336,0.19547603,-0.5784386,-3.7705035,671
1747533330310,-0.30360723,0.3184947,-0.35583547,0.07669904,-0.43303,-3.6314864,672
1747533330320,-0.328257,0.32679266,-0.37218732,-0.055926383,-0.25300032,-3.5020568,673
1747533330330,-0.2238005,0.3431445,-0.36022848,-0.2876214,0.05912218,-3.2868736,674
1747533330340,-0.14374973,0.3270367,-0.3231318,-0.34301516,0.020240024,-3.3747578,675
1747533330350,-0.1461903,0.3116611,-0.25357547,-0.31052458,-0.11930962,-3.510579,676
1747533330360,-0.2037878,0.2757847,-0.2255089,-0.21252026,-0.2876214,-3.6048548,677
1747533330370,-0.30433938,0.21306199,-0.22111587,-0.11504856,-0.44794372,-3.6772928,678
1747533330380,-0.54668826,0.039781332,-0.25162303,-0.02609898,-0.5752428,-3.635215,679
1747533330390,-0.707643975,-0.123737025,-0.24003032,-0.01917476,-0.49534798,-3.5297537,680
1747533330400,-0.76341105,-0.17498904,-0.24064046,-0.025033714,-0.3717773,-3.3992589,681
1747533330410,-0.8756774,-0.26675457,-0.2860351,-0.08522116,-0.22530343,-3.2314796,682
1747533330420,-0.98525906,-0.36462155,-0.31751847,-0.20293288,-0.10333065,-3.0328078,683
1747533330430,-1.206619,-0.49885303,-0.5359497,-0.69508505,0.2231729,-2.525742,684
1747533330440,-1.2354177,-0.60135704,-0.6274712,-1.1520835,0.44847634,-2.241849,685
1747533330450,-1.2520137,-0.7192367,-0.5989165,-1.5755261,0.6823019,-1.9963056,686
1747533330460,-1.3479282,-0.822717,-0.39586085,-1.8173412,0.82557994,-1.7108147,687
1747533330470,-1.4658079,-0.89300543,-0.1803583,-1.7193369,0.7440872,-1.4343786,688
1747533330480,-1.6551963,-0.96036524,0.12056428,-0.96779275,0.294013,-0.7275756,689
1747533330490,-1.6954657,-0.9432813,0.16620298,-0.48948902,0.06338324,-0.3158509,690
1747533330500,-1.7003468,-0.8829991,0.16132185,-0.044208474,-0.096939065,0.12357068,691
1747533330510,-1.6310346,-0.82100856,0.09835507,0.31798145,-0.1555286,0.5550028,692
1747533330520,-1.4211453,-0.64138246,-0.07785426,0.69322083,-0.099868542,1.4048175,693
1747533330530,-1.2895985,-0.5337532,-0.1564407,0.70200926,-0.0958738,1.5579493,694
1747533330540,-1.1404796,-0.40659937,-0.24478942,0.6103965,-0.10652645,1.7214674,695
1747533330550,-1.044565,-0.3099527,-0.29213652,0.4511395,-0.0974717,1.8359833,696
1747533330560,-0.99111646,-0.23185438,-0.29164842,0.26365295,-0.058056913,1.9382486,697
1747533330570,-0.9725681,-0.1683995,-0.27651685,0.075101145,0.026631612,2.0698087,698
1747533330580,-0.91497064,-0.05027579,-0.3104408,-0.33449304,0.3110572,2.376605,699
1747533330590,-0.8925173,0.0156196635,-0.33533466,-0.5795039,0.5086638,2.553439,700
1747533330600,-0.8412653,0.058573738,-0.2936009,-0.80107886,0.71479243,2.7387948,701
1747533330610,-0.7573096,0.088348724,-0.123004854,-0.8309063,0.8021441,2.9193573,702
1747533330620,-0.5213063,0.2255089,0.10372432,-0.29827404,0.5933523,2.8714204,703
1747533330630,-0.42246306,0.25650415,0.10323621,0.049534798,0.4048005,2.7601001,704
1747533330640,-0.39586085,0.30092257,0.060038086,0.3882889,0.19920446,2.630138,705
1747533330650,-0.45809543,0.33631086,-0.040513504,0.64341974,0.039947417,2.5640914,706
1747533330660,-0.4932397149999999,0.3834139399999999,-0.210987487,0.7339672,0.01438107,2.711098,707
1747533330670,-0.47395915,0.49860895,-0.5332651,0.5134575,0.18748654,2.8112328,708
1747533330680,-0.39805737,0.541319,-0.5764632,0.19387813,0.4394216,2.8639636,709
1747533330690,-0.36706212,0.60721445,-0.55791485,-0.1933455,0.8016115,2.9001825,710
1747533330700,-0.2328306,0.6428468,-0.4234393,-0.63383234,1.1590078,2.8597023,711
1747533330710,-0.16888762,0.6347929,-0.27090356,-0.5965481,1.0689929,2.7238812,712
1747533330720,-0.27639482,0.68921765,-0.212939955,-0.39734364,0.8580705,2.5917885,713
1747533330730,-0.33265,0.7180164,-0.24186075,-0.2034655,0.60240704,2.5832663,714
1747533330740,-0.3104408,0.7409578,-0.3778006,-0.14753912,0.40906155,2.637062,715
1747533330750,-0.19744232,0.8515157,-0.5213063,-0.38402784,0.41598576,2.650378,716
1747533330760,-0.18255483,0.8573731,-0.50031734,-0.61678815,0.6279734,2.6557043,717
1747533330770,-0.1581491,0.7936742,-0.39464056,-0.72278196,0.8032094,2.6450517,718
1747533330780,-0.08590815,0.7316837,-0.2889638,-0.680704,0.8410263,2.5795379,719
1747533330790,-0.06711575,0.69507504,-0.18572757,-0.48203218,0.7163904,2.4607608,720
1747533330800,-0.20134723,0.69239044,-0.22624107,-0.16405073,0.4841627,2.3979104,721
1747533330810,-0.17962612,0.69409883,-0.32581642,0.25566345,0.0053263223,2.4815335,722
1747533330820,-0.17596528,0.7746377,-0.460536,0.27164245,-0.08841695,2.5443842,723
1747533330830,-0.122272685,0.86933196,-0.6269831,0.06711166,0.022903185,2.6674223,724
1747533330840,0.022697324,0.90789294,-0.71996886,-0.42077947,0.3797668,2.7718182,725
1747533330850,0.16132185,0.92863786,-0.45467865,-0.96992326,0.8692558,2.6823359,726
1747533330860,0.191829,0.8844635,-0.25748038,-0.91452956,0.8426242,2.6003106,727
1747533330870,0.23697957,0.8649389,-0.13496366,-0.67963874,0.64182186,2.4650218,728
1747533330880,0.24088451,0.8881243,-0.076389916,-0.34248254,0.31372038,2.301504,729
1747533330890,0.15546446,0.89300543,-0.09445015,0.006924219,-0.023435818,2.18539,730
1747533330900,0.03734076,0.86274236,-0.32728076,0.30679616,-0.2625877,2.2066953,731
1747533330910,0.048323333,0.9030118,-0.42270714,0.2263687,-0.17257284,2.3036344,732
1747533330920,0.13691612,0.92448884,-0.4634647,0.0015978967,0.07084008,2.3813987,733
1747533330930,0.2111095,0.9447456,-0.42051062,-0.1603223,0.2876214,2.3963125,734
1747533330940,0.23966423,0.95426387,-0.25601605,-0.21012341,0.537958535,2.40323665,735
1747533330950,0.36266908,0.9432813,-0.20354374,-0.17470337,0.5406217,2.3755398,736
1747533330960,0.46785772,0.9654905,-0.17498904,-0.03568636,0.44048685,2.223207,737
1747533330970,0.46151224,0.9689073,-0.16498269,0.15606125,0.23861924,2.020274,738
1747533330980,0.37291947,0.93522733,-0.2203837,0.3334278,0.0031957934,1.865278,739
1747533330990,0.13398743,0.88836837,-0.39830142,0.36432046,-0.23861924,1.9281287,740
1747533331000,0.14301755,0.89154106,-0.4932397,0.175236,-0.1257012,2.0463731,741
1747533331010,0.208913,0.90447617,-0.5337532,-0.09267801,0.11824436,2.143312,742
1747533331020,0.23881002,0.911431835,-0.53521755,-0.24394557,0.256728745,2.1835258,743
1747533331030,0.30507156,0.91814333,-0.47103047,-0.64341974,0.6263755,2.278068,744
1747533331040,0.43954712,0.88690406,-0.17498904,-0.59122175,0.64555025,2.2253375,745
1747533331050,0.48665017,0.87909424,-0.13496366,-0.360592,0.45486793,2.1166804,746
1747533331060,0.48494175,0.8642067,-0.14082102,-0.10705908,0.1949434,1.9808593,747
1747533331070,0.41904628,0.8429737,-0.19939478,0.11132014,-0.029294772,1.8828549,748
1747533331080,0.2894519,0.8190561,-0.4419877,0.20453078,-0.13102753,1.887116,749
1747533331090,0.33509058,0.8217408,-0.49299565,-0.10759171,0.06498113,2.0596888,750
1747533331100,0.37975308,0.83101493,-0.4795725,-0.32384038,0.27164245,2.120409,751
1747533331110,0.4053791,0.8334555,-0.42905265,-0.4990764,0.4607269,2.1923141,752
1747533331120,0.43491003,0.8110022,-0.3316738,-0.5906891,0.58056915,2.2487733,753
1747533331130,0.6025773,0.7700006,-0.114462845,-0.3920173,0.49481535,2.15503,754
1747533331140,0.635281,0.7826916,-0.06662763,-0.12197278,0.30200246,2.0128171,755
1747533331150,0.59110665,0.77561396,-0.064919226,0.24021713,0.002130529,1.8722023,756
1747533331160,0.547054325,0.75425896,-0.095914493,0.353934115,-0.0916127455,1.86154965,757
1747533331170,0.4327135,0.7165521,-0.23380683,0.57577544,-0.24873926,1.9275961,758
1747533331180,0.5400987,0.7304634,-0.43613032,0.3717773,-0.056459017,2.133192,759
1747533331190,0.6155124,0.73729694,-0.45004156,0.18801917,0.0958738,2.1603563,760
1747533331200,0.6321083,0.7250941,-0.4075756,0.039947417,0.20559604,2.1688783,761
1747533331210,0.63113208,0.7059356,-0.3785328,-0.04261058,0.2593919,2.1731396,762
1747533331220,0.6410163799999999,0.6633476,-0.31983704,-0.046072689,0.26125611,2.17234065,763
1747533331230,0.7170402,0.61624455,-0.22526483,0.16884442,0.06391586,2.0532973,764
1747533331240,0.6792113,0.6130718,-0.25479576,0.27164245,-0.06178534,2.0138824,765
1747533331250,0.6445552,0.5767073,-0.2967736,0.30679616,-0.17470337,2.0271983,766
1747533331260,0.62014943,0.55620646,-0.3380193,0.27856666,-0.20453078,2.0879183,767
1747533331270,0.6228341,0.56743306,-0.37145513,0.18429075,-0.09161274,2.1907163,768
1747533331280,0.7082541499999999,0.570727855,-0.374139755,-0.112918034,0.28336033,2.3728766,769
1747533331290,0.85956967,0.60867876,-0.358032,-0.22956449,0.43089947,2.3995082,770
1747533331300,0.93303084,0.6199054,-0.31776255,-0.30306774,0.49481535,2.3829966,771
1747533331310,1.0140579,0.6101431,-0.24771811,-0.26844665,0.42397526,2.290851,772
1747533331320,1.1172941,0.6216138,-0.15668476,-0.10918961,0.23861924,2.1385183,773
1747533331330,1.048958,0.63113207,-0.11983211,0.35633096,-0.18908444,1.8551581,774
1747533331340,0.9586569,0.60721445,-0.14960709,0.53742594,-0.3685815,1.8226675,775
1747533331350,0.916679,0.59916055,-0.2135501,0.6354303,-0.42876893,1.8498317,776
1747533331360,0.929492,0.597086075,-0.25772445,0.6301039500000001,-0.3834951949999999,1.86900645,777
1747533331370,1.0183289,0.56877542,-0.34204622,0.4660532,-0.029827405,1.8993665,778
1747533331380,1.0277251,0.56670094,-0.3338703,0.40959418,0.076166406,1.8626149,779
1747533331390,1.0374874,0.5508372,-0.2979939,0.40586576,0.1257012,1.7821875,780
1747533331400,1.0321181,0.5361938,-0.2716357,0.4676511,0.099069595,1.7129452,781
1747533331410,1.001732985,0.521916425,-0.28420465,0.549942775,0.034621095,1.6737967500000002,782
1747533331420,0.98111016,0.49299565,-0.33826336,0.680704,-0.09640643,1.5962988,783
1747533331430,0.9589009,0.48835856,-0.38194957,0.7030745,-0.12410331,1.5574167,784
1747533331440,0.93522733,0.46834585,-0.40513504,0.6897587,-0.14327806,1.5387745,785
1747533331450,0.90520835,0.41026023,-0.37926495,0.6711166,-0.13688648,1.5520903,786
1747533331460,0.9103335,0.40659937,-0.3704789,0.71319455,-0.108124346,1.6005598,787
1747533331470,0.9091133,0.39268813,-0.383658,0.737163,-0.09374327,1.6085494,788
1747533331480,0.921072,0.37584817,-0.41416514,0.73822826,-0.06870956,1.613343,789
1747533331490,0.92156017,0.37243137,-0.44369608,0.7142598,-0.02609898,1.619202,790
1747533331500,0.917533235,0.361448795,-0.46907804,0.66365975,0.02929477,1.6423714500000002,791
1747533331510,0.91887555,0.34436479,-0.48774842,0.5954828249999999,0.09454222,1.67992205,792
1747533331520,0.9305903,0.33728711,-0.47481337,0.575242775,0.1017327574999999,1.70735265,793
1747533331530,0.95792466,0.3333822,-0.45345837,0.5816344,0.075101145,1.7470337,794
1747533331540,0.96597856,0.3371651,-0.44699085,0.59601545,0.060720075,1.76088215,795
1747533331550,1.0374874,0.36266908,-0.41562948,0.6492787,-0.0010652645,1.8008295,796
1747533331560,1.0553035,0.37560411,-0.42404947,0.6812366,-0.06924219,1.7614148,797
1747533331570,1.0831261,0.40733153,-0.4458926,0.63862604,-0.04580637,1.7225326,798
1747533331580,1.087519,0.41807005,-0.4407674,0.5832323,0.011185277,1.700162,799
1747533331590,1.0941086,0.42465958,-0.44882128,0.5219796,0.10652645,1.6969663,800
1747533331600,1.1009423,0.45077375,-0.44808912,0.37390783,0.28176245,1.6879115,801
1747533331610,1.0921562,0.45663111,-0.4313711799999999,0.349673065,0.30173616,1.6895094,802
1747533331620,1.057256,0.45516676,-0.38561043,0.30306774,0.34621096,1.736381,803
1747533331630,1.0409042,0.4339338,-0.36266908,0.30679616,0.35313517,1.8072212,804
1747533331640,1.1927078,0.40293851,-0.35315084,0.32490566,0.29987195,1.8008295,805
1747533331650,1.6566606,0.49055508,-0.511788,0.31691617,0.175236,1.087635,806
1747533331660,1.6443357,0.52081816,-0.5390003999999999,0.27137612,0.12942963,0.83676525,807
1747533331670,1.453605,0.588178,-0.5718261,0.0958738,-0.0479369,0.19867182,808
1747533331680,1.300337,0.5684093,-0.56011134,-0.035153728,-0.105993815,-0.010652645,809
1747533331690,1.1636649,0.5774395,-0.53033644,-0.20879184,0.10333065,-0.08522116,810
1747533331700,1.1951483,0.6343048,-0.5688974,-0.30466563,0.32597092,-0.06764429,811
1747533331710,1.3115636,0.68482465,-0.6291796,-0.42983422,0.45912898,-0.12623383,812
1747533331720,1.4638554,0.71996886,-0.6657882,-0.5763081,0.525708,-0.3190467,813
1747533331730,1.6312786,0.7480355,-0.58964235,-0.651409225,0.409594185,-0.6263755,814
1747533331740,1.6256653,0.7462050650000001,-0.53997669,-0.72651035,0.29348037,-0.9337043,815
1747533331750,1.6034561,0.72704655,-0.4378387,-0.5294364,-0.267914,-1.6170714,816
1747533331760,1.5429299,0.71777236,-0.42099872,-0.38083205,-0.50387007,-1.9052255,817
1747533331770,1.4426224,0.68580085,-0.43149322,-0.26312032,-0.6679208,-2.1140172,818
1747533331780,1.3496367,0.63064396,-0.47737598,-0.221575,-0.721184,-2.2690134,819
1747533331790,1.2665351,0.59135073,-0.51642514,-0.3898868,-0.5858955,-2.3052323,820
1747533331800,1.1431642,0.5210622,-0.57280236,-0.5203817,-0.48043427,-2.2983081,821
1747533331810,1.1190025,0.50031734,-0.5701177,-0.6498113,-0.4016047,-2.2887206,822
1747533331820,1.104359,0.47664383,-0.55791485,-0.7526093,-0.32597092,-2.28659,823
1747533331830,1.0892274,0.45785138,-0.53106856,-0.8181231,-0.27004454,-2.2791333,824
1747533331840,1.1590278,0.46712556,-0.45809543,-0.8229168,-0.20399815,-2.2828617,825
1747533331850,1.189535,0.47823018,-0.449797495,-0.796018865,-0.202400255,-2.31801545,826
1747533331860,1.24456995,0.5022698250000001,-0.4330795699999999,-0.6785734,-0.2545982,-2.4873924,827
1747533331870,1.2690977,0.51520485,-0.42465958,-0.634098635,-0.29933931,-2.5385251,828
1747533331880,1.2759313,0.5264314999999999,-0.4169717899999999,-0.58962387,-0.34408042,-2.5896578,829
1747533331890,1.2859376,0.5781716299999999,-0.390613615,-0.448210015,-0.50600061,-2.70843485,830
1747533331900,1.2830089,0.6020892,-0.36852646,-0.22050974,-0.72917354,-2.854376,831
1747533331910,1.2830089,0.6020892,-0.36852646,-0.22050974,-0.72917354,-2.854376,832
1747533331920,1.3620834,0.6218578,-0.38707477,-0.111852765,-0.7121293,-2.9252162,833
1747533331930,1.4077222,0.6216138,-0.44516042,-0.11930962,-0.6247776,-3.1894019,834
1747533331940,1.3613514,0.596964,-0.46224442,-0.1470065,-0.5992113,-3.2959282,835
1747533331950,1.2871579,0.56816524,-0.48640612,-0.19760656,-0.57364494,-3.3651705,836
1747533331960,1.2517696,0.55754877,-0.49555826,-0.23382555,-0.5653891200000001,-3.38541045,837
1747533331970,1.18770455,0.53948855,-0.5082492000000001,-0.30226879,-0.54967645,-3.4155041,838
1747533331980,1.0694588,0.5210622,-0.5442477,-0.4910869,-0.44741106,-3.452522,839
1747533331990,1.0238202,0.5186216,-0.5513253,-0.5704491,-0.38242993,-3.4413369,840
1747533332000,0.9869675,0.53058046,-0.55742675,-0.6380934,-0.31851408,-3.4125748,841
1747533332010,0.973422315,0.52899408,-0.545956075,-0.6625945,-0.30812774,-3.4019221,842
1747533332020,0.938522115,0.52411295,-0.5034901,-0.6841661,-0.317715115,-3.39792725,843
1747533332030,0.84907514,0.5176454,-0.3648656,-0.5502091,-0.43356264,-3.43388,844
1747533332040,0.81685966,0.53106856,-0.34558508,-0.4612595,-0.47830373,-3.439739,845
1747533332050,0.83784854,0.536926,-0.3612047,-0.42450788,-0.507332215,-3.45784845,846
1747533332060,0.84260762,0.5481526,-0.378532775,-0.36911413,-0.5699164999999999,-3.51191055,847
1747533332070,0.8175917500000001,0.5686534,-0.405745165,-0.34487935,-0.6154565249999999,-3.5731632500000003,848
1747533332080,0.70874226,0.56987363,-0.43539813,-0.37550572,-0.6087986,-3.5803537,849
1747533332090,0.61038715,0.5645044,-0.41684976,-0.49055427,-0.39787626,-3.4274883,850
1747533332100,0.55108124,0.5462001,-0.38439015,-0.492951125,-0.35233621,-3.39286715,851
1747533332110,0.52594337,0.5440035999999999,-0.355835455,-0.46898269,-0.29214878,-3.31057555,852
1747533332120,0.503734175,0.54644417,-0.31263733,-0.393881535,-0.29694247,-3.22029445,853
1747533332130,0.541319,0.588178,-0.3133695,-0.1667139,-0.47191215,-3.193663,854
1747533332140,0.52789587,0.6164886,-0.3648656,-0.14807177,-0.5118596,-3.2117724,855
1747533332150,0.5325329350000001,0.63113205,-0.38207163,-0.162719145,-0.5214469749999999,-3.20671235,856
1747533332160,0.55645055,0.6965394,-0.42685616,-0.32490566,-0.49375007,-3.2277513,857
1747533332170,0.53717,0.70093244,-0.3841461,-0.40426785,-0.43675843,-3.2708945,858
1747533332180,0.47542354,0.70166457,-0.302631,-0.40053943,-0.3637878,-3.2708945,859
1747533332190,0.38268176,0.68531275,-0.24869433,-0.34993938,-0.2892193,-3.2288165,860
1747533332200,0.33265,0.6760386,-0.20622836,-0.2796319,-0.21784659,-3.1627703,861
1747533332210,0.3377752149999999,0.6604189149999999,-0.22062774,-0.24021713,-0.18295918,-3.1763524,862
1747533332220,0.29433304,0.6382097,-0.25723633,-0.1949434,-0.13369069,-3.2495892,863
1747533332230,0.19915071,0.614048,-0.26480213,-0.1949434,-0.11025487,-3.2474587,864
1747533332240,0.155586495,0.6006249,-0.255649975,-0.16937704,-0.10759171,-3.1925976,865
1747533332250,0.033923957,0.60184515,-0.191829,-0.034088463,-0.16192019,-3.05145,866
1747533332260,0.0374627875,0.628691475,-0.203787805,0.1187769934999999,-0.2141181549999999,-2.9188245,867
1747533332270,0.04002539,0.6901939,-0.2928687,0.32810146,-0.2828277,-2.7174897,868
1747533332280,0.05759751,0.73607665,-0.39488465,0.257794,-0.20985709,-2.6573021,869
1747533332290,0.09811102,0.7309515,-0.48152497,0.058589544,-0.05912218,-2.6477149,870
1747533332300,0.038316987,0.70288485,-0.42636803,-0.39521313,0.34887412,-2.666357,871
1747533332310,0.0425879895,0.674086125,-0.373895715,-0.4561995,0.399740485,-2.6700854,872
1747533332320,0.047103049,0.62905755,-0.26931718,-0.511326935,0.446612125,-2.7137612,873
1747533332330,0.05344854,0.6155124,-0.11373068,-0.31158987,0.3323625,-2.873551,874
1747533332340,0.022209208,0.5435155,-0.054424766,0.18375812,0.0,-3.1185617,875
1747533332350,-0.08395569,0.51569295,-0.059549972,0.47244477,-0.16937704,-3.1984565,876
1747533332360,-0.1666911,0.46736962,-0.12032023,0.7099988,-0.25353295,-3.1947281,877
1747533332370,-0.21501444,0.39268813,-0.24161668,0.83516735,-0.30040458,-3.1915324,878
1747533332380,-0.30067852,0.3829258,-0.3270367,0.86233157,-0.30466563,-3.1904671,879
1747533332390,-0.3482697,0.3773125,-0.41538543,0.8016115,-0.2561961,-3.1366713,880
1747533332400,-0.375116,0.3128814,-0.5430274,0.38562572,-0.18429075,-3.1116376,881
1747533332410,-0.48640612,0.2877435,-0.5176454,0.27297401,-0.185888645,-3.10950695,882
1747533332420,-0.58036816,0.23039004,-0.49470404,-0.06764429,-0.18322548,-3.025351,883
1747533332430,-0.6282034,0.14741059,-0.45345837,-0.27643612,-0.17630127,-2.9395974,884
1747533332440,-0.7695125,-0.013179091,-0.28920785,-0.44794372,-0.10546118,-2.799515,885
1747533332450,-0.8212526250000001,-0.0505198505,-0.235271195,-0.4063984,-0.08442221,-2.72361495,886
1747533332460,-0.93840015,-0.13667206,-0.14814276,-0.291349835,-0.0809601,-2.5606295,887
1747533332470,-1.0125935,-0.15766099,-0.13935669,-0.1299622685,-0.12303804,-2.38299655,888
1747533332480,-1.0251624499999998,-0.165470815,-0.15253578,0.0386158365,-0.16831178,-2.17713415,889
1747533332490,-1.07434,-0.15375607,-0.35461518,0.1304949,-0.13688648,-1.6836505,890
1747533332500,-1.0841023,-0.16730124,-0.38890521,0.0567253345,-0.09986854,-1.61866935,891
1747533332510,-1.1397473,-0.21769907,-0.46639338,-0.1038632855,-0.017576862,-1.4847123,892
1747533332520,-1.1806269500000002,-0.236979585,-0.47066441,-0.35260254,0.10972224,-1.2351742,893
1747533332530,-1.2861817,-0.30800024,-0.4583395,-0.49161956,0.12676647,-1.0162623,894
1747533332540,-1.4101628,-0.35290676,-0.33118567,-0.5629923,-0.008522116,-0.48682585,895
1747533332550,-1.4531169,-0.35071027,-0.28261828,-0.51718587,-0.080960095,-0.15606125,896
1747533332560,-1.462269,-0.3354567,-0.25491779,-0.46498792,-0.0961401175,0.078296935,897
1747533332570,-1.4196811,-0.26699865,-0.16473864,-0.28016454,-0.0958738,0.66845345,898
1747533332580,-1.2415192,-0.13789235,-0.14374973,-0.027164243,0.004261058,1.2197278,899
1747533332590,-1.155123,-0.060038086,-0.16132185,0.06231797,0.02396845,1.4189322,900
1747533332600,-1.0780008,0.0024405725,-0.19378147,0.089482215,0.0175768634999999,1.5012238999999998,901
1747533332610,-1.031752,0.03099527225,-0.204886075,0.130494895,-0.0170442315,1.6439694,902
1747533332620,-0.91619086,0.10323621,-0.2489384,0.14647387,-0.10173275,1.7795243,903
1747533332630,-0.8266219,0.20866893,-0.26480213,0.11771172,-0.1470065,1.839179,904
1747533332640,-0.77317333,0.2591888,-0.2562601,0.08149273,-0.13422333,2.0383835,905
1747533332650,-0.7447406649999999,0.28884175,-0.25979895,0.078563255,-0.128098055,2.06022145,906
1747533332660,-0.69519705,0.33789725,-0.265656325,0.067111662,-0.118244355,2.0897826,907
1747533332670,-0.6616392,0.38975942,-0.29506522,0.007989483,-0.082558,2.1241374,908
1747533332680,-0.6157564,0.40391475,-0.36462155,-0.105993815,-0.0005326322,2.1587584,909
1747533332690,-0.5935472,0.3917119,-0.3521746,-0.40959418,0.25353295,2.191249,910
1747533332700,-0.596964,0.3968371,-0.27920148,-0.48309743,0.33502567,2.209891,911
1747533332710,-0.589398235,0.40891791,-0.237833785,-0.460726865,0.320910915,2.2413164,912
1747533332720,-0.5383903,0.44808912,-0.15229172,-0.35180358,0.23915187,2.3105587,913
1747533332730,-0.473227,0.48054874,-0.12520137,-0.077231675,0.04314321,2.3718114,914
1747533332740,-0.3939084,0.562796,-0.17620933,0.2657835,-0.09853696,2.3552997,915
1747533332750,-0.36974674,0.60306543,-0.27895743,0.30253512,-0.041545313,2.3798008,916
1747533332760,-0.354859245,0.62332219,-0.3392395649999999,0.2495382099999999,0.0151800185,2.3869914,917
1747533332770,-0.3192269,0.70190865,-0.5444917,-0.05486112,0.2247708,2.4080303,918
1747533332780,-0.28627914,0.70093244,-0.54668826,-0.7089335,0.49321744,2.4000409,919
1747533332790,-0.27871338,0.69336665,-0.4183141,-0.88470215,0.4889564,2.3744745,920
1747533332800,-0.28871974,0.71045065,-0.27334413,-0.8591358,0.42237735,2.392584,921
1747533332810,-0.25162303,0.6794554,-0.14765464,-0.67963874,0.29561087,2.4090955,922
1747533332820,-0.21891935,0.6889736,-0.054424766,-0.38136467,0.12942964,2.3888555,923
1747533332830,-0.13520771,0.7797629,-0.1181237,0.15659387,0.03888215,2.3963125,924
1747533332840,-0.09493827,0.79562664,-0.19256116,0.28815404,0.094808534,2.3702135,925
1747533332850,-0.067847915,0.8363842,-0.2809099,0.34141725,0.15925704,2.3339944,926
1747533332860,-0.0471030484999999,0.8400450500000001,-0.32545035,0.3214435399999999,0.1771002199999999,2.304966,927
1747533332870,-0.017938207,0.84028912,-0.38902725,0.25566346,0.19627498,2.2290659,928
1747533332880,-0.110801995,0.77317333,-0.3077562,0.18801917,0.01438107,2.0250678,929
1747533332890,-0.16132185,0.7392494,-0.2997023,0.24234766,-0.13156016,2.038916,930
1747533332900,-0.1901206,0.7280228,-0.2933568,0.34887412,-0.25193503,2.15503,931
1747533332910,-0.19573392,0.69287854,-0.30946457,0.360592,-0.15499598,2.2615564,932
1747533332920,-0.19573392,0.69287854,-0.30946457,0.360592,-0.15499598,2.2615564,933
1747533332930,-0.17035197,0.6577343,-0.32728076,0.29028457,0.18162759,2.5161545,934
1747533332940,-0.12568948,0.6667644,-0.3270367,0.24873926,0.3110572,2.6306705,935
1747533332950,-0.057109397,0.6587105,-0.30751213,0.23329292,0.39840892,2.7158918,936
1747533332960,0.17791773,0.6347929,-0.24723,0.34514567,0.32969934,2.6045716,937
1747533332970,0.220017605,0.64601955,-0.259920975,0.394414155,0.24847293,2.50843145,938
1747533332980,0.19671014,0.6901939,-0.34168017,0.49002165,0.02396845,2.2833943,939
1747533332990,0.174744985,0.68360435,-0.384512215,0.462591085,-0.02796319,2.27247535,940
1747533333000,0.145214055,0.69214635,-0.467125565,0.38029941,-0.066046395,2.2924491,941
1747533333010,0.20232345,0.71045065,-0.4807928,0.023435818,0.30466563,2.599778,942
1747533333020,0.2425928949999999,0.716552075,-0.4501636,-0.0793622,0.50653327,2.7041738,943
1747533333030,0.32166746,0.7297312,-0.3236199,-0.08362326,0.64555025,2.7739487,944
1747533333040,0.3184947,0.7067898,-0.23087814,0.03781689,0.65247446,2.8218856,945
1747533333050,0.464685,0.67579454,-0.16693515,0.4133226,0.36325517,2.7095,946
1747533333060,0.46663745,0.68702117,-0.188656245,0.49907638,0.275104545,2.6525085,947
1747533333070,0.45760733,0.703983135,-0.258944735,0.62211443,0.126233845,2.56462425,948
1747533333080,0.3973252,0.72875494,-0.41904628,0.6002765,0.06870956,2.5827336,949
1747533333090,0.43637437,0.7465711,-0.49226347,0.45167214,0.1587244,2.7020433,950
1747533333100,0.605506,0.76292294,-0.44564855,0.12623383,0.4777711,2.8373318,951
1747533333110,0.6183190350000001,0.75486907,-0.401230125,0.0940095849999999,0.5390238,2.83466865,952
1747533333120,0.6173428350000001,0.724361925,-0.295309265,0.0913464275,0.6231797,2.82135285,953
1747533333130,0.575975125,0.68543476,-0.1841411849999999,0.2000034075,0.6205165500000001,2.81362975,954
1747533333140,0.4915313,0.6472398,-0.097134784,0.47137952,0.5203817,2.8746161,955
1747533333150,0.8049008,0.69507504,-0.24967057,0.6556703,0.42397526,2.8527782,956
1747533333160,0.86091195,0.74400852,-0.306535915,0.63063658,0.4378237,2.753176,957
1747533333170,0.95011485,0.8261338,-0.43466598,0.540621715,0.48869007,2.5515747500000003,958
1747533333180,0.8998391,0.8358961,-0.49055508,0.28549087,0.6556703,2.354767,959
1747533333190,0.83125895,0.78488815,-0.44003522,-0.046339005,0.9534117,2.338788,960
1747533333200,0.8090498,0.75340474,-0.3385074,0.0063915867,0.9129316,2.3398533,961
1747533333210,0.8009959,0.73729694,-0.31532196,0.08202536335,0.8415589,2.3339944,962
1747533333220,0.78183738,0.703250945,-0.28066583,0.26232137,0.6727145000000001,2.3284017500000003,963
1747533333230,0.7839119,0.6655441,-0.27993366,0.5763081,0.37337518,2.3313313,964
1747533333240,0.8793382,0.6801876,-0.4368625,0.79042625,0.14114754,2.2370553,965
1747533333250,0.8991069,0.7004443,-0.51642513,0.73769563,0.15020229,2.1774006,966
1747533333260,0.9193637,0.71118283,-0.5684093,0.6130597,0.2263687,2.1411815,967
1747533333270,0.92961407,0.71215904,-0.5957437,0.45060685,0.33768883,2.108691,968
1747533333280,0.93303084,0.70337296,-0.5789038,0.2561961,0.4415521,2.036253,969
1747533333290,0.861278,0.64235866,-0.4807928,0.09374327,0.4889564,1.9329224,970
1747533333300,0.81685966,0.5872018,-0.41050428,0.11717909,0.44315,1.9201392,971
1747533333310,0.797335055,0.56962965,-0.379753065,0.16724652,0.394147835,1.92413395,972
1747533333320,0.798433275,0.54534593,-0.344608825,0.282295075,0.296143515,1.92626445,973
1747533333330,0.89080894,0.5349735,-0.42563587,0.515588,0.18002969,1.8477012,974
1747533333340,0.90130347,0.5315567,-0.4846977,0.5123922,0.18748654,1.7992316,975
1747533333350,0.8817788,0.536926,-0.5422952,0.4245079,0.2412824,1.7816548,976
1747533333360,0.878362,0.5302143850000001,-0.55742675,0.3699131,0.27031086,1.78671485,977
1747533333370,0.878362,0.508859355,-0.5659687499999999,0.269511915,0.32304145,1.7986991,978
1747533333380,0.8854397,0.4720067,-0.5086153,0.19121496,0.35313517,1.8221349,979
1747533333390,0.9054524,0.42124277,-0.43442193,0.2647182,0.30519825,1.8327875,980
1747533333400,0.94157284,0.3922,-0.40684342,0.34248254,0.24873926,1.8221349,981
1747533333410,0.95999917,0.38817305,-0.419046295,0.380565735,0.22184133,1.8008296,982
1747533333420,0.976595075,0.38341393,-0.45004156,0.439687915,0.1800297,1.7624800500000002,983
1747533333430,0.95011485,0.35363895,-0.53765815,0.3818973,0.10972224,1.7773937,984
1747533333440,0.96256185,0.3397277,-0.5508372,0.30253512,0.12144015,1.8098843,985
1747533333450,0.9855032,0.33533466,-0.53253293,0.2247708,0.15126756,1.8226675,986
1747533333460,1.00319735,0.327768895,-0.516791215,0.20106866,0.158724405,1.8144117,987
1747533333470,1.0339485000000002,0.3188608,-0.46810179,0.18828549,0.14620754,1.778459,988
1747533333480,1.0106411,0.2936009,-0.3612047,0.28655612,0.03355583,1.7006947,989
1747533333490,1.0003906,0.27724904,-0.36169282,0.49801114,-0.10705908,1.6825852,990
1747533333500,1.0169866,0.2672427,-0.3785328,0.5339638200000001,-0.13102753,1.68817785,991
1747533333510,1.04956825,0.26614444,-0.396471,0.5890912500000001,-0.178431795,1.67592735,992
1747533333520,1.0899596,0.29091623,-0.45858356,0.59867865,-0.25832662,1.5616777,993
1747533333530,1.0284572,0.27871338,-0.4549227,0.55766594,-0.2892193,1.5052186,994
1747533333540,1.0172306,0.27090356,-0.42246306,0.5070659,-0.40107206,1.4966966,995
1747533333550,1.03163,0.27724904,-0.40171823,0.5289038,-0.4101268,1.4966966,996
1747533333560,1.03663315,0.280299755,-0.396104915,0.5368933,-0.39175099,1.49563135,997
1747533333570,1.04859195,0.284814805,-0.391467835,0.541687,-0.328367755,1.4969629,998
1747533333580,1.065798,0.2899400199999999,-0.3923220349999999,0.5251754,-0.21758026,1.4990934,999
1747533333590,1.091546,0.3000684,-0.396715065,0.5118596,-0.15180019,1.4988271,1000
1747533333600,1.1087521,0.3077562,-0.39537275,0.38402784,0.27057716,1.4695324,1001
