id,timestamp,acc_x,acc_y,acc_z,gyro_x,gyro_y,gyro_z
1,1747533693940,-0.495314195,-0.717894375,0.5839069650000001,-0.12676647,-0.8910937250000002,-1.06952544
2,1747533693950,0.533997235,-1.853492775,-0.0921316,1.56833555,-0.47457535,2.18219425
3,1747533693960,1.1243718,-2.5338023,-0.82247293,4.1417484,1.5883093,7.227287
4,1747533693970,1.0389518,-2.3295264,-0.88421935,4.318582,1.4604776,7.5884113
5,1747533693980,1.0306537,-2.1601508,-0.9664667,4.5119276,1.2831111,7.820639
6,1747533693990,1.0416363,-2.0937672,-1.01064105,4.6032741,1.18217725,7.861119
7,1747533694000,1.1136333,-1.8692344,-1.1734272,4.9843726,0.57577544,7.5671062
8,1747533694010,1.19441615,-1.6194418499999998,-1.48386805,4.9843726,0.57577544,7.5671062
9,1747533694020,1.1900232,-1.5807588,-1.5182801,5.1968927,-0.090014845,6.762831
10,1747533694030,1.2232149,-1.4201691,-1.5812469,5.279983,-0.47244477,6.1300645
11,1747533694040,1.2852055,-1.2695858,-1.654708,5.319398,-0.66152924,5.5319185
12,1747533694050,1.3381659,-1.1668377,-1.6754531,5.338573,-0.68869346,4.8757153
13,1747533694060,1.3798997,-1.053107,-1.6034561,5.5239286,-0.72171664,3.5436022
14,1747533694070,1.2964321,-0.9171671,-1.5500076,5.6826534,-0.69348717,3.0610373
15,1747533694080,1.2115002,-0.76853627,-1.4992436,5.8477693,-0.7318367,2.7814054
16,1747533694090,1.1329137,-0.60038084,-1.5273103,5.9750686,-0.76752305,2.6818032
17,1747533694100,1.0631135,-0.37194324,-1.6727684,5.7747984,-0.6961503,3.097789
18,1747533694110,1.0452971,-0.24796216,-1.8314055,5.3684,-0.49801114,3.4866107
19,1747533694120,1.1063116,-0.22697324,-1.9375705,4.8288436,-0.2647182,3.8525288
20,1747533694130,1.2000295,-0.30848834,-1.9192662,4.304201,-0.20133498,4.0645165
21,1747533694140,1.2905748,-0.25015867,-1.577586,3.7358825,-0.15073492,4.0543966
22,1747533694150,1.3913703,-0.19109683,-1.360131,3.7358825,-0.15073492,4.0543966
23,1747533694160,1.4565337,-0.08053889,-1.1853861,3.9649143,-0.24927188,3.597398
24,1747533694170,1.4558015,0.012935034,-1.0623811,4.194479,0.004261058,3.2613072
25,1747533694180,1.4360328,0.13081467,-0.971836,4.323376,0.205063409,3.0730216
26,1747533694190,1.2686096,0.35876414,-0.93303084,4.5084655,0.57204701,2.82801075
27,1747533694200,0.7241178,1.0306537,-1.0182068,4.125503,1.4421018,3.4940674
28,1747533694210,0.53863436,1.4260265,-1.1314493,3.935087,1.3491575,3.6964676
29,1747533694220,0.29213652,1.9627084,-1.1731832,3.4807515,0.9369001,4.126302
30,1747533694230,0.244301305,2.18382425,-1.15072995,3.22349025,0.769919885,4.31006015
31,1747533694240,0.41684976,2.8654761,-1.0716554,2.3499734,0.21518342,4.5843654
32,1747533694250,0.46639338,3.6039932,-0.91106576,0.8042747,-0.45912898,4.016047
33,1747533694260,0.6552937,3.771417,-0.8256457,0.07989483,-0.4346279,3.3939326
34,1747533694270,0.835408,3.8304784,-0.7473033,-0.62531024,-0.22050974,2.4778051
35,1747533694280,1.065554,3.888076,-0.62063754,-1.2458268,0.14221281,1.2085425
36,1747533694290,1.2300485,3.909309,-0.49104318,-1.7273263,0.5954828,-0.28815404
37,1747533694300,1.070191,3.7370045,-0.18182266,-2.0586236,1.2181299,-3.1148334
38,1747533694310,0.92278045,3.58154,-0.110557936,-1.9734024,1.1653993,-4.1934137
39,1747533694320,0.74461865,3.385806,-0.07468152,-1.8253306,1.0721886,-4.967328
40,1747533694330,0.63235235,3.2020311,-0.07614586,-1.7851169,1.01786015,-5.204083150000001
41,1747533694340,0.5320448,3.074145,-0.14106509,-1.8375812,0.753142,-5.6086173
42,1747533694350,0.54864067,2.8791435,-0.44369608,-2.6887274,0.6173208,-5.380651
43,1747533694360,0.67481834,2.6919515,-0.6299118,-3.3859432,0.6498113,-5.3178
44,1747533694370,0.7912336,2.4430132,-0.7946504,-4.150803,0.7366304,-5.3817163
45,1747533694380,0.9171671,2.085225,-0.92180425,-4.5143245,0.80187785,-5.47652465
46,1747533694390,0.980622,1.92939455,-0.965490475,-5.4887753,0.9683254,-5.8616176
47,1747533694400,1.3027775,1.1985651,-1.2708061,-6.2866583,1.0940266,-6.543387
48,1747533694410,1.41919285,1.043954865,-1.39088225,-6.42221315,1.1310445,-6.75271135
49,1747533694420,1.7281694,0.6160005,-1.6976621,-6.6509786,1.117995,-7.3029203
50,1747533694430,1.811881,0.51117791,-1.7861329,-6.640326,1.0072075,-7.600129
51,1747533694440,1.9523359,0.309708655,-1.95575285,-6.595318499999999,0.91373055,-7.697867
52,1747533694450,2.02225825,0.121296458,-2.1081666,-6.494650999999999,0.653539725,-7.8107852
53,1747533694460,2.01151975,-0.1267877369999999,-2.34416985,-6.438991,0.48682585,-7.8259654
54,1747533694470,1.9786942,-0.3280129349999999,-2.5341685,-6.4589648,0.032490565,-7.45871545
55,1747533694480,2.0278716,-0.3778006,-2.5870068,-6.605172,-0.4878911,-6.6903934
56,1747533694490,2.1513648,-0.42734426,-2.7046423,-6.8326063,-0.3339604,-6.296778
57,1747533694500,2.3309908,-0.7902574,-2.8984237,-7.2507224,0.047404267,-6.091715
58,1747533694510,2.3192759,-1.0008788,-2.9011085,-7.294931,0.15765914,-6.1242056
59,1747533694520,2.2331238,-1.1443844,-2.7981162,-7.1532507,0.16405073,-6.124738
60,1747533694530,2.0866895000000003,-1.23346525,-2.7573589,-6.644587,-0.07882957,-5.8882494
61,1747533694540,2.024699,-1.2363939,-2.8191054,-6.560431,-0.18535602,-5.5676045
62,1747533694550,2.0012693,-1.2817887,-2.954557,-6.6989155,-0.12250541,-5.1793156
63,1747533694560,2.0620399,-1.3518331,-3.0150833,-7.072291,0.10439592,-4.877846
64,1747533694570,2.1330605,-1.6276178,-2.8840246,-7.3742933,0.35100463,-4.8149953
65,1747533694580,2.08888605,-1.6889982,-2.7851814,-7.42835545,0.515055365,-4.781439649999999
66,1747533694590,1.9912632,-1.8631331,-2.489872,-7.2304826,0.7717841,-4.679174
67,1747533694600,1.8797289,-2.036902,-2.332699,-6.8874674,0.7419567,-4.54069
68,1747533694610,1.616147,-2.1843123,-2.1965153,-6.5252776,0.65194184,-4.200338
69,1747533694620,1.4313957,-2.2886468000000004,-2.07094775,-6.150038,0.561926995,-3.6996636
70,1747533694630,1.1863623,-2.43886415,-1.87082075,-5.5060857,0.4034689099999999,-2.9148298500000003
71,1747533694640,1.1924638,-2.6109245,-1.6503152,-4.718589,0.26365295,-2.4394555
72,1747533694650,1.2495731,-2.7573588,-1.5109584,-4.1081924,0.19760656,-2.5662222
73,1747533694660,1.2000295,-2.895251,-1.3464638,-3.7553235,0.205596045,-2.6999128
74,1747533694670,1.12034475,-2.8953731,-1.18367765,-2.61762105,0.247407675,-3.1465249
75,1747533694680,1.02687085,-2.8197154,-1.0245524,-1.449026,0.24421188,-3.6147087
76,1747533694690,0.9418169,-2.7124522,-1.155611,-0.509729,0.14594123,-4.06931
77,1747533694700,0.76853627,-2.8398502,-1.2666571,-0.27324033,-0.026631612,-4.372378
78,1747533694710,0.39024755,-3.0265539,-1.2132086,-0.2908172,-0.2615224,-4.509797
79,1747533694720,-0.25162303,-3.342608,-1.0138137,-0.69348717,-0.7685883,-3.755057
80,1747533694730,-0.238565965,-3.3817792,-1.07568225,-0.9193232,-1.0242518,-3.0924628
81,1747533694740,-0.09786696,-3.5532293,-1.3572023,-1.2069446,-1.2447615,-2.386725
82,1747533694750,0.2443013,-3.849515,-1.5924735,-1.6085494,-1.3795174,-1.8663434
83,1747533694760,0.77024466,-4.3749704,-1.7933327,-2.0809941,-1.3587449,-1.7635453
84,1747533694770,1.3742863,-5.6762834,-1.7598969,-2.4304008,-1.0120013,-2.292449
85,1747533694780,1.6171232,-6.3535423,-1.6293261,-1.9941751,-0.78936094,-2.5758095
86,1747533694790,1.726705,-6.690341,-1.5536685,-0.7914915,-0.5049353,-2.5118935
87,1747533694800,1.7240205,-6.7145033,-1.4047935,0.4857606,-0.37284255,-1.9552929
88,1747533694810,1.667399,-5.994778,-1.2703179,1.7917749,-0.25086978,-0.9598033
89,1747533694820,1.6168793,-5.4881153,-1.428467,3.5228295,0.3073288,2.0250678
90,1747533694830,1.4767904,-4.9358134,-1.6847272,3.639476,0.75420725,3.5878108
91,1747533694840,1.3706255,-4.4728374,-1.8963249,3.3241577,1.1680624,4.952947
92,1747533694850,1.3218141,-4.061845,-1.97784,2.8101676,1.4620755,5.9431105
93,1747533694860,1.3867333,-3.6501203,-1.731098,2.2178805,1.4849787,6.5061026
94,1747533694870,1.43139575,-3.61033895,-1.61724535,2.3646207500000003,1.39869225,6.3409868
95,1747533694880,1.5282865,-3.491727,-1.3428029,3.125486,1.0615361,5.7151437
96,1747533694890,1.4655638,-3.3972766,-1.270562,3.9318912,0.86659265,5.3188653
97,1747533694900,1.3777032,-3.1637142,-1.4440868,5.5143414,0.47031426,5.1031494
98,1747533694910,1.0811737,-2.9831119,-1.6486067,6.040582,0.32863408,5.351356
99,1747533694920,1.0662861499999998,-2.89805795,-1.75196495,6.19877375,0.276968755,5.5513595
100,1747533694930,1.0367552,-2.74918295,-1.9553867,6.42061525,0.165115988,5.9950422
101,1747533694940,0.9776934,-2.5447848,-2.2226293,6.436328,-0.06870956,6.9918633
102,1747533694950,1.1839217,-2.2375169,-2.5391717,6.3329973,-0.19281286,7.6560555
103,1747533694960,1.3789234,-2.1428226500000003,-2.62178505,6.0570936,-0.4543353,8.409198
104,1747533694970,1.5739251,-2.0481284,-2.7043984,5.946306,-0.628506,8.396947
105,1747533694980,1.7264609,-1.9124327,-2.6934156,5.9345884,-0.8181231,8.172176
106,1747533694990,1.7636796499999998,-1.8530047,-2.65412255,5.99877045,-0.9286443,7.984157
107,1747533695000,1.8824136,-1.4843562,-2.4574125,6.598248,-1.4349113,6.7729516
108,1747533695010,1.8450727,-1.317421,-2.4186075,6.8698907,-1.5536882,6.2515044
109,1747533695020,1.7913802,-1.1363305,-2.4671748,7.113836,-1.659682,5.6885123
110,1747533695030,1.7220681,-1.0448091,-2.5379512,7.16257175,-1.67166625,5.51434165
111,1747533695040,1.7019333,-1.0177187,-2.55149635,7.216101399999999,-1.69377045,5.1971591
112,1747533695050,1.667155,-0.9103335,-2.5552793,7.07815,-1.653823,4.6088667
113,1747533695060,1.6105338,-0.8463905,-2.4864552,6.975352,-1.6117451,4.458132
114,1747533695070,1.5387809,-0.78757274,-2.391517,6.868293,-1.6474315,4.351073
115,1747533695080,1.453605,-0.7150877,-2.3202522,6.75857,-1.6660736,4.283961
116,1747533695090,1.3994243,-0.6155124,-2.2602143,6.6381955,-1.6298546,4.2770367
117,1747533695100,1.3110756,-0.38097337,-2.25997,6.111422,-1.216532,4.507134
118,1747533695110,1.2542102,-0.28335047,-2.2521603,5.6837187,-0.93903065,4.6642604
119,1747533695120,1.1858741,-0.1952458,-2.2182362,5.18624,-0.7281082,4.7878313
120,1747533695130,1.16171245,-0.17584325,-2.18431235,4.945224,-0.677774475,4.816327149999999
121,1747533695140,1.121687,-0.17376876,-2.0203059,4.3308325,-0.68176925,4.825115
122,1747533695150,1.1946602,-0.1718163,-1.713282,3.953729,-0.932639,4.547614
123,1747533695160,1.1880707,-0.18011424,-1.5507398,3.9254994,-0.932639,4.3516054
124,1747533695170,1.1390152,-0.093717985,-1.4306636,3.9574575,-0.92305166,4.1470747
125,1747533695180,1.06714035,0.0087860599999999,-1.38526895,3.96704475,-0.921453745,4.12124205
126,1747533695190,0.9298581,0.35559142,-1.249085,3.9244342,-0.97738016,4.0938115
127,1747533695200,0.76267886,1.0650659,-1.2595794,3.4722295,-0.9321064,4.112986
128,1747533695210,0.7687803,1.5382929,-1.2891104,3.0109699,-0.7616641,3.9750342
129,1747533695220,0.66115105,2.076195,-1.0535952,2.4266725,-0.6146576,3.7401435
130,1747533695230,0.57841566,2.3474647,-0.954507925,2.1656827,-0.7107977000000001,3.60352335
131,1747533695240,0.5039782349999999,2.8718218,-0.8628644050000001,1.4647386,-0.93796533,3.1111047
132,1747533695250,1.0633575,3.5471282,-0.5137405,0.80587256,-1.5504924,1.4210628
133,1747533695260,1.329868,3.6850204,-0.27602875,0.72437984,-1.556884,0.3669836
134,1747533695270,1.3986921,3.8099777,-0.1436276915,0.74328827,-1.46260805,-0.1802959999999999
135,1747533695280,1.4481136,4.0557435,0.1026260735,0.81279675,-1.19149825,-1.2362394
136,1747533695290,1.3955193,4.271124,0.26748674,0.8977516,-0.9137306,-2.2037658
137,1747533695300,1.0438329,4.481379,0.33069757,0.61678815,-0.48735848,-3.9760995
138,1747533695310,0.96500235,4.4756435,0.34216826,0.411192095,-0.45140581,-4.16758075
139,1747533695320,0.78134925,4.47417915,0.387318835,0.20559604,-0.41545314,-4.359062
140,1747533695330,0.6765267,4.4784503,0.42099872,-0.4878911,-0.36272255,-4.5066013
141,1747533695340,0.5605995,4.4740577,0.39830142,-1.1867046,-0.31052458,-4.4075317
142,1747533695350,0.5879339,4.42292765,0.34155811,-1.6152072,-0.2695119,-4.346012549999999
143,1747533695360,0.8319911499999999,4.06050255,0.0623566199999999,-3.0700921999999995,0.0279631999999999,-4.38702535
144,1747533695370,1.17391535,3.52650525,-0.222214115,-4.5731803,0.47617321,-4.71219765
145,1747533695380,1.2991167,3.303803,-0.28432667,-5.049886,0.6679208,-4.934838
146,1747533695390,1.4475036,2.8088548,-0.37804466,-5.7758636,1.0684602,-5.4871774
147,1747533695400,1.5197445,2.3602777,-0.48616204,-6.2573633,1.4109428,-6.027799
148,1747533695410,1.6268855,1.5790504,-0.8847075,-6.466954149999999,1.57579245,-6.4656225
149,1747533695420,1.743545,1.201982,-1.1927078,-6.6893281,1.7510284500000002,-7.09519375
150,1747533695430,1.9589255,0.7216773150000001,-1.80285095,-6.63180385,1.20454778,-7.71304735
151,1747533695440,2.20578935,0.1382584365,-2.5719974,-6.64219035,0.60959758,-7.8283622
152,1747533695450,2.2609463,-0.30629185,-3.1995907,-6.91676215,0.1789644249999999,-7.43501335
153,1747533695460,2.2609463,-0.30629185,-3.1995907,-7.1505876,-0.05539375,-7.099455
154,1747533695470,2.5569878,-0.5994046,-3.3238156,-7.8115845,-0.03834952,-6.491189
155,1747533695480,2.6358182,-0.77073276,-3.30722,-7.98682,0.14807177,-6.3921194
156,1747533695490,2.6736472,-0.92180425,-3.2847664,-8.026768,0.2892193,-6.36602
157,1747533695500,2.672427,-1.0162543,-3.2584083,-7.900001,0.37763625,-6.4118266
158,1747533695510,2.61727,-1.0657979,-3.176649,-7.65499,0.23915187,-6.419816
159,1747533695520,2.357593,-1.1114367,-3.2110612,-7.0999875,-0.025033714,-5.9500346
160,1747533695530,2.3419733,-1.1165619,-3.2069123,-7.01077175,-0.0394147844999999,-5.7550913
161,1747533695540,2.3158593,-1.1492655,-3.1710358,-6.821421,-0.051132694,-5.1723914
162,1747533695550,2.2707086,-1.1739154,-3.1576126,-6.8192906,-0.11984225,-4.752145
163,1747533695560,2.208474,-1.197833,-3.1236887,-6.8826737,-0.13582122,-4.4730453
164,1747533695570,2.1303756,-1.2549424,-2.7778594,-6.8549767,-0.12357068,-4.0762343
165,1747533695580,2.0783916,-1.3059504,-2.6487532,-6.7553744,-0.016511599,-3.9489353
166,1747533695590,2.0159128,-1.4313958,-2.4403284,-6.578541,0.20240025,-3.9207058
167,1747533695600,1.8240839,-1.7799095,-1.9051108,-6.2994413,0.3669836,-3.9745016
168,1747533695610,1.6571487,-1.9090158,-1.6139506,-5.3550844,0.5342301,-3.9963396
169,1747533695620,1.5497635,-1.93927885,-1.4794751,-4.97851345,0.54115432,-3.82989205
170,1747533695630,1.34414525,-1.9309809,-1.23639405,-4.3023369,0.5275722199999999,-3.3963294
171,1747533695640,1.16512925,-1.81322335,-1.10789785,-3.72629515,0.49295115,-2.7310717
172,1747533695650,0.93059033,-1.619808,-1.1194906,-3.0194921,0.45593318,-1.407747
173,1747533695660,0.988187815,-1.59711065,-1.25237975,-2.87328455,0.55020909,-0.7020092872
174,1747533695670,1.1277885,-1.7303659,-1.5678238,-2.7760792,0.82557994,0.21252026
175,1747533695680,1.0927663,-1.8173723,-1.56855595,-2.8107003,0.90707269,0.19068234
176,1747533695690,1.0077124,-1.986626,-1.5702643,-2.8133633,1.144094,-0.007989483
177,1747533695700,0.780007,-2.3143947,-1.6529999,-2.637062,1.2767195,-0.34088463
178,1747533695710,0.5515694,-2.5430765,-1.6944895,-1.8002969,1.0428939,-1.567004
179,1747533695720,0.34290043,-2.7661448,-1.6647146,-1.3060142,0.8479505,-2.143312
180,1747533695730,0.21623472,-2.87047925,-1.6305465,-1.0599381,0.75101145,-2.4213461
181,1747533695740,0.01854835,-2.9796948,-1.6800901,-0.37550572,0.41278997,-3.2314796
182,1747533695750,0.2272173,-3.3272324,-1.9336655,-0.05539375,0.104928546,-3.769971
183,1747533695760,0.3065359,-3.7916732,-1.9851615,-0.11824436,-0.2146508,-4.454936
184,1747533695770,0.28762147,-4.018890600000001,-1.94513615,-0.27909929,-0.14993598,-4.4623928
185,1747533695780,0.246497825,-4.43476435,-1.90779555,-0.67484504,0.0253000299999999,-4.2778356
186,1747533695790,0.25809054,-4.848563349999999,-2.0408068,-1.03943178,0.265250845,-3.792075
187,1747533695800,0.5195979,-5.9198527,-2.6631527,-1.3012205,-0.014913702,-1.8775285
188,1747533695810,0.66969305,-6.23249,-2.5477135,-0.96779275,-0.42876893,-0.9502159
189,1747533695820,0.775613925,-6.236883150000001,-2.42300035,-0.6474144749999999,-0.536626965,-0.47191215665
190,1747533695830,1.0819057,-6.0348034,-2.0522776,0.5187838,-0.680704,0.93849796
191,1747533695840,1.4894813,-5.248207,-1.9173138,2.159291,-0.46978164,2.540123
192,1747533695850,1.582223,-4.7303176,-1.854591,2.8852687,-0.12250541,3.274623
193,1747533695860,1.6261535,-4.164349,-1.8719192,3.08047845,0.051931645,3.4956653500000003
194,1747533695870,1.6346954500000002,-3.9703234,-1.90364655,3.3768883,0.39281625,3.8461373
195,1747533695880,1.63689195,-3.6364529,-1.99712045,3.5103127,0.6713829,4.02430275
196,1747533695890,1.5163277,-3.320155,-2.1581984,3.556918,0.84848315,4.1284323
197,1747533695900,1.3188853,-3.0343637,-2.0627718,3.8258972,0.66152924,4.2978096
198,1747533695910,1.2800802,-2.9357646,-2.0105436,4.1310954,0.46818373,4.438957
199,1747533695920,1.2515256,-2.8457074,-1.9473327,4.5401573,0.18056233,4.593953
200,1747533695930,1.2354178,-2.7748087000000003,-1.9340316,4.7561395,0.03169162,4.681571
201,1747533695940,1.1929518,-2.4444773,-2.0081031,5.4403057,-0.4383563,5.0871706
202,1747533695950,1.300337,-2.3346517,-2.080588,5.9164786,-0.71479243,5.6938386
203,1747533695960,1.4040614,-2.2358084,-2.1220777,6.048039,-0.7323693,5.939382
204,1747533695970,1.5107143,-2.101333,-2.1894376,6.118346,-0.65034395,6.139119
205,1747533695980,1.5619664,-1.9239032,-2.2873044,6.1178136,-0.5587312,6.3585634
206,1747533695990,1.5702643,-1.7481819,-2.383463,6.067746,-0.5384912,6.627543
207,1747533696000,1.5829554,-1.4848443,-2.5267248,6.0150156,-0.58269966,6.9029136
208,1747533696010,1.658369,-1.3969837,-2.5931082,5.8717375,-0.9507485,7.441405
209,1747533696020,1.7957731,-1.3049742,-2.5694346,5.8371165000000005,-1.0402307,7.45685135
210,1747533696030,1.86325495,-1.24444795,-2.5523506,5.7814565,-1.20294985,7.40145755
211,1747533696040,1.98284305,-1.14401835,-2.53087365,5.75402595,-1.3052153,7.2035847
212,1747533696050,2.1579542,-1.0218678,-2.3978624,5.8733354,-1.3486248,6.2760057
213,1747533696060,2.1808956,-0.9386441,-2.3427055,5.95376305,-1.3534185,6.055229649999999
214,1747533696070,2.1560016,-0.9096014,-2.323425,6.14471185,-1.34463005,5.64696695
215,1747533696080,2.0810761,-0.916435,-2.2768102,6.498646,-1.3635385,5.208078
216,1747533696090,1.9034024,-0.78586435,-2.309758,6.7612333,-1.4306501,5.0568104
217,1747533696100,1.8602043,-0.6823841,-2.293894,6.709568,-1.4386396,5.070126
218,1747533696110,1.8497099,-0.5981843,-2.2631428,6.613694,-1.4189322,5.0669303
219,1747533696120,1.8643533,-0.56865338,-2.2553329,6.5585667,-1.35741325,5.0458913
220,1747533696130,1.8789967,-0.53912246,-2.247523,6.5034394,-1.2958943,5.0248523
221,1747533696140,2.02079395,-0.476765855,-2.3115883,6.29411505,-0.9555422,4.878645000000001
222,1747533696150,1.8805832,-0.39854549,-2.28059305,5.91461445,-0.63409865,4.731638500000001
223,1747533696160,1.8174944,-0.35510328,-2.2367847,5.1452274,-0.32756883,4.592888
224,1747533696170,1.5619664,-0.19207305,-1.8789967,4.822452,-0.31265512,4.614193
225,1747533696180,1.4802072,-0.12032023,-1.6803342,4.498612,-0.56725335,4.7345676
226,1747533696190,1.4138237,-0.0053692595,-1.5402453,4.444816,-0.72437984,4.789962
227,1747533696200,1.3376778,0.11153416,-1.4072341,4.3910203,-0.7824367,4.8900967
228,1747533696210,1.3313323,0.22648512,-1.3225462,4.288222,-0.7616641,4.969991
229,1747533696220,1.2878901,0.53058046,-1.2093037,3.861051,-0.5134575,4.9188585
230,1747533696230,1.244814,0.60172313,-1.155123,3.6962013,-0.347009915,4.8589375
231,1747533696240,1.0596966,0.8339436,-1.0108851,3.2698293,0.113983296,4.6701193
232,1747533696250,0.9872115,1.0182068,-0.9606094,3.14412815,0.197606558,4.60140965
233,1747533696260,0.93059033,1.3325526,-0.9237567,2.8330708,0.22050974,4.368117
234,1747533696270,0.6570021,2.007615,-0.8983747,2.7622306,-0.03355583,3.9201732
235,1747533696280,0.6211257,2.6465569,-0.8812907,2.7569044,-0.4165184,3.4253578
236,1747533696290,0.6389419,3.3872707,-0.6796995,2.6700854,-0.8223842,2.711098
237,1747533696300,0.6057501,4.046225,-0.047347106,2.5875273,-1.2921658,1.8066885
238,1747533696310,0.49348375,4.372041,0.22160399,2.534264,-1.2655342,0.9864349
239,1747533696320,0.37706846,4.6134143,0.42124277,2.0213394,-0.5581986,-0.37390783
240,1747533696330,0.38536641,4.67357415,0.43283552,1.80668855,-0.35286886,-0.735565115
241,1747533696340,0.29652956,4.766682,0.42148685,1.0956244,0.2977414,-1.8168086
242,1747533696350,0.32410803,4.737639,0.485918,0.6423545,0.5747102,-2.52734
243,1747533696360,0.013667206,4.5306787,0.7219213,0.32756883,0.70147663,-3.1265512
244,1747533696370,-0.105676785,4.3766785,0.622346,-0.20186761,0.70680296,-3.743872
245,1747533696380,-0.12007617,4.1753316,0.4510178,-0.6508766,0.660464,-3.9484026
246,1747533696390,-0.07809832,3.901987,0.26651052,-1.4508902,0.737163,-4.272243
247,1747533696400,-0.028066583,3.6540253,0.14863087,-2.1827269,0.91346425,-4.5683866
248,1747533696410,0.18157859,3.0404654,0.051496077,-3.3880737,1.24849,-5.2187304
249,1747533696420,0.2689511,2.723679,-0.00976229,-3.7571878,1.3587449,-5.5239286
250,1747533696430,0.39781332,2.3597896,-0.122760795,-3.991546,1.4183996,-5.791843
251,1747533696440,0.5217944,2.0544739,-0.29482117,-4.143879,1.3869743,-6.0384517
252,1747533696450,0.65212095,1.7806417,-0.5347294,-4.279167,1.3006879,-6.2807994
253,1747533696460,1.0064921,1.2634844,-1.0196712,-4.4224453,1.176052,-6.5295386
254,1747533696470,1.1729392,1.056768,-1.1673259,-4.6978164,0.6087986,-6.9684277
255,1747533696480,1.2427395,0.9691514,-1.21845585,-4.7271112,0.46552055,-7.020625600000001
256,1747533696490,1.4409139,0.74413055,-1.38112,-4.796886,0.06977482,-7.1031833
257,1747533696500,1.560258,0.5989165,-1.5402453,-4.8794436,-0.11930962,-7.0589747
258,1747533696510,1.8060236,0.2550398,-1.9239032,-5.2996907,-0.3685815,-6.8113008
259,1747533696520,1.922439,0.13105874,-2.0486166,-5.63951,-0.35313517,-6.664827
260,1747533696530,2.029824,0.012202863,-2.1372094,-6.004363,-0.32117724,-6.56629
261,1747533696540,2.1074343,-0.14472595,-2.1496563,-6.340454,-0.31638354,-6.4922543
262,1747533696550,2.1923664,-0.2677308,-2.1032853,-6.4544373,-0.33981937,-6.4586983
263,1747533696560,2.3141508,-0.39537275,-2.0195737,-6.280267,-0.33129725,-6.274408
264,1747533696570,2.3751652,-0.42197496,-2.0354373,-6.0618873,-0.32756883,-6.160957
265,1747533696580,2.4166548,-0.42124277,-2.0783916,-5.8557587,-0.32277513,-6.0443106
266,1747533696590,2.5255044,-0.39708114,-2.174306,-5.717807,-0.21997711,-5.9511
267,1747533696600,2.5821257,-0.47932845,-2.3475866,-5.77906,0.11504856,-5.819007
268,1747533696610,2.3851714,-0.5708499,-2.3854156,-5.983058,0.27217507,-5.485047
269,1747533696620,2.115,-0.59061855,-2.352468,-6.185458,0.28442562,-5.036038
270,1747533696630,2.0276275000000004,-0.5695076,-2.34526825,-6.29784335,0.2649845349999999,-4.7518785
271,1747533696640,1.88216945,-0.53180075,-2.31390675,-6.51595635,0.2396845,-4.16465135
272,1747533696650,1.8787527,-0.5774395,-2.2026167,-6.8704233,0.58909124,-3.0061762
273,1747533696660,1.952214,-0.73412424,-2.1413581,-6.8326063,0.84209156,-2.926814
274,1747533696670,2.016157,-0.8912971,-2.0800998,-6.660566,1.0940266,-3.0823426
275,1747533696680,1.9573392,-1.053107,-2.0220141,-6.372945,1.3081448,-3.3646379
276,1747533696690,1.8211553,-1.1685461,-1.7945529,-5.899967,1.423726,-3.6336172
277,1747533696700,1.5580615,-1.2566508,-1.7035197,-5.00408,1.3683321,-3.697533
278,1747533696710,1.427979,-1.3279155,-1.6913167,-4.5614624,1.2506205,-3.5563853
279,1747533696720,1.3506129,-1.4374971,-1.6722802,-4.1353564,1.0689929,-3.3902042
280,1747533696730,1.3186413,-1.5031487,-1.6276178,-3.7273602,0.8948221,-3.2474587
281,1747533696740,1.2800802,-1.5070535,-1.5617223,-3.3182988,0.7888283,-3.1233554
282,1747533696750,1.1792847,-1.4448189,-1.4933863,-2.660498,0.71798825,-2.7712855
283,1747533696760,1.1746475,-1.5368285,-1.5131549,-2.4682178,0.8479505,-2.5726137
284,1747533696770,1.2049106,-1.7203596,-1.5290186,-2.3734093,1.0077401,-2.4666197
285,1747533696780,1.1779423,-1.7936988,-1.5010741,-2.3366576500000003,1.0713897,-2.4514397
286,1747533696790,0.97647303,-1.8082201,-1.512911,-1.9286613,1.2703278,-2.3819313
287,1747533696800,0.95646036,-1.7742962,-1.6661788,-1.6580842,1.274589,-2.3526366
288,1747533696810,0.88934463,-1.973691,-1.9505056,-1.4253238,1.2000204,-2.4644892
289,1747533696820,0.76853627,-2.3226929,-2.1413581,-1.262871,0.91825795,-2.789395
290,1747533696830,0.705203415,-2.5478356,-2.2040809,-1.1616709,0.588026,-3.1883366
291,1747533696840,0.55693865,-3.1571245,-2.2743695,-1.067395,0.38562572,-3.5404065
292,1747533696850,0.52460106,-3.43120085,-2.18333615,-0.85594,0.049534798,-3.8839543
293,1747533696860,0.439059,-4.006932,-2.199688,-0.9965549,0.12942964,-3.8525288
294,1747533696870,0.37975309,-4.22292265,-2.2585057,-1.1422298,0.228499235,-3.7553235
295,1747533696880,0.27017137,-4.911164,-2.5901794,-1.4423680499999998,0.474841615,-3.5095138500000003
296,1747533696890,0.28505886,-5.8981314,-3.1868994,-1.7640779,0.7414241,-2.5630262
297,1747533696900,0.28505886,-5.8981314,-3.1610296,-1.7640779,0.7414241,-2.5630262
298,1747533696910,0.29555333,-6.1612253,-3.0451021,-0.73130405,-0.1965413,-1.3060142
299,1747533696920,0.478840315,-6.112658,-2.92002285,-0.1853560249999999,-0.43196475,-0.8884305499999999
300,1747533696930,0.8496852500000001,-5.9597561,-2.7104998,1.1920309,-0.7568704,0.120907515
301,1747533696940,1.3061944,-5.0183053,-2.3209844,2.3046997,-0.35579833,1.5536882
302,1747533696950,1.2722704,-4.4281745,-2.212379,2.63866,-0.14966966,2.466087
303,1747533696960,1.1663495,-3.8473184,-2.2060335,2.7984498,0.016511599,3.4370759
304,1747533696970,1.1478012,-3.63437845,-2.23898125,2.7822045500000003,0.0455400545,3.87729645
305,1747533696980,1.13486625,-3.25731005,-2.2960906000000003,2.612561,0.027164243,4.9843726
306,1747533696990,1.1717188,-2.8701131,-2.2929177,2.4517062,-0.13422333,5.426457
307,1747533697000,1.3921026,-2.65095,-1.9871141,2.6114957,-0.5587312,5.6885123
308,1747533697010,1.5011961,-2.5757802,-1.798946,3.0003173,-0.75580513,5.6038237
309,1747533697020,1.5573293,-2.3912728,-1.5802706,3.5452,-0.9150622,5.4983625
310,1747533697030,1.5258459,-2.3283062,-1.6598334,4.6738477,-1.109473,5.6293902
311,1747533697040,1.5216969,-2.2904773,-1.7823502,5.061604,-1.1563445,5.8866515
312,1747533697050,1.5309712,-2.2289748,-1.9268318,5.2911687,-1.2149341,6.230732
313,1747533697060,1.5309712,-2.1174407,-2.0595992,5.351356,-1.2756542,6.6355324
314,1747533697070,1.6954657,-1.8519063,-2.2968228,5.0594735,-1.2623384,7.5010595
315,1747533697080,1.7984579,-1.7323183,-2.3485627,4.96626275,-1.27219205,7.635283
316,1747533697090,1.9160933,-1.5885686,-2.3771176,4.7287087,-1.3464943,7.95646
317,1747533697100,2.055694,-1.4187049,-2.3441699,4.644553,-1.4977618,8.054997
318,1747533697110,2.2055452,-1.2510375,-2.2863283,4.6104646,-1.6698021,8.037953
319,1747533697120,2.3839512,-1.0687267,-2.204325,4.6413574,-2.0090888,7.727961
320,1747533697130,2.4398403,-0.9784255,-2.1452632,4.704208,-2.0943098,7.463243
321,1747533697140,2.5106168,-0.8917852,-2.0766833,4.8863683,-2.1017668,7.0477896
322,1747533697150,2.550398,-0.8022162,-1.9666133,5.1143346,-2.078331,6.6786757
323,1747533697160,2.502807,-0.6313761,-1.8924199,5.616074,-2.0367856,5.9516325
324,1747533697170,2.4515553,-0.5637722,-1.9212188,5.815811,-1.9419771,5.6879797
325,1747533697180,2.3719923,-0.5259434,-1.9414753,5.9484367,-1.8130801,5.4887753
326,1747533697190,2.29023315,-0.48372148,-1.9467226,5.96627985,-1.76461055,5.41793515
327,1747533697200,2.208474,-0.44149956,-1.9519699,5.9526978,-1.639442,5.2405686
328,1747533697210,2.1376975,-0.3414361,-1.8516623,5.794506,-1.423726,4.9380336
329,1747533697220,2.0796118,-0.29091623,-1.7591647,5.694904,-1.2436962,4.764928
330,1747533697230,2.050569,-0.24942651,-1.6593453,5.580388,-1.0221212,4.5540056
331,1747533697240,2.0347052,-0.2020794,-1.5482991,5.4594803,-0.7462177,4.285026
332,1747533697250,1.7716117,-0.17303659,-1.3171769,5.3225937,-0.5219796,4.014449
333,1747533697260,1.5358523,-0.102259986,-1.1700104,5.1367054,-0.50333744,3.849333
334,1747533697270,1.3166889,0.08981306,-1.176356,5.0200586,-0.7275756,4.05706
335,1747533697280,1.1678139,0.336799,-1.2730026,4.794223,-0.9289106,4.4560013
336,1747533697290,1.1402354,0.64235866,-1.4362769,4.2599926,-1.0359697,5.022722
337,1747533697300,1.0099089,1.3437792,-1.8450727,2.6812706,-0.6593987,5.5404406
338,1747533697310,0.96963945,1.38917385,-1.8265244,2.2178806,-0.42690473,5.4304518
339,1747533697320,0.9303462,1.4948506,-1.5131549,1.0135992,0.15286545,4.706871
340,1747533697330,0.84150934,1.6117541,-1.0477377,0.6359629,0.24234766,3.8434741
341,1747533697340,0.7414459,1.77429625,-0.8105140850000001,0.6103965,0.12463594,2.9257488
342,1747533697350,0.18987654,2.9150198,0.12910628,0.85061365,-0.19387813,1.8333201
343,1747533697360,-0.08859278,3.283302,0.31995904,1.7880464,-0.90281165,1.8551581
344,1747533697370,-0.17303659,3.5490806,0.27602875,1.9888487,-0.9624664,1.9382486
345,1747533697380,-0.057841565,3.7067416,0.23039004,1.8993665,-0.89162636,1.8034927
346,1747533697390,-0.0374627865,3.7687322,0.190242625,1.7259947,-0.75607145,1.5861787500000002
347,1747533697400,0.0605262,4.012057,0.4046469,0.70627034,-0.07456851,-0.12516858
348,1747533697410,0.046614934,3.9500668,0.5605995,0.4063984,0.29561087,-0.9422264
349,1747533697420,0.046614934,3.9500668,0.5605995,0.4063984,0.29561087,-0.9422264
350,1747533697430,0.046614934,3.9500668,0.5605995,0.4063984,0.29561087,-0.9422264
351,1747533697440,-0.311173,3.908333,0.9964857,0.4314321,0.81918836,-2.6977823
352,1747533697450,-0.21428227,3.7836196,0.81441903,0.35739622,0.6625945,-3.7183056
353,1747533697460,-0.14399378,3.6222975,0.5603554,-0.0010652645,0.6583334,-4.21898
354,1747533697470,-0.07736614,3.312101,0.26626647,-0.58962387,0.7755125,-4.6829023
355,1747533697480,-0.003172744,2.9699326,0.014643434,-1.3081448,0.9374327,-5.045625
356,1747533697490,0.18597162,2.3156152,-0.21623473,-2.6434538,1.1909657,-5.413674
357,1747533697500,0.36584184,2.045688,-0.3031191,-3.1467912,1.1856394,-5.517537
358,1747533697510,0.5679212,1.7655101,-0.38780698,-3.5446675,1.1606057,-5.6080847
359,1747533697520,0.7597502,1.4802072,-0.4807928,-3.9127164,1.1254519,-5.7098174
360,1747533697530,0.88678195,1.3406064999999998,-0.5281399,-4.0179112,1.1198592500000002,-5.75482485
361,1747533697540,1.2302926,1.001611,-0.6347929,-4.2599926,1.133974,-5.9106197
362,1747533697550,1.6141946,0.71118283,-0.72070104,-4.308995,1.1414309,-6.1732078
363,1747533697560,1.7557478,0.5879339,-0.8439499,-4.2994075,1.2112057,-6.312757
364,1747533697570,1.9180459,0.49299565,-1.0062481,-4.304201,1.2841763,-6.4672203
365,1747533697580,2.067897,0.3917119,-1.1463369,-4.3281693,1.3358417,-6.6365976
366,1747533697590,2.3302586,0.30409533,-1.4238299,-4.4687843,1.2282499,-7.0179625
367,1747533697600,2.3551524,0.25699228,-1.6359158,-4.636031,1.0748519,-7.0669646
368,1747533697610,2.3783379,0.18304294,-1.8087083,-4.8741174,0.8990832,-7.0339413
369,1747533697620,2.4015234,0.08542004,-1.9268318,-5.1468253,0.813862,-6.9492526
370,1747533697630,2.4371557,-0.031483386,-1.9829651,-5.4014235,0.79042625,-6.8581724
371,1747533697640,2.5296533,-0.19036464,-1.9993169,-5.7747984,0.9816412,-6.6887956
372,1747533697650,2.61727,-0.21379416,-1.9941918,-5.86215,1.1739215,-6.6701536
373,1747533697660,2.6907313,-0.24454537,-2.042027,-5.863747999999999,1.22212465,-6.6816051000000005
374,1747533697670,2.6865822,-0.27602875,-2.0666768500000003,-5.8320565,1.2687299,-6.670686
375,1747533697680,2.66998625,-0.340093775,-2.12000335,-5.76814075,1.2487562,-6.6065037
376,1747533697690,2.6568072,-0.44418418,-2.1664963,-5.6661415,1.1776499,-6.469351
377,1747533697700,2.7141607,-0.44320798,-2.170645,-5.4765244,1.2905679,-6.3239427
378,1747533697710,2.7905505,-0.4888467,-2.1682045,-5.344432,1.4391723,-6.3484435
379,1747533697720,2.840094,-0.6128277,-2.1762586,-5.17612,1.6218652,-6.4586983
380,1747533697730,2.818617,-0.73558855,-2.1516087,-4.9870358,1.7587516,-6.6062374
381,1747533697740,2.2821794,-0.8969103,-2.177723,-4.6781087,1.4434333,-6.407033
382,1747533697750,2.08913,-0.9520673,-2.2550888,-4.604073,1.1632688,-5.8791947
383,1747533697760,2.006883,-1.0882512,-2.2402015,-4.574778,1.0354371,-5.4706655
384,1747533697770,1.9404991,-1.283497,-2.1796753,-4.4938183,1.0173275,-5.14576
385,1747533697780,1.93085895,-1.3809979,-2.11658655,-4.39022115,1.03357285,-5.05121775
386,1747533697790,1.8868067,-1.5656272,-1.94965135,-3.9500005,1.0530139,-4.8320394
387,1747533697800,1.6988826,-1.7979698,-1.5707525,-2.9039109,1.0769824,-4.4597297
388,1747533697810,1.7337828,-1.8633771,-1.4692247,-2.2461102,1.0860372,-4.3404202
389,1747533697820,1.60321215,-1.96380665,-1.470567,-1.9118834,1.0937603500000002,-4.29940745
390,1747533697830,1.2498171,-2.1303756,-1.5248697,-0.18269286,0.84209156,-4.1827607
391,1747533697840,1.1833114999999998,-2.1379413,-1.6420172,0.0764327199999999,0.735565095,-4.1827607
392,1747533697850,1.0533512,-2.20823,-1.9610001,0.71798825,0.5091964,-4.2701125
393,1747533697860,1.057012,-2.293894,-2.13184,0.9289106,0.44048685,-4.5018077
394,1747533697870,0.95377575,-2.4622936,-2.20908415,0.95607485,0.3986752249999999,-4.77957535
395,1747533697880,0.87226063,-2.8295999,-2.3688195,0.8836369,-0.008522116,-5.261341
396,1747533697890,0.820520465,-2.98347785,-2.4023774,0.75447357,-0.292415108,-5.2538842500000005
397,1747533697900,0.6540734,-3.440963,-2.5245283,0.026631612,-0.8378305,-4.8144627
398,1747533697910,0.9203399,-3.7199206,-2.6643732,-0.51771855,-0.96140116,-4.314321
399,1747533697920,1.3413386,-4.2124283,-2.9097726,-0.883370575,-0.90440953,-3.840012
400,1747533697930,1.97686365,-4.9859676,-3.15627035,-1.21892885,-0.806671535,-3.1798144
401,1747533697940,2.4325185,-5.3436337,-3.0087378,-0.6801714,-0.6332997,-2.4106934
402,1747533697950,2.5994537,-5.499098,-2.5018308,0.1587244,-0.6508766,-1.6985642
403,1747533697960,2.6754775000000004,-5.32057,-2.41616675,1.0120012,-0.6412892,-0.92278535
404,1747533697970,2.71989595,-5.00439375,-2.37443285,2.19950475,-0.5440838,0.4431499999999999
405,1747533697980,2.587251,-4.578758,-2.5399036,2.62987165,-0.409860485,1.47512495
406,1747533697990,2.343926,-4.1633725,-2.5484457,2.7206855,-0.34567833,2.7979171
407,1747533698000,2.077171,-3.6467035,-2.4508228,2.6413233,-0.40906155,3.683152
408,1747533698010,1.9012059,-2.788598,-2.336116,2.3883228,-0.6466155,5.164402
409,1747533698020,1.9907749,-2.6331336,-2.2831554,2.2525017,-0.624245,5.5825186
410,1747533698030,2.1408703,-2.5987215,-2.1735737,2.1907163,-0.5486112,5.7273946
411,1747533698040,2.2358084,-2.6189783,-1.9841853,2.3174827,-0.47244477,5.676794
412,1747533698050,2.2516723,-2.5935965,-1.8065119,2.786199,-0.34248254,5.5351143
413,1747533698060,2.2279985,-2.3224487,-1.6515354,3.930826,-0.16724652,5.38651
414,1747533698070,2.114756,-2.161371,-1.7220681,4.4517403,-0.21944448,5.434447
415,1747533698080,1.9858938,-1.9998052,-1.8536148,4.8144627,-0.35739622,5.61927
416,1747533698090,1.9589255,-1.90742945,-1.94232965,4.90341235,-0.44128581,5.77559765
417,1747533698100,1.9239032,-1.6678872,-2.1601508,4.9944925,-0.7025419,6.327671
418,1747533698110,1.9134089,-1.308635,-2.2467911,4.8741176,-0.90121375,6.812099999999999
419,1747533698120,1.9301268,-1.1973449,-2.24471655,4.65547205,-1.22452155,7.6358157
420,1747533698130,2.0089572,-0.995387525,-2.2448385,4.4911549,-1.4604776,8.19774245
421,1747533698140,2.2328796,-0.844194,-2.2560651,4.3382893,-1.80296,8.677112
422,1747533698150,2.67645385,-0.964758285,-2.27290515,4.3846283,-2.0628846,8.61799
423,1747533698160,2.7483287,-0.9957536,-2.2480114,4.527374,-2.0682108,8.323443
424,1747533698170,2.79579785,-0.97805942,-2.1983457,4.643754,-2.0769993,8.116249499999999
425,1747533698180,2.8166647,-0.8305268,-2.05423,5.082377,-2.1166804,7.4994617
426,1747533698190,2.757603,-0.67530644,-1.9756435,5.446697,-2.0836573,7.141533
427,1747533698200,2.6755996,-0.28701133,-1.8709428,6.085856,-1.9041603,6.387326
428,1747533698210,2.6036026,-0.14863087,-1.8553232,6.1795993,-1.7912422,6.0997043
429,1747533698220,2.56638395,-0.092009585,-1.8404357,6.17693615,-1.7467674,5.99664
430,1747533698230,2.4610732,0.054912884,-1.8148097,6.0847907,-1.5691346,5.7870493
431,1747533698240,2.4232442,0.10421244,-1.8404356,5.9345884,-1.3246564,5.7657437
432,1747533698250,2.4698594,-0.051496077,-1.9470887,5.5388427,-0.928378,5.765211
433,1747533698260,2.5518627,-0.057109397,-2.0095675,5.326322,-0.8410263,5.670935
434,1747533698270,2.618246,0.016595893,-1.9893107,5.160141,-0.76272935,5.5138087
435,1747533698280,2.6336217,0.13325526,-1.8772882,4.989699,-0.67963874,5.243232
436,1747533698290,2.4676628,0.25308737,-1.688632,4.843225,-0.5438175,4.9902315
437,1747533698300,2.2912095,0.25308737,-1.5680678,4.4384246,-0.14168017,4.563593
438,1747533698310,2.0488605,0.294089,-1.4421343,4.33749055,-0.0820253625,4.5212486
439,1747533698320,1.87594595,0.339239575,-1.398204,4.14015025,0.0407463645,4.519384349999999
440,1747533698330,1.5928396,0.439669125,-1.3154685499999998,3.95293015,0.140348592,4.64801525
441,1747533698340,1.4106508,0.801484,-1.1995413,3.6911414,0.096939065,4.840562
442,1747533698350,1.4074782,1.0965492,-1.1487775,3.161705,-0.2609898,4.4426856
443,1747533698360,1.3061944,1.3903941,-0.9803779,2.866094,-0.30839407,4.2179146
444,1747533698370,1.1891689,1.53499805,-0.9069167,2.7225496,-0.236755035,4.17530395
445,1747533698380,0.89361555,1.77954345,-0.79111155,2.43625985,-0.0902811675,4.192614649999999
446,1747533698390,0.33899552,2.0613074,-0.728999,1.9845877,0.20133498,4.4208474
447,1747533698400,0.12056428,2.5174503,-0.41855815,1.3949639,0.00958738,3.9484026
448,1747533698410,0.16717921,2.8088548,-0.20476402,1.2452941,-0.27696875,3.2874062
449,1747533698420,0.14350566,2.97762045,-0.1164153015,1.2482236,-0.3661846549999999,2.9521142
450,1747533698430,0.000976233,3.3008742,0.0588177984999999,1.4152038,-0.5997439,1.9675435
451,1747533698440,-0.44442827,3.8553724,0.19841854,1.5579493,-0.5581986,1.567004
452,1747533698450,-0.80441266,4.2138925,0.13740423,1.4285196,-0.53955644,0.64341974
453,1747533698460,-0.92400074,4.259043,0.127886,1.1691277,-0.45167214,0.17896444
454,1747533698470,-0.92070597,4.237444,0.14558015,0.98989698,-0.40080576,-0.0751011299999999
455,1747533698480,-0.88910055,4.1822871500000005,0.233440765,0.63676183,-0.31212249,-0.6378271
456,1747533698490,-0.7524285,4.035486,0.6145361,0.18588865,-0.22210763,-1.6223978
457,1747533698500,-0.72045696,3.9276133,0.76389915,-0.06764429,-0.17896444,-2.9710226
458,1747533698510,-0.65968674,3.756041,0.8459024,-0.105194865,-0.172572845,-3.22402285
459,1747533698520,-0.50812715,3.5180852,0.7228975,-0.31052458,0.09534117,-4.0112534
460,1747533698530,-0.5493728499999999,3.50966525,0.7865964999999999,-0.466852155,0.0727043,-4.2006042
461,1747533698540,-0.3973252,3.2393718,0.7228975,-0.9166601,0.08681905,-4.7031426
462,1747533698550,-0.026114125,2.7256315,0.33655494,-1.7140105,0.18908444,-5.2608085
463,1747533698560,0.16425052,2.4403284,0.14301755,-2.1933794,0.3073288,-5.5196676
464,1747533698570,0.25552794,2.306219,0.0583296839999999,-2.4154870500000003,0.375772035,-5.64430355
465,1747533698580,0.5051985,1.8904674,-0.10323621,-3.0605047,0.509729,-6.0459085
466,1747533698590,0.68482465,1.6239569,-0.20598431,-3.2847428,0.50653327,-6.221677
467,1747533698600,1.0814177,1.2378583,-0.43076107,-3.6037896,0.4383563,-6.4629593
468,1747533698610,1.2842293,1.069947,-0.6125837,-3.772634,0.4346279,-6.5705514
469,1747533698620,1.5256019,0.878118,-0.8278422,-3.9904807,0.4314321,-6.7106333
470,1747533698630,1.7284133,0.7148437,-1.0352908,-4.265319,0.44741106,-6.891196
471,1747533698640,1.9922394,0.4195344,-1.376971,-4.856008,0.48203218,-7.2294173
472,1747533698650,2.0439794,0.31995904,-1.4777666,-5.1553473,0.47137952,-7.3236933
473,1747533698660,2.0969398,0.25015867,-1.5597699,-5.3423014,0.43782368,-7.311975
474,1747533698670,2.369552,0.20915705,-1.7022992,-5.5734634,0.46871635,-7.272028
475,1747533698680,2.4998784,0.17084008,-1.7813739,-5.6405754,0.5028048,-7.3188996
476,1747533698690,2.665105,0.1295944,-1.9387908,-5.7108827,0.54648066,-7.393468
477,1747533698700,2.779324,0.06711575,-2.0683851,-5.7865167,0.6695187,-7.483483
478,1747533698710,2.7749307,-0.02318544,-2.1503885,-5.861085,0.763262,-7.5159736
479,1747533698720,2.6621764,-0.11348662,-2.2956026,-5.919142,0.67218184,-7.22995
480,1747533698730,2.67511145,-0.13057063,-2.3120763,-5.912484,0.590156495,-7.09466125
481,1747533698740,2.7222145,-0.183287,-2.3671112,-5.8605523,0.34248254,-6.750048
482,1747533698750,2.7700496,-0.22111587,-2.4244647,-5.8083544,0.21092236,-6.5705514
483,1747533698760,2.835213,-0.26187342,-2.459609,-5.7795925,0.2146508,-6.432067
484,1747533698770,2.8166647,-0.39244407,-2.4320304,-5.7716026,0.4564658,-6.119944
485,1747533698780,2.7012258,-0.50666285,-2.357593,-5.7534933,0.6375608,-5.896239
486,1747533698790,2.536975,-0.6242984,-2.254845,-5.686382,0.7803062,-5.665609
487,1747533698800,2.3778498,-0.72655845,-2.1198812,-5.546832,0.8878979,-5.444034
488,1747533698810,2.1555138,-0.88226694,-1.7777131,-4.9172606,0.82185155,-5.148956
489,1747533698820,2.0997466,-0.95243337,-1.68143245,-4.690625649999999,0.7874967749999999,-5.12685165
490,1747533698830,1.943916,-1.1751356,-1.3945432,-3.9324238,0.67324716,-5.0898337
491,1747533698840,1.8277446,-1.300337,-1.1831895,-3.3300166,0.6109292,-5.0525494
492,1747533698850,1.6944895,-1.4140676,-0.9925808,-2.680738,0.6759103,-4.9422946
493,1747533698860,1.6089474,-1.44945595,-0.8711623500000001,-2.0655478,0.7052050999999999,-4.7233828
494,1747533698870,1.4499441,-1.3491484,-0.78464407,-0.9832391,0.753142,-4.0996704
495,1747533698880,1.4187049,-1.1395032,-0.8973985,-0.6593987,0.78563255,-3.3561156
496,1747533698890,1.4438426,-0.9872115,-1.1231514,-0.6396913,0.8367652,-2.680738
497,1747533698900,1.461903,-0.92937,-1.4126034,-0.7797736,0.9534117,-2.108691
498,1747533698910,1.4016209,-0.9454777,-1.8035831,-1.3406353,0.95234644,-1.6330504
499,1747533698920,1.3410946,-1.0465174,-1.9834533,-1.47911965,0.94222642,-1.7073526
500,1747533698930,1.2510375,-1.3696493,-1.9937036,-1.8072212,0.8580705,-2.1326594
501,1747533698940,1.2132086,-1.7882075,-1.876068,-1.8130801,0.7669904,-2.6381273
502,1747533698950,1.2527459,-2.1494124,-1.7869871,-1.1840415,0.5603291,-3.8456047
503,1747533698960,1.521941,-2.753698,-1.6727684,-0.6221144,0.39947417,-4.2051315
504,1747533698970,1.54683485,-2.8645,-1.70217725,-0.3278351149999999,0.242081345,-4.2725095500000005
505,1747533698980,1.5573293,-3.0638947,-1.9990729,0.4261058,-0.13102753,-4.118845
506,1747533698990,1.5009521,-3.368722,-2.1298876,0.50173956,-0.34567833,-3.6964676
507,1747533699000,1.637136,-4.160444,-2.9150198,-0.27696875,-0.17630127,-2.6051042
508,1747533699010,1.7767367,-4.621468,-3.1876316,-0.7440872,-0.0005326322,-2.078331
509,1747533699020,1.9993169,-5.0658965,-3.3648171,-1.0450244,0.034088463,-1.717739
510,1747533699030,2.1413581,-5.4161186,-3.3352866,-1.026915,0.03195793,-1.3070794
511,1747533699040,2.1132917,-5.5462008,-2.9943383,-0.61572284,0.05219796,-0.8213189
512,1747533699050,2.153561,-4.9136043,-2.413238,0.99282646,-0.531567,0.5949502
513,1747533699060,2.208474,-4.4865046,-2.3536882,1.7566211,-0.63915867,1.5014902
514,1747533699070,2.2809591,-4.0708747,-2.4371557,2.207228,-0.54648066,2.3531692
515,1747533699080,2.2704647,-3.6981995,-2.4964616,2.3792682,-0.3920173,3.0866039
516,1747533699090,2.2189684,-3.3062434,-2.5018308,2.3776703,-0.20879184,3.6943371
517,1747533699100,2.3068292,-2.7224586,-2.3636944,2.3313313,-0.1470065,4.4528055
518,1747533699110,2.3429496,-2.584566,-2.2248259,2.402704,-0.1917476,4.6333675
519,1747533699120,2.3634504,-2.5671161,-2.13342645,2.483664,-0.2000034,4.720453
520,1747533699130,2.3846834,-2.52635875,-1.9589255,2.68260215,-0.19574234,4.903146
521,1747533699140,2.396154,-2.4022555,-1.7769808,3.069027,-0.14913702,5.1958275
522,1747533699150,2.3983507,-2.1930983,-1.7838144,3.590474,-0.08468852,5.571333
523,1747533699160,2.3773615,-2.1425786,-1.8257922,3.810451,0.02396845,5.8499
524,1747533699170,2.3815105,-2.089862,-1.8514184,3.994209,0.10652645,6.1934476
525,1747533699180,2.3688195,-1.9846735,-1.8704547,4.1907506,0.056459017,6.66749
526,1747533699190,2.2438624,-1.6515354,-2.0229905,4.307397,-0.18002969,7.600129
527,1747533699200,2.2624106,-1.4531169,-2.1101189,4.298342,-0.39041942,8.032094
528,1747533699210,2.285108,-1.2549424,-2.1860206,4.28369465,-0.522512225,8.215053000000001
529,1747533699220,2.30487665,-1.1646412000000002,-2.20029805,4.25573165,-0.780306215,8.542622
530,1747533699230,2.4500906,-0.9088692,-2.1772346,4.241617,-1.02025705,8.7636645
531,1747533699240,2.642896,-0.6638357,-2.0515454,4.283428,-1.3539511,8.815596
532,1747533699250,2.6973207,-0.52496713,-1.9675895,4.477839,-1.5925703,8.44009
533,1747533699260,2.715137,-0.38707477,-1.8809491,4.6584015,-1.6516925,8.125837
534,1747533699270,2.6929277000000003,-0.34656127,-1.8555672,4.72897525,-1.65941565,8.01185375
535,1747533699280,2.6593698000000003,-0.280909885,-1.8231076,4.9172606,-1.6207999,7.704525
536,1747533699290,2.7763953,-0.29213652,-1.8411678,5.2347097,-1.4583471,7.396131
537,1747533699300,2.7925029,-0.36266908,-1.8755801,5.40888,-1.4162691,7.2682996
538,1747533699310,2.7981162,-0.3904916,-1.9134089,5.546832,-1.4487597,7.1180973
539,1747533699320,2.80397365,-0.3747498999999999,-1.9314691,5.6240635,-1.5275892,6.9162292
540,1747533699330,2.7600434,-0.28237423,-1.965637,5.6373794,-1.55315555,6.8086376
541,1747533699340,2.6987851,-0.235027125,-1.9686878,5.6027584,-1.5195998,6.469351
542,1747533699350,2.3204963,0.05418071,-1.8450727,5.3843794,-1.3012205,6.091182
543,1747533699360,2.212379,0.17938207,-1.7728319,5.2245893,-1.1952267,5.891978
544,1747533699370,2.157222,0.224044555,-1.71279375,5.12338915,-1.1438277,5.80382715
545,1747533699380,2.0498369,0.3443648,-1.5209647,4.818191,-1.0029465,5.562811
546,1747533699390,2.1108513,0.4502856,-1.4382293,4.6557384,-0.94116116,5.4115434
547,1747533699400,2.2660716,0.810026,-1.325719,4.4698496,-0.86179894,5.0046124
548,1747533699410,2.2567973,0.97134787,-1.3039979,4.335626,-0.79255676,4.5854306
549,1747533699420,2.1074343,1.0457853,-1.2493291,4.2565302,-0.689758745,4.4006073
550,1747533699430,2.0076149,0.9955095,-1.2145509,4.0757017,-0.428768945,4.0509344
551,1747533699440,1.7086449,0.80685323,-1.0714114,3.772634,-0.017044231,3.5910065
552,1747533699450,1.2368821,1.0035634,-0.6743302,3.5702338,0.23276028,3.003513
553,1747533699460,0.9711038,1.2493291,-0.54083085,3.5697012,0.23542345,2.7585022
554,1747533699470,0.7294871,1.6034561,-0.4502856,3.5712991,0.199470775,2.65357375
555,1747533699480,0.44625867,1.96917585,-0.48799245,3.4000578,0.2537992599999999,2.50177365
556,1747533699490,0.0020744799999999,2.5151318,-0.5975741649999999,3.0314763,0.331829875,2.5047031
557,1747533699500,-0.41733786,2.937229,-0.75657743,2.56622215,0.260457155,2.5893916
558,1747533699510,-0.59867245,3.1851912,-0.71167094,1.6788567,-0.1272991,2.5630262
559,1747533699520,-0.6942208750000001,3.2934306,-0.6045298,1.090031815,-0.31158985,2.33905435
560,1747533699530,-0.71826047,3.5024655,-0.26968327,0.10013486,-0.4426174,1.7070863
561,1747533699540,-0.64309084,3.632304,0.00073217176,-0.058589544,-0.22690132,1.1233214
562,1747533699550,-0.64309084,3.632304,0.00073217176,-0.058589544,-0.22690132,1.1233214
563,1747533699560,-0.70288485,3.9378636,0.72094506,0.7595336,0.25246766,-1.6202673
564,1747533699570,-0.87592145,3.84756245,0.80294837,0.93556855,0.249005555,-2.04770465
565,1747533699580,-0.9354714,3.8048525,0.79562664,1.3230585,0.19920446,-3.204848
566,1747533699590,-0.976229,3.6952705,0.7326599,1.32945,0.14221281,-3.8344195
567,1747533699600,-1.0123495,3.674038,0.5649925,1.0492855,0.15819177,-4.3654537
568,1747533699610,-1.1990532,3.554206,0.545712,0.61678815,-0.04527374,-4.5050035
569,1747533699620,-1.0765365,3.3849521,0.3526627249999999,-0.058589525,-0.11451593,-4.46905075
570,1747533699630,-0.8343096999999999,3.0974525,0.0442963974999999,-1.17498665,-0.19813919,-4.4184506500000005
571,1747533699640,-0.41196862,2.6541226,-0.2630937,-2.7419908,-0.1784318,-4.539092
572,1747533699650,-0.15668476,2.3390448,-0.38951537,-3.5489285,-0.077231675,-4.7580037
573,1747533699660,0.066871685,2.04934875,-0.431371185,-4.0842237500000005,-0.0388821536,-5.0078082
574,1747533699670,0.38744089,1.64763045,-0.48799245,-4.7327035,-0.0146473861,-5.36147585
575,1747533699680,0.68653303,1.3035098,-0.58110034,-4.934305,-0.1438107,-5.6096826
576,1747533699690,0.8788501,1.1429201,-0.7158199,-4.963067,-0.27803403,-5.7194047
577,1747533699700,1.0260166,1.0003906,-0.8917852,-5.011004,-0.3616573,-5.7881145
578,1747533699710,1.3435352,0.7477914,-1.3572023,-5.3721285,-0.29933932,-5.870672
579,1747533699720,1.40772225,0.700322265,-1.4427444,-5.49703075,-0.269778225,-5.894907
580,1747533699730,1.5592817,0.5784157,-1.6625179,-5.8674765,-0.21145499,-5.953763
581,1747533699740,1.7047399,0.5095915,-1.803095,-6.0730724,-0.23595607,-6.0139503
582,1747533699750,1.892908,0.4378387,-1.9578272,-6.2035675,-0.25726137,-6.115683
583,1747533699760,2.3192759,0.17450093,-2.1381855,-6.229134,-0.15126756,-6.4581656
584,1747533699770,2.39554385,0.105554759,-2.17455005,-6.1939802,-0.0396811049999999,-6.58147
585,1747533699780,2.51818265,-0.021477038,-2.24264205,-6.0224724,0.39468047,-6.9801455
586,1747533699790,2.5491779,-0.136183942,-2.2804710000000004,-5.88771655,0.508397435,-7.14872365
587,1747533699800,2.3034122,-0.2630937,-2.2697322,-5.242699,0.3888215,-7.5314198
588,1747533699810,2.2884027,-0.24381318,-2.25752935,-5.12658515,0.26205504,-7.526093400000001
589,1747533699820,2.2916975500000003,-0.19683217,-2.24020145,-4.9204564,0.0380832,-7.5015923
590,1747533699830,2.4466739,-0.11665936,-2.2855961,-4.711132,-0.18482338,-7.4643083
591,1747533699840,2.617758,-0.1415532,-2.340753,-4.6381617,-0.2050634,-7.486146
592,1747533699850,2.7946997,-0.39537275,-2.2294629,-4.4821,0.16138756,-7.628359
593,1747533699860,2.745888,-0.5095915,-2.0730224,-4.252536,0.4000068,-7.641142
594,1747533699870,2.68072475,-0.54522388,-1.96038995,-4.12177465,0.40613207,-7.564443000000001
595,1747533699880,2.3688195,-0.57280236,-1.6961979,-3.762514,0.29880667,-7.104781
596,1747533699890,2.247157,-0.55645053,-1.6940013500000002,-3.7025929,0.21544973,-6.7950555
597,1747533699900,1.9797924,-0.71264714,-1.6515354,-3.716175,-0.16618125,-5.2304482
598,1747533699910,1.9487971,-0.8324793,-1.5534244,-3.7774277,-0.15286545,-4.771852
599,1747533699920,1.9412313,-0.97549677,-1.3606192,-3.7145772,-0.06551377,-4.462393
600,1747533699930,1.8609366,-1.1336459,-1.090936,-3.478621,0.0127831735,-4.265319
601,1747533699940,1.7745403,-1.2363939,-0.8573731,-2.9337382,0.19600865,-4.0416136
602,1747533699950,1.5844196,-1.1451166,-0.44882128,-1.7795243,0.1933455,-3.4951327
603,1747533699960,1.5072975,-0.976229,-0.46883395,-1.2804478,0.2412824,-3.055711
604,1747533699970,1.5165718,-0.8288184,-0.6355251,-0.9262474,0.25566345,-2.564624
605,1747533699980,1.6432374,-0.72558224,-0.8927614,-0.8186557,0.27324033,-2.197108
606,1747533699990,2.1032853,-0.79538256,-1.4555575,-0.9491506,0.37816888,-2.072472
607,1747533700000,2.2416658,-0.9366917,-1.5429299,-1.3795174,0.92092115,-2.637062
608,1747533700010,2.2560651,-1.099966,-1.453605,-1.4141386,1.1936288,-3.3433325
609,1747533700020,2.153561,-1.398204,-1.359887,-1.3646038,1.19229725,-3.61843705
610,1747533700030,2.063626,-1.5668475,-1.38185215,-1.22505415,1.1307782,-4.0980724
611,1747533700040,1.965149,-2.4532633,-1.8299413,-0.63223445,0.34567833,-4.689827
612,1747533700050,2.0949874,-2.715137,-1.9729588,-0.39041942,-0.22210763,-4.7356334
613,1747533700060,2.2733932,-2.9196568,-2.0354373,-0.25353295,-0.5187838,-4.7207193
614,1747533700070,2.4532633,-3.0795143,-2.042515,-0.21038973,-0.4111921,-4.687164
615,1747533700080,2.5606487,-3.316738,-2.0322647,-0.25726137,-0.0005326322,-4.5598645
616,1747533700090,2.7241669,-4.336165,-2.314639,-0.5118596,0.7840346,-3.9649143
617,1747533700100,2.7175775,-4.787671,-2.83863,-0.49481535,1.4514228,-3.3545177
618,1747533700110,2.5106168,-5.497145,-2.3583252,-0.5273059,0.8873653,-2.6876621
619,1747533700120,2.5291653,-5.672867,-2.6072636,-0.29188246,0.62744075,-1.8386464
620,1747533700130,2.52696875,-5.6232012000000005,-2.47840145,-0.06418218,0.39068573,-1.32225948
621,1747533700140,2.5850544,-5.3419247,-2.123054,0.799481,-0.17257284,0.350472
622,1747533700150,2.8791435,-4.656124,-1.9646608,1.881257,-0.2908172,2.3920512
623,1747533700160,2.9923859,-4.1636167,-1.922439,2.1779332,-0.1272991,3.1185617
624,1747533700170,2.96517345,-3.852199600000001,-1.92524565,2.21867955,0.042077945,3.4400053
625,1747533700180,2.8010449,-2.97542395,-1.85202845,2.20190155,0.337688835,3.94573945
626,1747533700190,2.6641288,-2.4100654,-1.7760046,1.8492991,0.76113147,4.6599994
627,1747533700200,2.5852983,-2.3519797,-1.5746574,1.8381138,0.9177253,4.9566755
628,1747533700210,2.5486898,-2.301948,-1.3659884,1.9627497,1.0178602,5.261341
629,1747533700220,2.5350225,-2.1928544,-1.2598236,2.2168152,1.0482203,5.5239286
630,1747533700230,2.536243,-2.0930347,-1.2215066,2.5715485,0.97045594,5.7529607
631,1747533700240,2.5137897,-2.0142045,-1.2224828,3.43388,0.79042625,6.3122244
632,1747533700250,2.4400845,-1.9375705,-1.2947236,3.7348173,0.7499462,6.6264777
633,1747533700260,2.3729687,-1.8155419,-1.3562261,3.9691753,0.73343456,6.9929285
634,1747533700270,2.35832515,-1.7231662,-1.38343845,4.057059649999999,0.70600398,7.17535495
635,1747533700280,2.349417,-1.51291085,-1.46300115,4.2642536,0.598146,7.6768284
636,1747533700290,2.3590572,-0.99965847,-1.7298778,4.3324304,0.28975195,8.221178
637,1747533700300,2.4032319,-0.8449261,-1.8001662,4.278102,0.16405073,8.407067
638,1747533700310,2.426417,-0.70971847,-1.8521506,4.0341563,-0.11824436,8.594021
639,1747533700320,2.378094,-0.47127452,-1.7933327,4.0341563,-0.11824436,8.594021
640,1747533700330,2.378094,-0.47127452,-1.7933327,3.9824913,-0.29827404,8.582303
641,1747533700340,2.4976819,-0.3802412,-1.6473864,4.0485377,-0.47723848,8.446482
642,1747533700350,2.561625,-0.40269446,-1.5700202,4.1486726,-0.52411014,8.2803
643,1747533700360,2.5608926,-0.379509,-1.5068095,4.2855587,-0.55340487,8.072574
644,1747533700370,2.5530828,-0.33765319,-1.5037588,4.3627906,-0.5669870100000001,7.9759013
645,1747533700380,2.4874315,-0.225264835,-1.51669375,4.5550709000000005,-0.61066285,7.7362168
646,1747533700390,2.387368,-0.10543273,-1.5553769,4.670652,-0.5784386,7.466439
647,1747533700400,2.3136628,-0.08566409,-1.5653832,4.544951,-0.47137952,7.291735
648,1747533700410,2.243374,-0.07199689,-1.551472,4.379302,-0.47617322,7.1489897
649,1747533700420,2.1632013,-0.0331917868499999,-1.4989997,4.21125675,-0.53875751,7.01796225
650,1747533700430,2.017133,0.029530926,-1.4077222,3.8866174,-0.67537767,6.7756147
651,1747533700440,2.0178654,0.08029483,-1.4299314,3.7332194,-0.73343456,6.673882
652,1747533700450,2.0178654,0.08029483,-1.4299314,3.7332194,-0.73343456,6.673882
653,1747533700460,2.276078,0.26992732,-1.5688,3.1638355,-0.62903863,6.1646852
654,1747533700470,2.27058675,0.284448725,-1.5688,2.98566995,-0.56139435,5.9977051
655,1747533700480,2.1511204,0.29018408,-1.4875289,2.5465147,-0.42983422,5.5857143
656,1747533700490,1.9631965,0.20964517,-1.3835605,2.338788,-0.3818973,5.4376426
657,1747533700500,1.7974815,0.12544543,-1.2590914,2.1992385,-0.40266997,5.2725263
658,1747533700510,1.5587937,0.22868164,-1.014546,2.1379857,-0.6002765,5.205415
659,1747533700520,1.4587302,0.314955885,-0.95072503,2.15236675,-0.61572285,5.18624
660,1747533700530,1.108264,0.6604189,-0.77195305,2.14491,-0.60240704,5.1175303
661,1747533700540,0.8583493,0.9711038,-0.7844,2.1060278,-0.56805227,5.0900998
662,1747533700550,0.469078,1.7174308,-0.647972,1.8551581,-0.27217507,4.5657234
663,1747533700560,0.27724904,2.0842488,-0.4566311,1.8056233,-0.16831179,3.9345543
664,1747533700570,0.190364655,2.2720509,-0.36767224,1.8128138,-0.2029328799999999,3.52469385
665,1747533700580,0.021721092,2.65936985,-0.1559525825,1.9329224,-0.5091964,2.1981733
666,1747533700590,-0.34753752,3.2300978,0.25333142,2.1427794,-0.8314389,1.3938985
667,1747533700600,-0.4651731,3.5856888,0.12544543,2.3068302,-0.664725,0.69987875
668,1747533700610,-0.9869675,4.041832,0.58842206,2.4325314,-0.90920323,0.32863408
669,1747533700620,-0.93522733,4.1941237,0.5142286,2.2130868,-1.0833739,-0.00958738
670,1747533700630,-0.929736065,4.1700842,0.510933825,2.02453505,-1.0367686,-0.2199771099999999
671,1747533700640,-0.8246695,4.0594044,0.54986095,1.3539511,-0.71798825,-0.9757822
672,1747533700650,-0.7922098,4.0262127,0.9015475,0.62903863,-0.15925704,-2.2034996
673,1747533700660,-0.9169231,3.9102855,1.1360865,0.49481535,0.008522116,-2.7180223
674,1747533700670,-0.9255871,3.861596,1.16976645,0.46339004,0.083090628,-2.9467878
675,1747533700680,-0.90191355,3.7384689,1.17062065,0.376304665,0.2122539399999999,-3.3870083
676,1747533700690,-0.7890371,3.4697618,0.9874556,0.080960095,0.34780884,-3.9878175
677,1747533700700,-0.58158845,3.0219169,0.5940353,-0.9166601,0.5784386,-4.6078014
678,1747533700710,-0.4229512,2.800801,0.40659937,-1.4817829,0.66206187,-4.7990165
679,1747533700720,-0.24454537,2.5440528,0.24918245,-2.0612867,0.6993461,-4.9582734
680,1747533700730,-0.049299564,2.2931619,0.09396204,-2.6077673,0.72278196,-5.078648
681,1747533700740,0.4041588,1.756724,-0.13764828,-3.452522,0.5544701,-5.2719936
682,1747533700750,0.6648119,1.5468348,-0.23356278,-3.7236319,0.37071204,-5.3859773
683,1747533700760,0.9596331,1.364524,-0.3248402,-3.9265647,0.17470337,-5.528723
684,1747533700770,1.08507855,1.2793480000000002,-0.37474989,-4.01151965,0.1046622315,-5.604623
685,1747533700780,1.4335922,1.036267,-0.6020892,-4.3281693,0.019707393,-5.8717375
686,1747533700790,1.7764928,0.7060576,-1.0121055,-4.781972,0.0793622,-6.1961107
687,1747533700800,1.8811932,0.5867136,-1.1431642,-4.969991,0.041545313,-6.3473783
688,1747533700810,1.9834533,0.5010495,-1.2332213,-5.0956926,-0.0037284256,-6.467753
689,1747533700820,2.0859573,0.43930307,-1.3288918,-5.166,-0.039947417,-6.552974
690,1747533700830,2.165032,0.4075756,-1.4516525,-5.2229915,-0.032490566,-6.588128
691,1747533700840,2.5584521,0.3824377,-1.7203596,-5.3268547,0.27643612,-6.6861324
692,1747533700850,2.7854254,0.328257,-1.8653295,-5.382249,0.47351006,-6.891196
693,1747533700860,2.9086742,0.21159762,-2.0107877,-5.423794,0.6348976,-7.077617
694,1747533700870,2.91404355,0.15485432,-2.04141685,-5.4317835,0.692954515,-7.1604413000000005
695,1747533700880,2.903305,0.028066583,-2.1074343,-5.428055,0.76059884,-7.358314
696,1747533700890,2.6921954,-0.056377225,-2.0796118,-5.345497,0.45912898,-7.1995897
697,1747533700900,2.5672383,-0.05686534,-2.042027,-5.3012886,0.32011196,-6.9913306
698,1747533700910,2.481574,-0.010982576,-2.0442235,-5.2858424,0.1965413,-6.7484503
699,1747533700920,2.4757167,0.017572122,-2.0652123500000004,-5.2962287,0.150202292,-6.62807535
700,1747533700930,2.4923127,0.058817795,-2.1026751,-5.3753242,0.044208474,-6.2765384
701,1747533700940,2.6609561,0.007565775,-2.1128037,-5.452556,0.23116238,-5.9713397
702,1747533700950,2.757603,-0.13227904,-2.0749748,-5.423794,0.47297743,-5.938317
703,1747533700960,2.7729783,-0.3277689,-2.0351934,-5.287973,0.74089146,-5.9670787
704,1747533700970,2.775663,-0.433811775,-1.9906529,-5.1494885,0.85141263,-5.9971726
705,1747533700980,2.74003075,-0.6538293749999999,-1.84592695,-4.81153325,1.0016149,-6.05443075
706,1747533700990,2.3356278,-0.8473667,-1.5849078,-4.1587925,0.9582054,-5.9633503
707,1747533701000,2.302192,-0.8949579,-1.5729489,-3.397661,0.71106404,-5.274124
708,1747533701010,2.2711968,-1.0340706,-1.577586,-3.2751555,0.67883977,-5.0453585
709,1747533701020,2.1979795,-1.1736712,-1.4919219,-3.0434606,0.7094661,-4.495416
710,1747533701030,2.1425786,-1.2412751,-1.3655003,-2.964631,0.8042747,-4.2195125
711,1747533701040,1.956363,-1.2666571,-1.2095478,-2.706837,1.1696603,-3.5750275
712,1747533701050,1.8533708,-1.3752626,-1.2027141,-2.5193505,1.4429007,-3.2373388
713,1747533701060,1.7662423,-1.53512,-1.223703,-2.3025692,1.7741979,-2.9774141
714,1747533701070,1.63738,-1.7015672,-1.2734908,-2.031992,2.0074909,-2.8325381
715,1747533701080,1.432372,-1.9431838,-1.3864892,-1.6788567,2.1161478,-2.7867317
716,1747533701090,1.3284036,-2.4613175,-1.7274371,-0.62264705,1.532383,-3.197924
717,1747533701100,1.3493925,-2.7951877,-1.8006544,-0.008522116,1.0998856,-3.6266928
718,1747533701110,1.3456096,-3.031191,-1.78357035,0.286822442,0.92624745,-3.90499305
719,1747533701120,1.330112,-3.9957051,-1.7022992,1.568602,0.69029135,-4.8032775
720,1747533701130,1.4328601,-4.224875,-1.713282,1.6820526,0.3392867,-4.9609365
721,1747533701140,1.3906382,-3.9749603,-1.8814374,1.6314526,0.23648871,-4.718056
722,1747533701150,1.3459758,-3.9549477,-1.9807687,1.2511531,0.07563378,-4.0906153
723,1747533701160,1.4933863,-4.0164504,-2.3610098,0.34248254,-0.058589544,-2.944391
724,1747533701170,1.956363,-4.6148787,-3.0192323,-1.1664646,-0.36911413,-0.79681784
725,1747533701180,2.2404454,-4.788403,-3.2220438,-1.5499598,-0.68389976,0.2711098
726,1747533701190,2.6289847,-4.881389,-3.2979457,-1.504686,-0.9603359,1.2506205
727,1747533701200,3.0421734,-5.008543,-3.1983702,-1.2847089,-0.9867012,1.6492957499999998
728,1747533701210,3.576415,-4.899205,-2.5308735,0.6945524,-0.5075985,2.8069718
729,1747533701220,3.6733055,-4.3634996,-2.2114027,1.8727349,-0.28016454,2.7920582
730,1747533701230,3.6025289000000003,-4.06269895,-2.13037575,2.4530377,-0.118244348,2.7574371
731,1747533701240,3.33443215,-3.4243671,-2.0365357,4.087952,0.4261058,2.803776
732,1747533701250,3.137112,-3.0868359,-2.0237226,4.087952,0.4261058,2.803776
733,1747533701260,2.826915,-2.5174503,-2.148192,3.991546,0.6940198,3.6991308
734,1747533701270,2.170157,-1.8135895,-2.5125692,3.353985,0.6801714,4.1998053
735,1747533701280,2.1645436,-1.7367114,-2.2829115,2.7872643,0.63702816,4.729774
736,1747533701290,2.2101824,-1.6842391,-1.9536783,2.4517062,0.5384912,5.2666674
737,1747533701300,2.238493,-1.6293261,-1.6918048,2.343582,0.3158509,5.8067565
738,1747533701310,2.1472156,-1.5741693,-1.3928347,2.586462,-0.12942964,7.0451264
739,1747533701320,2.1686926,-1.4955828,-1.3574464,2.732936,-0.2711098,7.4728303
740,1747533701330,2.18089545,-1.45006615,-1.3417047,2.880475,-0.40852892,7.7636476
741,1747533701340,2.2301953,-1.3018013,-1.3198615,3.0157638,-0.5161206,7.94634
742,1747533701350,2.2624106,-1.0982577,-1.3213259,3.1334753,-0.5970807,8.092814
743,1747533701360,2.2582617,-0.9798898,-1.3059504,3.3710294,-0.7850999,8.385762
744,1747533701370,2.2738814,-0.82296103,-1.343291,3.4887412,-1.0162623,8.457667
745,1747533701380,2.289013,-0.7070338,-1.4104068,3.567038,-1.2884374,8.49069
746,1747533701390,2.3180556,-0.6218578,-1.4721533,3.5787559,-1.6250609,8.479506
747,1747533701400,2.4129941,-0.51496077,-1.5407335,3.4274883,-1.8301244,8.408665
748,1747533701410,2.40872305,-0.4989750349999999,-1.4907017,3.4157704,-1.86128335,8.37724
749,1747533701420,2.3756533,-0.40611124,-1.3110756,3.4626422,-1.9750003,8.263256
750,1747533701430,2.3514917,-0.30238694,-1.258115,3.5697012,-1.9845877,8.173774
751,1747533701440,2.3812666,-0.2723679,-1.2527459,3.6985981,-1.8988339,8.084825
752,1747533701450,2.472544,-0.30897647,-1.2359059,3.9196405,-1.7102821,7.725298
753,1747533701460,2.485723,-0.31654227,-1.2376143,4.040015,-1.6154735,7.4334154
754,1747533701470,2.4369116,-0.33899552,-1.2032022,4.149738,-1.6085494,7.231015
755,1747533701480,2.3932252,-0.302631,-1.1827015,4.247742,-1.6793894,7.011038
756,1747533701490,2.2455707,-0.19475769,-1.1707426,4.2924833,-1.7411747,6.763364
757,1747533701500,2.1479478,-0.14301755,-1.1473131,4.256264,-1.7081516,6.5705514
758,1747533701510,2.0261633,-0.0707766,-1.0950848,3.987285,-1.3246564,6.3116918
759,1747533701520,1.96087795,-0.0339239565,-1.0698249,3.8892806,-1.23357625,6.2794676
760,1747533701530,1.8035831,0.08419975,-1.0257727,3.5819516,-1.0279802,6.221677
761,1747533701540,1.7203596,0.22697324,-1.0448091,2.8852687,-0.8580705,6.083193
762,1747533701550,1.6781375,0.28286234,-1.0501783,2.4517062,-0.72651035,6.0139503
763,1747533701560,1.63921045,0.2962854849999999,-1.03565685,2.23146275,-0.6807039749999999,5.994509450000001
764,1747533701570,1.52511375,0.301898815,-0.9740324,1.8133464,-0.625842875,5.99211265
765,1747533701580,1.38648925,0.278225265,-0.87335887,1.4580807,-0.679372425,6.03339145
766,1747533701590,1.1812371,0.28554696,-0.7324158,1.0407634,-1.0940266,6.1359234
767,1747533701600,0.96304995,0.469078,-0.58939826,0.6668556,-1.1845741,6.109824
768,1747533701610,0.88641596,0.68433654,-0.45858356,0.5795039,-1.2042814,5.9516325
769,1747533701620,0.862254265,0.84126535,-0.39842346,0.5597965,-1.2370383,5.73698165
770,1747533701630,0.6875093,1.3740423,-0.2608972,0.5182512,-1.1632688,5.0477557
771,1747533701640,0.4373506,1.956363,-0.3660859,0.6098639,-0.7052051,3.895672
772,1747533701650,0.3048275099999999,2.29206355,0.0042709999999999,0.8133294,-0.89109373,3.0876691
773,1747533701660,0.26699865,2.3998148,0.1769415,1.1414309,-1.1568772,2.1694112
774,1747533701670,0.26699865,2.3998148,0.1769415,1.1414309,-1.1568772,2.1694112
775,1747533701680,-0.06418706,2.9516282,0.5950116,2.0240026,-1.6506273,0.69508505
776,1747533701690,-0.06418706,2.9516282,0.5950116,2.3611586,-1.716141,0.24074976
777,1747533701700,0.031483386,3.2813497,0.45174995,2.564624,-1.5574167,-0.5001417
778,1747533701710,0.06028214,3.4368143,0.46444094,2.4485104,-1.387507,-0.8926916
779,1747533701720,-0.3632792199999999,3.8019238,1.008444575,2.2892532,-1.1936288,-1.3145363
780,1747533701730,-0.6360132,4.032802,1.3401184,2.0293288,-0.89855057,-2.1747375
781,1747533701740,-0.73461235,4.1516576,1.4719093,1.856756,-0.77231675,-2.5848641
782,1747533701750,-0.8222289,4.131645,1.4445748,1.5547534,-0.65513766,-2.9561088
783,1747533701760,-0.809415875,4.0866165,1.35244325,1.30414995,-0.58562913,-3.1100396
784,1747533701770,-0.782447525,3.96263535,1.1780644,0.62717443,-0.4266384,-3.40272105
785,1747533701780,-0.6665203,3.7133312,0.967443,-0.5502091,-0.21997711,-3.6820867
786,1747533701790,-0.38439015,3.2620692,0.733148,-2.0064256,0.092145376,-3.788613
787,1747533701800,-0.18694785,2.9613905,0.59842837,-2.654639,0.25672874,-3.8514636
788,1747533701810,-0.083711635,2.80458375,0.528139875,-3.2277513,0.46818373,-3.9547944
789,1747533701820,0.12568948,2.47278795,0.36706209,-3.4679685,0.5917543949999999,-4.0131175500000005
790,1747533701830,0.317030355,2.1475817,0.2015912799999999,-3.900466,0.81945468,-4.142280850000001
791,1747533701840,0.7268025,1.4865527,-0.21794313,-4.3894224,1.0183928,-4.368117
792,1747533701850,0.90472025,1.2268758,-0.409284,-4.8315067,1.0434265,-4.6653256
793,1747533701860,1.0889834,1.010397,-0.5876899,-4.96573,1.0647318,-4.785168
794,1747533701870,1.18892485,0.916923065,-0.66688645,-5.0118028,1.057275,-4.848551199999999
795,1747533701880,1.670816,0.5940353,-1.0267489,-5.1074104,1.0679276,-5.180381
796,1747533701890,1.8987653,0.5103237,-1.1997855,-5.0887685,1.0902982,-5.3737264
797,1747533701900,2.26411905,0.411358505,-1.41199315,-5.0482883,1.1515509,-5.640043
798,1747533701910,2.3822427,0.37706846,-1.4763023,-4.9891663,1.3235911,-5.9819927
799,1747533701920,2.554059,0.30433938,-1.5490314,-4.950284,1.47086395,-6.1662833500000005
800,1747533701930,2.6807246,0.21843125,-1.6439695,-4.784635,2.065015,-6.844324
801,1747533701940,2.6214187,0.0102504045,-1.7796655,-4.420315,2.4623587,-7.6065207
802,1747533701950,2.5379512,-0.055645052,-1.8048034,-4.1396174,2.4138892,-7.8882833
803,1747533701960,2.468395,-0.09518232,-1.8069998,-3.8141794,2.2311964,-8.058193
804,1747533701970,2.4188514,-0.14106509,-1.934886,-3.242665,1.5925703,-8.165252
805,1747533701980,2.331235,-0.20061506,-1.9941918,-3.0642333,1.1084076,-8.072574
806,1747533701990,2.311222,-0.19817449,-2.0654564,-3.0360036,0.6151902,-7.9426117
807,1747533702000,2.3532,-0.1889003,-2.1245184,-3.2000544,0.12676647,-7.7806916
808,1747533702010,2.4034758,-0.23844394,-2.021038,-3.6224318,-0.24394555,-7.3966637
809,1747533702020,2.4465519,-0.25211115,-1.94354985,-3.6796898,-0.252467675,-7.28347945
810,1747533702030,2.5838341500000004,-0.286523205,-1.79040395,-3.7316214,-0.19574235,-7.08933495
811,1747533702040,2.8493683,-0.38146147,-1.5573293,-3.6128445,0.098004326,-6.9726887
812,1747533702050,2.984332,-0.49299565,-1.3777032,-3.3886063,0.360592,-7.0563116
813,1747533702060,2.8405824,-0.601113,-1.1480453,-2.735599,0.5773733,-7.1623054
814,1747533702070,2.74686435,-0.59403535,-1.14658095,-2.5784726,0.5704491,-7.003314700000001
815,1747533702080,2.4803538,-0.5789038,-1.2385906,-2.3787355,0.4990764,-6.3793364
816,1747533702090,2.3219607,-0.630888,-1.3606192,-2.5667548,0.4495416,-5.813148
817,1747533702100,2.177723,-0.7580418,-1.4440868,-2.9374666,0.41758367,-5.200621
818,1747533702110,1.8521506,-1.0526189,-1.2495731,-3.7646446,0.4293016,-3.869573
819,1747533702120,1.8112709,-1.0836142,-1.1690342500000002,-3.8860848,0.4316984299999999,-3.50525265
820,1747533702130,1.8062676,-1.1409676,-0.9952655,-4.153999,0.5251754,-2.4889903
821,1747533702140,1.8868065,-1.1739154,-0.9772052,-4.228567,0.7568704,-2.0138824
822,1747533702150,2.0700936,-1.1992973,-0.99770606,-4.2413507,1.0966897,-1.8216022
823,1747533702160,2.238371,-1.44201225,-1.10826398,-3.9710397,1.68018835,-2.17819945
824,1747533702170,2.37833785,-1.9002297,-1.23932275,-3.3886062,2.48685985,-2.89938355
825,1747533702180,2.2375169,-2.5357547,-1.2283401,-2.1523669,2.8442562,-4.0240364
826,1747533702190,2.0737545,-2.9191687,-1.0687267,-1.0013486,2.5134914,-4.72285
827,1747533702200,1.632987,-3.4087477,-1.0972813,1.2335763,1.6138756,-5.4733286
828,1747533702210,1.7257288,-3.2508426,-1.4138237,1.8588865,1.1749867,-5.5431037
829,1747533702220,1.7655101,-3.0707283,-1.6483628,1.9755329,0.6668556,-5.444034
830,1747533702230,1.7331725,-3.209597,-2.0626498,1.325189,0.2231729,-5.038701
831,1747533702240,1.7489142,-3.3560314,-2.2023726,0.22903186,0.20559604,-4.485296
832,1747533702250,2.0554502,-4.332748,-2.5137897,-2.2903185,0.3158509,-2.9800773
833,1747533702260,2.216772,-5.0190372,-2.5211112,-3.067429,0.15659387,-2.0746026
834,1747533702270,2.4464297,-5.555719,-2.5767562,-3.358246,-0.016511599,-1.0024139
835,1747533702280,2.5623572,-5.990385,-2.5965252,-3.1915324,-0.061252706,0.16884442
836,1747533702290,2.8105633,-6.244937,-2.4737642,-1.71188,-0.04527374,1.9718045
837,1747533702300,2.9508963,-5.9440145,-2.387856,-0.314253,-0.112918034,2.470881
838,1747533702310,3.18031,-5.4207554,-2.1350129,0.90014845,-0.118776985,2.6583674
839,1747533702320,3.3182025,-4.8911514,-1.8824136,2.0410466,0.03355583,2.744654
840,1747533702330,3.2896478,-4.2361016,-1.6498269,2.9640985,0.3222425,2.8671594
841,1747533702340,2.8415585,-2.733197,-1.4711771,3.5760927,0.5885586,3.1169639
842,1747533702350,2.60043,-2.267048,-1.6490947,3.6405413,0.7025419,4.2168493
843,1747533702360,2.3951778,-2.0752187,-1.8091964,3.0999196,0.74781567,5.0349727
844,1747533702370,2.3390448,-2.0156689,-1.9117005,2.326005,0.8335694,5.901565
845,1747533702380,2.3573492,-1.9985847,-1.88461,1.83332015,0.8215852,6.40357085
846,1747533702390,2.3158593,-2.1286674,-1.4943625,0.58962387,0.30146983,8.200938
847,1747533702400,2.3119543,-2.182848,-1.2991167,0.6631271,-0.10013486,8.746886
848,1747533702410,2.3229368,-2.1822379,-1.2160152,0.81439467,-0.27190875,8.9700595
849,1747533702420,2.4073806,-2.118661,-1.039928,1.3699301,-0.6737798,9.467005
850,1747533702430,2.4448434,-2.04336935,-1.0244303499999998,1.57312925,-0.7435546,9.5181375
851,1747533702440,2.5164742,-1.5597699,-0.98208636,2.4831314,-0.8591358,9.448895
852,1747533702450,2.5262365,-1.3340169,-0.95377576,2.7787423,-0.8628642,9.336511
853,1747533702460,2.53490055,-1.2208964,-0.96280588,2.9270804000000004,-0.8503473500000001,9.2544855
854,1747533702470,2.5375853,-1.02821322,-0.9936791,3.14332915,-0.87618003,9.114669
855,1747533702480,2.467419,-0.8432178,-1.0994779,3.2671661,-1.0476876,9.037171
856,1747533702490,2.4035979000000003,-0.80770745,-1.17684405,3.180347,-1.3981596,9.353555
857,1747533702500,2.3983507,-0.76853627,-1.3286476,3.0807447,-1.5941683,9.558618
858,1747533702510,2.4803538,-0.7560893,-1.3242546,2.952913,-1.7539579,9.669938
859,1747533702520,2.5161082500000003,-0.73107345,-1.31302795,2.88313815,-1.81201485,9.6494315
860,1747533702530,2.6394792,-0.6465077,-1.2869139,2.74971375,-1.902296,9.537845
861,1747533702540,2.6248357,-0.64040625,-1.198077,2.5614283,-1.9909793,8.786302
862,1747533702550,2.600918,-0.652365,-1.121687,2.6077673,-2.0357203,8.484299
863,1747533702560,2.588227,-0.66188323,-1.0665302,2.7435887,-2.1385183,8.21745
864,1747533702570,2.56369935,-0.683848365,-1.0594525,2.85624035,-2.214951,8.1245055
865,1747533702580,2.55174065,-0.6872651750000001,-1.0770246,3.200587,-2.41362285,7.8363515
866,1747533702590,2.6455805,-0.55645055,-1.2000295,3.577158,-2.4527714,7.3726954
867,1747533702600,2.7517455,-0.40342662,-1.2976524,3.627758,-2.2343922,7.0685625
868,1747533702610,2.7737105,-0.2272173,-1.3249868,3.5420043,-1.8892465,6.648848
869,1747533702620,2.732221,-0.032459613,-1.2773956,3.371562,-1.6287893,6.270679
870,1747533702630,2.6404555,0.0622346,-1.2398108,3.103648,-1.3960291,5.897304
871,1747533702640,2.2758338,0.082491346,-1.0457853,2.3350596,-0.9736517,5.520733
872,1747533702650,2.0088353,0.08053889,-0.87860614,1.9765981,-0.8990832,5.65975
873,1747533702660,1.7752724,0.1147069,-0.7089863,1.7214674,-1.0258497,5.9313927
874,1747533702670,1.6110219,0.19378147,-0.5515694,1.5675366,-1.2937636,6.2035675
875,1747533702680,1.5285306,0.34265637,-0.49348375,1.5158713,-1.4357101,6.2933161
876,1747533702690,1.3367015,0.7919658,-0.54888475,1.0966897,-1.6271914,6.239254
877,1747533702700,1.223459,0.97988985,-0.541074925,0.970455885,-1.5552861,6.0938453500000005
878,1747533702710,0.98391685,1.42724675,-0.468101805,0.7020092600000001,-1.4048175,5.73991135
879,1747533702720,0.6577343,2.1211014,-0.31995904,0.407996275,-1.2245214999999998,5.3036855
880,1747533702730,0.5685313750000001,2.29718875,-0.265656305,0.1174454049999999,-1.08124345,4.8378985
881,1747533702740,0.40269446,2.7778594,0.15326795,-0.42024684,-0.67963874,3.333745
882,1747533702750,0.18841219,2.8213017,0.37413976,-0.45486793,-0.6066681,2.6162896
883,1747533702760,-0.17401282,2.8335047,0.545468,-0.25300032,-0.6876282,1.9622171
884,1747533702770,-0.511788,3.2945287,0.8808026,0.42770368,-1.0317086,1.0610034
885,1747533702780,-0.43076107,3.529556,0.8498074,0.7142598,-1.0450244,0.4079963
886,1747533702790,-0.34241232,3.6215653,0.81490713,0.8708537,-0.97951066,-0.37390783
887,1747533702800,-0.26968327,3.6879492,0.86933196,0.8905611,-0.7888283,-1.2117383
888,1747533702810,-0.30580372,3.7872803,1.0284572,0.7803062,-0.65673554,-2.6716833
889,1747533702820,-0.40757558,3.79692065,1.1209549,0.738494565,-0.651941835,-2.89272565
890,1747533702830,-0.6033095,3.6886811,1.2420074,0.52837116,-0.64075655,-3.3822145
891,1747533702840,-0.66017485,3.5913024,1.1822133,0.1587244,-0.5566007,-3.5782232
892,1747533702850,-0.6130718,3.5061266,1.0596966,-0.25726137,-0.47351006,-3.709251
893,1747533702860,-0.4058672,3.1517553,0.8305268,-1.3006879,-0.3637878,-4.012851
894,1747533702870,-0.332528,3.05486465,0.79208778,-1.54969345,-0.29507825,-4.063451150000001
895,1747533702880,-0.03904916,2.7056186,0.6643238,-2.2429142,0.0,-4.213121
896,1747533702890,0.17059602,2.4530194,0.5298483,-2.6498454,0.304133,-4.349475
897,1747533702900,0.37658033,2.1882172,0.40440285,-2.9774141,0.5858955,-4.560397
898,1747533702910,0.7492558,1.6588572,0.16815543,-3.3928673,0.8644621,-5.2677326
899,1747533702920,0.8371163699999999,1.56416295,0.0873724877,-3.44346735,0.85540737,-5.4115433
900,1747533702930,0.92497694,1.4694687,0.0065895454,-3.4940674,0.84635264,-5.555354
901,1747533702940,1.1410897,1.2069851,-0.253209395,-3.6296222,0.7475493550000001,-5.8624168
902,1747533702950,1.3655003,0.97598493,-0.51666915,-3.7870152,0.61572284,-6.0357885
903,1747533702960,1.3655003,0.97598493,-0.51666915,-3.7870152,0.61572284,-6.0357885
904,1747533702970,1.8735055,0.66188327,-1.03004365,-4.20965885,0.56831857,-6.10849275
905,1747533702980,2.05532805,0.55364385,-1.1802609,-4.406200200000001,0.6743123799999999,-6.1614895
906,1747533702990,2.3500273,0.4271002,-1.3357253,-4.699947,1.0961571,-6.386793
907,1747533703000,2.5323381,0.21159762,-1.4650756,-4.807006,1.347027,-6.5748124
908,1747533703010,2.5447848,0.12032023,-1.4755701,-4.8315067,1.768339,-6.957242
909,1747533703020,2.6262999,0.06199054,-1.4902135,-4.78596685,1.82320015,-7.0579095
910,1747533703030,2.763216,-0.029530926,-1.5736811,-4.5966163,1.8551581,-7.3668365
911,1747533703040,2.7639482,-0.15448824,-1.6617858,-4.432565,1.778459,-7.487211
912,1747533703050,2.5430765,-0.31776255,-1.8309175,-4.213121,1.5584819,-7.3146386
913,1747533703060,2.4491146,-0.298482,-1.8660617,-4.215784,1.3427658,-6.951383
914,1747533703070,2.4132380500000004,-0.2639479,-1.86447535,-4.2474755,1.267931,-6.775081800000001
915,1747533703080,2.3715043,-0.16083373,-1.7921125,-4.355334,1.1073424,-6.2962456
916,1747533703090,2.446918,-0.09005712,-1.6944895,-4.4219127,1.0977551,-6.1487064
917,1747533703100,2.5928643,-0.13569583,-1.6510473,-4.4597297,1.1819109,-6.2286015
918,1747533703110,2.6333778,-0.2779812,-1.5666034,-4.383563,1.3480922,-6.340454
919,1747533703120,2.6936598,-0.37536004,-1.4645876,-4.206197,1.5158713,-6.5119615
920,1747533703130,2.725387,-0.45077375,-1.3757507,-3.923369,1.6559536,-6.712231
921,1747533703140,2.5940845,-0.5623079,-1.3308442,-3.5148401,1.7342505,-6.9247518
922,1747533703150,2.3971303,-0.58207655,-1.3933228,-3.0727553,1.4658039,-6.788398
923,1747533703160,2.29694475,-0.5797580250000001,-1.4638554,-3.08287535,1.3970943500000002,-6.5553715
924,1747533703170,2.1761365,-0.5900084,-1.6006495,-3.1843418,1.29403005,-6.031794
925,1747533703180,2.1760144,-0.7226535,-1.7367114,-3.5750275,1.2319783,-5.2171326
926,1747533703190,2.1076784,-1.2205303,-1.5910091,-4.0325584,1.3667343,-4.446414
927,1747533703200,2.0029778,-1.4533609,-1.3752626,-4.0298953,1.351288,-4.120443
928,1747533703210,1.9271981,-1.5220630000000002,-1.3014353,-3.8722363,1.3278521,-3.7566552
929,1747533703220,1.7467177,-1.6195638,-1.0960611,-3.67782565,1.31560155,-3.5183022
930,1747533703230,1.7537954,-1.6481185,-1.121199,-3.0940607,1.4487597,-2.974751
931,1747533703240,2.1350129,-1.8782645,-1.3496367,-2.159291,1.9078887,-3.0594394
932,1747533703250,2.1459954,-2.182848,-1.4802072,-1.6421051,2.0176108,-3.468501
933,1747533703260,1.8148097,-2.5879831,-1.6581249,-1.1062771,1.963815,-3.8967373
934,1747533703270,1.3388981,-2.938205,-1.769171,-0.85593998,1.8341191,-4.0304281500000005
935,1747533703280,0.9000831,-3.2535272,-1.9075515,-0.18002969,1.3454291,-4.2338934
936,1747533703290,0.7922098,-3.5900822,-2.1584423,0.48363006,0.09960223,-3.9100533
937,1747533703300,0.99404514,-3.5854452,-2.28462,0.45327002,-0.4511395,-3.7449372
938,1747533703310,1.194172,-3.7313912,-2.3380685,0.14807177,-0.81439465,-3.6160402
939,1747533703320,1.2517696,-3.90589225,-2.36967385,-0.37923414,-0.8543421,-3.4471958
940,1747533703330,1.4299314,-4.552156,-2.494021,-0.9400959,-0.7057377,-3.1558459
941,1747533703340,1.7547716,-5.500318,-2.7688293,-1.3257216,-0.2711098,-2.3009713
942,1747533703350,1.8218873,-5.814908,-2.8608391,-1.0823087,-0.22796659,-1.6490294
943,1747533703360,1.9026704,-5.9237576,-2.9992194,-0.55553544,-0.3834952,-0.8580705
944,1747533703370,1.9372045,-5.9137513,-2.99201975,-0.1339570199999999,-0.63383235,-0.30546457
945,1747533703380,2.1586864,-5.661396,-2.8042178,0.99548966,-1.1765846,1.0823087
946,1747533703390,2.6590037,-4.9524097,-2.553083,2.1134846,-1.0183928,2.1901836
947,1747533703400,2.7500372,-4.620736,-2.37004,2.511361,-0.7765778,2.4676852
948,1747533703410,2.6499736,-4.139943,-2.1379416,2.850115,-0.4543353,2.787797
949,1747533703420,2.57553625,-3.8917369,-2.0523995,2.97634885,-0.298007735,2.98726785
950,1747533703430,2.2790065,-2.804462,-1.9075515,3.1430628,0.267914,4.117247
951,1747533703440,2.216772,-2.6067755,-1.9732028,2.8873992,0.26525086,4.7809067
952,1747533703450,2.1025531,-2.485723,-1.9336655,2.6429212,0.08628642,5.3721285
953,1747533703460,2.029336,-2.3805344,-1.8911997,2.4469125,-0.123038046,6.0475063
954,1747533703470,2.002734,-2.3336754,-1.8306733,2.328668,-0.3536678,6.7612333
955,1747533703480,2.046176,-2.2143314,-1.7257288,2.2674153,-0.58483016,7.4216976
956,1747533703490,2.1293995,-2.0959635,-1.688632,2.3654196,-1.091896,8.373511
957,1747533703500,2.2375169,-1.9773518,-1.6483628,2.505502,-1.257012,8.661665
958,1747533703510,2.3130526500000004,-1.8314056,-1.61809965,2.71802225,-1.35075535,8.747419
959,1747533703520,2.4110415,-1.4826478,-1.5548887,3.2847428,-1.5488945,8.733571
960,1747533703530,2.4705915,-1.2895985,-1.5749013,3.5878108,-1.6266588,8.586032
961,1747533703540,2.5838342,-1.1336459,-1.6217605,3.8892806,-1.722,8.406002
962,1747533703550,2.630449,-1.0423685,-1.6486067,4.1619883,-1.7907095,8.2483425
963,1747533703560,2.62935075,-0.99807213,-1.65690465,4.2711778,-1.79949795,8.20253625
964,1747533703570,2.64375005,-0.87860611,-1.69522165,4.45546845,-1.8418422,8.139686000000001
965,1747533703580,2.6729148,-0.68616693,-1.7515988500000002,4.5651908,-1.91028545,8.115185
966,1747533703590,2.647045,-0.46248847,-1.7486702,4.4799695,-2.122007,8.050203
967,1747533703600,2.6487532,-0.36340126,-1.6752089,4.363856,-2.2343922,7.9383507
968,1747533703610,2.707571,-0.27895743,-1.5468348,4.2280345,-2.4080303,7.697068
969,1747533703620,2.7092795,-0.24308102,-1.4650756,4.1689124,-2.4319987,7.568704
970,1747533703630,2.7732227,-0.15375607,-1.4272468,4.123106,-2.4431841,7.4014573
971,1747533703640,2.784449,-0.08151512,-1.3923465,4.0804954,-2.4138892,7.2038507
972,1747533703650,2.7990925,-0.0622346,-1.3691611,4.0171123,-2.3052323,6.976417
973,1747533703660,2.7073271,-0.15204766,-1.2878901,3.875432,-1.9728698,6.5471153
974,1747533703670,2.66156635,-0.1709621,-1.26446065,3.81338035,-1.83704855,6.469084649999999
975,1747533703680,2.54100215,-0.17755165,-1.2135747,3.68554865,-1.6112125000000002,6.3519055
976,1747533703690,2.3217165,-0.127886,-1.1473131,3.452522,-1.3369069,6.2531023
977,1747533703700,2.2109146,-0.10055158,-1.070191,3.257046,-1.2325109,6.1934476
978,1747533703710,1.986382,0.041977845,-0.9872115,2.7782097,-1.077515,6.119944
979,1747533703720,1.9800365,0.1288622275,-0.95572815,2.6567695,-1.0548781,6.11754725
980,1747533703730,1.9414754,0.324840205,-0.89581215,2.3355923,-0.99282646,6.0810623
981,1747533703740,1.8655735,0.6355251,-0.82344913,2.1843247,-0.9507485,5.9766665
982,1747533703750,1.7357352,1.0294335,-0.6108753,2.0453076,-1.0604708,5.714611
983,1747533703760,1.4721533,1.2136967,-0.5086153,1.8056233,-0.5187838,5.220861
984,1747533703770,1.0931324,1.449456,-0.439059,1.6479641,-0.24501082,4.8900967
985,1747533703780,0.68433654,1.8233517,-0.366574,1.4807175,-0.20932446,4.454936
986,1747533703790,0.34045988,2.2524045,-0.26211748,1.3507553,-0.44794372,3.9665122
987,1747533703800,0.14057697,3.1637142,-0.056377225,1.2921658,-0.77444726,3.4764905
988,1747533703810,0.2689511,3.401914,0.032215554,1.433846,-1.170193,2.3670175
989,1747533703820,0.33265004,3.4259537,0.134719592,1.4836471,-1.11959295,1.98991395
990,1747533703830,0.350466205,3.5118618,0.353638935,1.59523355,-0.99176123,1.0649981350000002
991,1747533703840,0.093473926,3.734076,0.66090703,1.7550232,-0.72491246,-0.28655612
992,1747533703850,-0.27383223,3.90516,0.90423214,1.794438,-0.5906891,-1.532383
993,1747533703860,-0.328623085,3.8917369,0.90655067,1.7118799500000002,-0.561660665,-1.72040215
994,1747533703870,-0.41526342,3.83780025,0.93120045,1.47698915,-0.480434265,-2.0394488500000003
995,1747533703880,-0.45638704,3.7706845,0.9813542,0.93636745,-0.2908172,-2.3813987
996,1747533703890,-0.41538543,3.739201,1.006004,0.5251754,-0.20186761,-2.5901904
997,1747533703900,-0.29164842,3.526383,1.0648217,-0.28815404,0.09161274,-3.0610373
998,1747533703910,-0.2208718,3.3545668,0.99111646,-0.6625945,0.33449304,-3.3230925
999,1747533703920,-0.18914436,3.26573,0.95292151,-1.0540792,0.5550028,-3.6464002
1000,1747533703930,-0.107385196,2.9987314,0.8341876,-1.4349113,0.7185209,-3.9952743
