id,timestamp,acc_x,acc_y,acc_z,gyro_x,gyro_y,gyro_z
1,1747533337960,0.03734076,0.59159476,0.7834238,0.068176925,-0.2514024,-0.0479369
2,1747533337970,0.5274077,-0.2706595,1.1663495,1.0535465,1.4998924,0.07350325
3,1747533337980,0.5171573,-0.28115395,1.1949043,1.0045444,1.6943032,0.10918961
4,1747533337990,0.5142286,-0.29262465,1.2588474,1.0354371,1.7465011,0.1470065
5,1747533338000,0.5136184500000001,-0.2907942249999999,1.300093,1.0956245,1.7568874499999998,0.16591494
6,1747533338010,0.5213063,-0.27505252,1.3664765,1.3321131,1.784318,0.20719394
7,1747533338020,0.5452239,-0.27505252,1.3275494,1.4567491,1.81228115,0.2087918349999999
8,1747533338030,0.6101431,-0.24625377,1.2176017,1.6016251,1.9190739,0.15286545
9,1747533338040,0.6152683000000001,-0.23942016,1.1740374,1.55288925,1.9728698,0.121173835
10,1747533338050,0.615390325,-0.23258655,1.1060674,1.42026385,2.07540155,0.06258429
11,1747533338060,0.562796,-0.22331238,1.0894716,1.25488155,2.1797974,0.0263652955
12,1747533338070,0.5120321,-0.21135357,1.1129011,0.9331717,2.4357271,0.055926383
13,1747533338080,0.50788313,-0.21159762,1.2168695,0.92464954,2.4543693,0.044208474
14,1747533338090,0.48225713,-0.2203837,1.3647681,1.0887003,2.4032366,0.04474111
15,1747533338100,0.43613032,-0.24454537,1.6422611,2.0618193,2.049569,0.11771172
16,1747533338110,0.43613032,-0.24454537,1.6422611,2.0618193,2.049569,0.11771172
17,1747533338120,0.5039782,-0.22624107,1.6603215,3.268764,1.7502295,0.08948222
18,1747533338130,0.5159370350000001,-0.218309205,1.5982089,3.49273585,1.69563465,0.0628506065
19,1747533338140,0.5112999,-0.17718557,1.4062579,3.9963396,1.5733956,0.0026631611
20,1747533338150,0.5549862,-0.099575356,1.2439598,4.1353564,1.5675366,-0.087884314
21,1747533338160,0.56108762,-0.076633977,1.25518645,4.150536499999999,1.5952335,-0.126766467
22,1747533338170,0.58939826,-0.014887493,1.317421,4.21232195,1.6450346,-0.207726565
23,1747533338180,0.59537765,-0.003660859,1.351467,4.34095265,1.6628778,-0.301736155
24,1747533338190,0.6113634,0.0051252022,1.4882611,4.789429,1.587244,-0.50653327
25,1747533338200,0.628081315,-0.0076878033999999,1.6037002,5.371063400000001,1.4873755000000002,-0.67857346
26,1747533338210,0.634914935,-0.0374627875,1.73073195,6.3345949,1.30415,-0.937432725
27,1747533338220,0.60086894,-0.07541369,1.688632,7.483483,0.9779128,-1.1941614
28,1747533338230,0.5613316,-0.06760386,1.5224291,7.817976,0.827444175,-1.2751215
29,1747533338240,0.6233222,0.024649782,0.9791577,8.435030000000001,0.4519384349999999,-1.55182395
30,1747533338250,0.635159,0.081637151,0.811368325,8.497615,0.22583607,-1.9973708
31,1747533338260,0.66896087,0.28994003,0.28798756,7.642207,0.45540056,-2.3281355
32,1747533338270,0.6372335,0.43076107,0.04905551,6.658968,0.82078624,-2.5310683
33,1747533338280,0.6040417,0.49421594,0.02831064,5.69011,1.2809805,-2.6786075
34,1747533338290,0.4915313,0.5623079,0.23405088,4.327104,1.7965685,-2.876214
35,1747533338300,0.43661841,0.5570606499999999,0.332405975,4.21605035,1.7518274,-2.89565515
36,1747533338310,0.3333822,0.50788313,0.6294237,4.191283,1.4050838,-2.954511
37,1747533338320,0.2865232,0.4825012,0.80441266,4.5753107,0.9422264,-3.0146985
38,1747533338330,0.2323425,0.43930307,0.86567104,5.1201935,0.49375007,-3.0711575
39,1747533338340,0.25479576,0.32117933,0.7219213,6.26482,-0.28122982,-3.2676988
40,1747533338350,0.1859716175,0.327158735,0.62405435,6.5396585,-0.5699165,-3.325223
41,1747533338360,0.057841565,0.3014107,0.36291313,6.5790734,-0.7142598,-3.2921999
42,1747533338370,0.09200958,0.2962855,0.31361356,6.5614963,-0.6956177,-3.2463934
43,1747533338380,0.12690976,0.32508424,0.36584184,6.716492,-0.7840346,-3.3710294
44,1747533338390,0.12105239,0.30287502,0.27310007,6.72288385,-0.820786235,-3.43388
45,1747533338400,0.0833455485,0.25516183,0.137526255,6.706905,-0.9358348,-3.6128445
46,1747533338410,-0.06931226,0.2208718,0.12178457,6.766027,-1.170193,-3.6506612
47,1747533338420,-0.17987019,0.19085276,0.06613952,6.8565745,-1.5238608,-3.6378782
48,1747533338430,-0.12690976,0.136428,0.006345488,6.9636335,-1.9691414,-3.6906087
49,1747533338440,-0.17572121,0.14179726,-0.10152781,6.915164,-2.0532973,-3.7907436
50,1747533338450,-0.17572121,0.14179726,-0.10152781,6.915164,-2.0532973,-3.7907436
51,1747533338460,-0.35010013,0.17852788,-0.16449458,6.7220853,-1.9699402,-3.68608145
52,1747533338470,-0.3937863849999999,0.21428226,-0.174744995,6.6294071500000005,-1.8961707,-3.54386855
53,1747533338480,-0.331917865,0.2173329749999999,-0.364987635,6.3321983500000005,-1.886317,-3.5041873
54,1747533338490,-0.252233165,0.19243914,-0.66212732,5.78119035,-1.93425395,-3.60352325
55,1747533338500,-0.217821095,0.15936938,-0.88739212,4.97265455,-1.9859193,-3.78248775
56,1747533338510,-0.28969595,0.12690976,-1.0518868,3.57556,-2.0431771,-4.0027313
57,1747533338520,-0.6155124,0.088836834,-0.89398164,3.15025325,-2.04104655,-3.98648595
58,1747533338530,-0.716308,0.03929322,-0.7787867,1.4114754,-1.9212044,-3.6378782
59,1747533338540,-0.7512082,0.0012202862,-0.6286915,0.9603359,-1.768339,-3.445598
60,1747533338550,-0.7255822000000001,-0.0180602369,-0.55986734,0.80587255,-1.7070863,-3.37342625
61,1747533338560,-0.72021294,-0.06418706,-0.39830142,0.4628574,-1.5968314,-3.2085764
62,1747533338570,-0.70325097,-0.06504126,-0.311539075,0.4141215499999999,-1.6841830999999998,-3.1302795000000003
63,1747533338580,-0.6577343,-0.05051985,-0.20061506,0.34780884,-2.0250678,-3.0578415
64,1747533338590,-0.6770148,-0.08127106,-0.22502078,0.1768339,-2.1683457,-3.1052458
65,1747533338600,-0.68238405,-0.12568948,-0.2256309249999999,0.0482032149999999,-2.1318605,-3.10764265
66,1747533338610,-0.711304835,-0.22258021,-0.19878463,-0.211188675,-2.00562675,-3.09565845
67,1747533338620,-0.73485637,-0.27505252,-0.17132819,-0.34194988,-1.9158782,-3.0812774
68,1747533338630,-0.90276777,-0.4366184,-0.0665056,-0.724912475,-1.6341157,-2.9230857
69,1747533338640,-1.138527,-0.76170266,0.2511349,-1.1424961,-1.2245215,-2.360626
70,1747533338650,-1.1745255,-0.806487205,0.32813497,-1.13290875,-1.1206582,-2.19923845
71,1747533338660,-1.2256555,-0.887880295,0.464318905,-1.0410297,-0.88656633,-1.82586325
72,1747533338670,-1.197833,-1.0689708,0.67091334,-0.48043427,-0.4777711,-1.0375676
73,1747533338680,-1.2251674,-1.1089962,0.6801876,-0.329965665,-0.40320259,-0.8876316150000001
74,1747533338690,-1.24505805,-1.12547,0.6638357500000001,0.08894958,-0.1470065,-0.39468047
75,1747533338700,-1.29728625,-1.1402354,0.61185155,0.187220225,-0.023169505,-0.199470764
76,1747533338710,-1.35219915,-1.1147315,0.52460105,0.33822146,0.2458097699999999,0.210656041
77,1747533338720,-1.3205938000000002,-1.01259355,0.3932982299999999,0.39281626,0.689758745,0.86259792
78,1747533338730,-1.1626887,-0.8095379,0.28335047,0.44368264,1.2447615,1.663943
79,1747533338740,-1.0450531,-0.6770148,0.21989559,0.5203817,1.4008228,1.9851203
80,1747533338750,-0.97671707,-0.6066043000000001,0.178283825,0.5499428,1.4109428,2.0610204
81,1747533338760,-0.78635246,-0.42954078,0.041733786,0.61412495,1.391768,2.221609
82,1747533338770,-0.67042524,-0.23429495,-0.21623473,0.49960902,1.202151,2.2264028
83,1747533338780,-0.7145996,-0.14741059,-0.36047253,0.2647182,1.0988203,2.1885858
84,1747533338790,-0.76243484,-0.10909359,-0.38756293,-0.08149273,1.015197,2.1869879
85,1747533338800,-0.8113683199999999,-0.0733392025,-0.32349789,-0.214650785,1.0349043999999998,2.22054375
86,1747533338810,-0.8676235,-0.0119588045,-0.19378145,-0.40213732,1.16380145,2.3110913
87,1747533338820,-0.861522065,0.051496078,-0.0557670785,-0.2711098,1.7965685,2.551841
88,1747533338830,-0.8644508,0.12642166,-0.01415532,-0.19654129,1.8626149,2.5947178500000003
89,1747533338840,-0.82906246,0.15497635,-0.14277348,-0.06711166,2.005893,2.7361317
90,1747533338850,-0.790257365,0.16864356,-0.24698593,-0.13315806,2.0229372,2.76276335
91,1747533338860,-0.6152683,0.21330604,-0.8854397,-1.2410331,1.9238676,2.7334685
92,1747533338870,-0.60062486,0.2169669,-1.0301657,-2.086853,1.8578212,2.6700854
93,1747533338880,-0.6360132,0.20329969,-1.0672623,-3.0072415,1.8439728,2.6365294
94,1747533338890,-0.6798214499999999,0.19902869,-1.0155222,-3.44133675,1.8623486,2.6533074
95,1747533338900,-0.84785485,0.20647243,-0.4915313,-5.0163302,2.2322617,3.0423954
96,1747533338910,-0.79269797,0.23673552,-0.28432667,-5.1228566,2.2945797,3.206446
97,1747533338920,-0.73778504,0.30458343,-0.11373068,-5.06426715,2.2940471,3.2517197500000004
98,1747533338930,-0.709596455,0.332650015,-0.0657734295,-4.8876996,2.27167655,3.32282615
99,1747533338940,-0.63162017,0.3718211999999999,-0.024283696,-4.66665725,2.2261364500000003,3.3582462
100,1747533338950,-0.2630937,0.49348375,-0.2506468,-4.473578,2.0905814,3.1649008
101,1747533338960,-0.2223361449999999,0.524479025,-0.28115395,-4.50234,2.02240455,3.04399325
102,1747533338970,-0.19329334,0.57621915,-0.3222776,-4.57238115,1.8074875,2.77528025
103,1747533338980,-0.31678632,0.62356627,-0.27993366,-4.6498795,1.3432984,2.4980452
104,1747533338990,-0.5042223,0.62014943,-0.11568313,-4.5715823,0.9139969,2.530003
105,1747533339000,-0.4995852,0.61587843,-0.0850539479999999,-4.52604215,0.90973585,2.59498415
106,1747533339010,-0.439059,0.6294237,-0.032703668,-4.4386905,0.9416938,2.71029905
107,1747533339020,-0.4087959,0.67555046,-0.050031736,-4.347877,1.0530139,2.8144288
108,1747533339030,-0.36169282,0.70361704,-0.090789296,-4.3574643,1.06366655,2.83626665
109,1747533339040,-0.093473926,0.7753699,-0.18841219,-4.6317697,0.9683254,2.7281423
110,1747533339050,-0.019280521,0.77195305,-0.14765464,-4.78357,0.87032104,2.4644892
111,1747533339060,-0.06589546,0.7326599,-0.073217176,-4.8442903,0.7755125,2.2604911
112,1747533339070,-0.16766733,0.7297312,0.0388051,-4.8437576,0.65673554,2.16515
113,1747533339080,-0.196832175,0.7187486000000001,0.123492965,-4.75534055,0.591488095,2.1824606
114,1747533339090,-0.2608972,0.7294871,0.22965786,-4.6003447,0.5566007,2.269546
115,1747533339100,-0.23392887,0.7401036000000001,0.20940111,-4.647749,0.6402239,2.3611586
116,1747533339110,-0.08297946,0.77146494,0.20744865,-4.780374,0.7206514,2.3952472
117,1747533339120,0.082003236,0.7917217,0.30897647,-4.8597364,0.71159667,2.2903185
118,1747533339130,0.160589673,0.81112425,0.45772937,-4.776113,0.598146,1.6735305
119,1747533339140,0.13862452,0.7934301,0.6804316,-4.116182,0.16405073,1.4333134
120,1747533339150,0.0733392045,0.76341108,0.703739075,-3.7071204,-0.044208474,1.3156016
121,1747533339160,-0.0442963905,0.713623405,0.7221654049999999,-3.495399,-0.151267547,1.3089437
122,1747533339170,-0.13911263,0.711060795,0.61722078,-3.0328078,-0.4463457899999999,1.4133396
123,1747533339180,-0.131546855,0.7310734999999999,0.47127455,-2.7963191,-0.635430245,1.57898825
124,1747533339190,0.004881145,0.7582859,0.40098605,-2.9630332,-0.52837116,1.6841831
125,1747533339200,0.0563772255,0.77036675,0.4080637099999999,-3.0708911,-0.4508731699999999,1.67406305
126,1747533339210,0.131424828,0.779396875,0.419656425,-3.33933765,-0.2295644849999999,1.6093482
127,1747533339220,0.143627695,0.7502319749999999,0.434543925,-3.6288234,0.037284255,1.5190671
128,1747533339230,0.27846932,0.6560259,0.5618198,-3.87729635,0.13502227,1.28337735
129,1747533339240,0.21574661,0.6228341,0.6718896,-3.8258972,-0.16458336,0.813862
130,1747533339250,0.156928815,0.59964865,0.7069118299999999,-3.68395075,-0.34274883,0.7440872000000001
131,1747533339260,0.0552789695,0.5598673,0.73680888,-3.4008567,-0.68389978,0.6708503
132,1747533339270,0.012446919,0.5402207,0.7154538500000001,-3.09752255,-1.03836653,0.7518104
133,1747533339280,0.10665302,0.5379022,0.6274712,-3.009372,-1.1547467,0.8990832
134,1747533339290,0.18768002,0.5112999,0.5879339,-3.2969935,-0.8431568,0.9012137
135,1747533339300,0.196832165,0.49189735,0.5902524499999999,-3.4397390000000003,-0.6799050200000001,0.8889631499999999
136,1747533339310,0.191706965,0.45004155,0.6261288700000001,-3.69779935,-0.37284255,0.86739155
137,1747533339320,0.21025532,0.36950267,0.72411787,-3.8906121,-0.11185276885,0.8050736000000001
138,1747533339330,0.28798756,0.3082443,0.846756635,-3.8836878,-0.07163903885,0.651409215
139,1747533339340,0.33313814,0.32850105,0.9608534,-3.4706316,-0.4825648,0.29827404
140,1747533339350,0.327158735,0.3205692049999999,0.952189325,-3.29646085,-0.7182545499999999,0.192546545
141,1747533339360,0.24747404,0.3104408,0.9452337,-2.9795446,-1.1771172,0.0375505705
142,1747533339370,0.2443013,0.2660224,0.7734174,-2.85863705,-1.51587135,0.0226368695
143,1747533339380,0.2962855,0.24283697,0.8009959,-3.1009848,-1.4034859,0.07456851
144,1747533339390,0.32557237,0.19915071,0.8812907,-3.2980587,-1.1057445,0.06657903
145,1747533339400,0.31617616,0.1743789,0.93046825,-3.35212085,-0.9518138,0.0585895465
146,1747533339410,0.28274031,0.12312688,1.02809115,-3.406183,-0.6657903000000001,0.0487358495
147,1747533339420,0.21208574,0.04954362125,1.12547,-3.2751555,-0.40799629,0.1012001179999999
148,1747533339430,0.29067218,-0.018060237,1.2437156,-3.0021815,-0.37630467,0.15313176
149,1747533339440,0.33631086,0.021477038,1.2737348,-2.424542,-0.7978831,0.0314253
150,1747533339450,0.31898281,0.0312393279999999,1.2494511,-2.18219425,-1.0309097,-0.034887413
151,1747533339460,0.28371656,0.0335578714999999,1.1327916999999998,-1.8900454,-1.40215435,-0.105727498
152,1747533339470,0.27993366,0.017572122,0.9093573,-2.2168152,-1.5584819,0.008522116
153,1747533339480,0.2965295599999999,0.0106164903,0.92875987,-2.4628913,-1.3401027,0.04527374
154,1747533339490,0.3236199,-0.031239327,1.0902036,-2.6019084,-1.0386329,0.07137272
155,1747533339500,0.30031245,-0.0518621685,1.1650072,-2.5939189,-0.8950884800000001,0.11132014
156,1747533339510,0.255894035,-0.079562665,1.30228945,-2.4967135000000003,-0.65061028,0.2074602549999999
157,1747533339520,0.266754575,-0.091765525,1.3923466,-2.12706675,-0.55233965,0.330764605
158,1747533339530,0.3841461,-0.10494461,1.3681849,-1.5936357,-0.850081,0.32650355
159,1747533339540,0.47639978,-0.094206095,1.3659884,-1.4937671,-1.0349044,0.2471413499999999
160,1747533339550,0.48140295,-0.0862742375,1.36781885,-1.29882365,-1.3968280000000002,0.05752428
161,1747533339560,0.455166775,-0.07822035,1.3362134,-1.1630025000000002,-1.67539465,-0.133957005
162,1747533339570,0.4029385,-0.0773661475,1.2921610499999998,-1.11053825,-1.7393105000000002,-0.24554346
163,1747533339580,0.337043045,-0.0973788375,1.2461563,-1.165133,-1.4333133,-0.238086605
164,1747533339590,0.24698594,-0.122760795,1.1443844,-1.3198626,-0.8383631,-0.11664646
165,1747533339600,0.24405725,-0.1282520875,1.15268235,-1.31213945,-0.67857345,-0.049002166
166,1747533339610,0.2604091,-0.13252309,1.1499978,-1.1984226,-0.55074173,0.050600063
167,1747533339620,0.2689511,-0.13789235,1.1495095,-1.0839065,-0.7036072,0.049534798
168,1747533339630,0.2676087849999999,-0.137770315,1.1388931,-1.0135992,-0.9550096,0.022903185
169,1747533339640,0.24503349,-0.13911264,1.1138773,-1.0114686,-1.180313,0.007456851
170,1747533339650,0.24503349,-0.13911264,1.1138773,-1.0114686,-1.180313,0.007456851
171,1747533339660,0.27700497,-0.1831649699999999,1.2104019,-1.05008445,-1.212271,0.082557993
172,1747533339670,0.29482114,-0.1790159949999999,1.2402989,-1.00880545,-1.11293505,0.118244353
173,1747533339680,0.31703035,-0.173402675,1.2509154,-0.94622115,-1.02771387,0.14807176
174,1747533339690,0.35022215,-0.168887615,1.22345895,-0.87511475,-0.95367797,0.177366535
175,1747533339700,0.38170555,-0.1742568749999999,1.1825794,-0.7736483000000001,-0.8266451850000001,0.179763375
176,1747533339710,0.3802412,-0.18633771,1.1591499500000002,-0.69029135,-0.719586135,0.14860439
177,1747533339720,0.37108904,-0.19561188,1.14670295,-0.650077615,-0.70813455,0.112119085
178,1747533339730,0.41514137,-0.21037734,1.1722069,-0.5747102,-0.8048073,0.0010652645
179,1747533339740,0.40000984,-0.20110317,1.1436522,-0.59867865,-1.0258497,-0.24660872
180,1747533339750,0.39549477,-0.213794145,1.1656174,-0.637294475,-1.0415622999999998,-0.30040457
181,1747533339760,0.3692586,-0.23966423,1.2388345,-0.7414241,-0.9752496,-0.41598576
182,1747533339770,0.32581642,-0.25259924,1.3188853,-0.77870834,-0.753142,-0.3882889
183,1747533339780,0.30922052,-0.26968327,1.4304196,-0.6988135,-0.51771855,-0.32810146
184,1747533339790,0.25040275,-0.27724904,1.6010156,-0.2247708,-0.03888215,-0.11558119
185,1747533339800,0.242470875,-0.278103235,1.61138805,-0.066845343,0.0335558325,-0.051132692
186,1747533339810,0.237711755,-0.2741983249999999,1.6050425,0.251402417,0.1214401475,0.063649551
187,1747533339820,0.247718105,-0.2517450499999999,1.54537045,0.54115434,0.1107875,0.144609648
188,1747533339830,0.30714604,-0.1974423049999999,1.34365715,0.7366304,-0.0063915867,0.087884314
189,1747533339840,0.38304785,-0.14399378,1.1519502,0.7366304,-0.0063915867,0.087884314
190,1747533339850,0.41562951,-0.1190999379999999,1.10265065,0.483097435,0.04314321,-0.081759048
191,1747533339860,0.42051064,-0.113486618,1.08568865,0.26871296,0.143011755,-0.198671825
192,1747533339870,0.40367069,-0.121174425,1.0847124,0.06018744,0.28628982,-0.26711507
193,1747533339880,0.35827606,-0.13606192,1.1351102,-0.189617085,0.5587312,-0.2609898
194,1747533339890,0.32337585,-0.1696198,1.257383,-0.38775626,0.850081,-0.2034655
195,1747533339900,0.33057554,-0.181456565,1.29386955,-0.387489945,0.88310422,-0.196541285
196,1747533339910,0.345340995,-0.2054962,1.3611073,-0.362189915,0.95154747,-0.1917476
197,1747533339920,0.353272855,-0.22672918,1.4219996,-0.28602351,1.01839285,-0.19494339
198,1747533339930,0.3231318,-0.26992732,1.5780742,0.19121496,1.128115,-0.14647387
199,1747533339940,0.3231318,-0.26992732,1.5780742,0.19121496,1.128115,-0.14647387
200,1747533339950,0.298482015,-0.28078787,1.6272516499999998,0.6146576,1.1832425,-0.065513763
201,1747533339960,0.289207835,-0.292868705,1.6371359499999998,1.0578076,1.2516857,0.05219796
202,1747533339970,0.29616346,-0.29457711,1.6486067,1.2096078,1.25008785,0.0865527375
203,1747533339980,0.34558508,-0.24674188,1.4882611,1.7981664,1.3539511,0.18429075
204,1747533339990,0.3538830149999999,-0.237589735,1.4547032,1.8325212,1.39762695,0.198671825
205,1747533340000,0.387440875,-0.21403821,1.42212155,1.8889802,1.4841797,0.21278658
206,1747533340010,0.428076415,-0.19109683,1.44591715,1.9566245,1.55262295,0.18855181
207,1747533340020,0.46139024,-0.1631522799999999,1.52584595,2.18033005,1.56727035,0.110787504
208,1747533340030,0.4890907399999999,-0.138746555,1.5545227,2.44771135,1.562743,0.0042610579999999
209,1747533340040,0.49519217,-0.1342315,1.4831358,2.5981799,1.57499355,-0.101999066
210,1747533340050,0.492507535,-0.127886005,1.49448455,2.7353327,1.58138515,-0.2058623499999999
211,1747533340060,0.46016996,-0.109459675,1.5325575,2.9252162,1.61014725,-0.2908172
212,1747533340070,0.4139211,-0.10494461,1.5936939,3.3241577,1.7129452,-0.3653857
213,1747533340080,0.39024755,-0.102748095,1.6362818,3.7057886,1.71214625,-0.354999375
214,1747533340090,0.34241232,-0.087616555,1.7359792,4.7409596,1.5110776,-0.29507825
215,1747533340100,0.360838635,-0.0915214675,1.73732155,5.0208578,1.4120080499999998,-0.2785666599999999
216,1747533340110,0.414775275,-0.09664667,1.7335386,5.57879,1.2010857,-0.26871297
217,1747533340120,0.4728609099999999,-0.0774881785,1.68704565,6.8374,0.69295454,-0.3920173
218,1747533340130,0.52496713,-0.028554698,1.518036,7.159642,0.6018744,-0.47830373
219,1747533340140,0.60135704,0.0102504045,1.3689171,7.23208,0.5970807300000001,-0.537425915
220,1747533340150,0.62783727,0.03624250225,1.29716425,7.29519715,0.62158183,-0.67511135
221,1747533340160,0.65968675,0.100795645,1.16756985,7.2238245,0.7038735,-0.83516735
222,1747533340170,0.7311955,0.21745501,1.016254375,6.8741517,0.8676579,-1.176052
223,1747533340180,0.7739055,0.3397277,1.0284572,6.527408,0.8564726,-1.6373115
224,1747533340190,0.7357105500000001,0.34973404,1.0528629500000002,6.5740135,0.8175904700000001,-1.72892425
225,1747533340200,0.665178025,0.345463025,1.0773907,6.7140957,0.703873485,-1.8969697
226,1747533340210,0.57463279,0.31129502,1.07299765,6.9452579,0.5233111500000001,-2.0122846
227,1747533340220,0.40391475,0.25296535,0.9750087,7.242200349999999,0.278566655,-2.0429109
228,1747533340230,0.31239328,0.21330604,0.6550496,7.7950726,-0.37390783,-1.9568908
229,1747533340240,0.41977844,0.25479576,0.46248847,7.7215695,-0.608266,-2.0208068
230,1747533340250,0.4630985999999999,0.29006204,0.4238054,7.634217749999999,-0.7337009,-2.1331922
231,1747533340260,0.4961683799999999,0.35424909,0.308000235,7.419567,-0.87404948,-2.3547671
232,1747533340270,0.44955346,0.4166057,0.0034168016,6.8437915,-0.78110516,-2.5904568
233,1747533340280,0.4041588,0.41733786,0.04783522,6.2035675,-0.64208818,-2.753176
234,1747533340290,0.38780698,0.41099238,0.12349297,6.01182,-0.6109292,-2.789395
235,1747533340300,0.38780698,0.41099238,0.12349297,5.7907777,-0.66632295,-2.8815403
236,1747533340310,0.0622346,0.33191785,0.46639338,6.344715,-1.567004,-2.8948562
237,1747533340320,0.10323621,0.24161668,0.45931572,6.7612333,-1.8706044,-2.841593
238,1747533340330,0.09030118,0.17913802,0.36388937,7.22995,-2.1694112,-2.8858013
239,1747533340340,0.029530926,0.15741692,0.25015867,7.5010595,-2.4144218,-2.9220204
240,1747533340350,-0.09200958,0.14521407,0.024161667,7.734885,-2.7771444,-2.9150963
241,1747533340360,-0.1010397,0.13227904,-0.08029483,7.69334,-2.8346686,-2.9209552
242,1747533340370,-0.12898426,0.13362135,-0.12739788,7.6336852,-2.81229815,-2.9270804
243,1747533340380,-0.166813135,0.135085685,-0.24466739,7.45072605,-2.7457192,-2.92841195
244,1747533340390,-0.140699005,0.153512005,-0.428076425,7.150854150000001,-2.67381385,-2.92787935
245,1747533340400,-0.094206095,0.21672285,-0.6889736,5.9356537,-2.8021781,-3.2538502
246,1747533340410,-0.1265436875,0.203299695,-0.7656076,5.6403091,-2.7981834,-3.3222935
247,1747533340420,-0.216112705,0.18194468,-0.86847775,5.0022156,-2.78113925,-3.3941989
248,1747533340430,-0.336188865,0.16083373,-0.90179155,4.32896835,-2.7268107,-3.36517035
249,1747533340440,-0.45626503,0.14875289,-0.916557,3.66690655,-2.59445155,-3.27195975
250,1747533340450,-0.49336173,0.138746535,-0.8895886749999999,2.7289413,-2.29271545,-3.06742905
251,1747533340460,-0.38426814,0.1367940799999999,-0.83455375,1.89936655,-2.0349214,-2.94252665
252,1747533340470,-0.248084195,0.159613435,-0.806121075,1.50175655,-2.0090887,-3.0634342
253,1747533340480,-0.18670379,0.19988288,-0.7819594,1.17924775,-2.1347899,-3.2945967
254,1747533340490,-0.190486675,0.1897545,-0.7597501799999999,0.7584683000000001,-2.33292915,-3.75345925
255,1747533340500,-0.20842488,0.15302388,-0.75364876,0.4857606,-2.4266725,-4.0831585
256,1747533340510,-0.57670726,0.0224532684999999,-0.69239045,0.100933805,-2.35583235,-4.17024395
257,1747533340520,-0.7919658,-0.1513155,-0.605506,-0.18695392,-2.3323965,-3.8674426
258,1747533340530,-0.9266854,-0.20329969,-0.5735345,-0.40107206,-2.4788704,-3.6682382
259,1747533340540,-0.9449896,-0.36266908,-0.38585448,-0.9006811,-2.6013758,-3.2250881
260,1747533340550,-0.95121308,-0.40196229,-0.3261825,-1.0394318,-2.5832662500000003,-3.1222901
261,1747533340560,-0.94059663,-0.48994493,-0.1760873049999999,-1.29482895,-2.51508925,-2.93799935
262,1747533340570,-0.901913575,-0.599648655,0.036852645,-1.4695323,-2.34304915,-2.7819381
263,1747533340580,-0.925221,-0.7734174,0.35485923,-1.5164039,-2.0032299,-2.5774074
264,1747533340590,-1.1824573,-0.9776934,0.73485637,-1.133974,-1.6042882,-2.10443
265,1747533340600,-1.2517696,-1.0136918,0.794040265,-0.953678,-1.5028218,-1.91374765
266,1747533340610,-1.3364575,-1.0686046,0.89569008,-0.562193315,-1.3219932,-1.51959975
267,1747533340620,-1.317421,-1.069947,0.9054524,-0.1382180599999999,-1.16566565,-1.13131085
268,1747533340630,-1.2049106,-0.8969103,0.69971216,0.45806372,-0.9672601,-0.6135923
269,1747533340640,-1.1831895,-0.810026,0.55718267,0.85594,-0.3270362,0.0
270,1747533340650,-1.18965705,-0.75303865,0.487504335,0.87644635,-0.1688444225,0.15286545
271,1747533340660,-1.18977905,-0.6452874,0.35290678,0.89588743,0.23915187,0.5928197
272,1747533340670,-1.1168059,-0.39268813,0.043930303,0.84635264,0.44421527,0.84688526
273,1747533340680,-1.0416363,-0.2933568,0.0046370877,0.6961503,0.8383631,1.2665994
274,1747533340690,-0.89398164,-0.2042759,-0.026114125,0.6812366,0.9406285,1.3859091
275,1747533340700,-0.8224729,-0.15509837,-0.0473471025,0.69987875,0.92331795,1.3856427999999998
276,1747533340710,-0.71252513,-0.066505598,-0.1140967649999999,0.7265104,0.86579367,1.32758585
277,1747533340720,-0.73473433,-0.013301120755,-0.25552794,0.6953514000000001,0.80161147,1.20428145
278,1747533340730,-0.9034999,-0.033191785,-0.41416514,0.42051314,0.796551485,1.1416971500000002
279,1747533340740,-0.94157285,-0.0383169875,-0.422951205,-0.05539375,0.8479505,1.2431636
280,1747533340750,-1.0097869,-0.039415245,-0.4351540849999999,-0.17337179,0.87618,1.2977584
281,1747533340760,-1.05347315,-0.04148973,-0.4419876849999999,-0.4141215649999999,0.958738,1.41200805
282,1747533340770,-1.1399914,-0.041245673,-0.4249037,-0.8005462,1.1659319,1.6330504
283,1747533340780,-1.0753163,-0.03807293,-0.43100512,-1.2719258,1.4508902,1.988316
284,1747533340790,-0.91423845,-0.012446919,-0.50544256,-1.5089471,1.419465,2.0873857
285,1747533340800,-0.853956325,0.0156196655,-0.537047955,-1.6652746500000002,1.3326459,2.06048775
286,1747533340810,-0.73290396,0.097134784,-0.6152683,-1.9630161,1.16060565,1.9752666
287,1747533340820,-0.81368685,0.058817793,-0.71777236,-2.958772,0.84581995,1.7901769
288,1747533340830,-0.854200375,0.0507639065,-0.68811941,-3.169428,0.84049365,1.8184064
289,1747533340840,-1.0330943,0.117147475,-0.5042223,-3.6842172,0.958738,1.9904467
290,1747533340850,-1.03553485,0.1338654025,-0.45894965,-3.7915425,1.1012171,2.0714068
291,1747533340860,-1.0122274,0.165348785,-0.40525705,-4.0032639,1.41573645,2.22001115
292,1747533340870,-0.9362036,0.226729185,-0.368160375,-4.20140325,1.7411748,2.3422502
293,1747533340880,-0.7665838,0.31239328,-0.33655494,-4.5332327,1.9728698,2.4362597
294,1747533340890,-0.673598,0.32606049,-0.338629435,-4.567854,1.6985642,2.283927
295,1747533340900,-0.50837126,0.349856065,-0.3359448,-4.5611961,1.49802815,2.1505026
296,1747533340910,-0.44015725,0.351686495,-0.330331475,-4.54202125,1.101217125,1.8714033
297,1747533340920,-0.52777379,0.3366769699999999,-0.33130771,-4.5273738,0.765126195,1.66633995
298,1747533340930,-0.78928113,0.32850105,-0.32166746,-4.597149,0.39468047,1.907356
299,1747533340940,-0.78293565,0.356201545,-0.26077517,-4.629639,0.4777711,1.9824572
300,1747533340950,-0.769268455,0.41404311,-0.147166515,-4.614459200000001,0.62238075,2.0085561
301,1747533340960,-0.740103605,0.44857721,-0.0826133749999999,-4.58543085,0.9920275,2.0908478
302,1747533340970,-0.696539405,0.467369635,-0.0794406325,-4.5678539,1.3278521,2.16754685
303,1747533340980,-0.58122237,0.49250755,-0.1048225875,-4.54974425,1.38058275,2.09191305
304,1747533340990,-0.45882765,0.48957886,-0.135939885,-4.5329663,1.17871515,1.90708975
305,1747533341000,-0.437472635,0.462610515,-0.14350566,-4.49941065,0.85860315,1.7353158
306,1747533341010,-0.515937035,0.450529665,-0.09664667,-4.39980835,0.5073322,1.63065355
307,1747533341020,-0.63442685,0.473349025,-0.0180602355,-4.1976745,0.1584580825,1.72120105
308,1747533341030,-0.59183884,0.51398456,0.110801995,-4.0040628,0.0450074225,1.89483915
309,1747533341040,-0.5183776,0.55620646,0.15058333,-3.7934067,0.35579833,2.0383835
310,1747533341050,-0.49177535,0.585615365,0.138258435,-3.76331305,0.4327636649999999,2.040514
311,1747533341060,-0.4446722899999999,0.621857885,0.09322987,-3.7486657,0.566987,2.02586665
312,1747533341070,-0.2591888,0.6130718,-0.0046370877,-3.8530615,0.56751965,1.89164335
313,1747533341080,-0.27334413,0.5874458,0.025137896,-3.9457395,0.37950046,1.68205255
314,1747533341090,-0.389271315,0.5735345199999999,0.137526258,-3.80858675,-0.07669904,1.5614114
315,1747533341100,-0.5339973,0.6033095,0.32996538,-3.4493263,-0.5997439,1.6974989
316,1747533341110,-0.481524975,0.6199054,0.32740279,-3.3129725,-0.5496765,1.8370485
317,1747533341120,-0.353272875,0.6629815,0.328379025,-3.2607746,-0.33981937,1.8817897
318,1747533341130,-0.224532675,0.7030069,0.341192035,-3.2570461,-0.253532945,1.8439728
319,1747533341140,-0.160955755,0.7002002700000001,0.407941685,-3.24053445,-0.1105211875,1.6708673
320,1747533341150,-0.15033926,0.68384844,0.46541715,-3.2277513,-0.053795855,1.5355787
321,1747533341160,-0.271147585,0.6201494949999999,0.5448578150000001,-2.7872645,-0.21092237,1.4269218
322,1747533341170,-0.33313812,0.5801240750000001,0.533875215,-2.5353294,-0.375772045,1.41254065
323,1747533341180,-0.37841075,0.559745275,0.5067848500000001,-2.2959112,-0.58935757,1.44609645
324,1747533341190,-0.34851375,0.5806122,0.31776255,-2.112952,-0.871919,1.6330504
325,1747533341200,-0.328867135,0.59110665,0.259920975,-2.24025105,-0.8154599499999999,1.6905747
326,1747533341210,-0.2793235149999999,0.6122175999999999,0.19512377,-2.53745985,-0.68523135,1.7920411500000002
327,1747533341220,-0.15936938,0.6294237,0.22526483,-3.04133,-0.42663842,1.856756
328,1747533341230,-0.029042812,0.60941094,0.29433304,-3.3364084,-0.28868666,1.8002969
329,1747533341240,0.1244692,0.59964865,0.5227706,-3.4882085,-0.41225734,1.4199976
330,1747533341250,0.099087245,0.5870797,0.5624298999999999,-3.41497155,-0.5414206500000001,1.3113406
331,1747533341260,0.0095182325,0.554620075,0.6632255499999999,-3.0498521,-0.9917612,1.0950918
332,1747533341270,-0.1145848775,0.52301465,0.7728072699999999,-2.84665295,-1.13930035,1.10334765
333,1747533341280,-0.20671648,0.49104318,0.8236932,-2.1358552,-1.4658039,1.2325109
334,1747533341290,-0.14374973,0.4937278,0.58891016,-1.9584887,-1.37925115,1.3182647
335,1747533341300,-0.13972278,0.4994631499999999,0.50104953,-1.86021805,-1.2082761999999998,1.45222175
336,1747533341310,-0.11629328,0.49812084,0.332283925,-2.13692045,-1.01093597,1.5520903
337,1747533341320,-0.018060237,0.46200037,0.16254212,-2.60244105,-0.763528285,1.6468988
338,1747533341330,0.28749946,0.42783237,0.28237423,-3.4344127,-0.44528055,1.7134778
339,1747533341340,0.39293218,0.43124917,0.42783237,-4.160923,-0.62744075,1.3379722
340,1747533341350,0.388661165,0.423927435,0.513984565,-4.2035336,-0.94968325,0.9896307
341,1747533341360,0.340093765,0.40257242,0.67127946,-4.149471500000001,-1.061269725,0.90600745
342,1747533341370,0.22331238,0.3738957,0.81832397,-3.976632,-1.3081448,0.75633776
343,1747533341380,0.24234885,0.3128814,0.9876996,-3.707653,-1.1749867,0.7643272
344,1747533341390,0.2468639,0.3003124499999999,0.9701275,-3.679956,-1.0641992,0.76912092
345,1747533341400,0.25137895,0.2877435,0.9525554,-3.652259,-0.9534117,0.77391464
346,1747533341410,0.38719681,0.226241065,0.7951385049999999,-3.9281626,-0.7590009,0.58909124
347,1747533341420,0.41379905,0.17169428,0.7823254749999999,-4.1010018,-0.8527442000000001,0.40879523
348,1747533341430,0.39073566,0.073461235,0.8742131,-4.3441485,-1.1483551,0.158458085
349,1747533341440,0.4007419949999999,0.0522282525,0.9525554,-4.391819,-1.54916085,0.0343547784999999
350,1747533341450,0.41074833,0.03099527,1.0308977,-4.369182,-1.748099,-0.019707393
351,1747533341460,0.43942508,-0.01366720688,1.189657,-3.9862196,-2.181129,-0.26738137
352,1747533341470,0.411236465,-0.040513504,1.25677275,-3.510579,-1.8919097,-0.39414784
353,1747533341480,0.34338855,-0.055889108,1.3129059,-3.3462619,-1.79816645,-0.39041942
354,1747533341490,0.291892465,-0.061380393,1.3050961,-3.0056436,-1.6386431,-0.37444046
355,1747533341500,0.256504175,-0.071142683,1.2616539,-2.65091065,-1.5635419,-0.34408042
356,1747533341510,0.23209843,-0.084687866,1.1953924,-2.0197413,-1.6559536,-0.26312032
357,1747533341520,0.236613495,-0.112754443,1.0883733,-1.90922015,-1.84690225,-0.16990968
358,1747533341530,0.28286234,-0.17889395,0.93888825,-1.9473034,-2.0421119,0.04314321
359,1747533341540,0.30641386,-0.1951237599999999,0.948284475,-2.0647488000000003,-1.98085925,0.10892329
360,1747533341550,0.3752379999999999,-0.217577035,1.0123495,-2.2564964,-1.80535695,0.213585515
361,1747533341560,0.4484552,-0.223434415,1.15426875,-2.31588495,-1.57579245,0.262321365
362,1747533341570,0.48909074,-0.21623473,1.4384733,-1.7678064,-1.2261194,0.257794
363,1747533341580,0.49031103,-0.21013328,1.4726415,-1.3262542,-1.226652,0.23489082
364,1747533341590,0.4807928,-0.20232345,1.428711,-0.7669904,-1.3864417,0.2247708
365,1747533341600,0.49165335,-0.207936775,1.3584226,-0.6229134,-1.50149025,0.223439215
366,1747533341610,0.5025139,-0.2135501,1.2881342,-0.4788364,-1.6165388,0.22210763
367,1747533341620,0.582198565,-0.205984315,1.07678055,-0.653539745,-2.26368695,0.0924116883
368,1747533341630,0.6487041499999999,-0.18292091,1.0567679,-1.00827278,-2.56222725,-0.0623179716999999
369,1747533341640,0.707522,-0.21379416,1.2129645,-1.29243205,-2.47753865,-0.18029601
370,1747533341650,0.701054465,-0.22441064,1.28618175,-1.50894705,-2.2184132,-0.29933931
371,1747533341660,0.6447992650000001,-0.2422268149999999,1.4117492,-1.6152071499999998,-1.85648965,-0.385093105
372,1747533341670,0.41904628,-0.28237423,1.6715481,-1.2650015,-1.1361046,-0.32330775
373,1747533341680,0.37584817,-0.2877435,1.7181631,-0.92731273,-1.0641992,-0.25513083
374,1747533341690,0.33777523,-0.2809099,1.7025435,-0.57790595,-1.0365024,-0.17417073
375,1747533341700,0.332283945,-0.277859185,1.6717922,-0.426904725,-1.0436929,-0.13129384
376,1747533341710,0.3099527,-0.2630937,1.5397571,-0.115581195,-1.1251856,-0.0649811315
377,1747533341720,0.2818861,-0.26529023,1.5248697,0.08735169,-1.1914983,-0.032490566
378,1747533341730,0.25040275,-0.2613853,1.5116906,0.066046394,-1.0626013,0.033023197
379,1747533341740,0.2549177999999999,-0.24906041,1.4981454,0.0223705519999999,-0.94595485,0.0857537835
380,1747533341750,0.293234775,-0.226485125,1.4853324,-0.097205385,-0.6311692,0.180029685
381,1747533341760,0.35766589,-0.19939478,1.4896034,-0.2322276549999999,-0.2551308375,0.22130869
382,1747533341770,0.38011916,-0.167789355,1.5098601500000002,-0.34301515,0.2253034125,0.210389735
383,1747533341780,0.3414361,-0.15204766,1.5392691,-0.364586755,0.6165218,0.19467708
384,1747533341790,0.3316738,-0.15546447,1.53560825,-0.272441385,0.7560714500000001,0.184024435
385,1747533341800,0.31214922,-0.18023628,1.4882611,-0.075633775,0.7771104200000001,0.1278317375
386,1747533341810,0.27773714,-0.22794947,1.3745304,0.13102753,0.7323693,0.02396845
387,1747533341820,0.260042995,-0.246009705,1.35415165,0.14274544,0.74728304,0.012250541
388,1747533341830,0.22489875,-0.27590672,1.3360914,0.13315806,0.77444727,0.0404800505
389,1747533341840,0.21477037,-0.2885976999999999,1.34487745,0.12197278,0.86552737,0.09693907
390,1747533341850,0.249792595,-0.3001903999999999,1.3591548,0.15925704,1.3315805,0.27004454
391,1747533341860,0.2853029,-0.31239328,1.3767269,0.21997711,1.474326,0.33662358
392,1747533341870,0.30043447,-0.30507156,1.3860011,0.29987195,1.5419703,0.36911413
393,1747533341880,0.3018988,-0.3184947,1.3947871,0.351537275,1.5614114,0.3752394
394,1747533341890,0.2648021,-0.33118568,1.43163975,0.74941355,1.6309199,0.5113269
395,1747533341900,0.219285425,-0.344852895,1.5003419,0.889495825,1.59230405,0.56991645
396,1747533341910,0.227339325,-0.339849715,1.57014235,1.26500155,1.46314075,0.6783071
397,1747533341920,0.31727442,-0.3133695,1.5439061,1.8439728,1.2767195,0.7073356
398,1747533341930,0.34070392,-0.31397965,1.4477476,1.9052255,1.2769857999999998,0.67377975
399,1747533341940,0.4283205,-0.25870067,1.0653099,1.6373115,1.5451661,0.51931643
400,1747533341950,0.4283205,-0.25870067,1.0653099,1.47459235,1.6471651500000002,0.4908206
401,1747533341960,0.42234106,-0.207692715,1.000268635,1.14089823,1.84690225,0.437823685
402,1747533341970,0.4131888999999999,-0.17645339,1.0297996,0.82850943,2.01521405,0.3885552
403,1747533341980,0.398545485,-0.16107779,1.1175381999999998,0.61039655,2.11348465,0.336090935
404,1747533341990,0.38805103,-0.15766099,1.176356,0.5336975,2.1411815,0.30839407
405,1747533342000,0.334480465,-0.142285375,1.3088790499999998,0.70813455,2.05516145,0.283892985
406,1747533342010,0.29616347,-0.132889165,1.4213893999999998,1.12332135,1.8703381,0.24501083
407,1747533342020,0.33142975,-0.12544543,1.3530535,1.5041534,1.7315874,0.18855181
408,1747533342030,0.326548605,-0.1215405075,1.34158275,1.5387745000000002,1.7486316,0.166181255
409,1747533342040,0.24918245,-0.102504045,1.3303561,1.6415725,2.0245352,0.18961707
410,1747533342050,0.23893206,-0.09493827,1.3545178,1.66847045,2.0839236,0.227167635
411,1747533342060,0.23819989,-0.09835507,1.398448,1.8359833,2.1774006,0.33076462
412,1747533342070,0.26553428,-0.08688438,1.5082738,2.2045648,2.0192087,0.34248254
413,1747533342080,0.27163571,-0.073461233,1.51705985,2.61522425,1.80775375,0.307328805
414,1747533342090,0.28335047,-0.0533265099999999,1.49192195,3.3486588,1.4455639,0.23915187
415,1747533342100,0.298970135,-0.0391711869999999,1.40991875,3.45305465,1.4221281,0.2186455299999999
416,1747533342110,0.315199935,-0.01232489,1.3110756,3.6085833,1.4221281,0.17496969
417,1747533342120,0.32850105,0.073461235,1.0667742,3.5297537,1.6687368,0.037284255
418,1747533342130,0.32801294,0.088836834,1.0823939,3.4216294,1.7859159,-0.046339005
419,1747533342140,0.28432667,0.10030753,1.1285207,3.3928673,1.8919097,-0.11132014
420,1747533342150,0.28432667,0.10030753,1.1285207,3.3928673,1.8919097,-0.11132014
421,1747533342160,0.19768637,0.08419975,1.1868503,3.50152435,1.9177423,-0.09827065
422,1747533342170,0.232098445,0.097622898,1.1611023,3.71910455,1.8293254,-0.13448964
423,1747533342180,0.260165025,0.125567453,1.11363325,3.9452069,1.6522252000000002,-0.24900556
424,1747533342190,0.228681635,0.15155955,1.06323545,4.121508,1.4689997,-0.4245079
425,1747533342200,0.17450093,0.18450728,0.946454,4.1372208,1.4389059999999998,-0.4540689799999999
426,1747533342210,0.1792600449999999,0.18584959,0.94071865,4.14494395,1.3912353999999998,-0.5078648299999999
427,1747533342220,0.16644704,0.199516785,0.99416725,4.28449345,1.2895026,-0.594683885
428,1747533342230,0.160101555,0.221115855,1.05859835,4.5140581,1.1361045,-0.6932208550000001
429,1747533342240,0.17108414,0.23039004,1.1480453,4.715393300000001,1.006142265,-0.7699199
430,1747533342250,0.1542441849999999,0.2297798999999999,1.20503265,5.0181947000000005,0.900414795,-0.8426241800000001
431,1747533342260,0.12642165,0.222702245,1.2676333,5.42033195,0.8415589299999999,-0.8924253
432,1747533342270,0.050031736,0.21037734,0.8854397,5.8123492500000005,0.8330368,-0.915062165
433,1747533342280,0.049055508,0.22245817,0.8321132,6.1375212,0.752343025,-0.92491585
434,1747533342290,0.0279445559,0.2417387,0.728999,6.3545687,0.593618625,-0.952346415
435,1747533342300,-0.0237955826,0.234172935,0.66151715,6.49864575,0.42051313,-0.983505395
436,1747533342310,-0.1043344735,0.22050573,0.6554157300000001,6.8698907,-0.105993815,-0.9241169
437,1747533342320,-0.147410575,0.20854692,0.6106312300000001,7.1298151,-0.3880225775,-0.90334425
438,1747533342330,-0.129716422,0.204764035,0.49690056,7.5013261,-0.7731156699999999,-0.90654005
439,1747533342340,-0.107995332,0.22404455,0.372919485,7.602259849999999,-0.9430253,-0.96805905
440,1747533342350,-0.0584517139999999,0.25748039,0.249426505,7.562844999999999,-1.05301385,-1.0634002
441,1747533342360,0.010128376,0.30299707,0.1548543175,7.47283,-1.09855395,-1.20641195
442,1747533342370,-0.011714747,0.36913657,0.1470444875,7.3386067,-1.1254518999999998,-1.42292695
443,1747533342380,-0.089935094,0.418802215,0.18096845,7.2935997,-1.18270985,-1.56487345
444,1747533342390,-0.106775047,0.40318255,0.169375735,7.3529881,-1.22052675,-1.5997609000000002
445,1747533342400,-0.089202927,0.36230297,0.1148289399999999,7.407582749999999,-1.24050045,-1.68205255
446,1747533342410,-0.111290097,0.32178947,0.012935037,7.42808915,-1.3060141500000002,-1.81574325
447,1747533342420,-0.22416657,0.291770425,-0.188168133,7.2792185,-1.5904398,-1.97579925
448,1747533342430,-0.32496223,0.29738374,-0.378410775,7.004380299999999,-1.92759605,-2.0626182
449,1747533342440,-0.3619369,0.3441207,-0.46322066,6.5833344,-2.1672804,-2.072472
450,1747533342450,-0.3616928299999999,0.36291311,-0.47639975,6.4227457,-2.16168785,-2.0738036
451,1747533342460,-0.34412071,0.391345785,-0.51666917,6.071474800000001,-2.057292,-2.0807278
452,1747533342470,-0.20305562,0.4751795,-0.63943,4.939099,-1.4136059,-2.2509038
453,1747533342480,-0.21794311,0.4953141849999999,-0.64821605,4.7691892,-1.38750695,-2.3017702
454,1747533342490,-0.2500366499999999,0.530702485,-0.62478655,4.4064665,-1.4780544,-2.3861923
455,1747533342500,-0.26309371,0.56206385,-0.5670670149999999,4.38303075,-1.6088156,-2.4106934
456,1747533342510,-0.2294138,0.6040417,-0.5176454149999999,4.396612749999999,-1.8988339,-2.48179985
457,1747533342520,-0.10348027,0.6133158,-0.61209553,4.5364285,-2.4149544,-2.7324033
458,1747533342530,-0.18523946,0.62027145,-0.64101633,4.476241,-2.9017804,-3.251187
459,1747533342540,-0.48054874,0.41416514,-1.0794652,3.89833515,-2.6138927,-3.3438651
460,1747533342550,-0.52472307,0.3668180399999999,-1.14182185,2.86795815,-2.13745315,-3.4349452
461,1747533342560,-0.568775375,0.26773081,-1.2118663,1.95476025,-1.8663433,-3.42615675
462,1747533342570,-0.64357895,0.15448824,-1.1546348,0.6599313,-1.7528926,-3.4115095
463,1747533342580,-0.647361845,0.117635595,-1.08275995,0.3238403795,-1.7941716,-3.3862095
464,1747533342590,-0.60086894,-0.0240396349999999,-0.82466945,-0.4447479205,-2.0367856,-3.39366625
465,1747533342600,-0.55059314,-0.12886222,-0.6384538,-0.8772453,-2.2381206,-3.426423
466,1747533342610,-0.5797579900000001,-0.294211005,-0.25943286,-0.97844542,-2.43759145,-3.48687685
467,1747533342620,-0.7524285,-0.50544256,-0.010738519,-0.8346347,-2.4048345,-3.461577
468,1747533342630,-0.83455375,-0.6077025549999999,0.0630888005,-0.76752305,-2.3185481,-3.3800842
469,1747533342640,-1.0910579,-0.867257425,0.22392251,-0.5901565200000001,-2.016013,-2.9678267
470,1747533342650,-1.2871579,-1.0921562,0.34558505,-0.36911413,-1.6037556,-2.2173479
471,1747533342660,-1.3169329,-1.21418485,0.424171485,-0.29134983,-1.5507586999999998,-2.0218719
472,1747533342670,-1.347196,-1.3279155,0.5418071,-0.020772656,-1.4221281,-1.4418354
473,1747533342680,-1.3539076,-1.3492705,0.5576707999999999,0.074302192,-1.3520869,-1.236772
474,1747533342690,-1.3791674,-1.364036,0.58988637,0.33822146,-1.0498182,-0.58429754
475,1747533342700,-1.37392025,-1.2842293,0.54851866,0.51159328,-0.69268825,-0.0860200999999999
476,1747533342710,-1.3093672,-1.0919122,0.4080637,0.7765778,-0.06551377,0.8271778
477,1747533342720,-1.2439598,-0.9615856,0.294089,0.8127968,0.15819177,1.1989552
478,1747533342730,-1.1421878,-0.7050814,0.09200958,0.75900095,0.36272256,1.5188008000000002
479,1747533342740,-1.0509106,-0.5742667,0.05662128,0.6040049,0.7163904,2.102832
480,1747533342750,-0.99929245,-0.5214283,0.09042321,0.59122175,0.76432727,2.2027006
481,1747533342760,-0.905696435,-0.4029385,0.18023627,0.65061028,0.83703154,2.3686155500000003
482,1747533342770,-0.7883049,-0.22135992,0.25943285,0.9736517,0.9171927,2.5209484
483,1747533342780,-0.6108753,-0.04783522,0.06369894,1.12491925,1.0077402,2.5020399
484,1747533342790,-0.6118515,0.003172744,-0.12593354,1.423726,1.1174624,2.4149544
485,1747533342800,-0.6491923,0.043198135,-0.34290043,1.3134711,1.11213605,2.38672495
486,1747533342810,-0.686289,0.061258372,-0.5593792,0.7669904,1.1025487,2.334527
487,1747533342820,-0.70495935,0.065773431,-0.6590765999999999,0.46099319,1.1110708,2.34278285
488,1747533342830,-0.78708464,0.0741934,-0.96451426,-1.3933659,1.1669972,2.4527714
489,1747533342840,-0.8439499,0.07907455,-0.9818423,-2.2338595,1.2335763,2.5465147
490,1747533342850,-0.87409102,0.0835896075,-0.9541418,-2.62933895,1.30867745,2.62667585
491,1747533342860,-0.91558077,0.0915214675,-0.87165048,-3.4416032000000003,1.5116103,2.8378645
492,1747533342870,-0.91545873,0.099819415,-0.76694993,-4.3840957,1.7875137,3.1574438
493,1747533342880,-0.78537625,0.1952458,-0.39878955,-4.932174,1.901497,3.4402716
494,1747533342890,-0.717894405,0.2312442499999999,-0.318128635,-4.90607515,1.897236,3.47489275
495,1747533342900,-0.579025805,0.3142237,-0.1848733799999999,-4.78516795,1.8519623,3.4892738000000003
496,1747533342910,-0.471152515,0.41343295,-0.0989652199999999,-4.545749799999999,1.7443705500000002,3.42961895
497,1747533342920,-0.34680536,0.6279593,-0.14399378,-4.2386871500000005,1.55981345,3.34413145
498,1747533342930,-0.353150845,0.6461415500000001,-0.19573391,-3.713512,0.86872315,3.0360036
499,1747533342940,-0.33240595,0.6994681,-0.29042813,-3.7342845,0.79415464,2.9957899
500,1747533342950,-0.292258545,0.6966614250000001,-0.319959065,-3.8338867,0.703340865,2.87488245
501,1747533342960,-0.24930448,0.684702605,-0.365475735,-4.176369,0.7653925,2.5832663
502,1747533342970,-0.336432925,0.6567580799999999,-0.300922585,-4.4208473,0.9651296,2.526541
503,1747533342980,-0.4565091,0.641382465,-0.119343997,-4.67384765,1.21386885,2.49990935
504,1747533342990,-0.492873625,0.662981515,0.061380398,-4.597148649999999,1.25488155,2.55290625
505,1747533343000,-0.5047103900000001,0.71130485,0.20744866,-4.3603938,1.2154668,2.59045685
506,1747533343010,-0.47993858,0.7640212200000001,0.275052515,-3.8882153,1.171791,2.6365294
507,1747533343020,-0.21550256,0.8236932,-0.040513504,-3.7236319,1.3390374,2.4383903
508,1747533343030,-0.182066715,0.8291844500000001,-0.116781392,-3.84160995,1.38590905,2.33292915
509,1747533343040,-0.13972277,0.8389467500000001,-0.2383219,-4.134024999999999,1.4610102,2.1305289
510,1747533343050,-0.1200761599999999,0.83955695,-0.29823796,-4.49488325,1.4628744,1.9403792
511,1747533343060,-0.1391126349999999,0.818568035,-0.28066584,-4.82564775,1.350489,1.76354535
512,1747533343070,-0.40171823,0.74486274,0.08908089,-5.0855727,0.783502,1.7134778
513,1747533343080,-0.41404313,0.74132389,0.161809945,-4.954545,0.61572284,1.8663434
514,1747533343090,-0.3397277,0.7299752,0.34070393,-4.705273,0.5640575,1.9877834
515,1747533343100,-0.30153275,0.741079825,0.39451855,-4.579572000000001,0.5882923,2.0005666
516,1747533343110,-0.25503984,0.77524784,0.4763997599999999,-4.327104500000001,0.6490123999999999,2.0197414
517,1747533343120,-0.2014692599999999,0.8073413650000001,0.51007965,-4.0147155,0.78083885,2.016013
518,1747533343130,-0.070532545,0.84199744,0.5188657,-3.6762276,0.8793758,1.8935076
519,1747533343140,-0.0080538895,0.8618881199999999,0.50629675,-3.61018125,0.829841,1.79070955
520,1747533343150,0.085542063,0.8919072,0.4762777,-3.4930022000000003,0.69828083,1.54782925
521,1747533343160,0.080172805,0.8986188,0.46468497,-3.38381255,0.51399009,1.2828447
522,1747533343170,-0.08224729,0.867013375,0.47090843,-3.23307765,0.19281287,1.09349395
523,1747533343180,-0.220017605,0.83064884,0.49226346,-3.1217575,-0.075101145,1.0767161
524,1747533343190,-0.20574025,0.8162494650000001,0.54461375,-3.07941315,-0.118244355,1.16246985
525,1747533343200,-0.151315487,0.803558475,0.575242925,-3.040531,-0.0521979584999999,1.2040151
526,1747533343210,-0.112144307,0.7775663749999999,0.592204895,-3.00484465,0.0521979565,1.1970909
527,1747533343220,-0.14204131,0.71264714,0.8588374,-2.5028389,-0.041545313,1.1563445
528,1747533343230,-0.1342315,0.6894617,0.9303462,-2.0932446,-0.19547603,1.1393003
529,1747533343240,-0.08102701,0.68458056,0.92082804,-1.87513175,-0.267115065,1.10840765
530,1747533343250,-0.08102701,0.68458056,0.92082804,-1.4586134,-0.39760995,1.011202275
531,1747533343260,-0.0611363375,0.695319115,0.693610725,-1.2261194,-0.487891115,0.902545305
532,1747533343270,-0.15302388,0.6901939,0.33069757,-1.5920377,-0.57151437,0.9060074
533,1747533343280,-0.15216969,0.70666775,0.309830685,-1.9659456,-0.5965481,1.0365024
534,1747533343290,-0.042221904,0.72826684,0.33362624,-2.3744745,-0.5422196,1.1318434
535,1747533343300,0.021721093,0.735954645,0.389637395,-2.55370525,-0.45646582,1.13264235
536,1747533343310,0.166447045,0.729975225,0.551081275,-2.9688920000000003,-0.14993598,1.00507695
537,1747533343320,0.23258655,0.68311626,0.750232,-3.2884715,0.25353295,0.66632295
538,1747533343330,0.176819475,0.6561479299999999,0.79147765,-3.2586440000000003,0.30812775,0.56565544
539,1747533343340,0.08005078,0.5954997,0.86017975,-3.1470575500000004,0.354466755,0.42370893
540,1747533343350,-0.0109825765,0.527407725,0.9141164,-2.7731498,0.225037122,0.335025665
541,1747533343360,-0.090301184,0.4804266849999999,0.90984542,-2.3385219,0.016245282,0.295610885
542,1747533343370,-0.16425052,0.44564855,0.7670719,-2.030394,-0.29348037,0.3882889
543,1747533343380,-0.170229925,0.444672315,0.64907023,-2.07034145,-0.425839485,0.488956385
544,1747533343390,-0.1082393879999999,0.43515408,0.47554554,-2.2591596000000003,-0.5504754350000001,0.612793385
545,1747533343400,-0.004026946,0.43015091,0.403304595,-2.65890005,-0.498543785,0.62211445
546,1747533343410,0.0555230245,0.4207547,0.40098605,-3.1236217,-0.3850930999999999,0.58136805
547,1747533343420,0.1023820175,0.3824377049999999,0.4585835649999999,-3.7049897,-0.1587244,0.47351006
548,1747533343430,0.15863721,0.31776255,0.6164886,-3.94787,-0.028229509,0.3685815
549,1747533343440,0.14179726,0.2782252699999999,0.723873775,-3.9758333,-0.0082558,0.262854
550,1747533343450,0.12715382,0.210255325,0.8817788049999999,-3.9260322,-0.032756883,0.112385395
551,1747533343460,0.116537325,0.16791139,0.96854118,-3.7167077,-0.1549959775,0.03328951275
552,1747533343470,0.061258372,0.13032657,1.0411482,-3.2682314,-0.46978164,-0.02396845
553,1747533343480,0.04698102,0.11446285,1.07800085,-3.0975227,-0.6125270700000001,-0.0117179088999999
554,1747533343490,0.0654073439999999,0.091887555,1.09593905,-2.5811357,-1.05647605,0.0431432110999999
555,1747533343500,0.11836777,0.07980672,1.0595745,-2.149171,-1.40135545,0.08362326
556,1747533343510,0.13862452,0.07443746,1.0421244,-2.0628846,-1.4450313,0.08149273
557,1747533343520,0.15570852,0.058085624,1.023576,-1.952097,-1.4157364,0.083090626
558,1747533343530,0.14423783,0.0269683265,1.02162365,-1.81281375,-1.24342995,0.173638105
559,1747533343540,0.152901865,0.0314833865,1.0451752,-1.7150758,-1.17978045,0.21358552
560,1747533343550,0.16315227,0.05064188,1.0360230499999998,-1.59949465,-1.1432951,0.25752769
561,1747533343560,0.188046105,0.0583296824999999,0.98745565,-1.5313177,-1.1432951,0.2982740499999999
562,1747533343570,0.24308102,0.049543623,0.93571544,-1.5462314,-1.2170646,0.3158509
563,1747533343580,0.282984385,0.0395372745,0.91472657,-1.6386431,-1.3140037,0.29134982
564,1747533343590,0.36364532,-0.0056133163,0.8817788,-1.8319886,-1.449026,0.2290318499999999
565,1747533343600,0.37365166,-0.0280665831499999,0.90899117,-2.0341225,-1.49456605,0.152066497
566,1747533343610,0.39537274,-0.06723777,0.99367907,-2.206429,-1.49643025,0.0716390355
567,1747533343620,0.4139211,-0.10909359,1.1407236,-2.3409185,-1.448227,-0.0644485
568,1747533343630,0.39683709,-0.12312688,1.2485969,-2.24344695,-1.41227435,-0.139283325
569,1747533343640,0.36645196,-0.136061915,1.411261,-1.960353,-1.356348,-0.239950825
570,1747533343650,0.326060485,-0.12983846,1.4804512,-1.5962988,-1.33237955,-0.26445191
571,1747533343660,0.24918245,-0.11275445,1.4633673,-1.0924287,-1.3598101,-0.21358553
572,1747533343670,0.232586565,-0.110313878,1.39881415,-0.9651296,-1.38031645,-0.17710022
573,1747533343680,0.25821257,-0.09396204,1.2546983,-0.58909124,-1.5227956,-0.0314253
574,1747533343690,0.276028755,-0.0899350949999999,1.22309285,-0.6151902,-1.5765914,-0.043675844
575,1747533343700,0.30909852,-0.0841997479999999,1.1737933,-0.66552397,-1.5717977,-0.0623179695
576,1747533343710,0.3405819,-0.0833455479999999,1.16537335,-0.84581995,-1.5275892,-0.1257012
577,1747533343720,0.3568117,-0.08419975,1.1746475,-0.84581995,-1.5275892,-0.1257012
578,1747533343730,0.3871968249999999,-0.08053889,1.22809605,-0.84581995,-1.5275892,-0.1257012
579,1747533343740,0.39659303,-0.097134784,1.3452435,-1.2575446,-0.9731191,-0.46658584
580,1747533343750,0.393542315,-0.099697385,1.3890518,-1.2761868,-0.81705785,-0.52837116
581,1747533343760,0.35119838,-0.10323621,1.4894813,-1.2530173,-0.7337009,-0.54754591
582,1747533343770,0.27895743,-0.1381364,1.5319474,-1.1334414,-0.53449644,-0.57124805
583,1747533343780,0.23673552,-0.15546446,1.5212089,-0.98244018,-0.406398385,-0.569117545
584,1747533343790,0.21062139,-0.17401282,1.5026605,-0.8860337149999999,-0.391751005,-0.553138575
585,1747533343800,0.20451997,-0.19256116,1.4804512,-0.7781757,-0.33822146,-0.53263223
586,1747533343810,0.17328064,-0.20476402,1.5009521,-0.67324716,-0.12783173,-0.47617322
587,1747533343820,0.160589665,-0.203787795,1.5087619499999998,-0.63969133,-0.0838895735,-0.44767739
588,1747533343830,0.14374973,-0.21159762,1.5392691,-0.56512282,0.0002663149999999,-0.38589205
589,1747533343840,0.145458125,-0.2183091999999999,1.55745135,-0.470580595,0.0974716985,-0.32357408
590,1747533343850,0.143261605,-0.22770541,1.59088715,-0.34940675,0.21571605,-0.26045716
591,1747533343860,0.136428005,-0.231244235,1.61858765,-0.1984055049999999,0.345678315,-0.186154965
592,1747533343870,0.14008886,-0.23161033,1.6083373,0.22849922,0.6087986,-0.0026631611
593,1747533343880,0.17279254,-0.22013964,1.5648952,0.38615838,0.6737798,0.029827405
594,1747533343890,0.21818718,-0.20818083,1.5319474,0.4543353,0.7137272,0.004261058
595,1747533343900,0.246009705,-0.203421715,1.52926275,0.47883637,0.73716302,-0.030360036
596,1747533343910,0.29384494,-0.1889003,1.5485432,0.5704491,0.809601,-0.1555286
597,1747533343920,0.260165,-0.20354374,1.5792944,0.71479243,0.9395633,-0.27377295
598,1747533343930,0.21818718,-0.20940112,1.6015036,0.764327215,1.02158865,-0.269245575
599,1747533343940,0.18523945,-0.21599068,1.5954022,0.92038846,1.3102753,-0.20719394
600,1747533343950,0.1774296249999999,-0.2186753,1.5703863500000002,0.95820538,1.42212805,-0.16325178
601,1747533343960,0.18182266,-0.22294629,1.52950675,1.015197,1.6298545999999998,-0.0727043
602,1747533343970,0.19402552,-0.22453266,1.513643,1.0343717,1.7257284,-0.02609898
603,1747533343980,0.243325085,-0.21708893,1.5379267,1.1989552,1.9883161,0.039947417
604,1747533343990,0.246741875,-0.219407465,1.55781735,1.3417006,2.0413130500000003,0.062584287
605,1747533344000,0.2554058999999999,-0.2148923999999999,1.5659933,1.5217303000000002,2.046373,0.080960097
606,1747533344010,0.2596769,-0.19451362,1.5534244,1.7246632000000002,2.0082898,0.094275902
607,1747533344020,0.3231318,-0.14570218,1.4445748,2.1022995,1.8631475,0.06498113
608,1747533344030,0.32593845,-0.1302045399999999,1.43151775,2.1366542500000003,1.89643705,0.0476705835
609,1747533344040,0.3287451,-0.1147069,1.4184607,2.171009,1.9297266,0.030360037
610,1747533344050,0.33631086,-0.087250465,1.42151145,2.26635015,2.19178165,-0.00479369015
611,1747533344060,0.311661095,-0.0723629725,1.44616125,2.666357,2.6871295,0.046339005
612,1747533344070,0.28505886,-0.07516963,1.4126034,2.8810077,2.7483823,0.080960095
613,1747533344080,0.29762781,-0.079074545,1.3990582,3.00005105,2.70950015,0.0804274624999999
614,1747533344090,0.32496223,-0.08139309,1.39283475,3.4258904,2.4623587,0.029827405
615,1747533344100,0.3802412,-0.040513504,1.4550693,4.2615905,1.7720674,-0.16884442
616,1747533344110,0.39708114,-0.022697324,1.4248062,4.8075385,1.3422332,-0.35633096
617,1747533344120,0.36730617,-0.007321717,1.346952,5.1649346,1.0849719,-0.49161956
618,1747533344130,0.361448795,-0.00329477262,1.296066,5.281581149999999,0.99975073,-0.54275225
619,1747533344140,0.3099527,0.049543623,1.0577441,5.44323515,0.94275908,-0.6436860550000001
620,1747533344150,0.29811592,0.0696783415,1.00502775,5.41820145,1.07458555,-0.7017429850000001
621,1747533344160,0.32606047,0.16010156,0.81271064,5.0568104,1.4040185,-0.73290193
622,1747533344170,0.37194324,0.21672285,0.7324158,4.848551199999999,1.5281218,-0.772050415
623,1747533344180,0.456143,0.2894519,0.8617661,4.4517402,1.7904432,-0.87618003
624,1747533344190,0.42014455,0.295187235,0.9115538,4.1718419,1.97366865,-1.11879403
625,1747533344200,0.23795582,0.2865232,1.0277251,4.0804954,2.018676,-1.2964269
626,1747533344210,0.21281792,0.264314,1.040172,4.4277715,1.670601,-1.3907026999999998
627,1747533344220,0.12324891,0.21330604,1.1319375,4.804076,1.3781859,-1.4090785
628,1747533344230,0.058695768,0.1997608599999999,1.11241295,5.3135390000000005,1.059139175,-1.4088122
629,1747533344240,-0.005857374,0.18621568,1.0928884,5.596367,0.89535475,-1.4040185
630,1747533344250,0.0479572525,0.19268319,0.788671025,6.4890585000000005,0.436758415,-1.3720606
631,1747533344260,0.0729731224999999,0.248084205,0.56413835,6.4597638,0.46578689,-1.4317154
632,1747533344270,0.0596719975,0.32300978,0.315077905,6.10556315,0.623179715,-1.50069135
633,1747533344280,0.091277405,0.40379271,0.0888368359999999,5.220062,0.958471665,-1.6184031
634,1747533344290,0.094328122,0.45785138,0.039903361,4.41179275,1.2279836,-1.7616811499999998
635,1747533344300,0.0054912885,0.46810177,0.13545177,4.1041976,1.24156575,-1.8410433
636,1747533344310,-0.0784644085,0.46602729,0.2091570549999999,3.96118585,1.1084077,-1.85542435
637,1747533344320,-0.08151512,0.4322254,0.38707477,3.9843555,0.83596632,-1.85542435
638,1747533344330,-0.17889395,0.42368335,0.49958518,4.7990165,-0.17470337,-1.9755329
639,1747533344340,-0.20598431,0.4012301,0.488114505,4.99209575,-0.310524585,-1.96354865
640,1747533344350,-0.23380683,0.375116,0.4737151,5.614476,-0.5789712,-1.8700718
641,1747533344360,-0.18548352,0.39756927,0.3533949,5.825931,-0.48682585,-1.8647454
642,1747533344370,-0.23722363,0.39464056,-0.040513504,5.8328555,-0.372842565,-1.89137705
643,1747533344380,-0.2877435,0.40318257,-0.19890666,5.5604145,-0.04873586,-1.9118834
644,1747533344390,-0.2894519,0.4471129,-0.2626056,4.9289784,0.13422333,-1.9180087
645,1747533344400,-0.270171375,0.450895775,-0.27017137,4.7846352,0.0708400905,-1.9630161
646,1747533344410,-0.2644360249999999,0.46151225,-0.251745045,4.549212,-0.0918790545,-2.05542775
647,1747533344420,-0.3441207,0.45345837,-0.102504045,4.3761063,-0.42344263,-2.160889
648,1747533344430,-0.35754386,0.4502856,0.053692598,4.670652,-0.89855057,-2.2482407
649,1747533344440,-0.38658667,0.44418419,0.133865409,4.89968375,-1.009071735,-2.2402512000000003
650,1747533344450,-0.44027926,0.428320465,0.23600337,5.4016895,-1.21812985,-2.2173480000000003
651,1747533344460,-0.48298927,0.37548205,0.24088451,5.9385829,-1.34463005,-2.17953115
652,1747533344470,-0.5263094500000001,0.32215555,0.21123155,6.45576885,-1.40082275,-2.12014265
653,1747533344480,-0.4893348,0.20085911,-0.10201593,7.400392,-1.5920377,-2.1587584
654,1747533344490,-0.4893348,0.20085911,-0.10201593,7.400392,-1.5920377,-2.1587584
655,1747533344500,-0.4704203449999999,0.19671014,-0.4544346,7.3963973,-1.82612965,-2.3923177
656,1747533344510,-0.4595598,0.21135357,-0.88788027,6.6174226,-1.9579561,-2.7180223
657,1747533344520,-0.52252656,0.28554696,-1.2690977,4.7739825,-1.871137,-3.0274816
658,1747533344530,-0.59281504,0.3116611,-1.3635478,3.6240296,-1.7443706,-3.113768
659,1747533344540,-0.60721445,0.31068486,-1.4001565,3.00883945,-1.63518095,-3.1390681
660,1747533344550,-0.60721445,0.31068486,-1.4001565,2.3936493,-1.5259913,-3.1643682
661,1747533344560,-0.587201745,0.155464465,-1.1735492500000002,0.763794625,-1.195493,-3.26263875
662,1747533344570,-0.651510805,-0.049543625,-0.8214967200000001,-0.72491246,-1.0072075,-3.3177662
663,1747533344580,-0.77488175,-0.27676092,-0.46675949,-0.7757788299999999,-1.05381285,-3.264503
664,1747533344590,-0.9894081,-0.46761367,-0.12739788,-0.64821345,-1.2857742,-2.9289446
665,1747533344600,-1.02223375,-0.514960785,-0.0727290585,-0.5203817049999999,-1.3568806,-2.799515
666,1747533344610,-1.0607948,-0.6009909849999999,-0.0063454887499999,-0.28282772,-1.4580807,-2.5481126
667,1747533344620,-1.0672623,-0.8083176,-0.061258372,-0.041545313,-1.2985574,-1.9723371
668,1747533344630,-1.168302,-0.88690406,-0.107629254,-0.15499598,-1.1792477,-1.71188
669,1747533344640,-1.2669011,-0.95670444,-0.13740423,-0.26471822,-1.1243865999999998,-1.547563
670,1747533344650,-1.29692015,-0.98891992,-0.1123883649999999,-0.4932174549999999,-1.007473865,-1.18830255
671,1747533344660,-1.32535285,-1.019061,0.016229805,-0.678040825,-0.7611314650000001,-0.5667206850000001
672,1747533344670,-1.2859375,-0.98379475,0.17791773,-0.69348717,-0.41225734,0.19973709
673,1747533344680,-1.2673892,-0.953775725,0.219041365,-0.5422196,-0.30306774,0.5251754
674,1747533344690,-1.1995413,-0.83687234,0.32801294,-0.27324033,-0.2412824,0.82611257
675,1747533344700,-1.155367,-0.74535084,0.3355787,0.032490566,-0.18429075,1.0934939
676,1747533344710,-1.1387711,-0.69702752,0.305437635,0.164583363,-0.136087532,1.21626565
677,1747533344720,-1.0905698,-0.54925085,0.1430175445,0.3768373,-0.025033712,1.4556839
678,1747533344730,-1.0476157,-0.408551835,-0.0700444305,0.41571945,0.143278075,1.7773938
679,1747533344740,-1.0199152,-0.3304535349999999,-0.23161033,0.23196134,0.29827405,2.0740699
680,1747533344750,-0.9747646,-0.249304495,-0.3778006299999999,-0.17843179,0.4495416,2.2551649
681,1747533344760,-0.9117979,-0.10714114,-0.5442477,-0.707069275,0.65806711,2.40376925
682,1747533344770,-0.8175918,0.0024405725,-0.49860895,-1.436509125,0.875381055,2.53213355
683,1747533344780,-0.7746377,0.025626011,-0.43368974,-2.2242723,0.9757822,2.6168222
684,1747533344790,-0.7746377,0.025626011,-0.43368974,-2.2242723,0.9757822,2.6168222
685,1747533344800,-0.68860755,0.11531705,-0.32374194,-2.53186725,0.99868545,2.58806005
686,1747533344810,-0.6460195,0.17767367,-0.32020313,-2.7132285,1.0167949,2.4586303
687,1747533344820,-0.6887295499999999,0.190364645,-0.320813265,-2.78247075,1.0330402,2.45383665
688,1747533344830,-0.7975791,0.27017137,-0.26284966,-2.8852687,1.0780476,2.5571673
689,1747533344840,-0.7070338,0.39024755,-0.08127106,-2.5513084,0.7909589,2.6610305
690,1747533344850,-0.683482285,0.41733791,-0.049787677,-2.39205135,0.70493878,2.66316115
691,1747533344860,-0.64553142,0.45345837,-0.021721095,-2.08099415,0.55953018,2.65863385
692,1747533344870,-0.59989274,0.47225076,-0.06955632,-1.6964337,0.4133226,2.6093652
693,1747533344880,-0.58146642,0.475789605,-0.09310784,-1.6141420000000002,0.3707120299999999,2.5694178
694,1747533344890,-0.5630401,0.47932845,-0.11665936,-1.5318503,0.32810146,2.5294704
695,1747533344900,-0.593547235,0.53460741,-0.34570708,-1.6804546500000002,0.35127096,2.27700265
696,1747533344910,-0.6294237,0.6142921,-0.35437113,-1.9590213,0.5523396,2.3494408
697,1747533344920,-0.554254,0.6272271,-0.35583547,-2.1177456,0.65460503,2.3190808
698,1747533344930,-0.5574267500000001,0.64650765,-0.33533466,-2.18911835,0.712928235,2.29910705
699,1747533344940,-0.5504711250000001,0.70691185,-0.26638849,-2.32920075,0.89029472,2.30230285
700,1747533344950,-0.54034275,0.7480355,-0.21794313,-2.3979104,1.009338,2.3254724
701,1747533344960,-0.462366465,0.745472835,-0.21452632,-2.4549019000000003,0.9456885,2.23412585
702,1747533344970,-0.47639978,0.7497439,-0.15741692,-2.4666197,0.8133294,2.128931
703,1747533344980,-0.47786412,0.7668279,-0.15375607,-2.4778051,0.7275756,2.0980384
704,1747533344990,-0.4756676,0.7070338,-0.24454537,-2.7579696,0.8042747,2.034655
705,1747533345000,-0.5195979,0.72021294,-0.24942651,-2.9555762,0.8367652,2.0873857
706,1747533345010,-0.49226347,0.7280228,-0.28505886,-3.1931303,0.85700524,2.1411815
707,1747533345020,-0.4300289,0.80465674,-0.35656762,-3.34892515,0.879375785,2.15156785
708,1747533345030,-0.30019042,0.84468216,-0.28261828,-3.8530614,0.9443569,2.1976407
709,1747533345040,-0.25809055,0.843583855,-0.23722364,-4.1103227,0.99042965,2.1526332
710,1747533345050,-0.21599068,0.84248555,-0.191829,-4.367584,1.0365024,2.1076257
711,1747533345060,-0.196099995,0.795260545,-0.024039638,-4.4581316,0.99682117,1.8772623
712,1747533345070,-0.21123155,0.7565774599999999,0.065285314,-4.36838325,0.8687231550000001,1.71347785
713,1747533345080,-0.26101923,0.69824778,0.109215622,-4.14015045,0.589890185,1.53398075
714,1747533345090,-0.3341143749999999,0.6472398,0.14521407,-3.8687743,0.27164244,1.4237259
715,1747533345100,-0.41026023,0.66310355,0.1773076,-3.6557213,0.0447411099999999,1.4761902
716,1747533345110,-0.43137118,0.7131353,0.194757685,-3.4927357,-0.12330436,1.62905565
717,1747533345120,-0.35193056,0.7640212200000001,0.2407624749999999,-3.38088295,-0.152865453,1.79710115
718,1747533345130,-0.21245184,0.83748245,0.316908335,-3.180347,0.33182988,1.9350529
719,1747533345140,-0.0983550699999999,0.8739690499999999,0.325450335,-3.2192291,0.45353634,1.8991002
720,1747533345150,-0.002440575,0.84883112,0.2820081599999999,-3.31803235,0.6247776,1.76940425
721,1747533345160,0.078952518,0.8407771500000001,0.27724904,-3.439739,0.6460829,1.3736585
722,1747533345170,-0.12349297,0.7353445,0.28871974,-3.444,0.48975535,1.1619372
723,1747533345180,-0.302631,0.6823841,0.31678632,-3.415238,0.09853696,0.9715212
724,1747533345190,-0.40123013,0.6936107,0.32557237,-3.4032537,-0.0553937499999999,1.062335
725,1747533345200,-0.3587641649999999,0.687509285,0.315199935,-3.4493263,-0.41705105,1.3448963
726,1747533345210,-0.26309371,0.688241455,0.323253835,-3.49966005,-0.417583675,1.4056164
727,1747533345220,-0.036120474,0.7153318,0.4949481,-3.8482678,-0.060720075,1.5712651
728,1747533345230,0.025259923,0.7055695,0.5358277,-3.8919437,0.0458063675,1.5299861
729,1747533345240,0.127641935,0.69824778,0.60953298,-3.93641855,0.22556974,1.3885722500000002
730,1747533345250,0.188778275,0.6950750299999999,0.6644458449999999,-3.9036616,0.300404565,1.14409405
731,1747533345260,0.179015985,0.6794553649999999,0.684824645,-3.8184404,0.2479402949999999,0.861
732,1747533345270,0.0257480349999999,0.61331585,0.66066298,-3.64453605,0.02183792,0.59814599
733,1747533345280,-0.16132185,0.5213063,0.59842837,-3.4993937500000003,-0.24794031,0.47883637
734,1747533345290,-0.16132185,0.5213063,0.59842837,-3.4764905,-0.34567833,0.48363006
735,1747533345300,-0.15936939,0.486528115,0.610753275,-3.47196315,-0.532898545,0.5736449
736,1747533345310,-0.13838046,0.472616835,0.61490225,-3.52389475,-0.5760417600000001,0.6500776500000001
737,1747533345320,-0.04807928,0.42465958,0.7663397,-3.7486656,-0.3270362,0.80800307
738,1747533345330,-0.0093962055,0.41123645,0.80185007,-3.7619814,-0.2229065925,0.8072041350000001
739,1747533345340,0.0712647145,0.38658668,0.86176612,-3.76118245,-0.042077946,0.762995665
740,1747533345350,0.130326575,0.36925861,0.90740483,-3.69273925,0.0567253315,0.635962865
741,1747533345360,0.144481895,0.355835465,0.941450865,-3.54386855,0.05486112,0.455134235
742,1747533345370,0.0883487214999999,0.310074725,0.921438135,-3.00085,-0.3190467,0.09427591
743,1747533345380,-0.027090356,0.24576566,0.87299275,-2.7883296,-0.56725335,0.072970614
744,1747533345390,-0.036608588,0.24661985,0.846878645,-2.7081685,-0.702275605,0.080427464
745,1747533345400,-0.0353883,0.24356914,0.6994681,-2.6261432,-0.94968328,0.108124342
746,1747533345410,-0.0140332915,0.23368482,0.66102905,-2.7063043,-1.13290875,0.148870705
747,1747533345420,0.007321717,0.2238005,0.62259,-2.7883296,-1.2037488,0.16937704
748,1747533345430,0.1381364,0.14130914,0.8171036,-3.273025,-0.9329053,0.179230745
749,1747533345440,0.18255483,0.09615856,0.9391323,-3.4008567,-0.5763081,0.1257012
750,1747533345450,0.16864356,0.0630888015,1.0567679,-3.2003207,-0.45167215,0.0545948005
751,1747533345460,0.15473229,0.030019043,1.1744035,-2.9997847,-0.3270362,-0.016511599
752,1747533345470,0.156684755,-0.0024405724,1.2500612,-2.56515685,-0.584297565,-0.0780306195
753,1747533345480,0.108117364,-0.0061014313,1.3005811,-1.8602181,-1.055144415,-0.14514228
754,1747533345490,0.08419975,0.0,1.2251674,-1.1393003,-1.6852484,-0.120907515
755,1747533345500,0.080172805,-0.001586372,1.14389635,-1.026382275,-1.83758125,-0.0830906275
756,1747533345510,0.18182266,-0.00073217176,0.9096014,-1.0402308,-2.1278658,0.0958738
757,1747533345520,0.25723633,-0.0053692595,0.8932495,-1.27885,-1.9984361,0.1123854
758,1747533345530,0.3321619,-0.01415532,0.91204196,-1.6005598,-1.6985642,0.049002163
759,1747533345540,0.34900187,-0.020378781,0.949992865,-1.6969663,-1.5699335,0.0125168565
760,1747533345550,0.329477295,-0.0355103295,1.050422435,-1.8389128,-1.2911005000000002,-0.068176925
761,1747533345560,0.277493085,-0.0497876785,1.14426245,-1.82027065,-1.1201256000000002,-0.1046622325
762,1747533345570,0.252111135,-0.0574754835,1.2005176,-1.63704515,-1.1361046,-0.0772316725
763,1747533345580,0.248572305,-0.0525943375,1.2396888,-1.2080098,-1.3784522,-0.02396845
764,1747533345590,0.308610395,-0.0272123835,1.2179677,-0.9544769,-1.70255895,-0.0724379825
765,1747533345600,0.36401139,-0.012202863,1.1691562,-0.679106085,-2.12147415,-0.1597896675
766,1747533345610,0.37377366,-0.0240396375,1.1734272,-0.701742935,-2.1784657000000003,-0.215449735
767,1747533345620,0.38353595,-0.042343929,1.2228488,-0.802943065,-1.9973708,-0.233559235
768,1747533345630,0.37413976,-0.07297312,1.304486,-0.96619487,-1.5020229,-0.22849922
769,1747533345640,0.37413976,-0.07297312,1.304486,-0.96619487,-1.5020229,-0.22849922
770,1747533345650,0.264314,-0.06711575,1.5207207,-0.64821345,-0.9555422,-0.16831179
771,1747533345660,0.25052476,-0.064187061,1.51705985,-0.517185915,-0.9851033,-0.139549645
772,1747533345670,0.229169755,-0.050519852,1.4974132999999998,-0.2426139875,-1.0596718,-0.081759045
773,1747533345680,0.21379416,-0.007321717,1.4199251,0.0332895125,-1.15101825,-0.0247673983
774,1747533345690,0.236613505,0.0167179215,1.31668885,0.21012341,-1.31746585,0.0194410767
775,1747533345700,0.268096875,0.05149608,1.2033242,0.17204021,-1.4386396499999998,0.01917476055
776,1747533345710,0.2767609,0.0622346,1.1931958,0.08948222,-1.4397049,0.0026631611
777,1747533345720,0.3116611,0.065163285,1.2410312,-0.33822146,-1.1259845,-0.061252706
778,1747533345730,0.30775619,0.0623566285,1.27129425,-0.4154531299999999,-1.00960437,-0.0692421905
779,1747533345740,0.28774349,0.057719541,1.34866035,-0.53875748,-0.74115774,-0.079095885
780,1747533345750,0.2737102,0.0573534515,1.41565405,-0.5459480299999999,-0.5712480550000001,-0.0940095874999999
781,1747533345760,0.26736471,0.0585737365,1.44420875,-0.4396879099999999,-0.55660066,-0.11797804
782,1747533345770,0.254307645,0.051007965,1.43505665,-0.29161614,-0.554203825,-0.13582122
783,1747533345780,0.21586864,0.030629186,1.3697713,-0.13741911,-0.5198490499999999,-0.09400959
784,1747533345790,0.18206671,0.017572122,1.3223021,-0.06391586,-0.4910869,-0.04527374
785,1747533345800,0.207204605,-0.00170840065,1.29264915,0.0101200105,-0.486293225,0.03914847
786,1747533345810,0.2561380749999999,-0.0067115742499999,1.28447325,0.049534795,-0.49774481,0.0412789985
787,1747533345820,0.32325382,-0.00305071563,1.26299625,0.0721716675,-0.49774481,0.0071905354999999
788,1747533345830,0.37841077,-0.00280665838,1.2402989,0.0157126525,-0.42717105,-0.099069598
789,1747533345840,0.3900035,-0.004881145,1.2327331,-0.04580637,-0.3584615,-0.18216023
790,1747533345850,0.3767023699999999,-0.02428369625,1.22589955,-0.279365605,-0.05219796,-0.30786143
791,1747533345860,0.33142975,-0.05832968,1.2439598,-0.40400155,0.16431704,-0.330498295
792,1747533345870,0.292014495,-0.07785426,1.28130055,-0.4577973899999999,0.4540689649999999,-0.296942465
793,1747533345880,0.21599068,-0.11861181,1.3442672,-0.39654469,0.6711166,-0.2295644949999999
794,1747533345890,0.1871919,-0.14008886,1.3347491,-0.18961707,0.6897587,-0.12410331
795,1747533345900,0.18426322,-0.14448189,1.3270613,-0.1150485585,0.6503439499999999,-0.09321064
796,1747533345910,0.1882901699999999,-0.14911898,1.3103433999999998,0.0253000335,0.5632585999999999,-0.039148468
797,1747533345920,0.22916975,-0.148386815,1.2728806499999998,0.152865457,0.475640585,0.0018642134999999
798,1747533345930,0.282130175,-0.13862452,1.24737665,0.211455,0.448742655,0.0122505415
799,1747533345940,0.3231317999999999,-0.1250793399999999,1.2586032,0.2000034,0.51239222,-0.0165116
800,1747533345950,0.3397277,-0.11006982,1.2810564,0.17923075,0.6575345,-0.04873585
801,1747533345960,0.32667063,-0.1018939025,1.29130685,0.1387507,0.96592855,-0.0500674285
802,1747533345970,0.31214921,-0.0956704425,1.29826255,0.088416947,1.26500155,-0.038882151
803,1747533345980,0.3014107,-0.093717985,1.3135161,0.0529969055,1.3928333,-0.0364853075
804,1747533345990,0.3014107,-0.093717985,1.3135161,0.039947417,1.4354439,-0.03568636
805,1747533346000,0.27700499,-0.09384001,1.34377925,0.101732755,1.46473865,-0.038882154
806,1747533346010,0.24723,-0.096890725,1.3697713,0.204530775,1.43517755,-0.017576864
807,1747533346020,0.2596769,-0.08029483,1.3803878,0.38935416,1.34463005,0.02609898
808,1747533346030,0.2865232,-0.06809197,1.329868,0.5683186,1.28897,0.0314253
809,1747533346040,0.30019042,-0.04612682,1.2603117,0.52357745,1.3907027,0.01438107
810,1747533346050,0.31373559,-0.033191786,1.2243132,0.451139475,1.47672285,0.00665790275
811,1747533346060,0.34192422,-0.0024405725,1.1631769,0.17204021,1.7646105,-0.02609898
812,1747533346070,0.340948,0.011470691,1.2068632,-0.21891184,2.149171,-0.105993815
813,1747533346080,0.33460248,-0.006833603,1.2598236,-0.3291667,2.2759376,-0.16724652
814,1747533346090,0.29604146,-0.012446919,1.3240106,-0.31798143,2.2711438,-0.189350755
815,1747533346100,0.23966423,-0.014399378,1.3838046,-0.18375812,2.1976407,-0.2263687
816,1747533346110,0.2111095,-0.056377225,1.4162643,0.17949706,2.0820594,-0.21784659
817,1747533346120,0.18450728,-0.08005078,1.3891739,0.3387541,2.1097562,-0.19867182
818,1747533346130,0.16473864,-0.093473926,1.3454876,0.44208476,2.1715417,-0.1571265
819,1747533346140,0.16559284,-0.0992092679999999,1.31498045,0.45380266,2.2208102,-0.13688648
820,1747533346150,0.155586495,-0.1099477849999999,1.2662909999999998,0.44581318,2.3331956,-0.098536965
821,1747533346160,0.124713255,-0.12056428,1.24334965,0.39707734,2.46954945,-0.0404800511
822,1747533346170,0.11226633,-0.14008886,1.2485968,0.3339604,2.5699506,0.096939065
823,1747533346180,0.12983845,-0.13276714,1.2688537,0.37124467,2.5241442,0.104928546
824,1747533346190,0.1300825,-0.118855886,1.2944796,0.41998051,2.5153557,0.1054611805
825,1747533346200,0.14423783,-0.118611823,1.29289325,0.5163869249999999,2.4676851,0.0966727525
826,1747533346210,0.154976355,-0.1148289325,1.3118077,0.61865233,2.37687135,0.0647148185
827,1747533346220,0.125445425,-0.1221506525,1.3431691,0.9395633,2.3611586,0.07989483
828,1747533346230,0.092741755,-0.12971643,1.3484162999999998,1.0221212,2.4479778,0.11132014
829,1747533346240,0.068702116,-0.12007617,1.3166888499999998,1.05274755,2.5563684,0.13235911
830,1747533346250,0.040391474,-0.119343995,1.2431055999999998,1.07352025,2.7630296000000003,0.173638105
831,1747533346260,0.0101283754999999,-0.1238590525,1.1784304,1.0532802499999998,2.9425267,0.223439225
832,1747533346270,-0.028188611,-0.1156831375,1.13742885,1.1116035,3.160107,0.41172472
833,1747533346280,-0.0552789635,-0.101039703,1.10033215,1.15075195,3.16197125,0.4418184349999999
834,1747533346290,-0.06369894,-0.067359805,1.0416363,1.2327773,3.13400805,0.500407975
835,1747533346300,-0.0438082749999999,-0.0616244574999999,1.00380745,1.2804479,3.0328078,0.53183327
836,1747533346310,0.019280522,-0.0353883015,1.0044176,1.2958942,2.9036445,0.50946272
837,1747533346320,0.0452726185,0.001586372,1.0346807,1.4554175,2.79179175,0.376304675
838,1747533346330,-0.07248501,0.0353883,0.9022797,1.6919062500000002,2.75157805,0.22903186
839,1747533346340,-0.104700565,0.0446624765,0.86310847,1.79523695,2.7875308,0.20053603
840,1747533346350,-0.151193465,0.0588177965,0.7746377,1.7819211,2.83813085,0.23169501
841,1747533346360,-0.1633963299999999,0.06284474,0.7055695049999999,1.6644757,2.9539783,0.29561087
842,1747533346370,-0.158271125,0.063332855,0.702152675,1.64077355,2.98620265,0.31105721
843,1747533346380,-0.15973546,0.06552937,0.73168362,1.6215988,3.028547,0.332362505
844,1747533346390,-0.16425052,0.06638357,0.74486274,1.6261262,3.038667,0.33822146
845,1747533346400,-0.2596769,0.07028849,0.66700846,1.8407769,2.8069718,0.36272255
846,1747533346410,-0.249670565,0.071508775,0.64955838,1.8495654,2.799515,0.356597275
847,1747533346420,-0.250036665,0.0834675775,0.6058721499999999,1.8495654,2.81576035,0.340884625
848,1747533346430,-0.2604091,0.094206095,0.579636,1.8407769,2.8394625,0.33129725
849,1747533346440,-0.32532832,0.16888762,0.42368335,1.6160062000000002,2.9079057,0.34940675
850,1747533346450,-0.319837035,0.1858495949999999,0.403914725,1.4434333,2.8367991,0.3355583
851,1747533346460,-0.3258164249999999,0.22074978,0.3836579799999999,1.3776532499999998,2.8280108,0.32144355
852,1747533346470,-0.3398497099999999,0.246497825,0.39464055,1.23197835,2.81868985,0.30093721
853,1747533346480,-0.353394895,0.24881637,0.44357404,1.0910971,2.89538885,0.296676145
854,1747533346490,-0.403182585,0.2429589999999999,0.53509552,1.10015185,3.0644995,0.316117235
855,1747533346500,-0.45333635,0.23429497,0.5970860499999999,1.24396255,3.10764265,0.3358246299999999
856,1747533346510,-0.4809148,0.230878155,0.59916055,1.41839965,3.0096383,0.34221621
857,1747533346520,-0.5100796,0.23429495,0.4322254,1.6138756,2.9257488,0.33981937
858,1747533346530,-0.55962324,0.19988288,0.26577836,1.5121429,3.1553133,0.36964676
859,1747533346540,-0.55962324,0.19988288,0.26577836,1.5121429,3.1553133,0.36964676
860,1747533346550,-0.6223460000000001,0.18096845,0.22587498,1.3968280000000002,3.3388050500000004,0.477504775
861,1747533346560,-0.6877533,0.1769415,0.26358184,1.3688648,3.3172334,0.57471016
862,1747533346570,-0.6557818,0.31654227,0.18694785,1.4615428,3.095126,0.70840085
863,1747533346580,-0.5701177,0.3612047,0.09640261,1.2602079,2.845854,0.68336713
864,1747533346590,-0.53607175,0.390979685,0.0821252624999999,1.1353056499999998,2.8911277,0.638892365
865,1747533346600,-0.4982429,0.449553445,0.0942060975,0.91772535,3.0618364,0.53902383
866,1747533346610,-0.493971875,0.4842096,0.139844805,0.7099988,3.4120421,0.40053943
867,1747533346620,-0.5337532,0.49250755,0.26943922,0.709199825,3.48927375,0.37257624
868,1747533346630,-0.6100211,0.473471075,0.292136535,0.928111675,3.57502755,0.39068574
869,1747533346640,-0.66115105,0.43539813,0.14521407,1.3374395,3.6266928,0.5230448
870,1747533346650,-0.634548825,0.434543935,0.0272123869999999,1.3390374,3.64853075,0.54035537
871,1747533346660,-0.5447358,0.45126185,-0.298482,1.2660668,3.67755925,0.54221962
872,1747533346670,-0.47127452,0.50617474,-0.5112999,0.72011876,3.5159054,0.30626354
873,1747533346680,-0.474203225,0.51044574,-0.48542985,0.69055768,3.4184337,0.23888556
874,1747533346690,-0.489090715,0.50373417,-0.44308594,0.7233145750000001,3.215767,0.12144015
875,1747533346700,-0.51691325,0.47042036,-0.46224444,0.874848455,3.0176278,0.05699165
876,1747533346710,-0.5303364349999999,0.4335677,-0.59098463,1.00987068,2.84798455,0.060720075
877,1747533346720,-0.50641881,0.38170554,-0.92265843,0.92704635,2.77607915,0.153930715
878,1747533346730,-0.41929033,0.294089,-1.3281596,0.7001450499999999,2.7510454,0.26738138
879,1747533346740,-0.3959828749999999,0.29067219,-1.37318815,0.541154335,2.5832663,0.312655115
880,1747533346750,-0.38097337,0.29006204,-1.45128645,0.474309,2.18645535,0.30732879
881,1747533346760,-0.40464692,0.283350465,-1.5282865499999998,0.487624815,1.5805862,0.287887725
882,1747533346770,-0.427100185,0.28640118,-1.60272395,0.5150553499999999,0.484961675,0.2988066849999999
883,1747533346780,-0.36681804,0.34119204,-1.619808,0.48203214,-0.57870491,0.314785645
884,1747533346790,-0.32325382,0.3688925349999999,-1.6184656,0.303600365,-1.201618335,0.26098979
885,1747533346800,-0.236491465,0.432591465,-1.58417555,0.16618125,-1.5094798,0.20932446
886,1747533346810,-0.165714865,0.49104318,-1.48045125,-0.401871005,-1.99763715,-0.1001348589999999
887,1747533346820,-0.158271125,0.5038562,-1.21052395,-1.03517075,-2.1622205,-0.4596616
888,1747533346830,-0.228193525,0.469566155,-0.8729928250000001,-1.5992283,-2.17287315,-0.76326195
889,1747533346840,-0.3403378299999999,0.42356135,-0.613804,-1.7971011,-2.0975057,-0.8562062850000001
890,1747533346850,-0.46041398,0.3788988749999999,-0.39390841,-1.8170748,-2.0397152,-0.858336835
891,1747533346860,-0.5697516,0.34033783,-0.225874995,-1.670601,-2.0399815,-0.7800399
892,1747533346870,-0.7365648,0.26162934,-0.13838045,-0.87351686,-2.330266,-0.34461305
893,1747533346880,-0.75608938,0.27785917,-0.160711695,-0.756337765,-2.4650220000000003,-0.2484729299999999
894,1747533346890,-0.77353945,0.30922055,-0.2148924099999999,-0.5864280850000001,-2.74252335,-0.07909588225
895,1747533346900,-0.7409577949999999,0.34717145,-0.25699229,-0.5510080500000001,-3.0013826000000003,0.03062635275
896,1747533346910,-0.6242984549999999,0.40171825,-0.2590667749999999,-0.6455502799999999,-3.16197125,0.0639158675
897,1747533346920,-0.527285695,0.442963915,-0.234539015,-1.2815131,-2.9411952,-0.13848437
898,1747533346930,-0.5339973,0.44394013,-0.12715383,-1.4548849,-2.8056403000000003,-0.199470765
899,1747533346940,-0.54034278,0.42563583,-0.045272621,-1.6282567,-2.6700854,-0.26045716
900,1747533346950,-0.579147845,0.38109538,0.105554759,-1.8796591,-2.15423105,-0.411192075
901,1747533346960,-0.8066092,0.281398,0.25137895,-1.6532904,-1.7491642,-0.3291667
902,1747533346970,-0.8678676,0.26358184,0.23893206,-1.5180018,-1.8471686,-0.18961707
903,1747533346980,-0.8707963,0.27041544,0.2412505999999999,-1.3773869,-2.060754,-0.054328486
904,1747533346990,-0.8452922999999999,0.28237424,0.2392981374999999,-1.3221263,-2.1731394,-0.0253000295
905,1747533347000,-0.8197882999999999,0.29433304,0.2373456749999999,-1.2668657,-2.2855248,0.0037284269999999
906,1747533347010,-0.63284045,0.34729347,0.13740423,-1.226652,-2.6357305,0.0173105485
907,1747533347020,-0.5620638,0.3526627,0.18548352,-1.4317155,-2.6823359,-0.16937704
908,1747533347030,-0.5649925,0.33655494,0.22428861,-1.496164,-2.5347967,-0.26418558
909,1747533347040,-0.58354085,0.321911495,0.24210478,-1.51746925,-2.46688615,-0.2865561399999999
910,1747533347050,-0.6252746499999999,0.2916484,0.2813979949999999,-1.54410085,-2.33106495,-0.30413301
911,1747533347060,-0.71826047,0.25089085,0.41294485,-1.4945661,-2.1337247,-0.13582122
912,1747533347070,-0.7250941,0.24454537,0.46785772,-1.4551512,-2.1273332,-0.025033714
913,1747533347080,-0.7236297,0.2591888,0.4834774,-1.4434333,-2.1427794,0.08948222
914,1747533347090,-0.6751843500000001,0.27163571,0.5123982,-1.48071755,-2.19337955,0.144875965
915,1747533347100,-0.577927575,0.289817975,0.5609656000000001,-1.515605,-2.29457975,0.156593872
916,1747533347110,-0.4834774,0.34851375,0.60135704,-1.4998924,-2.5683527,-0.0479369
917,1747533347120,-0.4724948,0.358032,0.6347929,-1.4924355500000002,-2.6466496,-0.1406149099999999
918,1747533347130,-0.4724948,0.358032,0.6347929,-1.4849787,-2.7249465,-0.23329292
919,1747533347140,-0.52789587,0.29482117,0.6879974,-1.4088123,-2.6093652,-0.41598576
920,1747533347150,-0.57573107,0.270049355,0.7213111999999999,-1.27379,-2.4695493,-0.35926044
921,1747533347160,-0.65065664,0.22916976,0.7721971,-0.948618,-2.223207,-0.18429075
922,1747533347170,-0.65407342,0.22941381,0.7900133,-0.8314389,-2.19045005,-0.12330436
923,1747533347180,-0.64016217,0.2203837,0.7883049,-0.424507875,-2.12600145,0.09667274
924,1747533347190,-0.605506,0.23771177,0.6975156,-0.037284255,-2.1965754,0.37550572
925,1747533347200,-0.5025139,0.25162303,0.6238103,-0.104928546,-2.363289,0.41545314
926,1747533347210,-0.41172457,0.2806658,0.6155124,-0.173904423,-2.4093618,0.39201732
927,1747533347220,-0.34045988,0.30555966,0.6291796,-0.41278997,-2.4788704,0.27377295
928,1747533347230,-0.32532832,0.2928687,0.6621273,-0.8133294,-2.2919164,0.084155895
929,1747533347240,-0.35754386,0.27456442,0.7268025,-0.9241169,-2.1438446,0.04474111
930,1747533347250,-0.38146147,0.2706595,0.75096416,-0.98590225,-2.092712,0.046339005
931,1747533347260,-0.38097337,0.27090356,0.74535084,-1.107875,-2.2040322,0.06178534
932,1747533347270,-0.35473721,0.26394792,0.753282695,-1.19282985,-2.31375445,0.0553937515
933,1747533347280,-0.20525214,0.23380683,0.92595315,-1.5520903,-2.5806031,-0.10705908
934,1747533347290,-0.1907307349999999,0.22123788,0.957558575,-1.5723303,-2.51642095,-0.156593875
935,1747533347300,-0.191706965,0.1957339049999999,1.01820685,-1.5768577,-2.3603598,-0.242613985
936,1747533347310,-0.28213018,0.16522676,1.1028948,-1.4855113,-2.16648165,-0.2929477299999999
937,1747533347320,-0.36254704,0.159003295,1.0980136,-1.10840765,-1.9552929,-0.25086978
938,1747533347330,-0.45992589,0.15656272,1.0749502,-0.62903865,-1.8690065,-0.1379517475
939,1747533347340,-0.44369608,0.17279254,0.97378844,-0.103863284,-2.171009,0.1107875
940,1747533347350,-0.36169282,0.17303659,0.8700641,0.0,-2.3861923,0.21891184
941,1747533347360,-0.25748038,0.17718557,0.7826916,-0.02876214,-2.4746094,0.24341293
942,1747533347370,-0.122760795,0.2294138,0.6677406,-0.38456047,-2.3989756,0.16777915
943,1747533347380,-0.087616555,0.22135992,0.6428468,-0.66579026,-2.2572954,0.11930962
944,1747533347390,-0.087616555,0.22135992,0.6428468,-0.66579026,-2.2572954,0.11930962
945,1747533347400,-0.087616555,0.22135992,0.6428468,-0.66579026,-2.2572954,0.11930962
946,1747533347410,-0.087616555,0.22135992,0.6428468,-0.66579026,-2.2572954,0.11930962
947,1747533347420,-0.087616555,0.22135992,0.6428468,-0.66579026,-2.2572954,0.11930962
948,1747533347430,0.03172744,0.16449459,0.8659151,-1.2911005,-1.7614148,-0.10972224
949,1747533347440,0.046614934,0.15375607,0.84907514,-1.2998889500000002,-1.84184225,-0.158724405
950,1747533347450,0.061502425,0.14313958,0.85127167,-1.3366406,-2.04424245,-0.2548645149999999
951,1747533347460,0.085420033,0.1193439925,0.88019247,-1.39869225,-2.2748722,-0.34594463
952,1747533347470,0.09298581,0.0774881725,0.99453332,-1.44423225,-2.4812672,-0.429301575
953,1747533347480,0.10860548,0.01952458,1.1841658,-1.3635385,-2.556102,-0.4777711
954,1747533347490,0.11458488,0.0137892345,1.227608,-1.2775184,-2.509763,-0.48735848
955,1747533347500,0.084931925,-0.008786061,1.3110756,-0.9171927,-2.2487733,-0.48043427
956,1747533347510,0.034168016,-0.033191785,1.3025336,-0.71479243,-2.0991037,-0.3920173
957,1747533347520,0.046614934,-0.037584815,1.0599406,-0.7302388,-1.9707392,-0.1635181
958,1747533347530,0.09274176,-0.04490653,1.0179628,-0.91186637,-1.9068234,-0.1123854
959,1747533347540,0.11812371,-0.0430761015,1.03992795,-0.985635885,-1.87380015,-0.1027980199999999
960,1747533347550,0.16522676,-0.039537273,1.1251038,-1.1270498,-1.780057,-0.08362326
961,1747533347560,0.19768637,-0.041733786,1.2837411,-0.92944324,-1.7571537,-0.06551377
962,1747533347570,0.2106214049999999,-0.0278225245,1.3009472,-0.764060945,-1.7851169,-0.07643273
963,1747533347580,0.23405088,0.0039049159,1.2710502,-0.34141725,-1.8940402,-0.11664646
964,1747533347590,0.228315545,0.00817591745,1.2399329,-0.235423445,-1.9411781,-0.12303805
965,1747533347600,0.22868164,0.0191584935,1.16952235,-0.067111665,-2.05143295,-0.1304949
966,1747533347610,0.29116032,0.03636453,0.96256185,-0.090014845,-2.21814695,-0.1613875599999999
967,1747533347620,0.3448529,0.03807293,0.950359,-0.35952675,-2.3190808,-0.24021713
968,1747533347630,0.363157185,0.0358764164999999,0.9481624,-0.467651095,-2.2825955,-0.26498454
969,1747533347640,0.385366395,0.0244057265,0.9618296,-0.68017137,-2.2013691,-0.309991975
970,1747533347650,0.384268135,0.00475911685,1.0091767,-0.8697884499999999,-2.10123425,-0.340618315
971,1747533347660,0.38268176,-0.034168016,1.1866064,-0.96699382,-1.9949741,-0.357928855
972,1747533347670,0.3719432299999999,-0.03734076,1.20491065,-0.86925582,-1.84956545,-0.37497309
973,1747533347680,0.3612047,-0.040513504,1.2232149,-0.7595336,-1.7550232,-0.3850931
974,1747533347690,0.35071028,-0.050153764,1.2061309,-0.5811018,-1.7427727,-0.37603834
975,1747533347700,0.34949,-0.065773428,1.1731832,-0.3752394,-1.83864645,-0.34594463
976,1747533347710,0.368770515,-0.082857435,1.1346221500000002,-0.27670244,-1.96967395,-0.3107909
977,1747533347720,0.4195344,-0.084687866,1.0897156,-0.2050634,-2.098571,-0.27377295
978,1747533347730,0.4588276,-0.082003236,1.0797093,-0.23409186,-2.07992885,-0.27590349
979,1747533347740,0.4588276,-0.082003236,1.0797093,-0.26312032,-2.0612867,-0.27803403
980,1747533347750,0.506784865,-0.082979465,1.0964272,-0.345678315,-1.9552929,-0.30945932
981,1747533347760,0.50788313,-0.10079564,1.1285207,-0.38429415,-1.7917748,-0.328101455
982,1747533347770,0.49299565,-0.1057988175,1.13657455,-0.37230992,-1.5643408,-0.30306774
983,1747533347780,0.48494175,-0.11153416,1.1473131,-0.32277513,-1.4908376,-0.2615224
984,1747533347790,0.498364875,-0.1145848724999999,1.1305952,-0.312388795,-1.46527125,-0.253799245
985,1747533347800,0.51959785,-0.1184897905,1.09398665,-0.309193,-1.41893225,-0.24101608
986,1747533347810,0.5544981,-0.117879644,1.0382195,-0.39734364,-1.3720607,-0.23435818
987,1747533347820,0.55901315,-0.122394702,1.04346675,-0.5094627199999999,-1.351288,-0.24288029
988,1747533347830,0.566945,-0.13142482,1.06555395,-0.6740460749999999,-1.3036174,-0.25699505
989,1747533347840,0.55828095,-0.14960709,1.1066776,-0.7704525,-1.24875625,-0.26525085
990,1747533347850,0.54083085,-0.165226755,1.1485334,-0.85647261,-1.08683605,-0.24953819
991,1747533347860,0.52716365,-0.1675452949999999,1.1886808,-0.87458211,-0.862597925,-0.21411815
992,1747533347870,0.50824922,-0.16473864,1.22138445,-0.807470425,-0.691090325,-0.17283916
993,1747533347880,0.48835857,-0.154732295,1.23346525,-0.70520505,-0.52730591,-0.1241033149999999
994,1747533347890,0.45907167,-0.1330112,1.2393227,-0.2514024,-0.18429075,0.011185277
995,1747533347900,0.46078007,-0.13362135,1.2282181,-0.158191765,-0.1893507549999999,0.0362189915
996,1747533347910,0.46322066,-0.13447554,1.1831895,0.08948222,-0.2727077,0.096939065
997,1747533347920,0.46529514,-0.133011195,1.155489,0.1371528,-0.316117225,0.0988032775
998,1747533347930,0.48237914,-0.1267877399999999,1.07397385,0.1944107649999999,-0.384826775,0.0806937825
999,1747533347940,0.49738866,-0.12202863,1.0201592,0.20399815,-0.4101268,0.060720075
1000,1747533347950,0.518987745,-0.0984770975,1.02504045,0.054861117,-0.3033340599999999,0.05965481
1001,1747533347960,0.53009236,-0.093717985,1.036023,0.025033714,-0.25353295,0.05912218
