timestamp,acc_x,acc_y,acc_z,gyro_x,gyro_y,gyro_z,id
1747533003420,-0.154976345,0.26394792,0.96719885,-0.168045465,0.0569916499999999,-0.15499597,1
1747533003430,-0.17877193,0.1682774699999999,0.045882725,-0.3542004265,0.29214878,-0.305730895,2
1747533003440,-0.2443013,0.1632743,-0.8371163,-0.05006743,-0.24607609,-0.22849922,3
1747533003450,-0.2801777,0.15155955,-0.8085616,-0.036218993,-0.41545314,-0.23542345,4
1747533003460,-0.2801777,0.15155955,-0.8085616,-0.0300937214999999,-0.49481535,-0.237553975,5
1747533003470,-0.26931718,0.13630597,-0.8291844500000001,-0.0130494894999999,-0.618119715,-0.255929785,6
1747533003480,-0.214648355,0.113974735,-0.85554268,0.0119842255,-0.66286081,-0.315318285,7
1747533003490,-0.19243914,0.11031387,-0.89312753,0.0617853399999999,-0.54221961,-0.437823685,8
1747533003500,-0.23173235,0.142407395,-0.92607522,0.144875965,-0.26205506,-0.505201655,9
1747533003510,-0.318860795,0.1865817599999999,-0.94413542,0.23302659,0.0322242499999999,-0.44821002,10
1747533003520,-0.406965475,0.210011265,-0.95353165,0.301203515,0.260989785,-0.34274884,11
1747533003530,-0.40489098,0.173768765,-0.9447456,0.336889875,0.3765709849999999,-0.23355923,12
1747533003540,-0.33997174,0.109459675,-0.9213161,0.309193,0.28842036,-0.179497055,13
1747533003550,-0.23819989,0.041733786,-0.84565836,0.24394555,-0.019707393,-0.2545982,14
1747533003560,-0.223312385,0.036730613,-0.82222888,0.2532666249999999,-0.1057274964999999,-0.30226879,15
1747533003570,-0.213672115,0.033923957,-0.7984333,0.294545625,-0.2452771349999999,-0.38482678,16
1747533003580,-0.21001126,0.036120474,-0.8129546999999999,0.40586576,-0.31798145,-0.4708469,17
1747533003590,-0.223434415,0.0307512135,-0.8767757,0.5629923,-0.118776985,-0.53103435,18
1747533003600,-0.28871973,0.0433201624999999,-0.95548413,0.59761333,-0.0010652645,-0.47990164,19
1747533003610,-0.3785328,0.09127741,-1.0182068,0.591221745,0.03515372775,-0.44341632,20
1747533003620,-0.384024085,0.086884378,-1.02650475,0.5510080150000001,0.07403588,-0.381364665,21
1747533003630,-0.356079535,0.0593059099999999,-1.0219897,0.402137325,-0.0247673949999999,-0.358994125,22
1747533003640,-0.294821175,0.0162298077,-0.984526915,0.251402415,-0.1725728349999999,-0.39441417,23
1747533003650,-0.248816375,-0.0261141253,-0.923756665,0.222906585,-0.2362223949999999,-0.4759069099999999,24
1747533003660,-0.222458185,-0.0636989435,-0.8523699,0.29987194,-0.23249397,-0.592020725,25
1747533003670,-0.21306197,-0.0907892955,-0.7706107,0.57657438,-0.101466437,-0.7462177249999999,26
1747533003680,-0.2665105,-0.075657744,-0.74132385,0.88576738,0.078829568,-0.8162588749999999,27
1747533003690,-0.3699907799999999,-0.01647386425,-0.7923318500000001,1.06579708,0.213052885,-0.725445095,28
1747533003700,-0.423073245,0.0154976352499999,-0.8605458500000001,1.18377515,0.332628825,-0.57044912,29
1747533003710,-0.41550748,-0.024893839,-0.96634465,1.181112,0.38216362,-0.39974049,30
1747533003720,-0.3810954,-0.0933518975,-1.05884235,1.05514445,0.30333405,-0.32037829,31
1747533003730,-0.353516925,-0.14216335,-1.0804414,0.8780441999999999,0.156061245,-0.3635215,32
1747533003740,-0.361204725,-0.184751335,-1.05896435,0.7022755700000001,-0.018908445,-0.43915526,33
1747533003750,-0.383169885,-0.23441698,-0.9836727,0.60214072,-0.200536035,-0.51798481,34
1747533003760,-0.380851335,-0.27114759,-0.886904,0.6069344249999999,-0.337156205,-0.58935755,35
1747533003770,-0.37194325,-0.280665825,-0.84248557,0.750212495,-0.35579833,-0.6870956,36
1747533003780,-0.380973375,-0.270415425,-0.8518818,0.93556852,-0.259391895,-0.76432727,37
1747533003790,-0.41135849,-0.231854375,-0.89715445,1.0381002499999998,-0.1278317365,-0.762729345,38
1747533003800,-0.439303055,-0.194025505,-0.957924695,1.093494,0.0170442309999999,-0.710265075,39
1747533003810,-0.436984525,-0.216844865,-0.976106975,1.10601085,0.1403485925,-0.6426208,40
1747533003820,-0.405501135,-0.275662665,-0.94620997,1.0508834,0.109189608,-0.616255485,41
1747533003830,-0.3802412,-0.30165476,-0.92400074,1.0013486,0.027696876,-0.62104917,42
1747533003840,-0.346073185,-0.342656375,-0.90850313,0.9568738,-0.1733717925,-0.718254525,43
1747533003850,-0.36340125,-0.35424909,-0.91924162,0.9656622,-0.249271885,-0.74994615,44
1747533003860,-0.36083865,-0.350466205,-0.95987712,0.9765812,-0.23915187,-0.75500618,45
1747533003870,-0.35217461,-0.3359448,-1.0135697,0.94808538,-0.1523328175,-0.7496798650000001,46
1747533003880,-0.362058925,-0.32752481,-1.0561577,0.88709898,-0.0588558614999999,-0.7289072000000001,47
1747533003890,-0.388417115,-0.335334655,-1.0692148,0.80054625,0.008522116,-0.698014515,48
1747533003900,-0.43966912,-0.332894085,-1.06469975,0.682035575,0.04740427,-0.6378271,49
1747533003910,-0.4809148,-0.34424275,-1.05737805,0.473243745,-0.018642125,-0.52384381,50
1747533003920,-0.488114505,-0.37633629,-1.04200245,0.261522425,-0.158458085,-0.4364921,51
1747533003930,-0.48494175,-0.38927132,-1.0321181,0.18855181,-0.22050974,-0.41971418,52
1747533003940,-0.52960425,-0.371943235,-1.04249055,-0.06924219,-0.42237735,-0.2593919,53
1747533003950,-0.522526575,-0.371577155,-1.06030665,-0.2010686599999999,-0.513990105,-0.19441077,54
1747533003960,-0.50666285,-0.37755656,-1.0755602,-0.33289513,-0.60560286,-0.12942964,55
1747533003970,-0.5242349749999999,-0.36950266,-1.0577441,-0.4117247,-0.5904228300000001,-0.049268485,56
1747533003980,-0.5418071,-0.36144876,-1.039928,-0.49055427,-0.5752428,0.03089267,57
1747533003990,-0.54083085,-0.34949,-0.9830626,-0.386691,-0.20985709,0.31265512,58
1747533004000,-0.48787044,-0.359862425,-0.99721795,-0.320378285,0.045540055,0.38216363,59
1747533004010,-0.426368015,-0.379264965,-1.006004,-0.23568976,0.40426785,0.464987935,60
1747533004020,-0.417703975,-0.39708114,-0.98403885,-0.201867615,0.5715144,0.4804342649999999,61
1747533004030,-0.430639015,-0.39451853,-0.965246475,-0.19068234,0.6982809,0.50173956,62
1747533004040,-0.46675949,-0.37340759,-0.945843905,-0.222107645,0.694286125,0.5435511799999999,63
1747533004050,-0.4990970649999999,-0.362913135,-0.914970665,-0.27350666,0.6564692,0.61199442,64
1747533004060,-0.5289940799999999,-0.35925226,-0.90301186,-0.3169161849999999,0.5864280749999999,0.691622945,65
1747533004070,-0.555474265,-0.346561285,-0.922780475,-0.353401485,0.5488775,0.7984157249999999,66
1747533004080,-0.54510185,-0.3487578,-0.962561775,-0.382429945,0.57071542,0.889762165,67
1747533004090,-0.44686884,-0.39878955,-0.9781815,-0.44048685,0.7052051,0.922519,68
1747533004100,-0.47469133,-0.40098605,-0.94669807,-0.4383563,0.73290193,0.89322424,69
1747533004110,-0.49153128,-0.40208431,-0.921316085,-0.41811628,0.733168245,0.88709897,70
1747533004120,-0.5114219449999999,-0.385488425,-0.8903208,-0.39787626,0.73343456,0.8809737,71
1747533004130,-0.51264223,-0.3546151899999999,-0.8845855,-0.33103093,0.70680297,0.90813795,72
1747533004140,-0.49690056,-0.307024,-0.87860614,-0.31158987,0.5267733,1.0018812,73
1747533004150,-0.48787045,-0.2774931,-0.8859278,-0.3435478,0.42717105,1.0450244,74
1747533004160,-0.490921165,-0.26724269,-0.8856837500000001,-0.360325715,0.366983605,1.06526445,75
1747533004170,-0.49751069,-0.248328255,-0.89825273,-0.404800505,0.249538195,1.1116035000000002,76
1747533004180,-0.48152497,-0.22258021,-0.93986446,-0.49960902,0.12144015,1.1952267,77
1747533004190,-0.475545555,-0.23039005,-0.92875983,-0.54967646,0.08362326,1.231712,78
1747533004200,-0.44882128,-0.24405725,-0.90691674,-0.60720074,0.06018744,1.2996227,79
1747533004210,-0.44882128,-0.24405725,-0.90691674,-0.57550912,0.1392833249999999,1.304949,80
1747533004220,-0.39146782,-0.25223316,-0.84834297,-0.4508731849999999,0.36804888,1.30415005,81
1747533004230,-0.32667062,-0.2608972,-0.77305135,-0.1589907265,0.718254575,1.24449525,82
1747533004240,-0.25211114,-0.23868799,-0.72729063,0.2146508,1.055677,1.1014835,83
1747533004250,-0.26736471,-0.2073266349999999,-0.736808835,0.2825614,1.0961571,1.0788466,84
1747533004260,-0.29750578,-0.142651465,-0.76023829,0.3882889,1.1283813500000002,1.05727495,85
1747533004270,-0.28871973,-0.082125267,-0.811002195,0.414387885,1.06446545,1.06047075,86
1747533004280,-0.1295944,-0.054424766,-0.921072,0.12942964,0.5997439,0.93423694,87
1747533004290,-0.11031388,-0.060038086,-0.91545874,-0.00958738,0.376571,0.8452873,88
1747533004300,-0.108361425,-0.0605261995,-0.91069962,-0.06098639,0.28975194,0.79628517,89
1747533004310,-0.132279035,-0.048323335,-0.91253005,-0.126500155,0.20373183,0.736896695,90
1747533004320,-0.1610777849999999,-0.0257480385,-0.9200958,-0.125168575,0.24927189,0.728640875,91
1747533004330,-0.0942060974999999,-0.0378288735,-0.9034999,-0.05352953945,0.41545315,0.6644587,92
1747533004340,-0.0237955825,-0.0628447435,-0.86579308,0.0793622,0.63223445,0.505468,93
1747533004350,-0.046614934,-0.036120474,-0.82247293,0.16405073,0.69508505,0.44847634,94
1747533004360,-0.038439017,-0.025626012,-0.81869003,0.205329725,0.700677695,0.4242415699999999,95
1747533004370,-0.01513155,-0.0159857505,-0.820398415,0.27297402,0.68389979,0.37151098,96
1747533004380,0.10421244,-0.011958805,-0.9235126,0.28762141,0.52517537,0.226102385,97
1747533004390,0.08224729,-0.0018304294999999,-0.9646363,0.225836065,0.32517195,0.0681769265,98
1747533004400,0.045882763,0.0298970115,-1.03638915,0.1115864485,0.2055960299999999,0.0085221155,99
1747533004410,-0.0052472294999999,0.0955484085,-1.1150976,-0.1286306815,0.1278317375,0.025832664,100
1747533004420,-0.0369746725,0.132279025,-1.15951605,-0.37763624,0.1382180625,0.083356943,101
1747533004430,0.033435844,0.09835507,-1.1285207,-0.56938386,0.2412824,0.096939065,102
1747533004440,0.084809897,0.083711635,-1.0993558499999998,-0.6202502299999999,0.2660498,0.056725332,103
1747533004450,0.17401282,0.025870068,-0.9864794,-0.72011876,0.32330775,-0.108124346,104
1747533004460,0.167423275,0.029408899,-0.90325588,-0.65007763,0.2894856,-0.225303443,105
1747533004470,0.14911898,0.029652956,-0.8095378799999999,-0.5174522149999999,0.21864552,-0.3901531099999999,106
1747533004480,0.11067996,0.0483233359999999,-0.81746975,-0.3392867,0.14753912,-0.48309743,107
1747533004490,0.0860301775,0.12349297,-0.8729928,-0.30040455,0.1422128,-0.476705845,108
1747533004500,0.1189779025,0.224288605,-1.0134477,-0.25619609,0.145408595,-0.457797405,109
1747533004510,0.16900964,0.28627914,-1.1345001,-0.348874105,0.171507575,-0.4239752599999999,110
1747533004520,0.211963715,0.30275301,-1.1487775,-0.519316415,0.146473862,-0.4079962849999999,111
1747533004530,0.29189247,0.29823795,-1.1265682,-0.69188927,-0.0087884329999999,-0.4364921,112
1747533004540,0.31849471,0.290550145,-1.1152196,-0.8665926500000001,-0.220243425,-0.4892227,113
1747533004550,0.402816475,0.300190405,-1.08422435,-0.99442438,-0.39707732,-0.557399625,114
1747533004560,0.4837215,0.3824377,-1.0396838,-1.113734,-0.6034723,-0.7323693,115
1747533004570,0.50544256,0.45785138,-1.0089327,-1.063134,-0.5699165,-0.7584683,116
1747533004580,0.52545528,0.4846976899999999,-0.98086613,-1.0175939,-0.53582803,-0.769653575,117
1747533004590,0.5845171,0.5603554,-0.91253006,-0.84688526,-0.43303,-0.809601,118
1747533004600,0.63198625,0.5793918849999999,-0.93327493,-0.690824,-0.36804887,-0.8617989500000001,119
1747533004610,0.68604493,0.6787232,-1.023576,-0.37444046,-0.12676647,-0.97045594,120
1747533004620,0.6672525149999999,0.7260703,-1.03431455,-0.3113235399999999,-0.0420779449999999,-0.96859172,121
1747533004630,0.623200185,0.8305268,-1.0549374,-0.185622333,0.12303804,-0.9307748,122
1747533004640,0.572314265,0.942183,-1.06567595,-0.0788295695,0.255929785,-0.82930835,123
1747533004650,0.5081272,1.06177105,-1.07397395,-0.01997370765,0.312921435,-0.55793225,124
1747533004660,0.46346471,1.1337679500000002,-1.0836142,-0.02636529465,0.2918824599999999,-0.230097123,125
1747533004670,0.465661215,1.125348,-1.0822718999999998,-0.0724379835,0.23489081,0.006657902,126
1747533004680,0.503856175,1.06945885,-1.0694589,-0.119575935,0.170708625,0.2055960499999999,127
1747533004690,0.554254,0.98233037,-1.04859195,-0.15472966,0.123836995,0.3451456899999999,128
1747533004700,0.5852492499999999,0.86213222,-1.0215016,-0.143544385,0.15659387,0.492152165,129
1747533004710,0.592937075,0.753648785,-1.0050278,-0.09800433,0.25086977,0.61252705,130
1747533004720,0.584029025,0.688607515,-1.01417995,-0.063383235,0.3448793599999999,0.66365975,131
1747533004730,0.58988637,0.5876899,-1.0116173,-0.042077947,0.45060685,0.69295454,132
1747533004740,0.5962319,0.5086153,-1.0033194,-0.039947417,0.4777711,0.65513766,133
1747533004750,0.53912246,0.42051062,-0.95670444,-0.036218993,0.4293016,0.55287224,134
1747533004760,0.52130628,0.392566085,-0.935349435,-0.0205063414999999,0.39281628,0.530501695,135
1747533004770,0.48286726,0.33984974,-0.8864159149999999,0.08522116,0.24181503,0.4511395,136
1747533004780,0.42197496,0.302631,-0.8371163,0.18748654,0.15339808,0.4133226,137
1747533004790,0.39171186,0.3073901,-0.8729927500000001,0.25566346,0.09454222,0.3898867849999999,138
1747533004800,0.35913023,0.30141069,-0.9224144,0.32996565,-0.0061252699999999,0.3470099,139
1747533004810,0.355591415,0.27761513,-0.95438592,0.32091091,-0.091080115,0.296942475,140
1747533004820,0.3485137499999999,0.25174507,-0.978059445,0.2825614,-0.17283916,0.227167645,141
1747533004830,0.322399615,0.228925705,-1.007590375,0.23196134,-0.237021345,0.14727281,142
1747533004840,0.26358184,0.20256752,-1.0501783,0.09267801,-0.25672874,-0.021837922,143
1747533004850,0.22538687,0.20793678,-1.0639676,0.07137272,-0.19813919,-0.0319579345,144
1747533004860,0.1657148749999999,0.21367213,-1.08202785,0.0399474175,-0.08282431,-0.0428768955,145
1747533004870,0.126421665,0.204397955,-1.08129565,0.020506341,0.0231695049999999,-0.040746367,146
1747533004880,0.09359596,0.17267051,-0.99441128,0.0135821215,0.099868545,-0.0316916185,147
1747533004890,0.088714815,0.1341094575,-0.863718595,0.110787503,0.0761664069999999,-0.0615190235,148
1747533004900,0.094328125,0.1136086474999999,-0.804290665,0.26977822,-0.038615838,-0.12410331,149
1747533004910,0.078464405,0.125567455,-0.8094159000000001,0.389087835,-0.15100124,-0.16484968,150
1747533004920,0.06577343,0.15900329,-0.85615285,0.487358485,-0.222373955,-0.184557075,151
1747533004930,0.053936653,0.21306199,-1.0577441,0.4788364,-0.21358553,-0.16618125,152
1747533004940,0.033557872,0.227827455,-1.0875191000000002,0.3818973,-0.15925704,-0.1123854,153
1747533004950,-0.026846299,0.2630937,-1.1563432,0.317715125,-0.132891745,-0.075900093,154
1747533004960,-0.0417337895,0.26651051,-1.16940025,0.1712412649999999,-0.09667275,0.0021305289999999,155
1747533004970,-0.0512520225,0.26309371,-1.1858741,-0.105993815,-0.11345066,0.10865697,156
1747533004980,0.036852647,0.12178457,-1.0330943,-0.43089947,-0.33662358,0.0628506,157
1747533004990,0.0543027385,0.08798264,-0.977205225,-0.47351006,-0.5113269,-0.070307456,158
1747533005000,0.063088798,0.0433201614999999,-0.87030819,-0.44767739,-0.5853628,-0.133690688,159
1747533005010,0.0255039822,0.0428320485,-0.795016495,-0.331829875,-0.71532507,-0.246076085,160
1747533005020,-0.0507639108,0.084443807,-0.80429065,-0.150202287,-0.76832197,-0.300670895,161
1747533005030,-0.1147069,0.14765464,-0.93278676,0.20772657,-0.59122175,-0.21837921,162
1747533005040,-0.1010397,0.15766099,-1.0067362,0.24660872,-0.46924898,-0.1768339,163
1747533005050,-0.11153416,0.16083373,-1.0809295,0.21731395,-0.36432046,-0.15126756,164
1747533005060,-0.11604922,0.16180996,-1.10655555,0.171507575,-0.33182989,-0.141680175,165
1747533005070,-0.11861182,0.16278619,-1.1520723,0.050866375,-0.29268141,-0.13315806,166
1747533005080,-0.1249573099999999,0.146922465,-1.16183455,-0.2439455649999999,-0.34780884,-0.1552623,167
1747533005090,-0.13032657,0.0959145,-1.0499343,-0.60080916,-0.53955644,-0.22423817,168
1747533005100,-0.1262996275,0.072851089,-0.9955095,-0.62664181,-0.61332602,-0.25885927,169
1747533005110,-0.1336213475,0.034412071,-0.8834872,-0.62344603,-0.73822827,-0.320111975,170
1747533005120,-0.15229173,0.034778157,-0.7848881,-0.41225736,-0.77418092,-0.35766254,171
1747533005130,-0.15936939,0.0541807074999999,-0.76939048,-0.136886482,-0.6942861,-0.36671729,172
1747533005140,-0.16229807,0.08346757,-0.8649389,0.09427591,-0.46552056,-0.34514567,173
1747533005150,-0.16986385,0.102992155,-0.93888825,0.17789917,-0.29667616,-0.32490566,174
1747533005160,-0.164860675,0.0957924675,-0.993923125,0.12969595,-0.21118868,-0.32703618,175
1747533005170,-0.14997318,0.0795626624999999,-1.0505444000000002,0.0154463335,-0.157659135,-0.35366779,176
1747533005180,-0.14606826,0.0635769125,-1.0517647,-0.1257012115,-0.239151865,-0.41092576,177
1747533005190,-0.1701079,0.061502425,-1.044565,-0.27350666,-0.34008567,-0.46152582,178
1747533005200,-0.200004905,0.0687021125,-1.00929875,-0.39734365,-0.44208474,-0.484695325,179
1747533005210,-0.213916175,0.049909705,-0.906062525,-0.43702474,-0.55420382,-0.4902879599999999,180
1747533005220,-0.2050081,0.0262361539999999,-0.809537875,-0.3701794,-0.60799967,-0.493217435,181
1747533005230,-0.198418545,0.020256752,-0.774515675,-0.234624505,-0.56911753,-0.505201665,182
1747533005240,-0.221481955,0.013667206,-0.7697565550000001,-0.072970617,-0.507332205,-0.51905009,183
1747533005250,-0.283106405,0.0286767265,-0.82747613,0.0884169529999999,-0.439421595,-0.519582725,184
1747533005260,-0.32606047,0.046858992,-0.8766537,0.2034655149999999,-0.3882889,-0.5067995700000001,185
1747533005270,-0.32020311,0.047835221,-0.92082805,0.2327602799999999,-0.37151098,-0.504136395,186
1747533005280,-0.309830675,0.047713192,-0.9824525,0.197606555,-0.36964677,-0.527838525,187
1747533005290,-0.3058037249999999,0.050031737,-1.0108852000000002,0.137685435,-0.36245623,-0.5581985700000001,188
1747533005300,-0.302142875,0.0529604225,-1.018695,0.084155893,-0.33768883,-0.58003649,189
1747533005310,-0.284082635,0.0385610434999999,-0.99050635,0.061252706,-0.2687129649999999,-0.60400495,190
1747533005320,-0.27017137,0.024649782,-0.9654905,0.061252706,-0.21624869,-0.61891866,191
1747533005330,-0.296163485,0.057597512,-0.95023692,0.1137169849999999,-0.133424375,-0.5701828,192
1747533005340,-0.29958028,0.070654575,-0.942183,0.1523328199999999,-0.088150635,-0.525974305,193
1747533005350,-0.32044718,0.075535717,-0.96756492,0.170708635,-0.059122177,-0.456998435,194
1747533005360,-0.33789727,0.075657742,-1.00612597,0.149669665,-0.060720075,-0.38935415,195
1747533005370,-0.31581008,0.052228248,-1.01698655,0.1142496175,-0.074035878,-0.364054125,196
1747533005380,-0.27078152,0.0287987555,-1.00929875,0.090014845,-0.072704295,-0.373641505,197
1747533005390,-0.2314883,0.020744866,-0.993435015,0.0822916775,-0.05539375,-0.40906155,198
1747533005400,-0.2155025549999999,0.01025040438,-0.968541165,0.0948085375,-0.039414785,-0.448742655,199
1747533005410,-0.229901935,0.01086054738,-0.958046725,0.1422128075,-0.011185277,-0.470580575,200
1747533005420,-0.239786245,0.0263581815,-0.972446125,0.18588865,0.030626353,-0.46179214,201
1747533005430,-0.235881335,0.0305071545,-0.99380115,0.186953915,0.0689758725,-0.43755737,202
1747533005440,-0.24064046,0.0289207834999999,-1.0034414,0.168844415,0.1014664395,-0.4133226,203
1747533005450,-0.230634105,0.0261141255,-0.98562515,0.1222390949999999,0.091612745,-0.398142595,204
1747533005460,-0.22270224,0.017206036,-0.962683815,0.0695085075,0.047670585,-0.401072065,205
1747533005470,-0.221726015,0.0012202864999999,-0.945355765,0.0447411075,-0.0010652645,-0.41332259,206
1747533005480,-0.20244549,-0.018060236,-0.9298581,0.0458063725,-0.0391484685,-0.4383563099999999,207
1747533005490,-0.185483505,-0.054668823,-0.916435,0.0788295695,-0.034887411,-0.482564795,208
1747533005500,-0.185605535,-0.10421244,-0.873724975,0.202932872,0.021571606,-0.557665945,209
1747533005510,-0.196466085,-0.118001675,-0.842485605,0.35100463,0.071905352,-0.61838602,210
1747533005520,-0.233074675,-0.095426385,-0.86140008,0.4239752599999999,0.082025364,-0.61572285,211
1747533005530,-0.28237423,-0.065529372,-0.90911327,0.43622581,0.061519023,-0.5717806750000001,212
1747533005540,-0.28371654,-0.076633972,-0.97391047,0.375505725,-0.0077231674999999,-0.5241101100000001,213
1747533005550,-0.230756125,-0.13093671,-1.0110072,0.1608549299999999,-0.2269013285,-0.574443885,214
1747533005560,-0.185483505,-0.18109047,-1.005637875,-0.10945592,-0.5129248200000001,-0.747815675,215
1747533005570,-0.195611885,-0.209767205,-0.968419125,-0.262321365,-0.69055765,-0.92411694,216
1747533005580,-0.286889295,-0.18938843,-0.8992289499999999,-0.28256139,-0.7475493200000001,-1.023985465,217
1747533005590,-0.3802412,-0.14301755,-0.84565836,-0.1555286,-0.6279734,-1.0056096,218
1747533005600,-0.38451221,-0.141309145,-0.850539505,-0.10040117,-0.5539375200000001,-0.97817905,219
1747533005610,-0.408673885,-0.13191294,-0.881046675,-0.0055926385,-0.40426786,-0.9094695,220
1747533005620,-0.447967085,-0.116659365,-0.92753955,0.0535295385,-0.25566347,-0.8135957,221
1747533005630,-0.46858991,-0.1138527,-0.9576806,0.0860201045,-0.124635945,-0.7057376799999999,222
1747533005640,-0.4595598,-0.22892569,-0.946454,0.18002969,0.11984225,-0.525708,223
1747533005650,-0.4467468,-0.258212575,-0.94376935,0.23329292,0.12516858,-0.5486112,224
1747533005660,-0.42246309,-0.302020865,-0.9477963,0.253532935,0.11797804,-0.5832322999999999,225
1747533005670,-0.4101381899999999,-0.31995906,-0.96280585,0.283094015,0.0857537875,-0.66339345,226
1747533005680,-0.4898229,-0.29408899,-1.00905465,0.2335592249999999,-0.0436758475,-0.7331682500000001,227
1747533005690,-0.6057501000000001,-0.251378975,-1.0513986000000002,0.110787503,-0.233559235,-0.7275756200000001,228
1747533005700,-0.7155758,-0.22135992,-1.0623811,-0.080960095,-0.44474792,-0.59228706,229
1747533005710,-0.744008475,-0.2054962,-1.05396115,-0.1265001525,-0.48602691,-0.51319116,230
1747533005720,-0.77854261,-0.182920905,-1.0348027,-0.1861549599999999,-0.5347627500000001,-0.34035199,231
1747533005730,-0.727778705,-0.182676845,-1.0348027,-0.0916127395,-0.372309925,-0.061252705,232
1747533005740,-0.59086263,-0.19793043,-1.0797093,0.0897485304999999,-0.077231675,0.17470337,233
1747533005750,-0.5281399,-0.19768637,-1.1221752,0.2087918299999999,0.15472965,0.255663465,234
1747533005760,-0.504832435,-0.19500174,-1.1386491,0.2625876849999999,0.317715115,0.3057309,235
1747533005770,-0.458705615,-0.19500174,-1.17171885,0.2399508149999999,0.383761525,0.32011198,236
1747533005780,-0.46492904,-0.18938842,-1.2539662,-0.12250541,0.21624869,0.27217507,237
1747533005790,-0.48335537,-0.1867037899999999,-1.2416413,-0.21971079,0.138750698,0.27696876,238
1747533005800,-0.52960426,-0.19915071,-1.1927078,-0.5113269,-0.10226539,0.31798145,239
1747533005810,-0.5370479800000001,-0.20683852,-1.1584177,-0.5510079999999999,-0.12410331,0.340352,240
1747533005820,-0.5444917,-0.21452633,-1.1241276,-0.5906891,-0.14594123,0.36272255,241
1747533005830,-0.5535218,-0.22233616,-1.087519,-0.62317973,-0.1272991,0.41278997,242
1747533005840,-0.51020164,-0.230756135,-1.0409041,-0.6391587000000001,0.02024003,0.447677375,243
1747533005850,-0.462488455,-0.228681645,-0.958046725,-0.61838603,0.19281286,0.43089947,244
1747533005860,-0.466515435,-0.217943125,-0.887880275,-0.58136809,0.230097115,0.430633155,245
1747533005870,-0.46761367,-0.20769271,-0.7890371,-0.28975195,0.40959418,0.4394216,246
1747533005880,-0.47737598,-0.20940112,-0.7900133,-0.11611383,0.505468,0.4394216,247
1747533005890,-0.51447266,-0.21306199,-0.818568,0.004261058,0.5763081,0.4495416,248
1747533005900,-0.51837758,-0.210987495,-0.84858707,0.07350325,0.6178534,0.46179214,249
1747533005910,-0.52850595,-0.19622203,-0.93205467,0.03914847,0.637560785,0.47297742,250
1747533005920,-0.567067,-0.16290822,-1.0179628,-0.050333745,0.655137635,0.523311175,251
1747533005930,-0.599526625,-0.1190999399999999,-1.05957455,-0.17603495,0.65247447,0.614124955,252
1747533005940,-0.5581589,-0.089324952,-1.06335745,-0.32410671,0.64288709,0.6948187299999999,253
1747533005950,-0.4723728,-0.096280587,-1.02845725,-0.4697816299999999,0.61359232,0.71639035,254
1747533005960,-0.3843901899999999,-0.134841635,-0.89385965,-0.54967648,0.51984905,0.62238075,255
1747533005970,-0.354615195,-0.15595258,-0.75316065,-0.4932174499999999,0.4181163,0.5174521999999999,256
1747533005980,-0.383535965,-0.1375262569999999,-0.71045063,-0.338487765,0.371510985,0.505468,257
1747533005990,-0.4039147349999999,-0.1132425619999999,-0.7207010300000001,-0.17630126,0.339553045,0.5323659199999999,258
1747533006000,-0.39488462,-0.110679957,-0.757431675,-0.0444747905,0.31158986,0.5621933050000001,259
1747533006010,-0.36779426,-0.144725947,-0.8190561249999999,0.0657800795,0.266848755,0.539290135,260
1747533006020,-0.34363259,-0.157538955,-0.90667265,0.120907515,0.259391895,0.487891125,261
1747533006030,-0.328867135,-0.129838455,-0.98733355,0.091612743,0.339020415,0.458330035,262
1747533006040,-0.34070392,-0.1027481,-1.02735895,0.01438107,0.477238475,0.46978164,263
1747533006050,-0.362425015,-0.060770252,-1.02748105,-0.068709556,0.6135923249999999,0.531566965,264
1747533006060,-0.3369210299999999,-0.0175721205,-0.9791577,-0.160588618,0.704672455,0.644218685,265
1747533006070,-0.277859175,-0.0147654645,-0.90545235,-0.228765545,0.70387353,0.7273093150000001,266
1747533006080,-0.22599701,-0.035998445,-0.8537122500000001,-0.24421188,0.5981460000000001,0.72624403,267
1747533006090,-0.154488238,-0.075169629,-0.7955046,-0.21118868,0.317981425,0.65673554,268
1747533006100,-0.09054524,-0.11006982,-0.7922098,-0.1371527975,0.032756884,0.57071546,269
1747533006110,-0.09054524,-0.10543273,-0.8171036199999999,-0.0652474475,-0.072171666,0.523843785,270
1747533006120,-0.07907455,-0.096890725,-0.8703080999999999,0.0007989484999999,-0.0846885219999999,0.490287935,271
1747533006130,-0.07089863,-0.09103335,-0.91643493,0.0636495535,-0.0031957919999999,0.46525425,272
1747533006140,-0.078220347,-0.0514960765,-1.0001466,0.102531705,0.305730905,0.4546016149999999,273
1747533006150,-0.0693122595,0.0145214065,-1.09349855,0.0423442599999999,0.66499135,0.460726885,274
1747533006160,-0.0445404465,0.045150591,-1.09813565,-0.14034859,0.8380968200000001,0.459395305,275
1747533006170,-0.02306340875,0.032215557,-1.02443033,-0.3355583,0.8777779050000001,0.42450789,276
1747533006180,-0.0039049166,0.015741693,-0.90874713,-0.4695152999999999,0.7890946350000001,0.362456235,277
1747533006190,-0.01208083485,0.025870069,-0.756211335,-0.535828025,0.52624064,0.27776771,278
1747533006200,-0.0233074684999999,0.046492906,-0.656636,-0.511326955,0.24554346,0.22184132,279
1747533006210,-0.0019524584999999,0.0567433085,-0.656636,-0.416518405,0.1089232919999999,0.197340245,280
1747533006220,0.0309952719999999,0.0624786575,-0.6947089150000001,-0.305464575,0.036485307,0.14487597,281
1747533006230,0.063820975,0.072729065,-0.76036033,-0.20852551,0.0197073919999999,0.0631169175,282
1747533006240,0.111900255,0.11861183,-0.8542004000000001,-0.098803275,0.154463357,-0.1161138275,283
1747533006250,0.1366720599999999,0.19036466,-0.92644135,-0.0149137005,0.3600594,-0.2844256149999999,284
1747533006260,0.1082393869999999,0.2457656549999999,-0.95585025,0.014647386,0.51452275,-0.345145685,285
1747533006270,0.069434287,0.2860351049999999,-0.98233045,0.0290284565,0.65007765,-0.3818973,286
1747533006280,0.0525943375,0.33057554,-1.00771235,-0.000266315,0.713460865,-0.407197325,287
1747533006290,0.070532545,0.39366436,-0.9928249,-0.304133,0.41065946,-0.53795856,288
1747533006300,0.0744374625,0.393420295,-0.96207365,-0.3797667799999999,0.25752769,-0.59335233,289
1747533006310,0.079684695,0.403304595,-0.8960561499999999,-0.505468,-0.066046395,-0.70946615,290
1747533006320,0.0849319219999999,0.44711288,-0.83589605,-0.57550912,-0.421312105,-0.8253136350000001,291
1747533006330,0.087616555,0.5691415,-0.84785485,-0.5049353,-0.88843054,-0.9651296,292
1747533006340,0.1121443075,0.5945234500000001,-0.88116869,-0.47564055,-0.89988214,-0.9717875,293
1747533006350,0.17974817,0.63284045,-0.94462359,-0.41944788,-0.8777779050000001,-1.00214755,294
1747533006360,0.26687659,0.67469627,-1.0123494750000002,-0.37630467,-0.780838835,-1.0641992,295
1747533006370,0.34558505,0.7396155,-1.0721435,-0.3597930649999999,-0.6514092,-1.1424961,296
1747533006380,0.405745185,0.83443173,-1.1160738,-0.416518405,-0.53849118,-1.2298478,297
1747533006390,0.42807645,0.95328766,-1.1282767,-0.5800365,-0.52411014,-1.2900352,298
1747533006400,0.414287195,0.98001193,-1.1146095,-0.6609966,-0.5720470200000001,-1.2879047,299
1747533006410,0.38011916,1.0306538,-1.08422435,-0.80400835,-0.6575344750000001,-1.278051,300
1747533006420,0.329355255,1.07543825,-1.0411482,-0.90174635,-0.718787195,-1.2460931,301
1747533006430,0.22599702,1.1868503,-0.9247329,-0.8479505,-0.62903863,-1.0295781,302
1747533006440,0.20439795,1.20539875,-0.9045982,-0.71958613,-0.44581318,-0.8671253,303
1747533006450,0.17035197,1.2322451,-0.85444444,-0.6348976150000001,-0.35127096,-0.7795073,304
1747533006460,0.166202995,1.2265097,-0.8449262200000001,-0.467384785,-0.179230745,-0.60080915,305
1747533006470,0.14387175,1.2194319999999998,-0.8304047999999999,-0.312655115,-0.0524642716999999,-0.4103930999999999,306
1747533006480,0.0729731159999999,1.21064595,-0.84187545,-0.1206411961,-0.0175768617,-0.0322242399999999,307
1747533006490,0.0279445545,1.1812371000000002,-0.8858057500000001,0.0229031864,-0.068176925,0.366450975,308
1747533006500,0.0527163635,1.1227854000000002,-0.95011485,0.0415453145,-0.12969595,0.578704915,309
1747533006510,0.101405785,1.0111292,-1.036023,-0.0002663155,-0.13422332,0.77737675,310
1747533006520,0.13789234,0.90337793,-1.08837325,-0.0447411075,-0.0527305884999999,0.91266535,311
1747533006530,0.130692645,0.8496853099999999,-1.0801973500000002,-0.0447411075,0.0916127415,0.969656985,312
1747533006540,0.103602295,0.80880573,-1.05591365,-0.0167779147,0.264185585,1.027980185,313
1747533006550,0.081881205,0.7695125,-1.0224778,0.0292947728,0.417317345,1.08523815,314
1747533006560,0.077366147,0.72057903,-0.976228975,0.08016115,0.51638694,1.1302456,315
1747533006570,0.073583262,0.67799103,-0.935593425,0.113450665,0.52517538,1.1454256,316
1747533006580,0.0535705665,0.65321922,-0.91448247,0.1288969999999999,0.4561995,1.1427624,317
1747533006590,0.0336798995,0.6252746899999999,-0.8978866,0.147006495,0.3571299,1.1427624,318
1747533006600,0.027212384,0.58903217,-0.87872813,0.170974945,0.235423445,1.1350392500000002,319
1747533006610,0.005369261,0.5739006499999999,-0.926929425,0.184823385,0.063649555,1.1302455500000002,320
1747533006620,-0.0301410685,0.58793395,-1.023332025,0.15446335,-0.072171665,1.14595825,321
1747533006630,-0.0483233334999999,0.593791285,-1.095695,0.0703074555,-0.119575935,1.1677962,322
1747533006640,-0.04258799,0.563650235,-1.13608645,-0.0607200695,-0.15419703,1.16566565,323
1747533006650,-0.01745009395,0.50190374,-1.12742245,-0.18109495,-0.1808286399999999,1.1198593,324
1747533006660,0.04185581605,0.4106263049999999,-1.04505315,-0.21758026,-0.17789917,0.962200135,325
1747533006670,0.095182325,0.33460249,-0.9499928,-0.169377045,-0.1384843825,0.76645777,326
1747533006680,0.0824913499999999,0.302753015,-0.890076785,-0.059388492,-0.070840085,0.6317018350000001,327
1747533006690,0.01244692,0.294211015,-0.863474585,0.084954838,0.008788431,0.5328985500000001,328
1747533006700,-0.08969104,0.31056285,-0.91277415,0.236488715,0.0460726885,0.4660532,329
1747533006710,-0.163274305,0.32374194,-0.9753748,0.3012035349999999,-0.00745685,0.4189152499999999,330
1747533006720,-0.1961,0.3293552549999999,-1.00173295,0.2649845349999999,-0.116380145,0.3901531,331
1747533006730,-0.20964517,0.33460248,-1.010397,0.23915187,-0.17310548,0.3787015,332
1747533006740,-0.2247767199999999,0.356445595,-1.027603,0.14780544,-0.3051982749999999,0.37950046,333
1747533006750,-0.156440697,0.331185685,-1.0217456500000002,0.086819055,-0.2900182599999999,0.352336225,334
1747533006760,-0.0811490345,0.295797395,-1.00209905,0.0601874399999999,-0.17337179,0.295344575,335
1747533006770,-0.057963595,0.29323478,-0.987455625,0.081226415,-0.00426106,0.2583266349999999,336
1747533006780,-0.0457607325,0.28847566,-0.962439775,0.125967525,0.18695391,0.24208135,337
1747533006790,-0.0563772249999999,0.258822715,-0.92534307,0.1906823349999999,0.3406183149999999,0.23435818,338
1747533006800,-0.16986385,0.20061506,-0.8639627,0.32170987,0.20559604,0.22743396,339
1747533006810,-0.185117425,0.206472425,-0.8786061000000001,0.3057309099999999,0.084422208,0.223705535,340
1747533006820,-0.20952315,0.2157466049999999,-0.90447613,0.251402425,-0.1789644319999999,0.213319205,341
1747533006830,-0.21086546,0.216844875,-0.92363465,0.168045473,-0.46152582,0.18801917,342
1747533006840,-0.190364645,0.21110952,-0.928515795,0.0881506354999999,-0.7017429500000001,0.141946485,343
1747533006850,-0.152291715,0.20268954,-0.914604545,0.113983296,-0.78563255,0.025033714,344
1747533006860,-0.12690976,0.19768637,-0.90374404,0.175502318,-0.678307145,0.0002663159999999,345
1747533006870,-0.08676235,0.18340902,-0.88385332,0.31505197,-0.41891524,-0.041811631,346
1747533006880,-0.1066530175,0.205618225,-0.903011835,0.4902879799999999,-0.0492684749999999,-0.0431432115,347
1747533006890,-0.1031141825,0.23209844,-0.941084785,0.647947105,0.41838262,0.0063915869999999,348
1747533006900,-0.088104665,0.21538052,-0.95023693,0.694286125,0.6697850249999999,0.0367516235,349
1747533006910,-0.087738582,0.186215685,-0.92509898,0.6487461,0.598146,0.01810949555,350
1747533006920,-0.08236932,0.17291457,-0.90227965,0.571780725,0.4048005099999999,-0.01944107595,351
1747533006930,-0.071996888,0.16876559,-0.88202293,0.47750479,0.1438107066999999,-0.0647148135,352
1747533006940,-0.0462488495,0.15997952,-0.8468786500000001,0.38429415,-0.2157160533,-0.129429627,353
1747533006950,-0.004759116,0.142773485,-0.81380889,0.3472762,-0.54275227,-0.23276028,354
1747533006960,0.0186703795,0.1232489075,-0.79953155,0.37950046,-0.54594806,-0.26924559,355
1747533006970,-0.0045150589999999,0.1278859925,-0.81234453,0.44980791,-0.4958806249999999,-0.307062485,356
1747533006980,-0.108117364,0.20134723,-0.9174112,0.5816344,-0.096939065,-0.22903186,357
1747533006990,-0.14887492,0.20061506,-0.9410847,0.56911755,-0.052464274,-0.21491711,358
1747533007000,-0.170596015,0.19414754,-0.94425745,0.51825117,-0.0245010825,-0.194677085,359
1747533007010,-0.203055635,0.18084642,-0.944989625,0.42610578,-0.092145371,-0.193611815,360
1747533007020,-0.21110952,0.15692881,-0.921316075,0.327036185,-0.21225394,-0.21305289,361
1747533007030,-0.200248965,0.095548411,-0.8361400999999999,0.2708434899999999,-0.33023198,-0.2561961,362
1747533007040,-0.20732663,0.049909707,-0.757797735,0.3765709849999999,-0.3536678,-0.33635725,363
1747533007050,-0.234783075,0.050153764,-0.752916605,0.65460503,-0.24341293,-0.3717773,364
1747533007060,-0.244179285,0.0528383945,-0.7967248849999999,0.716124015,-0.193079185,-0.358195175,365
1747533007070,-0.234294965,0.0701664615,-0.881656795,0.8021441,-0.084688526,-0.332362505,366
1747533007080,-0.16425052,0.10323621,-1.0440769,0.721184,0.12996227,-0.30040458,367
1747533007090,-0.155586495,0.09469421,-1.0462734,0.6684534200000001,0.14221281,-0.30173616,368
1747533007100,-0.138258435,0.077610205,-1.0368772,0.5613943699999999,0.14753913,-0.3115898499999999,369
1747533007110,-0.12166254,0.05588911,-1.00161092,0.45939531,0.112119085,-0.337955145,370
1747533007120,-0.131424825,0.034534101,-0.960487245,0.37124467,0.0479369005,-0.374706775,371
1747533007130,-0.205130105,0.025137896,-0.929369955,0.276436125,-0.0854874695,-0.385359425,372
1747533007140,-0.2772490199999999,0.0173280645,-0.908503115,0.193611815,-0.2607234699999999,-0.36085834,373
1747533007150,-0.2923805849999999,0.0008542,-0.893615635,0.136620173,-0.43382893,-0.334226715,374
1747533007160,-0.284692785,-0.030263098,-0.86872175,0.08708537,-0.62717443,-0.32463934,375
1747533007170,-0.2754185999999999,-0.0616244535,-0.83772647,0.0615190209999999,-0.80986728,-0.33182988,376
1747533007180,-0.27236788,-0.0724850029999999,-0.839434895,0.099868544,-0.93690007,-0.339819355,377
1747533007190,-0.26040908,-0.070776603,-0.880314525,0.1808286399999999,-0.896686345,-0.329965665,378
1747533007200,-0.22502078,-0.05515694,-0.98013395,0.26205507,-0.57311225,-0.30839407,379
1747533007210,-0.219773555,-0.051007966,-0.993557075,0.273506655,-0.4364921,-0.303866695,380
1747533007220,-0.2223361549999999,-0.051374051,-0.991482565,0.3059972199999999,-0.172040212,-0.302268785,381
1747533007230,-0.295065205,-0.049299565,-0.934251115,0.3635215,0.064448503,-0.2695119,382
1747533007240,-0.403182565,-0.0341680155,-0.8936156,0.397343635,0.15020229,-0.188285495,383
1747533007250,-0.47395915,-0.01549763525,-0.90984542,0.366717285,0.0719053495,-0.0774979905,384
1747533007260,-0.46871193,-0.05357056475,-0.906916735,0.30333405,-0.0679106055,0.0452737395,385
1747533007270,-0.43588626,-0.10177187,-0.88885653,0.237820285,-0.25592978,0.129695945,386
1747533007280,-0.39061363,-0.141553205,-0.877141765,0.175236005,-0.572313325,0.1270327849999999,387
1747533007290,-0.34619521,-0.17755165,-0.8551765499999999,0.161653885,-0.8412926000000001,0.07962852,388
1747533007300,-0.36413342,-0.159491415,-0.8439499,0.21811289,-0.9153285,0.063915867,389
1747533007310,-0.40208431,-0.103724335,-0.8681116,0.327036185,-0.8823053000000001,0.129962262,390
1747533007320,-0.425391785,-0.0574754815,-0.89483585,0.39840892,-0.8314389,0.19387813,391
1747533007330,-0.42453757,-0.0611363415,-0.8882463249999999,0.503071135,-0.67005133,0.31904671,392
1747533007340,-0.36510962,-0.10067362,-0.889832725,0.5920207,-0.560861735,0.36724992,393
1747533007350,-0.25723633,-0.161931985,-0.94340325,0.65753447,-0.418648945,0.311323535,394
1747533007360,-0.170718035,-0.1982965099999999,-1.03797545,0.645816595,-0.1861549665,0.1137169825,395
1747533007370,-0.138990595,-0.18792408,-1.108386,0.580302825,0.0087884335,-0.0833569425,396
1747533007380,-0.16205401,-0.15436621,-1.13266965,0.49295113,0.0900148475,-0.186687595,397
1747533007390,-0.214770375,-0.1259335375,-1.12412765,0.390952065,0.1230380475,-0.2514024099999999,398
1747533007400,-0.27761512,-0.1214184775,-1.09288835,0.291349835,0.093743275,-0.278034015,399
1747533007410,-0.3415581199999999,-0.14850883,-1.0449311,0.162452832,-0.08282431,-0.275637175,400
1747533007420,-0.3765803199999999,-0.180236275,-1.0006347,0.060187442,-0.30759511,-0.263386635,401
1747533007430,-0.3778006,-0.191829,-0.9862353,0.03834952,-0.38722363,-0.25832662,402
1747533007440,-0.397935335,-0.2106214,-0.98111017,0.0175768629999999,-0.58509647,-0.248739235,403
1747533007450,-0.4240494849999999,-0.207570675,-0.99258085,0.015180018,-0.67244818,-0.204797085,404
1747533007460,-0.43051702,-0.21086545,-0.9967298,0.015978966,-0.72278196,-0.1736381,405
1747533007470,-0.37035687,-0.24161667,-1.053107,-0.0474042695,-0.6969493,-0.259125575,406
1747533007480,-0.364255445,-0.24100653,-1.06347945,-0.1027980225,-0.64847975,-0.3358246099999999,407
1747533007490,-0.386830735,-0.231732345,-1.0510324999999998,-0.14221281,-0.57630808,-0.397343635,408
1747533007500,-0.44320796,-0.22843758,-1.01808477,-0.145941235,-0.4066647,-0.41998051,409
1747533007510,-0.50165965,-0.232464525,-0.982940555,-0.124369627,-0.237021335,-0.4034689,410
1747533007520,-0.539244465,-0.236247405,-0.965002385,-0.112651717,-0.174437055,-0.36778254,411
1747533007530,-0.57451075,-0.24015234,-0.9371798,-0.12463594,-0.16698021,-0.32703619,412
1747533007540,-0.5998927249999999,-0.23844393,-0.9098454,-0.16911073,-0.262321385,-0.265517165,413
1747533007550,-0.621857875,-0.23758973,-0.883365175,-0.21624869,-0.40586576,-0.19387813,414
1747533007560,-0.619417275,-0.24344711,-0.8839752999999999,-0.215449745,-0.41252366,-0.181627585,415
1747533007570,-0.622468,-0.25577199,-0.88665995,-0.197340245,-0.4000068049999999,-0.15606124,416
1747533007580,-0.6245425,-0.2630937,-0.88958865,-0.18002969,-0.38083205,-0.14274544,417
1747533007590,-0.6218578,-0.27554062,-0.895202,-0.082025364,-0.26631612,-0.10705908,418
1747533007600,-0.5981843,-0.2809099,-0.9864794,0.21252026,0.1784318,-0.024501082,419
1747533007610,-0.598428375,-0.277859185,-1.01637645,0.229298175,0.25832663,-0.022370553,420
1747533007620,-0.609532975,-0.26199546,-1.07592645,0.233825545,0.39760995,-0.0042610574999999,421
1747533007630,-0.6358911300000001,-0.238199875,-1.1215651000000002,0.18961707,0.48682584,0.0410126825,422
1747533007640,-0.65858848,-0.22831555,-1.1449946,0.03994742,0.501739545,0.130761208,423
1747533007650,-0.66908295,-0.23441699,-1.1441404,-0.14247912,0.459128975,0.20985709,424
1747533007660,-0.67164552,-0.2410065499999999,-1.129619,-0.280963495,0.4000068,0.236222385,425
1747533007670,-0.67140144,-0.24015234,-1.1133891,-0.405865745,0.36245623,0.24367924,426
1747533007680,-0.6914142,-0.23112221,-1.0902036,-0.5368933,0.3637878,0.2609898,427
1747533007690,-0.71203705,-0.215868635,-1.05005625,-0.55233965,0.415985765,0.316117235,428
1747533007700,-0.74169,-0.19353738,-0.98794377,-0.545948,0.5539375,0.44847634,429
1747533007710,-0.7329038999999999,-0.19158493,-0.977693385,-0.534762725,0.5954828299999999,0.48203217,430
1747533007720,-0.71179295,-0.18572757,-0.95597225,-0.5163869249999999,0.66579028,0.54248593,431
1747533007730,-0.6164886,-0.20085911,-0.9117979,-0.5001417,0.7238472,0.60240704,432
1747533007740,-0.583174775,-0.20525214,-0.9110657,-0.508930125,0.7201188000000001,0.57977017,433
1747533007750,-0.523380755,-0.204642,-0.90240165,-0.529436425,0.71053143,0.52757222,434
1747533007760,-0.49189739,-0.192927255,-0.8864159,-0.5488774999999999,0.70121035,0.4727111,435
1747533007770,-0.49885301,-0.17230442,-0.868721785,-0.56245965,0.694019795,0.442084745,436
1747533007780,-0.52069613,-0.123370942,-0.829672635,-0.5667207000000001,0.6559365749999999,0.4767058349999999,437
1747533007790,-0.5195978800000001,-0.078342377,-0.7873286500000001,-0.55447015,0.59867862,0.54301855,438
1747533007800,-0.49055505,-0.0674818299999999,-0.763533075,-0.5219796,0.54941012,0.59148808,439
1747533007810,-0.44186563,-0.071996885,-0.7488896549999999,-0.46871638,0.51239218,0.61625548,440
1747533007820,-0.39256608,-0.068213995,-0.76414323,-0.40080576,0.516386955,0.60134178,441
1747533007830,-0.36803833,-0.04368625,-0.78488815,-0.27696875,0.6295713,0.57790595,442
1747533007840,-0.355957495,-0.045028565,-0.7780545050000001,-0.2567287299999999,0.646615525,0.57257965,443
1747533007850,-0.338995515,-0.052228252,-0.77536985,-0.2255697549999999,0.6764429249999999,0.557665945,444
1747533007860,-0.334846535,-0.0575975105,-0.7780545050000001,-0.2098571,0.69774822,0.54355117,445
1747533007870,-0.336676965,-0.053936651,-0.772197135,-0.19520971,0.70866719,0.53795855,446
1747533007880,-0.2925026149999999,-0.0333138125,-0.76524148,-0.16431704,0.700677695,0.50786485,447
1747533007890,-0.2591888,-0.0026846298,-0.72558224,-0.083090626,0.6514092,0.48735848,448
1747533007900,-0.26956123,0.0167179221,-0.71606397,-0.0418116291,0.6311692,0.51612064,449
1747533007910,-0.28615713,0.060160112,-0.7313175000000001,0.0258326639,0.6045376,0.5981460000000001,450
1747533007920,-0.2792015,0.0951823225,-0.78403388,0.056725333,0.5941512499999999,0.708667185,451
1747533007930,-0.177185562,0.0673597965,-0.8611559799999999,0.0045273729999999,0.5741775499999999,0.788562035,452
1747533007940,-0.039293217,0.0046370885,-0.905574435,-0.104129605,0.55233963,0.76326198,453
1747533007950,0.0311172975,-0.0305071535,-0.865182985,-0.180296015,0.53849118,0.65753448,454
1747533007960,0.06455314,-0.043442188,-0.78720667,-0.1808286399999999,0.52118065,0.542485935,455
1747533007970,0.0634548825,-0.0347781575,-0.7261923699999999,-0.0972053775,0.52118065,0.44954161,456
1747533007980,0.0229413798,0.0214770399999999,-0.74449665,0.1006674925,0.6085323300000001,0.424507885,457
1747533007990,0.0017084007,0.0917655275,-0.82637785,0.24154872,0.71079773,0.45327002,458
1747533008000,0.0242836959,0.128008025,-0.89800865,0.20240025,0.72597775,0.47643952,459
1747533008010,0.0485673925,0.1313027975,-0.93473925,0.092678007,0.678040835,0.466053185,460
1747533008020,0.056377225,0.122760795,-0.9447456,0.025033714,0.63915867,0.45060685,461
1747533008030,0.059305906,0.10128376,-0.933519,-0.1304949,0.50333744,0.3882889,462
1747533008040,0.058817799,0.116903415,-0.88055855,-0.4958805899999999,0.2042644599999999,0.2231729,463
1747533008050,0.058573739,0.121418475,-0.8378485,-0.587493335,0.21411816,0.1704423099999999,464
1747533008060,0.064065025,0.1154390699999999,-0.75072008,-0.6016080850000001,0.354200435,0.093743275,465
1747533008070,0.0385610445,0.081881205,-0.65285313,-0.536360635,0.4948153349999999,0.011185278,466
1747533008080,-0.0270903554999999,0.066383575,-0.602333275,-0.439421585,0.51478905,-0.0367516244999999,467
1747533008090,-0.100063475,0.09872116,-0.5989165,-0.3502057,0.462857415,-0.0444747925,468
1747533008100,-0.14057698,0.155098385,-0.699712125,-0.2974751,0.36112465,-0.01651159945,469
1747533008110,-0.116659365,0.192927255,-0.807829465,-0.31638354,0.204264458,0.00745685105,470
1747533008120,-0.0252599235,0.192927255,-0.824059315,-0.36831519,0.0471379505,-0.0308926694999999,471
1747533008130,0.0813930864999999,0.16876559,-0.8101480700000001,-0.396811,-0.0852211574999999,-0.165648625,472
1747533008140,0.126665705,0.15277983,-0.76829222,-0.38589204,-0.226102375,-0.33076461,473
1747533008150,0.0724850005,0.20659444,-0.7864745,-0.3137203899999999,-0.408528925,-0.474575325,474
1747533008160,0.040025388,0.2928686849999999,-0.88995475,-0.2897519349999999,-0.563258585,-0.5701828,475
1747533008170,0.1015278174999999,0.338629425,-0.9772052,-0.36778255,-0.6247775799999999,-0.63969128,476
1747533008180,0.16595893,0.34887983,-1.00075672,-0.463922665,-0.66951871,-0.750478805,477
1747533008190,0.19927274,0.359252275,-0.98074402,-0.5427522499999999,-0.7219829799999999,-0.887098975,478
1747533008200,0.14570218,0.47591165,-0.88934463,-0.5651228,-0.96779275,-1.2048141,479
1747533008210,0.14570218,0.5310685749999999,-0.86384064,-0.5305017000000001,-1.052747625,-1.2434299000000002,480
1747533008220,0.14570218,0.5862255,-0.83833665,-0.4958806,-1.1377025,-1.2820457,481
1747533008230,0.23527119,0.7818374299999999,-0.78745072,-0.383228895,-1.4889734,-1.42425855,482
1747533008240,0.25552794,0.8639627,-0.78659654,-0.35792887,-1.6170714,-1.4668691,483
1747533008250,0.2638259,1.0289453,-0.81490713,-0.33076462,-1.8455707,-1.4828482,484
1747533008260,0.18401916,1.1924638,-0.92961407,-0.25406557,-1.9670109,-1.347027,485
1747533008270,0.190242625,1.2522578000000002,-0.983062635,-0.17070863,-1.92732975,-1.2386363,486
1747533008280,0.19646609,1.3120518,-1.0365112,-0.08735169,-1.8876486,-1.1302456,487
1747533008290,0.16022359,1.3968616,-1.1685461,0.0127831735,-1.71161365,-0.9126653,488
1747533008300,0.10689708,1.4409139,-1.2464004,0.04527374,-1.6245283,-0.8165252,489
1747533008310,0.090423212,1.4712991,-1.3074146999999998,0.100933805,-1.29509527,-0.4623247729999999,490
1747533008320,0.063820971,1.50583325,-1.3757507,0.16911073,-0.8133294200000001,0.028495827,491
1747533008330,0.050519852,1.50034195,-1.3779472,0.190416025,-0.51532168,0.309459325,492
1747533008340,0.066261543,1.40882045,-1.3225462,0.200802355,-0.238086605,0.5930859749999999,493
1747533008350,0.106897075,1.26421655,-1.2487189,0.204530775,0.05566007,0.948618,494
1747533008360,0.15290187,1.14401835,-1.22577755,0.20586235,0.260457165,1.25354995,495
1747533008370,0.2151364699999999,1.021135515,-1.23395345,0.196541285,0.32250881,1.37925115,496
1747533008380,0.27310006,0.895690115,-1.24676645,0.167512835,0.35366779,1.42878595,497
1747533008390,0.27993366,0.7431543199999999,-1.26287425,0.117445407,0.38322888,1.44529755,498
1747533008400,0.257358365,0.61282777,-1.2662911,0.001331577,0.409327865,1.4508902,499
1747533008410,0.2583345999999999,0.52252657,-1.24481405,-0.12623384,0.389354165,1.43863965,500
1747533008420,0.30189881,0.422951205,-1.19209765,-0.170176,0.33555831,1.3755227,501
1747533008430,0.36962469,0.331551775,-1.12010075,-0.124635943,0.304399315,1.2349078,502
1747533008440,0.3980573699999999,0.2288036749999999,-1.0865428499999998,0.1768339069999999,0.4018709849999999,0.9057411,503
1747533008450,0.35986242,0.16766733,-1.1391372,0.54381751,0.58642805,0.58296597,504
1747533008460,0.30751214,0.1732806399999999,-1.25689485,0.71985245,0.73316825,0.42743737,505
1747533008470,0.284448715,0.183775105,-1.37709305,0.7819041,0.84581997,0.27776771,506
1747533008480,0.284448715,0.189144365,-1.46165885,0.731836675,0.92278534,0.1123854,507
1747533008490,0.2323425,0.223678455,-1.4730075,0.550741715,1.01226752,-0.09773801,508
1747533008500,0.135207715,0.25076881,-1.41602015,0.36724992,1.081776,-0.2561961,509
1747533008510,0.062600682,0.249060425,-1.34707395,0.263386645,1.08044445,-0.31691618,510
1747533008520,0.024649781,0.251989115,-1.2843512499999998,0.16724652,1.0359697,-0.36991308,511
1747533008530,-0.0147654629999999,0.231610325,-1.1291308999999998,0.0774979879999999,0.87777795,-0.48070058,512
1747533008540,-0.046614934,0.21086545,-1.0067362,0.032490566,0.753142,-0.56459016,513
1747533008550,-0.1364280025,0.20757068,-0.8507836,0.129163312,0.501206915,-0.638626025,514
1747533008560,-0.178649905,0.222702225,-0.8051448999999999,0.21038973,0.3568636,-0.67484503,515
1747533008570,-0.3104408,0.3243521,-0.84663457,0.30945933,0.2412824,-0.63649553,516
1747533008580,-0.34509694,0.4018402749999999,-0.932908785,0.27377297,0.298540365,-0.49614693,517
1747533008590,-0.33753118,0.46614933,-1.0201592,0.181627595,0.3765709849999999,-0.29667615,518
1747533008600,-0.29433304,0.448211135,-0.9995364,0.058323232,0.37284255,-0.21092236,519
1747533008610,-0.2511349,0.43027294,-0.9789136,-0.008522116,0.34834146,-0.18429075,520
1747533008620,-0.13606192,0.35071026,-0.9085031,-0.124103305,0.2412824,-0.21731395,521
1747533008630,-0.101283765,0.30409533,-0.86689132,-0.135821215,0.20692762,-0.228499225,522
1747533008640,-0.079562665,0.25125694,-0.827476055,-0.0833569435,0.22770028,-0.22290659,523
1747533008650,-0.054058678,0.197076235,-0.807707435,-0.0149137015,0.249271875,-0.241548725,524
1747533008660,-0.050519846,0.155586495,-0.8006298000000001,0.0428768945,0.223439215,-0.296409845,525
1747533008670,-0.1175135579999999,0.136672055,-0.79343012,0.0926780074999999,0.0548611199999999,-0.38402784,526
1747533008680,-0.18792408,0.14216335,-0.7947724199999999,0.11584751,-0.18881812,-0.450340555,527
1747533008690,-0.1980524599999999,0.15888127,-0.8173477,0.10439592,-0.348874105,-0.472178475,528
1747533008700,-0.18377511,0.16315227,-0.8437059,0.086819055,-0.42610578,-0.4916195499999999,529
1747533008710,-0.17157225,0.161199815,-0.86066787,0.082557995,-0.430633155,-0.51106063,530
1747533008720,-0.1773075949999999,0.17376877,-0.873846945,0.103863285,-0.358994125,-0.5193164299999999,531
1747533008730,-0.258944735,0.24600971,-0.956216275,0.121706465,-0.1307612115,-0.41278998,532
1747533008740,-0.34424274,0.298237965,-1.05261895,0.083356945,0.1206412035,-0.23782029,533
1747533008750,-0.334846545,0.245155515,-1.0477378000000002,-0.0029294769999999,0.22690133,-0.1366201699999999,534
1747533008760,-0.246985935,0.108361417,-0.9153367,-0.080960097,0.132359106,-0.19467708,535
1747533008770,-0.163884435,-0.00988432,-0.76341108,-0.067111659,-0.0732369289999999,-0.3499393699999999,536
1747533008780,-0.14985114,-0.036120474,-0.71777236,-0.023435818,-0.15659387,-0.4149205,537
1747533008790,-0.14985114,-0.036120474,-0.71777236,-0.023435818,-0.15659387,-0.4149205,538
1747533008800,-0.163030235,-0.02745644,-0.6687168800000001,0.48629322,-0.231428705,-0.64927867,539
1747533008810,-0.20866894,0.0129350335,-0.7562113699999999,0.76485988,-0.071905348,-0.6458165499999999,540
1747533008820,-0.23002395,0.0359984435,-0.848831085,0.93237273,0.0556600669999999,-0.6210491499999999,541
1747533008830,-0.252355195,0.04429639,-0.902523695,0.83942837,-0.020240024,-0.57364494,542
1747533008840,-0.29213652,0.06626154,-0.95670441,0.763528285,-0.085487472,-0.544083835,543
1747533008850,-0.320569185,0.0740713725,-0.98123218,0.603206,-0.22849923,-0.49348375,544
1747533008860,-0.34521897,0.0410016175,-0.97586293,0.370445715,-0.45273742,-0.457264765,545
1747533008870,-0.35876414,0.01415532,-0.97037166,0.22210763,-0.5992113,-0.44208476,546
1747533008880,-0.32215558,-0.0521062234999999,-0.92094995,0.03888215,-0.76752305,-0.5294364,547
1747533008890,-0.30897649,-0.07968469,-0.8685997000000001,0.0455400549999999,-0.75607145,-0.5528722500000001,548
1747533008900,-0.3034851899999999,-0.088836835,-0.8036805,0.098536965,-0.69508505,-0.598678635,549
1747533008910,-0.3082443,-0.08236932,-0.7754919,0.309725635,-0.48176585,-0.642887085,550
1747533008920,-0.32142339,-0.06125837,-0.8080735299999999,0.52517537,-0.24208135,-0.65353975,551
1747533008930,-0.33679899,-0.045760735,-0.85163773,0.59415127,-0.12250541,-0.6213155,552
1747533008940,-0.3441207,-0.04515059,-0.8710403,0.6125271,-0.07882957,-0.6002765,553
1747533008950,-0.24918245,-0.065163285,-0.8993509,0.4910869,-0.17310548,-0.5438175,554
1747533008960,-0.215990665,-0.0645531425,-0.8765316,0.333694085,-0.401604715,-0.59814598,555
1747533008970,-0.1524137549999999,-0.06369894,-0.83052685,0.11318435,-0.758201975,-0.71372718,556
1747533008980,-0.120198195,-0.0707766,-0.789891275,0.0173105475,-0.9539443,-0.8314389,557
1747533008990,-0.13838045,-0.11177822,-0.737541,0.034621093,-1.0104034,-0.97738016,558
1747533009000,-0.21513646,-0.123615,-0.76633977,0.2106560465,-0.789361,-0.9534117,559
1747533009010,-0.30629185,-0.1291062875,-0.82515757,0.48123322,-0.429035275,-0.880973695,560
1747533009020,-0.345341015,-0.119954135,-0.8963002499999999,0.638626035,-0.1587244129999999,-0.7733819749999999,561
1747533009030,-0.41074833,-0.11373068,-1.03163,0.7281082,0.21145499,-0.60080916,562
1747533009040,-0.44210969,-0.147288545,-1.04554125,0.52837116,0.40533313,-0.46392268,563
1747533009050,-0.474203245,-0.201103165,-1.0444429999999998,0.44128579,0.362988865,-0.4591289899999999,564
1747533009060,-0.48042672,-0.23514916,-1.00002455,0.24900556,0.20905815,-0.4681837399999999,565
1747533009070,-0.5153269,-0.27029341,-0.921682165,0.094009587,0.0015978949999999,-0.490287975,566
1747533009080,-0.5624299500000001,-0.299458235,-0.831625065,0.0410126819999999,-0.17816549,-0.497744815,567
1747533009090,-0.65065664,-0.26187342,-0.76853627,0.20293288,-0.46818373,-0.39254996,568
1747533009100,-0.64760592,-0.24234885,-0.810636165,0.25193504,-0.449275285,-0.34088463,569
1747533009110,-0.5973301200000001,-0.220139645,-0.903499965,0.3371561899999999,-0.3747067699999999,-0.260723475,570
1747533009120,-0.532654945,-0.228681645,-0.999292435,0.384027825,-0.236755025,-0.226368695,571
1747533009130,-0.521916425,-0.237345675,-1.0759264000000002,0.3752394,-0.0601874435,-0.206394985,572
1747533009140,-0.5214283,-0.210133295,-1.1148535000000002,0.28309403,0.1685781015,-0.140881225,573
1747533009150,-0.4927516,-0.17084008,-1.1231514,0.08735169,0.35579833,-0.066046394,574
1747533009160,-0.4917753649999999,-0.16364039,-1.1083859500000002,0.0146473884999999,0.358195165,-0.0479368995,575
1747533009170,-0.49934113,-0.1398448,-1.0240642,-0.17576863,0.30253512,0.015978966,576
1747533009180,-0.513252415,-0.137526255,-0.989896215,-0.20373183,0.26471822,0.048735848,577
1747533009190,-0.5307025000000001,-0.1666911,-0.897764615,-0.197340245,0.138218059,0.154463345,578
1747533009200,-0.52081815,-0.21708892,-0.82381525,-0.051665325,-0.021837922,0.27004454,579
1747533009210,-0.48982288,-0.24637579,-0.8083176,0.0077231675,-0.064714816,0.2761698099999999,580
1747533009220,-0.46675948,-0.2632157499999999,-0.8252796,0.12117383,-0.156593875,0.2820287649999999,581
1747533009230,-0.4737151,-0.23868799,-0.9884319,0.22423817,-0.2146508,0.34088463,582
1747533009240,-0.4506517,-0.22526483,-1.0254065,0.2082591999999999,-0.17204022,0.35606465,583
1747533009250,-0.4033046,-0.21159762,-1.08483445,0.1669802,-0.057790601,0.378168885,584
1747533009260,-0.3632792099999999,-0.2130619799999999,-1.10850805,0.12463594,0.0969390639999999,0.38908785,585
1747533009270,-0.33362624,-0.21159762,-1.0618931,0.11930962,0.3270362,0.40266997,586
1747533009280,-0.3304535,-0.215258485,-1.04346675,0.157392825,0.4008057499999999,0.40266997,587
1747533009290,-0.3275248,-0.22453266,-1.018939,0.20133498,0.4745753,0.38456047,588
1747533009300,-0.3295993,-0.22794946,-1.01430195,0.1912149699999999,0.4245078799999999,0.361390965,589
1747533009310,-0.338995515,-0.22868164,-1.0103971,0.163518095,0.31664987,0.31957933,590
1747533009320,-0.34631723,-0.22599702,-1.0111293,0.14594123,0.25885928,0.3009372,591
1747533009330,-0.368892525,-0.1973202849999999,-1.0178408,0.0732369294999999,0.0735032499999999,0.2673813849999999,592
1747533009340,-0.376580325,-0.175965275,-1.0213796,0.0300937204999999,-0.04713795,0.2649845349999999,593
1747533009350,-0.3743838,-0.1798702,-1.02638275,0.015978967,-0.10466223,0.2727077,594
1747533009360,-0.375238015,-0.18572757,-1.03468065,0.038882152,-0.07536746,0.2812298199999999,595
1747533009370,-0.38121742,-0.183287,-1.0819057,0.09054748,0.011185277,0.30146983,596
1747533009380,-0.3715771599999999,-0.1867038,-1.1052132,0.092411695,0.0870853685,0.313187745,597
1747533009390,-0.3521746,-0.20183535,-1.1502419,0.032490566,0.22583607,0.30626354,598
1747533009400,-0.35071027,-0.19707623,-1.14865545,-0.044208474,0.25726137,0.28336033,599
1747533009410,-0.355713445,-0.184629305,-1.13193745,-0.08362326,0.255130845,0.2743055949999999,600
1747533009420,-0.3857324749999999,-0.165348785,-1.1072877,-0.158724403,0.24021714,0.27297403,601
1747533009430,-0.41282283,-0.14045495,-1.07019105,-0.2282329149999999,0.22929817,0.3294330399999999,602
1747533009440,-0.408673855,-0.1465563799999999,-1.03394855,-0.25806032,0.24128239,0.38402784,603
1747533009450,-0.39842345,-0.174622965,-1.0205254,-0.247407665,0.2644519,0.388555215,604
1747533009460,-0.398911565,-0.18682582,-1.0128376,-0.232493965,0.2857572,0.3845604649999999,605
1747533009470,-0.407087475,-0.20073707,-1.0112512,-0.2159823699999999,0.29614352,0.3802994,606
1747533009480,-0.426734085,-0.21355009,-1.02333205,-0.221042375,0.29774142,0.367249915,607
1747533009490,-0.4489433,-0.21196372,-1.0365112,-0.25726136,0.2873551,0.35446675,608
1747533009500,-0.45894965,-0.197930425,-1.0322402,-0.28016454,0.2775014,0.35313517,609
1747533009510,-0.456509075,-0.170229935,-1.01735265,-0.379500465,0.20772657,0.360592015,610
1747533009520,-0.45541081,-0.14289552,-0.998560235,-0.445014225,0.165648625,0.37923415,611
1747533009530,-0.457851385,-0.1303265699999999,-0.95670441,-0.47697215,0.15765914,0.44687845,612
1747533009540,-0.45211605,-0.1360619149999999,-0.916678995,-0.45859635,0.195476025,0.517984835,613
1747533009550,-0.4275883,-0.158393155,-0.914604545,-0.415719465,0.267914005,0.5344964350000001,614
1747533009560,-0.38866117,-0.1841412,-0.927783625,-0.37870152,0.3619235899999999,0.51665326,615
1747533009570,-0.3704789,-0.2203837,-0.9205839,-0.30679616,0.64768076,0.4101268,616
1747533009580,-0.37487194,-0.21940747,-0.89861876,-0.2743056,0.74302197,0.37071204,617
1747533009590,-0.3590082,-0.22062775,-0.8576172,-0.24181503,0.7978831,0.32863408,618
1747533009600,-0.352052575,-0.19439159,-0.806487175,-0.207193935,0.7496798650000001,0.28655614,619
1747533009610,-0.34241232,-0.11348662,-0.7285109,-0.16831179,0.5406217,0.2625877,620
1747533009620,-0.34704942,-0.07687803,-0.7150877,-0.170708635,0.43036683,0.2868224499999999,621
1747533009630,-0.34582913,-0.066017485,-0.7149657,-0.180828645,0.19893813,0.3390204,622
1747533009640,-0.32996541,-0.055034912,-0.72704655,-0.196807605,-0.030360035,0.388022575,623
1747533009650,-0.2673647249999999,-0.0805388895,-0.7530386499999999,-0.2050634,-0.292415085,0.3933489,624
1747533009660,-0.190974795,-0.1116561849999999,-0.7834238,-0.20799288,-0.49667955,0.342482525,625
1747533009670,-0.15729489,-0.1208083375,-0.80453475,-0.20506341,-0.54088802,0.27723508,626
1747533009680,-0.147044485,-0.117025455,-0.79940955,-0.145674918,-0.46605319,0.22610238,627
1747533009690,-0.128374105,-0.10421245,-0.78208145,-0.015978968,-0.308660375,0.1901497,628
1747533009700,-0.058939822,-0.1087275,-0.77256318,0.21971079,-0.0159789699999999,0.078829568,629
1747533009710,-0.014765463,-0.108117355,-0.78147128,0.4889564,0.37124467,-0.103863284,630
1747533009720,-0.052716366,-0.0665056,-0.8156393,0.5174522,0.443948955,-0.123038047,631
1747533009730,-0.1232489049999999,0.003538831,-0.8689658,0.54168697,0.56778595,-0.127831735,632
1747533009740,-0.200615045,0.061380396,-0.91436045,0.507065895,0.63436498,-0.0748348264999999,633
1747533009750,-0.241860725,0.081271062,-0.9365697,0.4306331599999999,0.63063655,0.0047936885,634
1747533009760,-0.22916975,0.077000062,-0.93156655,0.2213086915,0.4495416,0.1041295999999999,635
1747533009770,-0.18951045,0.06809197,-0.908259075,-0.0159789659999999,0.18216022,0.16724652,636
1747533009780,-0.15595258,0.061868508,-0.8812907249999999,-0.1480717575,-0.02396845,0.172306525,637
1747533009790,-0.135573795,0.0558891054999999,-0.844682115,-0.236222395,-0.196008655,0.16591494,638
1747533009800,-0.0945721779999999,0.0512520204999999,-0.8257676949999999,-0.26871296,-0.308660375,0.14407702,639
1747533009810,-0.0462488454999999,0.053448538,-0.8315030649999999,-0.241282395,-0.29055088,0.0759000925,640
1747533009820,-0.032215556,0.056377225,-0.845536385,-0.175236005,-0.14514228,-0.007190535,641
1747533009830,-0.033435842,0.060038085,-0.8623763,-0.1027980249999999,0.048469535,-0.0665790275,642
1747533009840,-0.0744374585,0.091033352,-0.8757994,-0.03062635385,0.356064655,-0.13022858,643
1747533009850,-0.13972277,0.129838452,-0.871040335,0.0039947417,0.58003648,-0.153398085,644
1747533009860,-0.17816179,0.146800435,-0.852125915,-0.01145159295,0.5725796,-0.127299105,645
1747533009870,-0.1898765399999999,0.138746545,-0.8441940299999999,-0.054861121,0.46685213,-0.109455925,646
1747533009880,-0.16107778,0.11836776,-0.8681116,-0.19441076,0.18056233,-0.13582122,647
1747533009890,-0.15680678,0.113120533,-0.8517598,-0.29374668,-0.0423442649999999,-0.1933455,648
1747533009900,-0.16083373,0.119954138,-0.831381,-0.39840891,-0.3336941,-0.27004454,649
1747533009910,-0.173402675,0.154000125,-0.8221068300000001,-0.38402784,-0.440220535,-0.28336035,650
1747533009920,-0.177307585,0.1889003149999999,-0.82039845,-0.313986705,-0.475906895,-0.24820662,651
1747533009930,-0.18743597,0.18011424,-0.84565836,-0.212253945,-0.44874266,-0.18961707,652
1747533009940,-0.1572949,0.19341536,-0.8596916800000001,-0.0591221799999999,-0.3882889,-0.132625423,653
1747533009950,-0.12605557,0.19719825,-0.9000831499999999,0.0599211275,-0.37284257,-0.1145159279999999,654
1747533009960,-0.12495731,0.18768002,-0.9264413,0.0684432425,-0.42717105,-0.146740175,655
1747533009970,-0.13935669,0.20110317,-0.9928249,0.041545314,-0.51532168,-0.191481285,656
1747533009980,-0.15058333,0.22062775,-1.0269929,-0.0023968454999999,-0.62078285,-0.227966595,657
1747533009990,-0.147044495,0.223800495,-1.05652385,-0.1017327545,-0.7089334700000001,-0.273506645,658
1747533010000,-0.14643435,0.199272745,-1.08446835,-0.20106866,-0.7206513999999999,-0.3435477799999999,659
1747533010010,-0.14936304,0.17157225,-1.0828819,-0.22690132,-0.6956177,-0.38242993,660
1747533010020,-0.181212505,0.1607117,-1.0499343,-0.25060346,-0.50999536,-0.55047541,661
1747533010030,-0.291404345,0.142773485,-0.978303465,-0.211454995,-0.318780395,-0.674578715,662
1747533010040,-0.41209066,0.163274295,-0.8953239900000001,0.0146473849999999,0.039414775,-0.82344943,663
1747533010050,-0.49909708,0.28408262,-0.8668914,0.43356264,0.39361522,-0.8948221,664
1747533010060,-0.51898776,0.31861673,-0.8797043499999999,0.5257080199999999,0.37763626,-0.85434205,665
1747533010070,-0.54278335,0.399643745,-0.8973985,0.68975875,0.23968451,-0.72997245,666
1747533010080,-0.40123013,0.6472398,-0.9830626,0.7078682,-0.7771104,-0.2615224,667
1747533010090,-0.23527117,0.733148,-1.0606729,0.6343649499999999,-1.0484865,-0.170974935,668
1747533010100,-0.130570619,0.7558453199999999,-1.0980135999999998,0.4647216,-1.5393071,-0.022636871,669
1747533010110,-0.025870068,0.77854264,-1.1353543,0.3685815,-1.7587516,0.035153728,670
1747533010120,0.37291947,0.84663457,-1.1907552,0.08362326,-2.0996363,0.07350325,671
1747533010130,0.5793919,0.9276616,-1.1448725,0.07403588,-1.743838,-0.0026631611,672
1747533010140,0.59745216,0.9589009,-1.0953289,0.18162759,-1.4711303,-0.006924219,673
1747533010150,0.5710939,1.0047837,-1.0301657,0.4133226,-1.1472899,0.06764429,674
1747533010160,0.550105025,1.00368545,-1.0323622,0.52304485,-1.0620687,0.123304365,675
1747533010170,0.50043939,0.96719888,-1.06982495,0.82344945,-0.91186638,0.3123888099999999,676
1747533010180,0.4502856,0.87958235,-1.1844097,1.1680624,-0.77870834,0.55127436,677
1747533010190,0.42270714,0.8254016,-1.2832531,1.3203954,-0.6087986,0.6269081,678
1747533010200,0.419290335,0.7992874649999999,-1.34365725,1.448227,-0.36645097,0.6583334,679
1747533010210,0.405012995,0.751452265,-1.46239105,1.48204915,-0.21997711,0.65353975,680
1747533010220,0.3773124949999999,0.71081675,-1.5841756,1.50841445,0.0793622,0.62664185,681
1747533010230,0.28591305,0.6716455299999999,-1.7287795,1.3214605499999998,0.5089300999999999,0.55793225,682
1747533010240,0.164372552,0.6589545299999999,-1.81786035,0.8586032,0.8740495,0.53795856,683
1747533010250,0.083711635,0.6545615199999999,-1.81712825,0.69002507,0.8567389350000001,0.56592175,684
1747533010260,0.02464978212,0.60770255,-1.79089205,0.342748835,0.7853662100000001,0.62264707,685
1747533010270,-0.03477815588,0.4933617299999999,-1.701201,-0.011717905,0.674312425,0.67457872,686
1747533010280,-0.058817795,0.369746735,-1.55647515,-0.45087317,0.4886900899999999,0.72411352,687
1747533010290,-0.020988923,0.20403185,-1.3630598,-0.85487473,0.22690132,0.6785734,688
1747533010300,-0.0268462955,0.15302389,-1.3120518,-0.90148005,0.192546545,0.601075425,689
1747533010310,-0.047591161,0.0492995642,-1.2100358,-0.955808535,0.15419703,0.44821,690
1747533010320,-0.111656192,-0.1011617308,-1.075560235,-0.90973585,0.15925704,0.220776055,691
1747533010330,-0.23917611,-0.26699865,-0.9776934,-0.76592517,0.24181503,-0.08681905,692
1747533010340,-0.309708655,-0.2772490549999999,-0.98184235,-0.66632295,0.37816888,-0.20133498,693
1747533010350,-0.4761556999999999,-0.241738715,-0.96768698,-0.5491438399999999,0.52970274,-0.24181503,694
1747533010360,-0.595499675,-0.177917735,-0.93327488,-0.371244655,0.7126619,-0.2695119099999999,695
1747533010370,-0.6282034,-0.13789235,-0.88373125,-0.20026971,0.71958613,-0.21518342,696
1747533010380,-0.6224680300000001,-0.11641531,-0.8779959399999999,-0.142479115,0.674578715,-0.18642128,697
1747533010390,-0.59989274,-0.04344219,-0.88373125,-0.013315806,0.5363607,-0.0958738,698
1747533010400,-0.56462647,0.0004881135,-0.9030118,0.018109496,0.415719475,-0.0330231975,699
1747533010410,-0.5153269,0.0478352195,-0.931810575,0.0410126819999999,0.221308685,0.0492684825,700
1747533010420,-0.4992191,0.063210826,-0.95353167,0.01917476025,0.07510114055,0.092411695,701
1747533010430,-0.49336172,0.08688438,-0.975130735,-0.00692421925,-0.0540621694499999,0.147805445,702
1747533010440,-0.4726168699999999,0.104334475,-0.989896215,-0.041545313,-0.2050634,0.24873926,703
1747533010450,-0.400986065,0.101649845,-1.0133257,-0.0524642765,-0.23568976,0.272441395,704
1747533010460,-0.32337585,0.08615221,-1.0213796,-0.1086569749999999,-0.304133,0.28495824,705
1747533010470,-0.28164205,0.087616555,-0.96817505,-0.14594123,-0.32277513,0.23276028,706
1747533010480,-0.284814805,0.0942060975,-0.958534775,-0.12117383,-0.286822455,0.21225394,707
1747533010490,-0.2979939,0.110557935,-0.94425745,-0.060453756,-0.186154965,0.17630127,708
1747533010500,-0.324840205,0.1425294349999999,-0.909601375,0.077231679,0.0412789999999999,0.1464738649999999,709
1747533010510,-0.350710275,0.176087305,-0.8786061249999999,0.23196134,0.277767705,0.1454085949999999,710
1747533010520,-0.36657399,0.188900305,-0.8776299,0.328101455,0.4016047,0.174437055,711
1747533010530,-0.365231675,0.18523944,-0.8765316,0.406132075,0.46978162,0.201601305,712
1747533010540,-0.3522966349999999,0.173646725,-0.88116868,0.45327002,0.47004793,0.22184133,713
1747533010550,-0.35717778,0.183286995,-0.91582483,0.467118455,0.41891524,0.2790992949999999,714
1747533010560,-0.3647435599999999,0.20879098,-0.9673209,0.449275285,0.370179385,0.369646775,715
1747533010570,-0.35827604,0.21269589,-1.00197705,0.39308259,0.329433025,0.4532700349999999,716
1747533010580,-0.338629425,0.19048668,-1.02528455,0.3086603799999999,0.26365295,0.5257080249999999,717
1747533010590,-0.309830675,0.132279028,-1.04249055,0.15659388,0.1078580245,0.58110178,718
1747533010600,-0.294455075,0.077366148,-1.0421244,0.0082558,-0.0604537555,0.6093312799999999,719
1747533010610,-0.2802997499999999,0.057231425,-1.01881695,-0.054594805,-0.14647386,0.607999685,720
1747533010620,-0.25711431,0.041367702,-0.988675885,-0.0625842875,-0.17630127,0.594683885,721
1747533010630,-0.21940747,0.012446919,-0.9447456,0.022370555,-0.09534117,0.56459016,722
1747533010640,-0.2113535799999999,0.0220871795,-0.952067315,0.1249022575,0.092944325,0.5483448799999999,723
1747533010650,-0.2064724299999999,0.036608585,-0.974276515,0.259391895,0.382163625,0.52996905,724
1747533010660,-0.204764025,0.04515059,-0.9962417,0.2977414149999999,0.56112805,0.52224587,725
1747533010670,-0.19304928,0.0483233349999999,-0.99599765,0.2897519349999999,0.6807039850000001,0.49960902,726
1747533010680,-0.1834090199999999,0.0492995625,-0.98098812,0.248472935,0.73023878,0.46232478,727
1747533010690,-0.1791380149999999,0.0728510875,-0.95670442,0.138484375,0.6857639799999999,0.4181163,728
1747533010700,-0.168277475,0.097012758,-0.92192627,0.0284958233499999,0.59947755,0.38695732,729
1747533010710,-0.149973185,0.096158558,-0.88910057,-0.01304948965,0.5387575,0.37603836,730
1747533010720,-0.145214065,0.0967687,-0.8671354,-0.0338221465,0.49108693,0.37923415,731
1747533010730,-0.15094941,0.098843185,-0.85200385,-0.0423442635,0.4490089699999999,0.40027313,732
1747533010740,-0.14643434,0.080294835,-0.8299166499999999,-0.054062175,0.364586755,0.43356264,733
1747533010750,-0.15277983,0.058817793,-0.8122225,-0.0721716675,0.26258768,0.45912898,734
1747533010760,-0.15277983,0.058817793,-0.8122225,-0.080960095,0.22370553,0.46552056,735
1747533010770,-0.149729115,0.0575975115,-0.81685962,-0.14194649,0.060720075,0.48016795,736
1747533010780,-0.12373702,-0.015375607,-0.70312893,-0.19600865,-0.08362326,0.45220476,737
1747533010790,-0.14960709,-0.0281886124999999,-0.6700591650000001,-0.15792545,-0.153930715,0.4061320699999999,738
1747533010800,-0.201957375,-0.047103051,-0.6075805000000001,-0.072970615,-0.272175065,0.34221621,739
1747533010810,-0.2472299949999999,-0.0590618549999999,-0.5614536999999999,0.032490567,-0.38083203,0.30919302,740
1747533010820,-0.2666325499999999,-0.0651632809999999,-0.56548065,0.139283327,-0.48735848,0.271908755,741
1747533010830,-0.28994003,-0.088104665,-0.6648119,0.32011196,-0.572047,0.15180019,742
1747533010840,-0.30751213,-0.07907455,-0.74364245,0.40107206,-0.479369,0.12676647,743
1747533010850,-0.3120272,-0.07285109,-0.7741495949999999,0.420779455,-0.4133226,0.1249022579999999,744
1747533010860,-0.317884585,-0.06491923,-0.82454737,0.4506068749999999,-0.274571905,0.122505413,745
1747533010870,-0.3283790399999999,-0.0699224025,-0.8498072999999999,0.462857415,-0.142212805,0.12543489,746
1747533010880,-0.33753118,-0.076633975,-0.8551766,0.46498793,-0.082558,0.128897,747
1747533010890,-0.413921105,-0.116781395,-0.8655490299999999,0.334759355,-0.101732755,0.120374885,748
1747533010900,-0.44064537,-0.11055793,-0.85639688,0.24234767,-0.1821602199999999,0.12144015,749
1747533010910,-0.45223807,-0.11531705,-0.82674393,0.1749696849999999,-0.2825613999999999,0.13954964,750
1747533010920,-0.4391810149999999,-0.132279025,-0.77097683,0.175502315,-0.38456048,0.15526229,751
1747533010930,-0.391223775,-0.158637205,-0.6962953000000001,0.35686359,-0.4410194899999999,0.141680175,752
1747533010940,-0.34399869,-0.1659589249999999,-0.66212728,0.7483483,-0.37444046,0.11664646,753
1747533010950,-0.31971499,-0.1460682649999999,-0.68921763,0.8655274,-0.33422673,0.1209075199999999,754
1747533010960,-0.2833504599999999,-0.1243471724999999,-0.76011628,1.07485185,-0.249005575,0.13528859,755
1747533010970,-0.24503347,-0.0892029225,-0.873358845,1.21386885,-0.1478054449999999,0.15552861,756
1747533010980,-0.20574026,-0.01488749,-1.015644215,1.2258531,-0.027430558,0.2069276199999999,757
1747533010990,-0.16547082,0.05357057,-1.1259581,1.10441295,0.027696876,0.2681803299999999,758
1747533011000,-0.14765464,0.07248501,-1.155367,1.0178602,0.018642128,0.28815404,759
1747533011010,-0.04405233362,0.0927417575,-1.1707426,0.8490158,-0.043675844,0.31318775,760
1747533011020,0.04258799138,0.087006412,-1.1571974,0.62025023,-0.165115985,0.2641855899999999,761
1747533011030,0.12666571,0.061868512,-1.1236395,0.485494275,-0.243412915,0.151533865,762
1747533011040,0.1758432449999999,0.0273344105,-1.09423065,0.40373522,-0.27856666,0.00479369,763
1747533011050,0.18377511,0.013179091,-1.0887394,0.40373522,-0.27856666,0.00479369,764
1747533011060,0.1973202849999999,-0.0345341015,-1.0865429,0.40959418,-0.19414445,-0.0884169485,765
1747533011070,0.209401125,-0.07980672,-1.1141213,0.36112465,-0.0676442925,-0.20746025,766
1747533011080,0.193171315,-0.1172695,-1.14426235,0.25939189,0.0428768975,-0.32836777,767
1747533011090,0.124835282,-0.1443598549999999,-1.13633055,0.14993597,0.039148471,-0.38349521,768
1747533011100,0.033923958,-0.1701079,-1.10301675,0.0308926675,-0.054062172,-0.420246835,769
1747533011110,-0.069800374,-0.185727565,-1.0637235,-0.0846885225,-0.208259208,-0.43729107,770
1747533011120,-0.129716425,-0.217455015,-1.05615775,-0.2000034,-0.412523685,-0.42983422,771
1747533011130,-0.13764829,-0.269317195,-1.0765365,-0.444747895,-0.73290197,-0.507864835,772
1747533011140,-0.14057698,-0.3132475,-1.07812285,-0.62903863,-0.93423694,-0.5949502,773
1747533011150,-0.14057698,-0.36083866,-0.9962417,-0.833569425,-0.97897807,-0.796551495,774
1747533011160,-0.18633771,-0.3840240849999999,-0.906550665,-0.707069275,-0.646615535,-0.92891062,775
1747533011170,-0.238687985,-0.373773675,-0.895568115,-0.44687845,-0.2039981465,-0.98110858,776
1747533011180,-0.26455804,-0.362302985,-0.922658425,-0.27057718,0.0657800835,-0.96619488,777
1747533011190,-0.3441207,-0.35119838,-1.001855,-0.17896443,0.22610239,-0.92970957,778
1747533011200,-0.357787915,-0.3653536899999999,-1.03175205,-0.2711098,0.1257012129999999,-0.92038849,779
1747533011210,-0.389637395,-0.3585200899999999,-1.08300405,-0.50626695,-0.136353842,-0.9467538,780
1747533011220,-0.42124282,-0.3200810899999999,-1.09325445,-0.788029415,-0.39281626,-0.95101485,781
1747533011230,-0.422463105,-0.31227125,-1.06714035,-1.046356065,-0.61146178,-0.94302535,782
1747533011240,-0.411724565,-0.33753117,-1.0372433,-1.2258531,-0.70573767,-0.95154748,783
1747533011250,-0.43137118,-0.363035155,-1.00209905,-1.3488911,-0.6846987,-0.96273277,784
1747533011260,-0.44955346,-0.37291947,-0.9818423,-1.3638048500000002,-0.50227218,-0.98350542,785
1747533011270,-0.5519354750000001,-0.473349035,-0.775980035,-1.2644689,-0.283626665,-1.0082728,786
1747533011280,-0.610265175,-0.4849417649999999,-0.68811945,-1.09509183,-0.14807176,-1.0231865,787
1747533011290,-0.6751844,-0.477375985,-0.62564075,-0.8825716100000001,-0.03648530825,-1.02611595,788
1747533011300,-0.771464975,-0.4252697549999999,-0.6227120500000001,-0.5616606799999999,0.02130528925,-0.9659285,789
1747533011310,-0.8550546,-0.36181487,-0.66749657,-0.299073,0.009321064,-0.8625978750000001,790
1747533011320,-0.88885653,-0.33362624,-0.74364245,-0.18002969,-0.040480047,-0.72970617,791
1747533011330,-0.897520565,-0.33435841,-0.761946725,-0.15925703,-0.046072686,-0.6854976850000001,792
1747533011340,-0.90386605,-0.34412071,-0.80807355,-0.111053815,-0.0551274345,-0.592819675,793
1747533011350,-0.87982637,-0.35119838,-0.8644508,-0.0268979275,-0.050600062,-0.4546016149999999,794
1747533011360,-0.871894535,-0.3409479749999999,-0.88727015,0.0556600675,-0.02423476725,-0.316649865,795
1747533011370,-0.8571291,-0.321545425,-0.9362036,0.100933805,0.03302319775,-0.211987625,796
1747533011380,-0.8284523500000001,-0.30739011,-0.98172025,0.137152795,0.137419115,-0.088416945,797
1747533011390,-0.73693085,-0.3069019899999999,-0.99477735,0.180562325,0.30626353,0.031957935,798
1747533011400,-0.643090825,-0.3142237049999999,-0.9876997,0.2079928899999999,0.41864893,0.095873805,799
1747533011410,-0.589886325,-0.31678632,-0.99404515,0.193345505,0.416518405,0.10093381,800
1747533011420,-0.5608435,-0.31654227,-1.0011228,0.17789917,0.40533313,0.09534117,801
1747533011430,-0.52911615,-0.279567585,-1.0380975,0.0588558605,0.313720375,0.08628642,802
1747533011440,-0.5588911249999999,-0.24503348,-1.0493242,-0.0732369294999999,0.2322276549999999,0.14114754,803
1747533011450,-0.5802461,-0.2339288749999999,-1.0500563500000002,-0.1920139149999999,0.167779155,0.2330266,804
1747533011460,-0.5718261,-0.24259292,-1.0440769,-0.22530343,0.15339808,0.2727077,805
1747533011470,-0.516547185,-0.293356785,-1.0055158,-0.244478195,0.160854935,0.30146985,806
1747533011480,-0.49336174,-0.31190516,-0.9852591,-0.2277002799999999,0.180828635,0.29161614,807
1747533011490,-0.50995764,-0.324352085,-0.9728122,-0.184557065,0.24421188,0.25592978,808
1747533011500,-0.5490067700000001,-0.32947728,-0.95560615,-0.139815955,0.330231985,0.215449735,809
1747533011510,-0.5969640199999999,-0.32630454,-0.92241435,-0.1014664399999999,0.39201732,0.203199195,810
1747533011520,-0.65443953,-0.31556602,-0.89044285,-0.052464275,0.439954225,0.224238165,811
1747533011530,-0.68775335,-0.29360085,-0.89727645,-0.005592639,0.46152583,0.276968755,812
1747533011540,-0.67359802,-0.2784693,-0.936203615,-0.008522114,0.45566687,0.36751623,813
1747533011550,-0.6157564,-0.28871974,-0.97549677,-0.108124346,0.42344263,0.4383563,814
1747533011560,-0.6014790999999999,-0.29225856,-0.968297135,-0.144875968,0.405865765,0.43409526,815
1747533011570,-0.5780495999999999,-0.28579104,-0.94181695,-0.204264455,0.36538572,0.423708945,816
1747533011580,-0.56047745,-0.249182455,-0.89544605,-0.2245044749999999,0.309725645,0.417051035,817
1747533011590,-0.56767714,-0.2111095,-0.86347455,-0.18429075,0.30040458,0.45167214,818
1747533011600,-0.562918035,-0.205374165,-0.867623525,-0.15925704,0.32330777,0.47617322,819
1747533011610,-0.552057515,-0.188534225,-0.8845855,-0.11478225,0.387489945,0.5318333,820
1747533011620,-0.5321668500000001,-0.16864356,-0.90142545,-0.09454222,0.451139495,0.589890225,821
1747533011630,-0.45516676,-0.19109683,-0.8434618,-0.083090626,0.44315,0.6668556,822
1747533011640,-0.43198133,-0.1935374,-0.8182019,-0.060986388,0.4247742,0.65433873,823
1747533011650,-0.36559775,-0.17352471,-0.7512082,0.037284255,0.37710363,0.59122175,824
1747533011660,-0.36132675,-0.153512015,-0.739371425,0.0900148475,0.385359425,0.569916475,825
1747533011670,-0.364621535,-0.100917675,-0.738395225,0.20772657,0.4282363099999999,0.55207332,826
1747533011680,-0.35449316,-0.06760386,-0.76536355,0.4101268,0.58696072,0.57897124,827
1747533011690,-0.318860785,-0.063088798,-0.8101480249999999,0.5824333500000001,0.76938727,0.6050702050000001,828
1747533011700,-0.294699135,-0.058695765,-0.85578674,0.6119944500000001,0.843689465,0.609064935,829
1747533011710,-0.2889638,-0.058329681,-0.8856837449999999,0.5834986,0.847684215,0.61279335,830
1747533011720,-0.258944745,-0.0528383925,-0.926929445,0.5123922000000001,0.8000136,0.6186522999999999,831
1747533011730,-0.207570695,-0.049299562,-0.950847065,0.331297245,0.65034395,0.61226072,832
1747533011740,-0.16449459,-0.0616244535,-0.9314445,0.144609652,0.46152585,0.58136807,833
1747533011750,-0.128984255,-0.069678345,-0.8960562000000001,0.0540621725,0.321177225,0.53316487,834
1747533011760,-0.107751272,-0.0605262,-0.84773287,0.01145159275,0.196541285,0.47883639,835
1747533011770,-0.101893897,-0.035998445,-0.798311295,0.07243798725,0.049002167,0.39521312,836
1747533011780,-0.0992092649999999,0.0013423155,-0.79574865,0.1653823099999999,-0.0378168895,0.32463934,837
1747533011790,-0.09286378,0.0270903555,-0.821984775,0.21118868,-0.0061252715,0.303334055,838
1747533011800,-0.09737884,0.0422219035,-0.83626215,0.2487392499999999,0.07590009,0.299605635,839
1747533011810,-0.10348027,0.051496077,-0.8432178,0.26684874,0.12783173,0.30306774,840
1747533011820,-0.09384001,0.0475911635,-0.8901988000000001,0.25193504,0.2727077,0.3126551199999999,841
1747533011830,-0.08419975,0.04368625,-0.9371798,0.23702134,0.41758367,0.3222425,842
1747533011840,-0.0589398275,0.016717922245,-0.94767432,0.0900148485,0.370978335,0.251136095,843
1747533011850,-0.054668825,0.00048811449,-0.9471862,0.033023197,0.33502567,0.21411815,844
1747533011860,-0.066993715,-0.00793186088,-0.8916632,-0.0253000305,0.187486545,0.14247912,845
1747533011870,-0.07614586,0.01708400662,-0.8509056349999999,0.0015978964999999,0.086286422,0.11851067,846
1747533011880,-0.118855886,0.06443111,-0.8829991,0.17736652,-0.13156016,0.16884442,847
1747533011890,-0.128862228,0.0441743599999999,-0.91997378,0.22104238,-0.16564862,0.18322548,848
1747533011900,-0.14094306,0.0214770369999999,-1.02101348,0.222640275,-0.15259913,0.1731054699999999,849
1747533011910,-0.1417972599999999,0.0305071545,-1.09520695,0.202666565,0.0013315849999999,0.12277173,850
1747533011920,-0.119588055,0.058085624,-1.1331578,0.160588615,0.209857105,0.0703074565,851
1747533011930,-0.1061649075,0.050885937,-1.12302945,0.117445402,0.33182989,0.0412789975,852
1747533011940,-0.0856640999999999,0.04368625,-1.0865429,0.082824307,0.43063316,0.0034621089999999,853
1747533011950,-0.07858644,0.04368625,-1.0601847,0.063116915,0.5062669399999999,-0.033555831,854
1747533011960,-0.128740205,0.035266273,-1.04908015,0.0404800485,0.54435015,-0.060720074,855
1747533011970,-0.17193834,0.023185439,-1.02870135,0.0047936904999999,0.53662698,-0.08681905,856
1747533011980,-0.2257529449999999,0.015009521,-0.984771025,-0.057257963,0.431698425,-0.11824435,857
1747533011990,-0.27017135,0.0173280639999999,-0.944745625,-0.099069595,0.295344565,-0.12942963,858
1747533012000,-0.263581825,0.02904281,-0.9224144,-0.0407463665,0.2087918349999999,-0.066579029,859
1747533012010,-0.226119045,0.051129993,-0.9236347,0.068443241,0.20373183,0.026631611,860
1747533012020,-0.1782838199999999,0.091887555,-0.9586569,0.1515338675,0.268180335,0.10626013,861
1747533012030,-0.1056767925,0.157538955,-1.0088106,0.1850897,0.29321405,0.190416025,862
1747533012040,-0.03270367112,0.216356755,-1.0689707,0.14727281,0.24314661,0.26578348,863
1747533012050,-0.00024405724,0.24088451,-1.1016744,-0.04554006,0.0098537,0.353135165,864
1747533012060,0.12202863,0.25015867,-1.1094842,-0.19973709,-0.17736652,0.40533313,865
1747533012070,0.275052515,0.2468639,-1.09545095,-0.63702816,-0.71319455,0.3930826,866
1747533012080,0.37828874,0.2225802,-1.07189945,-0.72384721,-0.809334675,0.36059203,867
1747533012090,0.4518720149999999,0.195001745,-1.03407065,-0.870321065,-0.9598033,0.27563718,868
1747533012100,0.511910095,0.2297798999999999,-0.9647584,-0.939296935,-1.04023075,0.1280980485,869
1747533012110,0.55693865,0.297383755,-0.912042,-0.912399,-1.04901915,-0.0058589565,870
1747533012120,0.59159477,0.330697585,-0.9006933,-0.87618,-1.0317086,-0.04474111,871
1747533012130,0.6347929000000001,0.35266273,-0.90411008,-0.7371629749999999,-0.95580855,-0.2024002449999999,872
1747533012140,0.6764046800000001,0.3651096299999999,-0.94584388,-0.650343925,-0.91799163,-0.336623565,873
1747533012150,0.69971216,0.3692586,-0.9791577,-0.5803028,-0.903610555,-0.4878911099999999,874
1747533012160,0.6667644100000001,0.3889052,-1.0064921,-0.45992793,-0.85860315,-0.694019795,875
1747533012170,0.61075328,0.4345439,-1.05298495,-0.325704605,-0.769919905,-0.848483145,876
1747533012180,0.53350914,0.5039782,-1.0960611,-0.25300031,-0.69641665,-0.89029477,877
1747533012190,0.50885937,0.53753605,-1.1043591,-0.214650785,-0.67164925,-0.9137306,878
1747533012200,0.4318593,0.64235865,-1.09301045,-0.210656045,-0.74328828,-0.92438325,879
1747533012210,0.355103285,0.73131755,-1.0578661500000002,-0.210922365,-0.82930835,-0.919323235,880
1747533012220,0.296651585,0.750598075,-1.0300436,-0.18322549,-0.8122641349999999,-0.894289485,881
1747533012230,0.211475605,0.732171745,-1.01735265,-0.06391586,-0.5656554,-0.7819041,882
1747533012240,0.07260703,0.65724617,-0.99636375,0.06045376,-0.39601205,-0.6609966,883
1747533012250,-0.0338019274999999,0.57231425,-0.9826965,0.25113609,-0.199204455,-0.4748416399999999,884
1747533012260,-0.0566212799999999,0.509957635,-1.00209905,0.36884782,-0.184557065,-0.35979307,885
1747533012270,-0.0530824515,0.443207985,-1.0341926,0.459395305,-0.22823291,-0.278034025,886
1747533012280,-0.029042812,0.3832919,-1.0751942,0.533164885,-0.29987195,-0.22823291,887
1747533012290,0.093473926,0.27871338,-1.1734272,0.7440872,-0.3584615,-0.27324033,888
1747533012300,0.107995335,0.2702934,-1.19429415,0.8181231,-0.28282772,-0.308394065,889
1747533012310,0.134963667,0.26370385,-1.23932275,0.95474325,-0.1217064665,-0.36778255,890
1747533012320,0.14741059,0.26553428,-1.2634844,1.0173275,-0.036218993,-0.3920173,891
1747533012330,0.161931985,0.282008155,-1.34841625,1.17525295,0.24980452,-0.425040525,892
1747533012340,0.1574169249999999,0.3106848749999999,-1.4396937,1.23117935,0.446079485,-0.487624805,893
1747533012350,0.1093376425,0.35351692,-1.53084905,1.2162657,0.5826996600000001,-0.55606802,894
1747533012360,0.0389271306,0.398057355,-1.57075235,1.15421405,0.625043925,-0.57870488,895
1747533012370,-0.0461268199,0.4372285449999999,-1.60345605,1.0607371,0.6301038999999999,-0.56512278,896
1747533012380,-0.1864597429999999,0.467613695,-1.65263365,0.83649895,0.57497645,-0.414387865,897
1747533012390,-0.2975057949999999,0.49384984,-1.6944895,0.5824333500000001,0.51478903,-0.20879183,898
1747533012400,-0.31263733,0.501171555,-1.7040078,0.3965446999999999,0.48975533,-0.078829574,899
1747533012410,-0.3025089549999999,0.4749354099999999,-1.68887615,0.186687603,0.4676511,0.0122505409999999,900
1747533012420,-0.293112755,0.4302729199999999,-1.6591011,-0.036485307,0.453270035,0.0673779749999999,901
1747533012430,-0.27212384,0.26455808,-1.4345685,-0.50120693,0.50600064,0.10333065,902
1747533012440,-0.27224587,0.22685122,-1.3744084,-0.546746995,0.54435015,0.09986854,903
1747533012450,-0.285302925,0.152413745,-1.25945745,-0.60799971,0.63995761,0.09534117,904
1747533012460,-0.290062025,0.0840777175,-1.1531705,-0.6159891799999999,0.74515248,0.0876180025,905
1747533012470,-0.2630937,-0.00634549,-1.0155222,-0.5587312,0.8367652350000001,0.0511326925,906
1747533012480,-0.230023955,-0.0701664575,-0.912774125,-0.4671184499999999,0.894555835,0.0095873805,907
1747533012490,-0.1978084,-0.08224729,-0.894713875,-0.39494679,0.91666007,-0.0231695015,908
1747533012500,-0.157660985,-0.09737884,-0.8966663,-0.354733065,0.93104112,-0.075900092,909
1747533012510,-0.1198321099999999,-0.106653018,-0.890076775,-0.34221621,0.9307748,-0.147272815,910
1747533012520,-0.09127741,-0.083711639,-0.892761425,-0.3701794,0.87884315,-0.23702135,911
1747533012530,-0.055645052,-0.061014313,-0.87958235,-0.45540056,0.76059884,-0.3270362,912
1747533012540,-0.0557670809999999,-0.0596719965,-0.8534681749999999,-0.46285741,0.73290197,-0.34115095,913
1747533012550,-0.075901805,-0.058695765,-0.8055109300000001,-0.46418899,0.66845345,-0.354200435,914
1747533012560,-0.11678139,-0.0667496549999999,-0.76450935,-0.43968791,0.569916475,-0.342748835,915
1747533012570,-0.15570852,-0.0812710624999999,-0.7444966449999999,-0.4048005,0.425573155,-0.31718248,916
1747533012580,-0.183775115,-0.0840777225,-0.775980025,-0.39334891,0.1691107349999999,-0.26551716,917
1747533012590,-0.173158625,-0.076145865,-0.8310149499999999,-0.41438788,-0.059921125,-0.222640275,918
1747533012600,-0.113974735,-0.07028849,-0.87506725,-0.451405805,-0.1328917399999999,-0.233825545,919
1747533012610,-0.056621282,-0.0673598,-0.9149706,-0.500141635,-0.129163315,-0.28389297,920
1747533012620,-0.054912884,-0.028554698,-0.9650024,-0.6125271,0.16777915,-0.406931,921
1747533012630,-0.051496077,-0.003172744,-0.9650024,-0.6261091999999999,0.23462449,-0.4087952299999999,922
1747533012640,-0.07443746,0.020012695,-0.96622264,-0.68389976,0.3749731,-0.39468047,923
1747533012650,-0.074803545,0.0173280645,-0.96036527,-0.717455595,0.349140425,-0.384826785,924
1747533012660,-0.0966466649999999,-0.0003660864999999,-0.93595955,-0.794154645,0.263386625,-0.3701794,925
1747533012670,-0.2660224,-0.07028849,-0.7660957,-0.89535475,-0.20879184,-0.30999196,926
1747533012680,-0.2796896,-0.0824913499999999,-0.7409578,-0.864994725,-0.304133005,-0.28575718,927
1747533012690,-0.29750578,-0.0957924699999999,-0.69397675,-0.76139777,-0.470314235,-0.2284992149999999,928
1747533012700,-0.2826183,-0.10457853,-0.660907,-0.60986392,-0.5563343350000001,-0.180562325,929
1747533012710,-0.24356914,-0.1117782175,-0.66102905,-0.4492753,-0.546746985,-0.16298546,930
1747533012720,-0.18084641,-0.059794027,-0.801484,-0.112918034,-0.2695119,-0.18961707,931
1747533012730,-0.19622204,-0.0036608586,-0.91423845,-0.075101145,-0.11717909,-0.16937704,932
1747533012740,-0.1831649699999999,0.0128130052,-0.949992805,-0.09054748,-0.0500674294999999,-0.149669655,933
1747533012750,-0.145824205,-0.0062234585,-1.00734623,-0.2279665975,0.0407463655,-0.14301176,934
1747533012760,-0.12007616,-0.0762678905,-0.99795005,-0.44315004,-0.03062635,-0.2125202649999999,935
1747533012770,-0.135329735,-0.1470444975,-0.9052083,-0.578704935,-0.23595608,-0.32863409,936
1747533012780,-0.184873365,-0.19378145,-0.776712175,-0.611461785,-0.462058455,-0.433296315,937
1747533012790,-0.24393522,-0.199516795,-0.6548056,-0.536893275,-0.688693475,-0.495880615,938
1747533012800,-0.27017137,-0.19475769,-0.59964865,-0.47191215,-0.799481,-0.5134575,939
1747533012810,-0.297749845,-0.178161795,-0.6118515250000001,-0.1073253899999999,-0.77391465,-0.4889564,940
1747533012820,-0.32532832,-0.1615659,-0.6240544,0.25726137,-0.7483483,-0.4644553,941
1747533012830,-0.37816672,-0.1090935899999999,-0.75474703,0.55393754,-0.438356325,-0.3520699,942
1747533012840,-0.388783205,-0.0608922825,-0.854322405,0.66179557,-0.254331885,-0.243945555,943
1747533012850,-0.34985608,-0.0223312375,-1.023820175,0.55367121,-0.08868326,-0.099602223,944
1747533012860,-0.293600885,-0.0231854399999999,-1.1661055,0.278300345,-0.0058589545,-0.03355583,945
1747533012870,-0.26614442,-0.057231425,-1.17867445,-0.000532625,-0.0450074245,-0.097471697,946
1747533012880,-0.27907945,-0.08493192,-1.1335239,-0.26152243,-0.14088122,-0.19121497,947
1747533012890,-0.359374285,-0.11629328,-0.94059665,-0.41225736,-0.3435477799999999,-0.27244139,948
1747533012900,-0.4378387,-0.13593988,-0.69117016,-0.26844665,-0.5763081,-0.2743056,949
1747533012910,-0.4356422,-0.1277639675,-0.67359803,-0.141147544,-0.581634415,-0.2519350449999999,950
1747533012920,-0.42819845,-0.1031141875,-0.67555047,0.141413861,-0.560062795,-0.195476025,951
1747533012930,-0.41404312,-0.06467517,-0.74327637,0.38535942,-0.489222705,-0.12996226,952
1747533012940,-0.3995217199999999,-0.0258700695,-0.835652035,0.521446955,-0.38349521,-0.0644484985,953
1747533012950,-0.41038228,0.0263581835,-0.958412785,0.551274365,-0.207460255,0.0798948365,954
1747533012960,-0.42234108,0.0691902305,-1.0487139499999998,0.491353235,-0.051665326,0.258592955,955
1747533012970,-0.417826,0.076633975,-1.0604287,0.399474175,0.0135821215,0.374706775,956
1747533012980,-0.33216192,-0.0098843175,-1.0662861,0.296942465,0.0415453125,0.434361575,957
1747533012990,-0.23344076,-0.1189779065,-1.0288233249999998,0.160055978,0.0018642115,0.34967306,958
1747533013000,-0.160711695,-0.2014692599999999,-0.952799475,0.081492728,-0.0774979905,0.16564863,959
1747533013010,-0.171450215,-0.207082575,-0.888246335,0.12330436,-0.140082277,0.0300937214999999,960
1747533013020,-0.203787805,-0.187557995,-0.850173385,0.211454995,-0.19867182,-0.0428768935,961
1747533013030,-0.21855327,-0.1598574999999999,-0.84517023,0.30839406,-0.26098979,-0.081759045,962
1747533013040,-0.247352035,-0.1056767899999999,-0.91594688,0.370445715,-0.29427931,-0.068443241,963
1747533013050,-0.28213018,-0.062478654,-1.036267,0.36405413,-0.27909928,-0.0047936909999999,964
1747533013060,-0.256870255,-0.073949347,-1.0686046500000002,0.298540365,-0.22956448,0.051931645,965
1747533013070,-0.186703795,-0.118001685,-1.12693435,0.195476025,-0.15153387,0.0484695359999999,966
1747533013080,-0.09835507,-0.20232345,-1.171963,-0.034088463,0.03355583,-0.113983296,967
1747533013090,-0.105920845,-0.231366275,-1.1069217,-0.0873516865,0.08495484,-0.245277148,968
1747533013100,-0.150217235,-0.26101922,-1.0194271,-0.14141386,0.13901701,-0.42051315,969
1747533013110,-0.21110951,-0.248816345,-0.984160835,-0.140881225,0.1145159299999999,-0.5012069299999999,970
1747533013120,-0.260775155,-0.22453267,-0.955606165,-0.151800185,0.031957936,-0.571514395,971
1747533013130,-0.4148973,-0.19475769,-0.8473667,-0.19600866,-0.200269724,-0.638626035,972
1747533013140,-0.439181,-0.190608715,-0.83967895,-0.227167645,-0.46072689,-0.66232815,973
1747533013150,-0.47884032,-0.179748165,-0.835285935,-0.19281287,-0.553138575,-0.619717595,974
1747533013160,-0.5131303700000001,-0.16449458,-0.841875465,-0.10093381,-0.5025385,-0.54168698,975
1747533013170,-0.5524235799999999,-0.15680678,-0.8467566099999999,0.0410126799999999,-0.3499393699999999,-0.43516053,976
1747533013180,-0.57475483,-0.14753261,-0.89434776,0.27217506,-0.080161155,-0.231428705,977
1747533013190,-0.545468,-0.1552204,-0.98452693,0.49428272,0.21837921,0.016511599,978
1747533013200,-0.4961684199999999,-0.174867015,-1.015278115,0.50307116,0.252467665,0.0300937214999999,979
1747533013210,-0.41245675,-0.20451998,-1.0718994,0.4822984999999999,0.29214876,0.0183758124999999,980
1747533013220,-0.369258595,-0.2198955799999999,-1.10960625,0.396811015,0.28708876,-0.0455400569999999,981
1747533013230,-0.385122315,-0.214770365,-1.09179005,0.227966595,0.20053603,-0.1398159625,982
1747533013240,-0.4216088999999999,-0.18963247,-1.0534731,0.08894958,0.10466223,-0.18562233,983
1747533013250,-0.439791175,-0.16913167,-1.0396839,0.0495347965,0.0713727165,-0.148870705,984
1747533013260,-0.44577056,-0.158515185,-1.02833525,0.0308926699999999,0.056991648,-0.087351685,985
1747533013270,-0.446258685,-0.1507053549999999,-1.01893905,0.0474042685,0.0458063715,0.04101268,986
1747533013280,-0.44467232,-0.146434355,-1.03638915,0.064714815,0.0234358185,0.182959165,987
1747533013290,-0.42661208,-0.136428,-1.1004542,0.007456851,-0.0063915867,0.32330775,988
1747533013300,-0.40855184,-0.14045495,-1.1125349999999998,-0.033822147,-0.02183792085,0.35633096,989
1747533013310,-0.3771904849999999,-0.161443875,-1.1275444499999998,-0.1344896375,-0.0641821845,0.404534175,990
1747533013320,-0.28261828,-0.21769907,-1.0892274,-0.32490566,-0.10759171,0.3552657,991
1747533013330,-0.27907945,-0.226607155,-1.07714665,-0.32357408,-0.078563254,0.33129725,992
1747533013340,-0.2788354,-0.24015233,-1.04847,-0.2974751,-0.0069242189999999,0.29001825,993
1747533013350,-0.28213018,-0.24478942,-1.0318741,-0.2727077,0.03568636,0.2727077,994
1747533013360,-0.32423006,-0.237833785,-1.0035634,-0.1480717625,0.191481285,0.25007083,995
1747533013370,-0.37194325,-0.226119035,-1.00234315,-0.05379585585,0.278300345,0.25592979,996
1747533013380,-0.41880224,-0.22709527,-1.0111292,0.00958738,0.27057716,0.267914,997
1747533013390,-0.4576073499999999,-0.22343442,-1.0280911,-0.0007989485,0.23089606,0.2809635,998
1747533013400,-0.5056866250000001,-0.205984325,-1.0550594000000002,-0.0362189915,0.15313176,0.3222425,999
1747533013410,-0.547176325,-0.186459735,-1.0897156,-0.097471698,0.073769563,0.38775625,1000
