timestamp,acc_x,acc_y,acc_z,gyro_x,gyro_y,gyro_z,id
1747533352490,-0.053692598,0.40147418,0.9100895,0.21358553,0.104928546,0.07882957,1
1747533352500,-1.2263877,-0.5361938,-0.17987019,-0.175236,0.25246766,-0.10759171,2
1747533352510,-1.1241276,-0.55645055,-0.10543273,-0.28815404,0.101200126,-0.13422333,3
1747533352520,-1.1243718,-0.5610876,-0.021965152,-0.33662358,-0.03834952,-0.11025487,4
1747533352530,-1.0321181,-0.5447358,0.071020655,-0.128897,0.022903185,-0.06657903,5
1747533352540,-1.06067275,-0.5325329,0.0490555055,-0.108390657,0.0223705535,-0.0074568525,6
1747533352550,-1.0831261,-0.56011134,-0.0019524579,-0.08468852,0.018109497,0.14274544,7
1747533352560,-1.0762925,-0.5459561,-0.00024405724,-0.083090626,0.018109497,0.20932446,8
1747533352570,-1.1785524,-0.5010495,-0.07785426,-0.08042747,0.070307456,0.39521313,9
1747533352580,-1.2344415,-0.48006064,-0.10348027,-0.11717909,0.12037488,0.5411543,10
1747533352590,-1.2498171,-0.46370876,-0.08908089,-0.15020229,0.16085494,0.70840085,11
1747533352600,-1.2112561,-0.49226347,-0.0622346,-0.17630127,0.15606125,0.84581995,12
1747533352610,-1.0382195,-0.62014943,-0.06858008,-0.2908172,-0.08841695,0.9102685,13
1747533352620,-0.9796458,-0.6374775,-0.05759751,-0.35579833,-0.20453078,0.8681905,14
1747533352630,-0.9796458,-0.6374775,-0.05759751,-0.35579833,-0.20453078,0.8681905,15
1747533352640,-0.9532876,-0.6267389800000001,-0.01586372075,-0.3984089,-0.307328785,0.8325042,16
1747533352650,-0.95011485,-0.6042857,0.00073217176,-0.376571,-0.26738137,0.8410263,17
1747533352660,-0.9447456,-0.5976962,0.018060237,-0.32650355,-0.16245283,0.8591358,18
1747533352670,-0.9679311,-0.59281504,0.06882414,-0.128897,0.07456851,0.8836369,19
1747533352680,-1.0052718,-0.5933032,0.061746486,-0.009054748,0.2146508,0.8990832,20
1747533352690,-1.0692148,-0.57329047,0.036852647,0.099069595,0.35473305,0.9406285,21
1747533352700,-1.10350485,-0.559745285,0.0257480405,0.1499359775,0.431165775,0.99096225,22
1747533352710,-1.2329772,-0.52423495,0.0051252022,0.2828277,0.5182512,1.2500879,23
1747533352720,-1.2732466,-0.53009236,-0.021232981,0.24660872,0.39840892,1.3480922,24
1747533352730,-1.308391,-0.54815257,-0.029774986,0.17310548,0.20985709,1.4413028,25
1747533352740,-1.3022895,-0.5615757,-0.038316987,0.09427591,-0.033023197,1.514806,26
1747533352750,-1.2881342,-0.5708499,-0.057109397,0.0,-0.24607609,1.5606124,27
1747533352760,-1.3384099,-0.55645055,-0.018792408,-0.10013486,-0.4745753,1.6564863,28
1747533352770,-1.398448,-0.52960426,0.017084008,-0.05273059,-0.5006743,1.7741979,29
1747533352780,-1.4405479,-0.51910978,0.0355103305,0.018642128,-0.47351006,1.9110844,30
1747533352790,-1.5412215,-0.4915313,0.08419975,0.120907515,-0.42397526,2.0799289,31
1747533352800,-1.5563531,-0.48396555,-0.016595893,0.29241508,-0.23915187,2.4378576,32
1747533352810,-1.50022,-0.49446,-0.09445015,0.3009372,-0.12144015,2.561961,33
1747533352820,-1.4670281,-0.5086153,-0.12154051,0.26312032,-0.06870956,2.6402578,34
1747533352830,-1.46531965,-0.5183776,-0.116293278,0.20026971,-0.09534117,2.694054,35
1747533352840,-1.46910255,-0.5349735,-0.0832235215,0.174437055,-0.1419464899999999,2.7148265,36
1747533352850,-1.53512,-0.55742675,0.09567044,0.20080236,-0.5470133,2.850115,37
1747533352860,-1.5500076,-0.53009236,0.12544543,0.25353295,-0.7797736,2.94013,38
1747533352870,-1.5461026,-0.50446635,0.11177822,0.3110572,-0.93796533,3.0365362,39
1747533352880,-1.50925,-0.4846977,0.088104665,0.37017938,-1.0263823,3.1409323,40
1747533352890,-1.4553133,-0.48225713,0.06711575,0.41438788,-1.1249193,3.2293491,41
1747533352900,-1.40174275,-0.48311134,0.0391711915,0.394147855,-1.26633315,3.26423655,42
1747533352910,-1.3098553,-0.4617563,0.031239327,0.31318775,-1.6239957,3.3156357,43
1747533352920,-1.2647047,-0.447601,0.08346757,0.2647182,-1.9004318,3.3182988,44
1747533352930,-1.2485969,-0.451139825,0.110069815,0.239418175,-2.1169468,3.30604825,45
1747533352940,-1.2195541,-0.45199403,0.20500809,0.17204021,-2.740393,3.2575786,46
1747533352950,-1.2825208,-0.44052333,0.3904916,0.15180019,-3.8722363,3.2059133,47
1747533352960,-1.3503687,-0.4170938,0.49592432,0.18109496,-4.5524077,3.235741,48
1747533352970,-1.355494,-0.38731885,0.5383903,0.23861924,-5.2650695,3.2884715,49
1747533352980,-1.2937474,-0.37316352,0.48567393,0.31318775,-5.77906,3.3246903,50
1747533352990,-1.1731832,-0.36852646,0.43710655,0.4314321,-6.032593,3.3188314,51
1747533353000,-0.92448884,-0.3585201,0.3802412,0.7318367,-6.074138,3.213903,52
1747533353010,-0.7980672,-0.35510328,0.32166746,0.92944324,-5.7039585,3.0652986,53
1747533353020,-0.70337296,-0.34729347,0.30922052,1.0657971,-5.3172674,2.9001825,54
1747533353030,-0.67628264,-0.3109289,0.32044718,1.149953,-5.0477557,2.7441213,55
1747533353040,-0.70020026,-0.24625377,0.31434575,1.1787151,-4.887966,2.6194854,56
1747533353050,-0.7192367,-0.20964517,0.29189247,1.1472899,-4.72285,2.5049694,57
1747533353060,-0.75340474,-0.102992155,0.5527897,1.1771172,-4.47198,2.3904533,58
1747533353070,-0.7387613,-0.08419975,0.6289356,1.2964269,-4.5193844,2.3249397,59
1747533353080,-0.75267255,-0.05662128,0.60135704,1.3475596,-4.5667887,2.2988408,60
1747533353090,-0.63503695,-0.0134231495,0.6299118,1.454086,-4.74309,2.1981733,61
1747533353100,-0.61746484,-0.0156196635,0.6050179,1.4301175,-4.861867,2.1140172,62
1747533353110,-0.5954997,-0.00024405724,0.5645044,1.3390374,-4.992362,2.036253,63
1747533353120,-0.5930591,0.045394648,0.5942794,1.2602079,-5.081311,1.9686087,64
1747533353130,-0.54034275,0.06296677,0.6723777,1.2389026,-5.209676,1.8658108,65
1747533353140,-0.4934837549999999,0.07895252,0.6422366150000001,1.1805794,-5.400092,1.71853795,66
1747533353150,-0.4612682,0.14106509,0.579636,0.984837,-5.7529607,1.4764565,67
1747533353160,-0.4429639,0.1986626,0.6118515,0.90973586,-5.7992997,1.4205302,68
1747533353170,-0.41465324,0.21330604,0.686289,0.9598033,-5.675196,1.3725933,69
1747533353180,-0.3904916,0.25162303,0.7682922,1.1408982,-5.4504256,1.433846,70
1747533353190,-0.2945771,0.23161033,0.77317333,1.1787151,-5.517537,1.4125407,71
1747533353200,-0.20500809,0.19793043,0.71215904,1.154214,-5.668272,1.3086774,72
1747533353210,-0.14106509,0.20110317,0.6716455,1.0247844,-5.9628177,1.176052,73
1747533353220,-0.03099527,0.18743597,0.6892177,0.84635264,-6.3846626,0.984837,74
1747533353230,0.031483386,0.19402552,0.7297312,0.80986732,-6.5372618,0.77764305,75
1747533353240,0.09469421,0.20769271,0.78684056,0.9763149,-6.51569,0.33076462,76
1747533353250,0.071020655,0.20403185,0.7084982,1.202151,-6.1673484,0.19014971,77
1747533353260,-0.03441207,0.2894519,0.62063754,1.3848438,-5.722068,0.18695392,78
1747533353270,-0.013057062,0.3188608,0.59440139,1.47565755,-5.3891729,0.23382556,79
1747533353280,-0.011226633,0.35119838,0.5959878,1.6825852,-4.8261805,0.29933932,80
1747533353290,-0.007565775,0.3773125,0.63943,1.7992316,-4.740427,0.32597092,81
1747533353300,0.032703668,0.36315718,0.59989274,1.861017,-4.796886,0.31638354,82
1747533353310,0.016351834,0.36022848,0.4971446,1.7933728,-4.9449577,0.3089267,83
1747533353320,0.12056428,0.40171823,0.3973252,1.5808525,-5.2363076,0.28176245,84
1747533353330,0.16498269,0.4080637,0.36559775,1.284709,-5.4648066,0.17417073,85
1747533353340,0.22624107,0.43173727,0.43295756,1.2554141,-5.410478,0.075101145,86
1747533353350,0.2630937,0.40293851,0.5020258,1.3805827,-5.2592106,-0.06178534,87
1747533353360,0.16620298,0.4041588,0.50617474,1.5925703,-4.9273806,-0.092145376,88
1747533353370,0.12349297,0.4639528,0.56987363,2.2604911,-4.308995,-0.0127831735,89
1747533353380,0.17767367,0.46834585,0.34680536,2.4857945,-4.0719733,-0.007989483,90
1747533353390,0.20110317,0.5176454,0.107629254,2.5124261,-3.9286952,-0.011717909,91
1747533353400,0.2660224,0.5593792,-0.11665936,2.3121564,-3.861051,-0.060720075,92
1747533353410,0.43320164,0.6772589,-0.46761367,1.700162,-3.6932719,-0.4079963,93
1747533353420,0.32557237,0.759018,-0.5020258,1.3624732,-3.3023198,-0.4878911,94
1747533353430,0.29116032,0.8027043,-0.35534734,1.2378373,-2.9060414,-0.51771855,95
1747533353440,0.27139166,0.7824476,-0.272856,1.2607405,-2.5928538,-0.5486112,96
1747533353450,0.19963883,0.7563334,-0.30165476,1.2852416,-2.2327943,-0.5699165,97
1747533353460,0.22306833,0.7380291,-0.30604777,1.3379722,-1.8327875,-0.70467246,98
1747533353470,0.14374973,0.7585299,-0.37828872,1.3310479,-1.6037556,-0.79681784,99
1747533353480,0.1244692,0.82027644,-0.41807005,1.3321131,-1.419465,-0.84209156,100
1747533353490,0.12813005,0.83125895,-0.49397188,1.3278521,-1.2399678,-0.9086706,101
1747533353500,0.10470056,0.86933196,-0.6228341,1.2607405,-1.0183928,-0.9603359,102
1747533353510,0.09493827,0.92156017,-0.8839754,0.8005462,-0.7600662,-1.0242518,103
1747533353520,-0.013911263,0.92229235,-0.84858704,0.53795856,-0.55287224,-0.9784454,104
1747533353530,-0.013911263,0.92229235,-0.84858704,0.4902879799999999,-0.44235106,-0.9004148000000001,105
1747533353540,-0.099575355,0.95987715,-0.6940988,0.4511395,-0.2079928875,-0.72118405,106
1747533353550,-0.11092402,0.97281215,-0.6980037299999999,0.46658583,0.1126517175,-0.51505535,107
1747533353560,-0.039781332,0.9864794,-0.82808626,0.22743396,1.0657971,0.051665325,108
1747533353570,-0.009518232,0.93254274,-0.7302193,0.05486112,1.3235911,0.18748654,109
1747533353580,0.0102504055,0.91497062,-0.6462635999999999,0.0031957939999999,1.37552275,0.24501083,110
1747533353590,0.07736614,0.8427297,-0.4617563,-0.13635385,1.4125407,0.40426785,111
1747533353600,0.2711476,0.76072645,-0.44345203,-0.257794,1.3246564,0.4527374,112
1747533353610,0.3316738,0.73607665,-0.4595598,-0.5470133,1.397627,0.406931,113
1747533353620,0.35876414,0.7133793,-0.43124917,-0.6359629,1.6138756,0.3616573,114
1747533353630,0.36498761,0.70654573,-0.404890985,-0.6346313,1.7869811,0.3336941,115
1747533353640,0.372431365,0.68299423,-0.34948999,-0.5920207150000001,2.14064895,0.281496135,116
1747533353650,0.29140437,0.6633476,-0.21599068,-0.40107206,2.728675,0.25086978,117
1747533353660,0.2853029,0.71045065,-0.19744232,-0.21944448,2.9598372,0.30786142,118
1747533353670,0.2894519,0.737541,-0.34973404,-0.3834952,2.9678268,0.30999196,119
1747533353680,0.28469278,0.74925575,-0.360594585,-0.503337465,2.9694247000000003,0.31212248,120
1747533353690,0.27651685,0.7070338,-0.21232979,-0.80747044,2.9625003,0.32011196,121
1747533353700,0.33045352,0.66896087,-0.18084641,-0.9193232,3.141465,0.28868666,122
1747533353710,0.4170938,0.62478656,-0.24625377,-0.9491506,3.4157705,0.165116,123
1747533353720,0.3660859,0.60062486,-0.2831064,-1.0183928,3.7587857,0.06498113,124
1747533353730,0.286035105,0.606116145,-0.2335627799999999,-1.03517075,3.92869535,0.0729706125,125
1747533353740,0.03807293,0.6784792,-0.030019043,-1.0237192,4.322843,0.23489082,126
1747533353750,0.0472250775,0.68506873,-0.0052472314999999,-1.1046793,4.2565305,0.40666471,127
1747533353760,0.15082738,0.64040625,0.041245673,-1.4444987,3.9452069,0.63383234,128
1747533353770,0.17987019,0.5618198,0.153512,-1.653823,3.7566552,0.6412892,129
1747533353780,0.21843125,0.49055508,0.36047253,-1.6644757,3.7033918,0.6269081,130
1747533353790,0.26699865,0.43246946,0.48274526,-1.4546186,3.7736993,0.5384912,131
1747533353800,0.2716357,0.45760733,0.38487828,-1.2543489,4.100203,0.37603834,132
1747533353810,0.20183535,0.50495446,0.33240595,-1.2559468,4.376639,0.35100463,133
1747533353820,0.08053889,0.5523015,0.35461518,-1.3608754,4.5050035,0.40959418,134
1747533353830,0.085298005,0.5184996,0.44394014,-1.5925704,4.29141775,0.458063725,135
1747533353840,0.10884953,0.42465958,0.7512082,-1.9169434,3.8908784,0.52357745,136
1747533353850,0.19207305,0.36242503,0.9586569,-1.8269285,3.7731667,0.50813115,137
1747533353860,0.3128814,0.29579738,1.0521308,-1.5744609,3.8184404,0.40533313,138
1747533353870,0.4002539,0.30800024,1.0389518,-1.1478225,4.1859565,0.19387813,139
1747533353880,0.415019365,0.31751847,0.9985603,-0.976581215,4.438957,0.099069594,140
1747533353890,0.18645974,0.46834585,0.844438,-0.24873926,5.8813252,-0.23542345,141
1747533353900,0.13862452,0.48909074,0.8078295,-0.31318775,5.9329906,-0.2892193,142
1747533353910,0.21062139,0.43320164,0.827354,-0.531567,5.6629457,-0.45593318,143
1747533353920,0.22868164,0.40684342,0.8395569,-0.71532506,5.414739,-0.6785734,144
1747533353930,0.09640261,0.3824377,0.9498709,-0.6679208,5.4040866,-0.96992326,145
1747533353940,0.0607702529999999,0.376336275,0.9612195,-0.4799016299999999,5.59610055,-1.03170858,146
1747533353950,-0.16132185,0.3841461,0.99233675,0.054328486,6.117281,-1.087635,147
1747533353960,-0.29652956,0.43442193,0.9615856,0.34887412,6.3473783,-1.0434265,148
1747533353970,-0.3990336,0.50715095,0.87079626,0.46179214,6.425143,-0.9800433,149
1747533353980,-0.35632357,0.49177536,0.7936742,0.16085494,5.6688046,-1.0636666,150
1747533353990,-0.32276571,0.48994493,0.7676821,-0.034621093,5.279983,-1.1899004,151
1747533354000,-0.43442193,0.5047104,0.72704655,-0.19228023,5.022722,-1.2879047,152
1747533354010,-0.48542988,0.49348375,0.7656076,-0.38242993,4.6248455,-1.3145363,153
1747533354020,-0.44369608,0.45687518,0.8190561,-0.49747851,4.2402854,-1.3704628,154
1747533354030,-0.474081215,0.4460146299999999,0.7913555999999999,-0.4114584049999999,4.22004535,-1.4306502,155
1747533354040,-0.5964759,0.43661842,0.81271064,-0.082558,4.531635,-1.4317155,156
1747533354050,-0.6145361,0.43588626,0.8407772,0.0964064349999999,4.7281762,-1.39203435,157
1747533354060,-0.58110034,0.42148685,0.7809832,0.6396913,5.3795853,-1.3182647,158
1747533354070,-0.59281507,0.417948025,0.685678835,0.9528791,5.366802,-1.3502227,159
1747533354080,-0.5418071,0.40830776,0.39073566,0.80747044,5.0536146,-1.4503576,160
1747533354090,-0.5876899,0.40220633,0.28383857,0.5400891,4.732437,-1.5856462,161
1747533354100,-0.6772589,0.39756927,0.29067218,0.06764429,4.06931,-1.758219,162
1747533354110,-0.8246695,0.36413342,0.49958518,-0.29348037,3.4956653,-1.8817897,163
1747533354120,-0.92937,0.38536638,0.57280236,-0.4181163,3.2506545,-1.9542277,164
1747533354130,-0.9986823,0.3870748,0.632962465,-0.30972564,3.36437145,-1.88445285,165
1747533354140,-1.0498123,0.3871968249999999,0.7454728500000001,0.0058589599999999,3.65465605,-1.7337179,166
1747533354150,-0.9654905,0.36315718,0.76243484,0.7259777,4.3532033,-1.5350461,167
1747533354160,-0.86933196,0.3328941,0.49348375,1.3587449,4.881574,-1.4519554,168
1747533354170,-0.85542065,0.34680536,0.34924594,1.4375744,4.8384314,-1.5041534,169
1747533354180,-0.882144925,0.36083865,0.275174555,1.38218065,4.6930227,-1.5174692,170
1747533354190,-0.90789297,0.3897594199999999,0.156562725,1.18910145,4.2661179,-1.5496935,171
1747533354200,-0.84809893,0.3692586,0.046614934,0.6375608,3.2149682,-1.6373115,172
1747533354210,-0.5964759,0.25284332,0.037828874,0.30786142,2.6738138,-1.7539579,173
1747533354220,-0.67262175,0.229413815,0.0704105145,0.29614352,2.7236149000000003,-1.88551805,174
1747533354230,-0.9340071,0.20256752,0.14130914,0.4034689099999999,3.0024478,-1.99284345,175
1747533354240,-1.0499343,0.2328306,0.15595257,0.9219864,3.9819586,-1.8365159,176
1747533354250,-1.099966,0.21672285,0.20744865,1.417867,4.8006144,-1.6591494,177
1747533354260,-1.0492021,0.21208574,0.14863087,2.3499734,5.765211,-1.4088123,178
1747533354270,-1.03163,0.21574661,0.07199689,2.5310683,5.6938386,-1.3603427,179
1747533354280,-1.0006347,0.212085745,0.0148874929999999,2.52973675,5.5018246,-1.35901115,180
1747533354290,-0.9656125,0.206472425,-0.087982642,2.4652883,5.038434499999999,-1.3616743,181
1747533354300,-0.865060935,0.14802072,-0.23124424,2.17180795,4.1012682,-1.45674915,182
1747533354310,-0.707522,0.01952458,-0.39830142,1.8165422,3.1726239,-1.65542095,183
1747533354320,-0.77048874,0.0024405725,-0.41807005,1.5302523,2.5806031,-1.9504992,184
1747533354330,-0.8186900699999999,0.0001220286499999,-0.422463105,1.52492605,2.5446504,-2.0069582,185
1747533354340,-0.92046193,0.0035388299,-0.426246015,1.593103,2.6298716,-2.0860541,186
1747533354350,-1.1490215,0.057109397,-0.45467865,2.0458405,3.2676988,-1.9313245,187
1747533354360,-1.142676,0.07736614,-0.464685,2.2343922,3.5377433,-1.7736653,188
1747533354370,-1.1348662,0.0739493425,-0.46456297,2.2748722,3.5276233,-1.69669995,189
1747533354380,-0.9874556,0.04075756,-0.51520485,2.2937807,3.38434515,-1.58378195,190
1747533354390,-0.93827805,-0.0015863714999999,-0.543271425,2.2037659,3.0586405,-1.57659145,191
1747533354400,-0.91314015,-0.0683360315,-0.59476748,2.0495688,2.6328011,-1.6506273,192
1747533354410,-0.9786696,-0.09884319,-0.7748818,1.6548884,1.7235979,-1.8317223,193
1747533354420,-1.0008788,-0.09737884,-0.78708464,1.6532904,1.8631475,-1.8216022,194
1747533354430,-0.99599763,-0.09628058,-0.76829222,1.70495575,1.99816975,-1.79523695,195
1747533354440,-0.97427651,-0.103846355,-0.72375175,1.8373149,2.30336805,-1.7395769,196
1747533354450,-0.8917852,-0.1461903,-0.5989165,2.3915186,3.0146985,-1.5526229,197
1747533354460,-0.84517026,-0.17084008,-0.6723777,2.5331988,3.0823426,-1.5142734,198
1747533354470,-0.8851956,-0.15717287,-0.80246025,2.5262747,2.9795446,-1.4413028,199
1747533354480,-0.8822669,-0.148630865,-0.860057725,2.4365262000000003,2.8397287,-1.3880396,200
1747533354490,-0.84919715,-0.15717287,-0.9221703,2.2136196000000004,2.5116273,-1.2958942,201
1747533354500,-0.70312895,-0.2541856249999999,-0.8660371499999999,1.94384135,2.06341725,-1.2564794,202
1747533354510,-0.46492904,-0.40220633,-0.81149036,1.7875137,1.4674017,-1.5425029,203
1747533354520,-0.44369608,-0.44101146,-0.86469483,1.8940402,1.6250609,-1.7182716,204
1747533354530,-0.5091034,-0.44930938,-0.93181056,2.0080235,1.9068234,-1.8109496,205
1747533354540,-0.59867245,-0.38707477,-0.93327487,2.1379857,2.1907163,-1.8407769,206
1747533354550,-0.66322559,-0.397935335,-0.921438135,2.19231425,2.28499225,-1.82772745,207
1747533354560,-0.7734174,-0.4024504,-0.90642864,2.3430493,2.3377228,-1.6724652,208
1747533354570,-0.7726852,-0.40830776,-0.92082804,2.295645,2.102832,-1.5632756,209
1747533354580,-0.768658265,-0.4194123899999999,-0.92046192,2.2711439,2.00802345,-1.51773555,210
1747533354590,-0.76463133,-0.43051702,-0.9200958,2.2405175,1.85888645,-1.4160028,211
1747533354600,-0.6367454,-0.48152497,-1.0638455,2.2759376,2.095908,-1.1531488,212
1747533354610,-0.5762192,-0.5100796,-1.087519,2.28659,2.3803334,-1.0322412,213
1747533354620,-0.5264315,-0.5186216,-1.0426126,2.3121564,2.466087,-0.90707266,214
1747533354630,-0.48689422,-0.5349734500000001,-1.0233321,2.31987965,2.41095965,-0.88150633,215
1747533354640,-0.40867387,-0.5674331,-1.0164984499999998,2.30390075,2.2602248,-0.87458212,216
1747533354650,-0.35876416,-0.59647592,-1.05774405,2.2303975,2.1052289,-0.931307435,217
1747533354660,-0.42002252,-0.5786598,-1.0301657,2.1161478,2.1747375,-1.0072075,218
1747533354670,-0.49421594,-0.5625519,-0.95621634,2.207228,2.2088258,-0.92464954,219
1747533354680,-0.48945682,-0.551447325,-1.00258717,2.171009,1.87033805,-0.81572625,220
1747533354690,-0.48689422,-0.5618198,-1.142676,1.824798,0.87618,-0.70627034,221
1747533354700,-0.4987309599999999,-0.5547421299999999,-1.18758255,1.4247912,0.17630127,-0.72278196,222
1747533354710,-0.47737598,-0.5366819,-1.3266952,1.0396981,-0.28176245,-0.73290193,223
1747533354720,-0.45126186,-0.55730475,-1.3501247,0.89109372,-0.340352,-0.751277745,224
1747533354730,-0.47176267,-0.5443697000000001,-1.3248648,0.59601547,-0.15925704,-0.732369305,225
1747533354740,-0.56865335,-0.48176903,-1.227852,0.4071973399999999,0.1424791249999999,-0.6474144749999999,226
1747533354750,-0.583784925,-0.476643805,-1.21516105,0.2908172,0.18269286,-0.5555354,227
1747533354760,-0.6211257,-0.45174995,-1.1702545,0.029827405,-0.009054748,-0.42983422,228
1747533354770,-0.61331585,-0.4532143,-1.1181483,-0.1041296025,-0.211188674,-0.3597930849999999,229
1747533354780,-0.6100210500000001,-0.452848225,-1.074462,-0.270577175,-0.4580637,-0.25007084,230
1747533354790,-0.60575005,-0.44735694,-1.11021635,-0.35473305,-0.4511395,-0.11132014,231
1747533354800,-0.5790258,-0.45541082,-1.163787,-0.3936152149999999,-0.35180358,-0.0639158695,232
1747533354810,-0.5718261,-0.4761557,-1.2359059,-0.49002164,-0.18988338,0.0298274035,233
1747533354820,-0.5256993,-0.49397188,-1.2464004,-0.9139969,-0.21411815,0.21837921,234
1747533354830,-0.5256993,-0.49397188,-1.2464004,-0.9139969,-0.21411815,0.21837921,235
1747533354840,-0.48909072,-0.53448538,-1.1870945000000002,-1.19895515,-0.4130562949999999,0.256995055,236
1747533354850,-0.45711923,-0.5630401,-1.0575,-1.361408,-0.62903863,0.2647182,237
1747533354860,-0.4685899,-0.56474847,-1.0216236,-1.3821807,-0.71532506,0.25566345,238
1747533354870,-0.5191097,-0.5276518,-1.0382195,-1.3171995,-0.628506,0.30306774,239
1747533354880,-0.5314346,-0.5209402000000001,-1.0567679,-1.31027525,-0.60267335,0.3419498949999999,240
1747533354890,-0.5496169,-0.50849325,-1.1030167999999998,-1.3297163,-0.5845638799999999,0.41731735,241
1747533354900,-0.55864704,-0.4876264,-1.2139407,-1.4796523,-0.6199839,0.5299691,242
1747533354910,-0.53033644,-0.5105677,-1.2681215,-1.6325178,-0.6002765,0.61199445,243
1747533354920,-0.5000733,-0.53936654,-1.258115,-1.8492991,-0.46871635,0.7456851,244
1747533354930,-0.48896871,-0.552423595,-1.22785195,-1.8791265,-0.43223105,0.7568703999999999,245
1747533354940,-0.478352235,-0.5742667,-1.1565873,-1.9086876,-0.385892045,0.76912095,246
1747533354950,-0.46956614,-0.58085626,-1.0919122,-1.8801918,-0.38722363,0.763262,247
1747533354960,-0.46248847,-0.5874458,-1.1277885,-1.9100192,-0.4660532,0.7281082,248
1747533354970,-0.46822381,-0.5818325,-1.12742245,-1.94064555,-0.51612062,0.723847165,249
1747533354980,-0.484331595,-0.5648705,-1.11973465,-2.0064255500000003,-0.63223447,0.719053515,250
1747533354990,-0.52936017,-0.54083085,-1.0917900500000002,-2.05942245,-0.74302198,0.7379619500000001,251
1747533355000,-0.64479923,-0.4617563,-0.90496427,-2.031992,-0.8042747,0.86179894,252
1747533355010,-0.6889736,-0.4698102,-0.9088692,-1.788579,-0.6556703,1.1169298,253
1747533355020,-0.674818275,-0.48445364,-0.93095635,-1.72040205,-0.53875751,1.17072565,254
1747533355030,-0.6548055749999999,-0.51361849,-0.97366635,-1.5954997999999998,-0.30652984,1.25860995,255
1747533355040,-0.6378436000000001,-0.5319228,-1.01222745,-1.5089471,-0.13129384,1.3110742,256
1747533355050,-0.6324743500000001,-0.5276517999999999,-1.0916681,-1.6290557,-0.27297401,1.32172685,257
1747533355060,-0.64138246,-0.52911615,-1.0626253,-2.0021646,-1.0365024,1.2836437,258
1747533355070,-0.6074585,-0.54937285,-0.9530435,-2.233327,-1.9313245,1.1920309,259
1747533355080,-0.594401435,-0.560111375,-0.9187535,-2.357164,-2.47221255,1.13157715,260
1747533355090,-0.610631235,-0.5571827,-0.8582273499999999,-2.545982,-3.42935265,1.028512825,261
1747533355100,-0.7332700000000001,-0.49653448,-0.79318607,-2.55903145,-4.2887546,1.001881225,262
1747533355110,-0.9098454,-0.40940603,-0.76694989,-2.38992085,-4.6956856,1.1086740000000002,263
1747533355120,-1.1404796,-0.22184804,-0.9803779,-2.10442995,-4.31485365,1.3912354,264
1747533355130,-1.1652513999999998,-0.208668945,-1.04017195,-1.89031175,-3.6802224,1.7518274,265
1747533355140,-1.2152831,-0.20073708,-1.086909,-1.8596854,-3.25970925,2.0748689,266
1747533355150,-1.23944475,-0.194757685,-1.03577903,-1.92093815,-3.16889535,2.3595608,267
1747533355160,-1.0687267,-0.26480213,-0.7895252,-2.2381206,-3.904727,2.8128307,268
1747533355170,-0.9786696,-0.28798756,-0.66115105,-2.2684808,-4.3239083,2.8549087,269
1747533355180,-0.88373125,-0.29897013,-0.55742675,-2.1928468,-4.657869,2.8314729,270
1747533355190,-0.7826916,-0.31239328,-0.5034901,-2.0383835,-4.909804,2.7265444,271
1747533355200,-0.8110022,-0.1952458,-0.5957437,-1.736381,-5.067463,2.4527714,272
1747533355210,-0.9637821,-0.09005712,-0.6372335,-1.6287893,-5.0030146,2.4564998,273
1747533355220,-1.0633575,0.0039049159,-0.686289,-1.5659387,-4.8916945,2.5582325,274
1747533355230,-1.09056985,0.0091521469499999,-0.68897363,-1.54330185,-4.800880749999999,2.6170884,275
1747533355240,-1.14060155,0.0100063471499999,-0.63857578,-1.4215955,-4.5193844,2.7920582,276
1747533355250,-1.1756238,0.03172744,-0.47639978,-1.1116035,-4.07943,3.055711,277
1747533355260,-1.1612244,0.009030119,-0.4339338,-0.9528791,-3.85679,3.1547806,278
1747533355270,-1.1207108,0.0302631,-0.39586085,-0.7781757,-3.5867455,3.2245555,279
1747533355280,-1.0806854,0.0220871815,-0.3773124949999999,-0.72810825,-3.5409391,3.2186966000000004,280
1747533355290,-1.00759028,0.0137892345,-0.35839807,-0.6591323499999999,-3.4836811,3.17954815,281
1747533355300,-1.0462735,0.065163285,-0.24869433,-0.63436496,-3.7278929,2.988067,282
1747533355310,-1.1343781,0.10177187,-0.16473864,-0.6002765,-3.9180427,2.9795446,283
1747533355320,-1.202226,0.153512,-0.12349297,-0.53316486,-4.0213733,3.0221553,284
1747533355330,-1.2144288,0.162542125,-0.10836142,-0.48709217,-4.0349555,3.058108,285
1747533355340,-1.23200095,0.184385255,-0.09908724,-0.396012055,-4.02004185,3.14306285,286
1747533355350,-1.23163495,0.20537418,-0.0691902269999999,-0.08948222,-3.5515916,3.4099116,287
1747533355360,-1.2100358,0.22013964,0.0093962029999999,0.06657903,-3.3965957,3.4977958,288
1747533355370,-1.1412116,0.21940747,0.06638357,0.19973709,-3.2410672,3.5420043,289
1747533355380,-1.1120467500000002,0.221359925,0.084321778,0.255130835,-3.186206,3.55665165,290
1747533355390,-1.0649437000000002,0.23087816,0.120808338,0.3688478149999999,-3.1103059,3.57502745,291
1747533355400,-1.0601847,0.2660224,0.2306341,0.58696073,-3.2591765,3.5984633,292
1747533355410,-1.0155222,0.28164205,0.2936009,0.70680296,-3.3965957,3.6469328,293
1747533355420,-0.9354714,0.26162934,0.28725538,0.8357,-3.5675707,3.6703687,294
1747533355430,-0.84883108,0.27126962,0.206228375,0.8884305800000001,-3.71564245,3.6682382,295
1747533355440,-0.7138674,0.26358184,0.051007964,0.8905611,-4.0719733,3.6085835,296
1747533355450,-0.681896,0.29018408,0.016839951,0.838096825,-4.17370615,3.58514765,297
1747533355460,-0.6291796,0.29604146,0.06296677,0.74941355,-4.3739758,3.4977958,298
1747533355470,-0.71130485,0.30787823,0.198784625,0.768055675,-4.389688400000001,3.45465265,299
1747533355480,-0.80599905,0.33618885,0.3930541899999999,0.9432917,-4.523645500000001,3.4722296000000004,300
1747533355490,-0.810514125,0.343754615,0.43698448,1.2234563,-4.7031425,3.5995287,301
1747533355500,-0.7084982,0.2933568,0.35022214,1.551025,-4.821387,3.746535,302
1747533355510,-0.61502427,0.27261195,0.32117933,1.7406421,-5.0349727,3.7827542,303
1747533355520,-0.55742675,0.24649782,0.23478307,1.8519622,-5.273059,3.7891457,304
1747533355530,-0.4949481049999999,0.23685756,0.165958927,1.8527612,-5.5596152,3.74626875,305
1747533355540,-0.3993997,0.232952645,0.0411236455,1.8109496,-6.1066284,3.625095,306
1747533355550,-0.29067218,0.2774931,-0.20866893,1.6831179,-6.1790667,3.5025895,307
1747533355560,-0.2550398,0.33435842,-0.21769907,1.4988271,-6.1961107,3.3838124,308
1747533355570,-0.16595893,0.3321619,-0.13276714,1.433846,-6.1806645,3.1510522,309
1747533355580,-0.16595893,0.3321619,-0.13276714,1.433846,-6.1806645,3.1510522,310
1747533355590,-0.23453901,0.37621425,-0.0899350979999999,1.5909725,-5.905293500000001,3.0855385,311
1747533355600,-0.14228538,0.3397277,-0.12520137,1.7939054,-5.8083544,2.9933932,312
1747533355610,-0.07541369,0.3053156,-0.23575929,1.8588865,-5.676794,2.8756814,313
1747533355620,0.0605262,0.36364532,-0.2711476,1.911617,-5.4605455,2.5651567,314
1747533355630,0.0605262,0.36364532,-0.2711476,1.911617,-5.4605455,2.5651567,315
1747533355640,0.1129985075,0.37279746,-0.23283062,2.0458405,-5.3518887,2.262089,316
1747533355650,0.20403185,0.44003522,-0.5532778,2.0671456,-5.065865,2.1294637,317
1747533355660,0.35949633,0.4893348,-0.77317333,1.943575,-4.71273,1.9366508,318
1747533355670,0.5266756,0.47664383,-0.8332114,1.598962,-3.8418763,1.2516857,319
1747533355680,0.44613665,0.5127643,-0.86225426,1.5952336,-3.2969935,1.009338,320
1747533355690,0.418436155,0.5233808,-0.862620355,1.6522252000000002,-2.98247425,0.925448465,321
1747533355700,0.37658033,0.50763905,-0.8881243,1.8722023,-2.0431771,0.6764429,322
1747533355710,0.3912238,0.4556549,-1.1358424,1.9947077,-1.5414376,0.50173956,323
1747533355720,0.409284,0.49421594,-1.3276714,1.9068234,-0.7781757,0.123038046,324
1747533355730,0.4058672,0.5255772949999999,-1.4077222,1.8112159,-0.576041765,0.051132695,325
1747533355740,0.38439017,0.595011595,-1.54756705,1.5952335,-0.1637844125,-0.060453758,326
1747533355750,0.36401138,0.667862685,-1.67093795,1.2945626,0.3510046525,-0.109988555,327
1747533355760,0.35827604,0.7380291,-1.7433008,0.7403587850000001,1.03730125,-0.12117383,328
1747533355770,0.31703037,0.7250941,-1.6312786,-0.017576864,1.649562,-0.092145376,329
1747533355780,0.303607225,0.7067897999999999,-1.5463467,-0.191747602,1.70921685,-0.075900093,330
1747533355790,0.2889638,0.6074585,-1.2093037,-0.664725,1.7965685,-0.051132694,331
1747533355800,0.309830685,0.56596875,-1.0823939,-0.7651262,1.794438,-0.072970614,332
1747533355810,0.4893348,0.47054234,-0.6296677,-0.9502159,1.8594191,-0.33502567,333
1747533355820,0.6035536,0.4612682,-0.58891016,-0.92464954,2.0793962,-0.6066681,334
1747533355830,0.63149813,0.47505745,-0.5903745,-0.907871635,2.2650186000000003,-0.7246461500000001,335
1747533355840,0.6618832299999999,0.5088594,-0.5730464200000001,-0.837031545,2.7124297,-0.9507485,336
1747533355850,0.61502425,0.5652366,-0.52167237,-0.640223935,3.5073832,-1.22931515,337
1747533355860,0.54253924,0.5791479,-0.45809543,-0.44474792,4.327104,-1.568602,338
1747533355870,0.49470404,0.5640163,-0.417826,-0.46552056,4.433098,-1.7374463,339
1747533355880,0.45467864,0.55437605,-0.3701128099999999,-0.482032165,4.42644,-1.81094955,340
1747533355890,0.397325185,0.54180712,-0.26626645,-0.486559535,4.391019999999999,-1.95342875,341
1747533355900,0.38109539,0.55486417,-0.1708400649999999,-0.425839465,4.36758425,-2.0852553,342
1747533355910,0.38609856,0.58036816,-0.12495731,0.013315806,4.871987,-2.4921863,343
1747533355920,0.37194324,0.5874458,-0.12813005,0.24341293,5.183577,-2.6599653,344
1747533355930,0.363401235,0.593303175,-0.1475326,0.50653327,5.603291,-2.8138962,345
1747533355940,0.337409135,0.611485425,-0.181090475,0.64288712,5.835518499999999,-2.8945899,346
1747533355950,0.264314,0.6164886,-0.28408262,1.1526161,6.7484503,-3.3182988,347
1747533355960,0.24064046,0.6047739,-0.2779812,1.320928,7.057377,-3.4977958,348
1747533355970,0.15180361,0.59867245,-0.25479576,1.4860439,7.2842784,-3.678358,349
1747533355980,0.0517401385,0.6138040250000001,-0.2331966899999999,1.54756295,7.2592447,-3.7494645,350
1747533355990,-0.1364279965,0.6358912000000001,-0.1951237599999999,1.5928367,6.9833412500000005,-3.8250983,351
1747533356000,-0.39830142,0.7268025,-0.23039004,1.3651364,5.665609,-3.6490633,352
1747533356010,-0.35315084,0.7072779,-0.25870067,1.2740563,5.24696,-3.5824845,353
1747533356020,-0.33118567,0.690438,-0.29018408,1.2170646,5.0291133,-3.5334823,354
1747533356030,-0.338263335,0.6999561999999999,-0.280177725,1.2439626,5.0544133,-3.49300215,355
1747533356040,-0.34021579,0.7070338199999999,-0.25064679,1.3427658999999998,5.12045975,-3.40565035,356
1747533356050,-0.42612398,0.7038611,-0.27334413,1.5174692,5.1462927,-3.2740903,357
1747533356060,-0.431615265,0.7009324,-0.269195155,1.49483235,4.94948505,-3.18514075,358
1747533356070,-0.41758196,0.6873872249999999,-0.259432855,1.4434333499999998,4.5806372,-3.0855385,359
1747533356080,-0.39695911,0.665910175,-0.2534534499999999,1.3853764,4.2639873,-3.0708911,360
1747533356090,-0.3904916,0.6572462,-0.25137895,1.35261955,4.0293628,-3.0589069,361
1747533356100,-0.36596385,0.61746485,-0.28396061,1.37312595,3.7734331,-3.0799458,362
1747533356110,-0.44003522,0.6037976,-0.35193056,1.4471618,3.6985981,-3.0929954,363
1747533356120,-0.50495446,0.6321083,-0.35119838,1.5776566,3.8727689,-3.0141659,364
1747533356130,-0.548030555,0.6377216,-0.3664519499999999,1.6679378,4.02536795,-2.95424475,365
1747533356140,-0.587323775,0.64479925,-0.36010646,1.903894,4.37477465,-2.8122982,366
1747533356150,-0.485918,0.54815257,-0.2169669,2.6098979,4.8799763,-2.637062,367
1747533356160,-0.47786412,0.5347294,-0.25137895,2.8234835,4.761732,-2.654639,368
1747533356170,-0.4720067,0.5444917,-0.38487828,2.8650289,4.4075317,-2.672216,369
1747533356180,-0.53765815,0.55742675,-0.6489482,2.3989756,3.1792817,-2.6812706,370
1747533356190,-0.55010504,0.5867136,-0.7304634,2.031992,2.47674,-2.621616,371
1747533356200,-0.5518134,0.5879339,-0.7902574,1.6245283,1.8402443,-2.572081,372
1747533356210,-0.6428468,0.5847612,-0.8158834,1.2245215,1.2937636,-2.4714136,373
1747533356220,-0.6272271,0.5710939,-0.76219076,0.892159,0.94488955,-2.3158848,374
1747533356230,-0.5462001,0.46810177,-0.54668826,0.88044107,0.92731273,-2.1859226,375
1747533356240,-0.50373415,0.438204765,-0.48494175,0.960069585,0.964064365,-2.1861889000000003,376
1747533356250,-0.37584817,0.33753118,-0.33997175,1.1760519500000002,1.0817761,-2.2357237000000003,377
1747533356260,-0.38951537,0.313613565,-0.317884565,1.46873335,1.2242552,-2.3441144,378
1747533356270,-0.5039782349999999,0.313125445,-0.36584182,1.91241605,1.3454290000000002,-2.4141556,379
1747533356280,-0.5967199999999999,0.3282569899999999,-0.49787678,2.2873892,1.40401855,-2.4311998,380
1747533356290,-0.6134379,0.318250655,-0.6527311,2.3976441,1.37285955,-2.4447819,381
1747533356300,-0.6884855,0.32972135,-0.829794665,2.36115875,1.2681973,-2.43439555,382
1747533356310,-0.765729635,0.3619369,-0.978791615,2.0793962,0.9827065,-2.334527,383
1747533356320,-0.7987994,0.40611124,-1.1519502,1.5494272,0.83996105,-2.118811,384
1747533356330,-0.7676821,0.38085133,-1.1159517499999998,1.4538197,0.822117875,-2.0940435,385
1747533356340,-0.64162654,0.3014107,-0.90447617,1.2607405,0.7419567,-2.0879183,386
1747533356350,-0.541319,0.27773714,-0.7524285,1.2490226,0.59867865,-2.1385183,387
1747533356360,-0.41758195,0.24064046,-0.65846646,1.2697952,0.41918156,-2.2194786,388
1747533356370,-0.18109047,0.117391534,-0.55767083,1.3651364,0.19867182,-2.5688853,389
1747533356380,-0.183897135,0.068458057,-0.57438874,1.40934485,0.200269715,-2.66475905,390
1747533356390,-0.34290043,-0.044662476,-0.66139513,1.5371766,0.16724652,-2.8889973,391
1747533356400,-0.476887865,-0.0344120715,-0.713501365,1.5598135,0.127831735,-2.88207305,392
1747533356410,-0.8080735,0.10665302,-1.1685461,1.5068166,-0.0127831735,-2.7206855,393
1747533356420,-0.7307074,0.06662763,-1.2207743,1.22345625,-0.16698020675,-2.61282745,394
1747533356430,-0.6731099,0.05405868,-1.1747695,0.7768440999999999,-0.38855521,-2.49831155,395
1747533356440,-0.4829893,-0.004881145,-0.9513352,0.4293016,-0.525708,-2.5411885,396
1747533356450,-0.47444725,-0.0959145,-0.7326599,0.49641323,-0.37390783,-2.6391926,397
1747533356460,-0.59061855,-0.18182266,-0.29384494,1.3619406,0.20719394,-2.6573021,398
1747533356470,-0.6321083,-0.21818718,-0.27187976,1.9547603,0.5363607,-2.6253443,399
1747533356480,-0.63674538,-0.233928875,-0.345340995,2.20696165,0.67937245,-2.61708845,400
1747533356490,-0.68763131,-0.251012885,-0.534973485,2.6144253500000003,0.9219864,-2.5976473,401
1747533356500,-0.8712844,-0.21818718,-0.895446,2.8708878,1.0061423,-2.4900556,402
1747533356510,-0.9020356,-0.18401916,-1.2158931,2.57794,0.62317973,-2.2647521,403
1747533356520,-0.8603018,-0.15668476,-1.2937474,2.294047,0.46392268,-2.1704764,404
1747533356530,-0.82979465,-0.148630865,-1.27947005,2.12174045,0.45167214,-2.11162055,405
1747533356540,-0.7407138,-0.12764193,-1.1504859,1.743838,0.49854377,-1.9339876,406
1747533356550,-0.66920495,-0.15253578,-1.0157663,1.6101472,0.53263223,-1.7390442,407
1747533356560,-0.53106856,-0.26187342,-0.6799435,1.591505,0.5299691,-1.7028252,408
1747533356570,-0.50507648,-0.31336951,-0.60257735,1.6567525,0.494282725,-1.7097494,409
1747533356580,-0.48909074,-0.432103365,-0.467735715,1.8522286,0.4194478849999999,-1.7409084,410
1747533356590,-0.51471674,-0.6216138,-0.42026657,2.3307986,0.27856666,-1.8636801,411
1747533356600,-0.5964759,-0.626495,-0.571338,2.6493127,0.1949434,-1.937716,412
1747533356610,-0.8288184,-0.50495446,-1.1316935,2.8367991,0.23755397,-1.804558,413
1747533356620,-0.86567104,-0.45931572,-1.3022895,2.6828685,0.3323625,-1.6895094,414
1747533356630,-0.8629864199999999,-0.4444282499999999,-1.34866035,2.5662221,0.3784351999999999,-1.62372935,415
1747533356640,-0.82198477,-0.39634898,-1.4206573,2.1821942,0.53476274,-1.4418354,416
1747533356650,-0.6975156,-0.43613032,-1.1685461,1.7534252,0.81439465,-1.257012,417
1747533356660,-0.6552937,-0.49397188,-0.9828185,1.7060211,0.9054748,-1.1973573,418
1747533356670,-0.605506,-0.528628,-0.797335,1.7662084,0.9219864,-1.1451592,419
1747533356680,-0.5862255,-0.57451075,-0.6801876,1.9190739,0.8697884,-1.1020161,420
1747533356690,-0.5679212,-0.60843474,-0.6616392,2.1534321,0.7483483,-1.0737866,421
1747533356700,-0.5771954,-0.60038084,-0.8639627,2.359028,0.66845345,-1.0279802,422
1747533356710,-0.5640163,-0.5850052,-0.97476465,2.3787355,0.7664578,-1.0034791,423
1747533356720,-0.5574267500000001,-0.58171045,-1.013447725,2.3739419,0.85380948,-0.99042963,424
1747533356730,-0.54937287,-0.584029025,-1.0933765,2.3414513,1.01839278,-0.96220013,425
1747533356740,-0.5579148700000001,-0.580612225,-1.1537807,2.25356685,1.1627361,-0.923584275,426
1747533356750,-0.6008689300000001,-0.5642603749999999,-1.0892275,2.076733,1.200553,-0.8263788750000001,427
1747533356760,-0.613804,-0.5608435,-0.9515792,1.9068234,1.02238753,-0.7028082,428
1747533356770,-0.59867245,-0.5787817500000001,-0.95060297,1.7566211,0.57790595,-0.5933523,429
1747533356780,-0.520086,-0.6360132,-0.9725681,1.6772588,0.33662358,-0.5629923,430
1747533356790,-0.4711525,-0.6462635999999999,-1.0011228,1.64210515,0.290284565,-0.57071545,431
1747533356800,-0.3978133,-0.68030957,-1.0459073,1.5707325,0.341150925,-0.5803028,432
1747533356810,-0.37194324,-0.69507504,-1.0455412,1.5425029,0.4527374,-0.54275227,433
1747533356820,-0.36035052,-0.69287852,-1.05481545,1.5241270999999998,0.4162521,-0.525974335,434
1747533356830,-0.348269685,-0.6899498500000001,-1.07848905,1.47166285,0.3270362,-0.49641323,435
1747533356840,-0.3491238949999999,-0.6746962750000001,-1.0994779,1.4024206499999998,0.2314287049999999,-0.46152583,436
1747533356850,-0.35046622,-0.66017485,-1.1060674,1.32785215,0.180029695,-0.4130563,437
1747533356860,-0.36169282,-0.64772797,-1.0985017,1.0982877,0.1933455,-0.23435818,438
1747533356870,-0.31361356,-0.65993077,-1.0899596,1.0258497,0.125967522,-0.2074602549999999,439
1747533356880,-0.2885977,-0.675672485,-1.0811736,0.8591357799999999,-0.077231678,-0.18029601,440
1747533356890,-0.20598431,-0.7563334,-0.9786696,0.4745753,-0.8793758,-0.2908172,441
1747533356900,-0.2186753,-0.7690244,-0.9808661,0.41705105,-1.0833739,-0.36911413,442
1747533356910,-0.23600335,-0.77634615,-1.0252845,0.4133226,-1.1472899,-0.4346279,443
1747533356920,-0.272856,-0.7653635,-1.1294969,0.40213734,-1.0381002,-0.5075985,444
1747533356930,-0.3116611099999999,-0.74474065,-1.19343995,0.36378782,-0.95154748,-0.519316425,445
1747533356940,-0.3937863849999999,-0.703128925,-1.29386955,0.18216023,-0.6961503,-0.5113269,446
1747533356950,-0.56670094,-0.59135073,-1.4201691,-0.2759035,-0.48203218,-0.3850931,447
1747533356960,-0.6035536,-0.5869577,-1.3330406,-0.51505536,-0.4133226,-0.28868666,448
1747533356970,-0.597330125,-0.60245532,-1.313272,-0.71479246,-0.42344262,-0.20905815,449
1747533356980,-0.59110665,-0.61795294,-1.2935034,-0.91452956,-0.43356264,-0.12942964,450
1747533356990,-0.5933032,-0.6587105,-1.2041785,-1.2596753,-0.6924219,-0.05965481,451
1747533357000,-0.5930591,-0.65212095,-1.2007617,-1.4689997,-0.97045594,-0.047404267,452
1747533357010,-0.61844105,-0.6355251,-1.274711,-1.5816514499999998,-1.07405292,-0.0351537259999999,453
1747533357020,-0.6274712,-0.62356627,-1.3293798,-1.963815,-1.3305153,0.014913702,454
1747533357030,-0.64052825,-0.6194172849999999,-1.3204717,-2.21122265,-1.34276585,0.070307451,455
1747533357040,-0.67213365,-0.6144141000000001,-1.2599455,-2.5369272,-1.3219932,0.17603495,456
1747533357050,-0.67579454,-0.61966133,-1.0963051,-2.6727486,-1.2170646,0.34194988,457
1747533357060,-0.65895456,-0.63943,-1.0067362,-2.650378,-1.1073424,0.44900897,458
1747533357070,-0.6186851,-0.64211464,-0.8471227,-2.3600934,-0.87351686,0.67005134,459
1747533357080,-0.5963538749999999,-0.6456534700000001,-0.85834935,-2.30576495,-0.884702145,0.6988134699999999,460
1747533357090,-0.564992525,-0.6480940500000001,-0.890931,-2.2325280000000003,-0.92358428,0.7470167,461
1747533357100,-0.5637722,-0.64431113,-0.9283937,-2.2154837,-1.028779115,0.7840346499999999,462
1747533357110,-0.5623079,-0.626739,-0.9974619,-2.282329,-1.2836437,0.8383631,463
1747533357120,-0.5632841,-0.6252747,-1.0855666,-2.531601,-1.526524,0.9219864,464
1747533357130,-0.5632841,-0.6252747,-1.0855666,-2.531601,-1.526524,0.9219864,465
1747533357140,-0.59318112,-0.6290576,-0.99965848,-2.5891253,-1.74330525,0.979777,466
1747533357150,-0.61258367,-0.6296677500000001,-0.966344655,-2.62987165,-1.98804985,1.01333285,467
1747533357160,-0.69556314,-0.5835409,-0.89154106,-2.6407907,-2.3584955,1.107875,468
1747533357170,-0.779274795,-0.5736565499999999,-0.869575945,-2.4887241,-2.3166839,1.24396255,469
1747533357180,-0.882022875,-0.5675551,-0.866159165,-2.27061115,-2.24690915,1.4530207000000002,470
1747533357190,-0.91301812,-0.56487048,-0.909967415,-2.1704763,-2.18033,1.5954998,471
1747533357200,-0.946454,-0.5347294,-0.9596331,-2.1124194,-2.0991037,1.7917749,472
1747533357210,-0.9081371,-0.5559624,-1.001611,-2.2812638,-2.3616912,1.9563582,473
1747533357220,-0.8815348,-0.54937285,-0.9886759,-2.35396815,-2.50124095,1.97553295,474
1747533357230,-0.85700705,-0.5465661749999999,-0.96622265,-2.5092305,-2.84239195,1.9965719,475
1747533357240,-0.8222289,-0.54790854,-0.8581053,-2.67168325,-3.3135051,1.9896477,476
1747533357250,-0.8222289,-0.54790854,-0.8581053,-2.751578,-3.583017,1.9808593,477
1747533357260,-0.882999155,-0.538756375,-0.61844107,-2.67754225,-4.241350499999999,1.95555915,478
1747533357270,-1.0755602,-0.37926495,-0.47981656,-2.324407,-5.4435015,2.0442424,479
1747533357280,-1.13059515,-0.32630454,-0.4834774149999999,-2.27274175,-5.67599525,2.1084247,480
1747533357290,-1.2783719,-0.21281794,-0.54083085,-2.2019017,-6.40437,2.3297334,481
1747533357300,-1.4767904,-0.14765464,-0.5518134,-2.2034996,-7.3204975,2.7563717,482
1747533357310,-1.4628792,-0.1147069,-0.54766446,-2.0879183,-7.488809,3.073288,483
1747533357320,-1.3332847,-0.17157225,-0.60013676,-1.9707392,-7.330085,3.2591765,484
1747533357330,-1.2726365,-0.205252155,-0.57719538,-1.89537175,-7.1916005,3.30178715,485
1747533357340,-1.1502419,-0.25870067,-0.4510178,-1.5909724,-6.653109,3.3710294,486
1747533357350,-1.1336459,-0.22526483,-0.20525214,-0.922519,-5.6618805,3.3992589,487
1747533357360,-1.1431642,-0.19475769,-0.14497001,-0.561927,-5.0914316,3.4184337,488
1747533357370,-1.1529264,-0.1598575,-0.12544543,-0.4098604999999999,-4.8128648,3.43494525,489
1747533357380,-1.16879015,-0.13911263,-0.091155385,-0.0026631611,-4.0448093,3.5159054,490
1747533357390,-1.2217506,-0.08102701,0.04612682,0.23169503,-3.7694383,3.6011264,491
1747533357400,-1.2481087,-0.05515694,0.033191785,0.43888897,-3.6075182,3.6996634,492
1747533357410,-1.2144289,-0.054668825,-0.017816179,0.43356264,-3.7502635,3.7870152,493
1747533357420,-1.206497,-0.0483233349999999,-0.026480211,0.36032571,-3.88874775,3.779292,494
1747533357430,-1.20027355,-0.0226973233,-0.0314833845,0.22290659,-4.1412155,3.7675741,495
1747533357440,-1.19966345,0.0139112627,-0.0006101419999999,0.12463594,-4.3076632,3.76251415,496
1747533357450,-1.0594525,0.04637088,0.1696198,0.1784318,-4.221643,3.768373,497
1747533357460,-1.018939,0.036608588,0.27602875,0.340352,-4.037352,3.7364151,498
1747533357470,-0.989164,0.055400997,0.37755656,0.47670585,-3.9204393,3.72123505,499
1747533357480,-0.9597551,0.062966771,0.40977213,0.726244035,-3.7223003,3.67862445,500
1747533357490,-0.9030118,0.106164895,0.37267542,0.9933591,-3.4812841,3.6053874,501
1747533357500,-0.82906246,0.15058333,0.3660859,1.0066749,-3.44080405,3.4975295,502
1747533357510,-0.85590875,0.20110317,0.44613665,0.99229383,-3.491937,3.2900693,503
1747533357520,-0.9071608,0.26651052,0.56743306,1.0327739,-3.6416066,3.2778187,504
1747533357530,-0.8760434500000001,0.27078152,0.575609,1.0692592,-3.71750665,3.2738240000000003,505
1747533357540,-0.82442533,0.270171375,0.61136342,1.16752985,-3.83148985,3.2682314000000003,506
1747533357550,-0.70312893,0.26651052,0.58329684,1.6532904,-3.6884782,3.290602,507
1747533357560,-0.669204965,0.26370386,0.57536495,1.726261,-3.64187285,3.27515555,508
1747533357570,-0.59672,0.27212384,0.54253924,1.9169434,-3.5723643,3.2186966,509
1747533357580,-0.57817162,0.2831064199999999,0.512398185,1.9550266,-3.5723643,3.1936629,510
1747533357590,-0.56645685,0.33753118,0.46736962,2.0575583,-3.711914,3.0807447,511
1747533357600,-0.5989165,0.35632357,0.4527262,2.1092236,-3.8317564,3.1185617,512
1747533357610,-0.6242984,0.36218095,0.49031103,2.1848574,-3.9883502,3.1856732,513
1747533357620,-0.6452874,0.33631086,0.50617474,2.3323965,-4.14015,3.2879388,514
1747533357630,-0.58183247,0.31995904,0.41807005,2.4783378,-4.2461443,3.3720946,515
1747533357640,-0.40830776,0.3104408,0.21965154,2.4911208,-4.221643,3.3433325,516
1747533357650,-0.25089085,0.3236199,0.12520137,2.4005735,-4.1571946,3.178749,517
1747533357660,-0.2660224,0.3392396,0.12837411,2.4256072,-4.077832,3.0983217,518
1747533357670,-0.278713385,0.35302882,0.148630865,2.46289145,-3.98275735,3.0927291,519
1747533357680,-0.262361545,0.34180218,0.2268512099999999,2.582201,-3.82749525,3.0778154,520
1747533357690,-0.23331872,0.31678632,0.2848148,2.83893,-3.6895435,3.0099046,521
1747533357700,-0.21745501,0.260287065,0.225752955,2.9720879,-3.65998235,2.9944583,522
1747533357710,-0.11006982,0.27554062,0.04515059,3.2820797,-3.470099,2.926814,523
1747533357720,0.045638707,0.30165476,-0.079562664,3.3342776,-3.2298818,2.8304076,524
1747533357730,0.084931925,0.28554696,-0.09542638,3.445598,-3.0727553,2.5076325,525
1747533357740,0.0927417525,0.282252195,-0.11409676,3.4900728,-3.0282805,2.4309335,526
1747533357750,0.14301755,0.275174545,-0.166447045,3.56650545,-2.96756045,2.26102375,527
1747533357760,0.219285445,0.269073115,-0.268096875,3.583017,-2.9862026,2.0530308,528
1747533357770,0.28701133,0.2723679,-0.5176454,3.4402716,-3.107909,1.7092168,529
1747533357780,0.31056285,0.2932348,-0.6477279250000001,3.2746229,-3.015231,1.5219966,530
1747533357790,0.36767225,0.31129502,-0.8208865750000001,3.05970575,-2.8309402,1.25355,531
1747533357800,0.42624599,0.285424935,-0.90313385,2.96409835,-2.6341326,1.0687266,532
1747533357810,0.464685,0.22916976,-1.0799533,2.8352013,-2.2461102,0.7669904,533
1747533357820,0.4809148,0.22916976,-1.2418853,2.68792845,-1.89883395,0.5866944,534
1747533357830,0.47225076,0.22111587,-1.4943625,2.441586,-1.40881225,0.32943303,535
1747533357840,0.47420323,0.2338068449999999,-1.5480551500000002,2.25010475,-1.10601083,0.19760655,536
1747533357850,0.48359944,0.26638848,-1.6868017000000002,1.9313245,-0.5566007,0.055926383,537
1747533357860,0.56865335,0.3482697,-2.0769272,1.0892329,0.26631612,-0.13315806,538
1747533357870,0.5862255,0.36047253,-2.0984042,0.6098639,0.5795039,-0.22583607,539
1747533357880,0.60306545,0.36559774,-2.07314435,0.36938045,0.723048275,-0.275104555,540
1747533357890,0.60843474,0.383658,-1.965149,-0.34780884,1.2175972,-0.4165184,541
1747533357900,0.5091034,0.35461518,-1.4206573,-0.98590225,1.897236,-0.567786,542
1747533357910,0.4424758,0.33142975,-1.1280326,-1.058073925,2.0232035,-0.592287075,543
1747533357920,0.38707477,0.33069757,-0.87250465,-1.200553,2.2860575,-0.6695187,544
1747533357930,0.34290043,0.35534734,-0.68994987,-1.2708606,2.23599,-0.69508505,545
1747533357940,0.366574,0.35876414,-0.5835409,-1.3923006,1.9947077,-0.76965356,546
1747533357950,0.40513504,0.37828872,-0.52960426,-1.5041534,1.7667412,-0.86179894,547
1747533357960,0.42807645,0.4515059,-0.51593703,-1.5797871,1.7848506,-1.0183928,548
1747533357970,0.4795725,0.48640612,-0.5735345,-1.5526229,2.0575583,-1.077515,549
1747533357980,0.50934748,0.48896871,-0.6034315299999999,-1.5518239500000002,2.21867955,-1.1315772,550
1747533357990,0.5706058,0.485918,-0.67628264,-1.5707325,2.7201529,-1.3310479,551
1747533358000,0.5663348,0.47383715,-0.66896092,-1.58804305,2.8831383,-1.4231933,552
1747533358010,0.340948,0.4429639,-0.3436326,-1.5520903,3.4738274,-1.8258632,553
1747533358020,0.281031935,0.44955345,-0.28481481,-1.4868429,3.48820845,-1.88392015,554
1747533358030,0.1701079,0.48128092,-0.19939478,-1.38431125,3.47728945,-1.96967395,555
1747533358040,0.22282428,0.49128726,-0.18206671,-1.2985574,3.3491914,-2.0921793,556
1747533358050,0.34558508,0.49079913,-0.1718163,-1.1456919,3.4487936,-2.450641,557
1747533358060,0.30922052,0.53717,-0.18157859,-0.984837,3.7257624,-2.610963,558
1747533358070,0.2716357,0.5554742850000001,-0.200371005,-0.9238506,3.8490667,-2.67967265,559
1747533358080,0.203787795,0.58622551,-0.2428369699999999,-0.8394284,4.0605218,-2.80643925,560
1747533358090,0.15546446,0.62600684,-0.27334413,-0.81306312,4.2237738,-2.91429735,561
1747533358100,0.15936938,0.600014745,-0.241372625,-0.75127777,4.5225805,-3.1135018,562
1747533358110,0.12861817,0.53717,-0.13569583,-0.5475459,5.099421,-3.3987262,563
1747533358120,0.094450155,0.50544255,-0.0135451749999999,-0.404800485,5.245096,-3.46796845,564
1747533358130,0.040269446,0.44064535,0.23209845,-0.04687164,5.433914,-3.62083385,565
1747533358140,-0.06931226,0.41074833,0.42002252,0.394414165,5.4672035,-3.7840856,566
1747533358150,-0.224288605,0.5080051649999999,0.32203354,1.27885,5.44723,-3.9063249,567
1747533358160,-0.37365164,0.622468035,0.17596528,1.3893712,5.42912035,-3.89300895,568
1747533358170,-0.36510964,0.648094035,0.059671998,1.56460715,5.3689327,-3.874633,569
1747533358180,-0.333626255,0.65797833,-0.071874857,1.6450346,5.257346350000001,-3.87516575,570
1747533358190,-0.277981205,0.63686738,-0.162176035,1.6791231,5.1814463,-3.9129827,571
1747533358200,-0.4339338,0.5972081,-0.20940112,1.8722023,5.227785,-4.0458746,572
1747533358210,-0.60697037,0.58842206,-0.28457075,1.84051065,5.0725228,-4.0211071,573
1747533358220,-0.7192367,0.60648227,-0.35119838,1.6170714,4.4554687,-3.8637142,574
1747533358230,-0.7124031,0.60257736,-0.338385375,1.53744295,4.26212315,-3.8051246,575
1747533358240,-0.7447406999999999,0.605750075,-0.2997023,1.4306502,3.97476805,-3.6890107,576
1747533358250,-0.76939047,0.5926929999999999,-0.219285435,1.47246175,3.81657625,-3.4764905,577
1747533358260,-0.66969305,0.53912246,-0.14008886,1.7209347,3.8429415,-3.2810144,578
1747533358270,-0.6487042,0.4983649,-0.12373702,1.8168085,3.87010575,-3.28660715,579
1747533358280,-0.66944905,0.49629042,-0.15143752,1.97979405,3.8405447,-3.31057565,580
1747533358290,-0.7541369,0.51496077,-0.33875147,1.995773,3.4072483,-3.3119073,581
1747533358300,-0.9610975,0.5603554,-0.43246946,1.6964337,2.660498,-3.134008,582
1747533358310,-0.97549677,0.5613316,-0.49519217,1.5153387,2.2104237,-3.037069,583
1747533358320,-1.0033194,0.59061855,-0.5879339,1.4234596000000002,2.0796625,-2.9656963,584
1747533358330,-0.9645143,0.592204925,-0.596842,1.26580045,1.92333495,-2.8250813,585
1747533358340,-0.851027675,0.5585249999999999,-0.567433125,1.1677962000000002,1.9044265,-2.7324032000000003,586
1747533358350,-0.686289,0.36144876,-0.31312546,1.24343,1.9648802,-2.7758128500000003,587
1747533358360,-0.8427297,0.33631086,-0.2306341,1.6618125,2.191249,-2.8618329,588
1747533358370,-0.97549677,0.3577879,-0.22331238,1.86208225,2.29005225,-2.82827715,589
1747533358380,-0.981232135,0.3555914,-0.271757755,2.2447785,2.48366405,-2.75956765,590
1747533358390,-1.0282133,0.37706846,-0.4583395,2.6988475,2.7036412,-2.64878,591
1747533358400,-1.03175205,0.400375905,-0.5350955,2.7638286,2.6948527,-2.58779365,592
1747533358410,-1.0172306,0.5132524,-0.91472656,2.4873924,2.207228,-2.1864552,593
1747533358420,-1.0062481,0.5640163,-1.0072243,2.3158848,2.0367857000000003,-2.0674119500000003,594
1747533358430,-0.91802135,0.54729838,-1.00063472,1.93452015,1.64157255,-1.86447915,595
1747533358440,-0.5926930100000001,0.40806371,-0.868599745,0.9933591,0.3653857,-1.9574234,596
1747533358450,-0.38316986,0.14521407,-0.54790854,0.90494215,0.020240024,-2.1688783,597
1747533358460,-0.596964,0.052472305,-0.32020313,1.1073424,-0.13635385,-2.28659,598
1747533358470,-0.7582859,0.03636453,-0.24698594,1.5632756,-0.034088463,-2.3068302,599
1747533358480,-0.7582859,0.03636453,-0.24698594,2.1177458,0.5438174685,-2.19151535,600
1747533358490,-1.0082005,0.13325526,-0.750232,2.97901215,1.59896195,-1.96834245,601
1747533358500,-0.98721157,0.162420095,-0.8834872500000001,3.39446515,2.3297334000000003,-1.7707359,602
1747533358510,-0.82808626,0.20134723,-1.1949043,3.4559842,2.6636938,-1.6189357,603
1747533358520,-0.588178,0.1564407,-1.2261436,3.00164905,2.3068302000000003,-1.5835156,604
1747533358530,-0.588178,0.1564407,-1.2261436,2.5944517,1.8695391,-1.6101472,605
1747533358540,-0.45980385,0.03904916,-1.0291895,1.5584819,0.44048685,-1.8152106,606
1747533358550,-0.454556615,-0.014643435,-0.954751985,1.3262542,-0.011185277,-1.9728698,607
1747533358560,-0.40220633,-0.16547081,-0.77146494,1.4183996,0.0969390615,-2.15023635,608
1747533358570,-0.494948115,-0.1608337249999999,-0.7712208899999999,1.510545,0.2050634,-2.3276029,609
1747533358580,-0.6509007,-0.127397885,-0.7917217,1.93771605,0.89988215,-2.31002585,610
1747533358590,-0.7385172,-0.065163285,-0.9022797,2.2919164,1.5717977,-2.107093,611
1747533358600,-0.6965394,-0.058085624,-0.9691513,2.3643544,1.8588865,-1.963815,612
1747533358610,-0.45907167,-0.14277348,-0.97085977,2.3158848,1.9126823,-1.9004318,613
1747533358620,-0.4258799,-0.16437255,-0.957924685,2.1406489,1.7254621,-1.94091185,614
1747533358630,-0.358154015,-0.22111586,-0.9268074,1.86740865,1.4397049000000002,-2.01414885,615
1747533358640,-0.20818083,-0.35607952,-0.79831123,1.690042,1.2357068,-2.1742048,616
1747533358650,-0.054424766,-0.507395,-0.71264714,1.7859159,1.2090752,-2.4825988,617
1747533358660,-0.14179726,-0.6428468,-0.71142685,1.9680761,1.3576796,-2.7931235,618
1747533358670,-0.2853029,-0.61966133,-0.7065457,2.4138892,1.6580842,-3.0844731,619
1747533358680,-0.42246306,-0.6125837,-0.7236297,2.6136262,1.7065537,-3.06157,620
1747533358690,-0.5213063,-0.65260905,-0.7136234,2.757437,1.5797871,-2.9736857,621
1747533358700,-0.5725583,-0.68311626,-0.6879974,2.8730183,1.3198626,-2.8639636,622
1747533358710,-0.6545615,-0.6984919,-0.912286,2.9736857,0.8676579,-2.57794,623
1747533358720,-0.75950617,-0.68433654,-0.99965847,2.8575718,0.62264705,-2.3020365,624
1747533358730,-0.87030816,-0.630888,-1.0269929,2.7350664,0.29294774,-2.0149477,625
1747533358740,-0.8715284,-0.62356627,-1.0653099,2.5768747,-0.14114754,-1.7486316,626
1747533358750,-0.8246695,-0.6472398,-1.1236396,2.364887,-0.5725796,-1.5339808,627
1747533358760,-0.7058135,-0.68531275,-1.1390152,2.0506341,-1.0381002,-1.2239889,628
1747533358770,-0.652365,-0.692390425,-1.15170615,2.0317256,-0.99069593,-1.1667309499999998,629
1747533358780,-0.56450443,-0.7139895,-1.1751356,2.0325246,-0.62531024,-1.0199907,630
1747533358790,-0.50641876,-0.7309515,-1.1375508,2.1134846,-0.20186761,-0.92997587,631
1747533358800,-0.4750574199999999,-0.724850035,-1.1229074,2.2343922,0.128897,-0.84368944,632
1747533358810,-0.4053791,-0.69312257,-1.2100358,2.221609,0.31372038,-0.76113147,633
1747533358820,-0.38853914,-0.686777085,-1.25372205,2.1166805,0.25406557,-0.771517785,634
1747533358830,-0.3746279,-0.66188323,-1.3203497,1.7571537,0.011185277,-0.8149273,635
1747533358840,-0.39756927,-0.6377216,-1.2837411,1.5270566,-0.21038973,-0.8490158,636
1747533358850,-0.50837123,-0.5701177,-1.1951483,1.2330436,-0.5858955,-0.8346347,637
1747533358860,-0.5530337,-0.5427833,-1.1678139,1.21253725,-0.6077334,-0.8064051999999999,638
1747533358870,-0.5765852300000001,-0.529604215,-1.1695223,1.200553,-0.6002765,-0.69029135,639
1747533358880,-0.6294236799999999,-0.46785775,-1.2614099,1.1973573,-0.479369,-0.531567,640
1747533358890,-0.6286915,-0.4549227,-1.2969202,1.1488878,-0.37710363,-0.4048005,641
1747533358900,-0.55571836,-0.46492904,-1.4291992,0.8607337,-0.4032026,-0.22583607,642
1747533358910,-0.49397188,-0.4724948,-1.4987555,0.6199839,-0.50600064,-0.19973709,643
1747533358920,-0.43661842,-0.50031734,-1.5412215,0.36218992,-0.6087986,-0.20559604,644
1747533358930,-0.42002252,-0.5181335,-1.565139,0.12836437,-0.65247446,-0.21252026,645
1747533358940,-0.425391795,-0.51752337,-1.5467127500000002,0.02423477,-0.6338323299999999,-0.2055960399999999,646
1747533358950,-0.4144092,-0.53936654,-1.4982674,-0.37337518,-0.4596616,-0.14594123,647
1747533358960,-0.4471129,-0.53936654,-1.449456,-0.49161956,-0.3435478,-0.09054748,648
1747533358970,-0.46200037,-0.5281399,-1.4162643,-0.5747102,-0.28336033,-0.023435818,649
1747533358980,-0.4651731,-0.5349735,-1.3903941,-0.664725,-0.26365295,0.03568636,650
1747533358990,-0.43759465,-0.53887844,-1.4077222,-0.92997587,-0.22104238,0.13262543,651
1747533359000,-0.43442193,-0.5437595,-1.3977158,-1.0934939,-0.23062976,0.18216023,652
1747533359010,-0.41538543,-0.5530337,-1.3730661,-1.2639363,-0.267914,0.22370553,653
1747533359020,-0.402694465,-0.5698736499999999,-1.3567142,-1.33983635,-0.309193,0.229031855,654
1747533359030,-0.38390205,-0.601479075,-1.33304065,-1.4783206999999998,-0.3933489,0.23089607,655
1747533359040,-0.40123013,-0.6230781,-1.3352373,-1.655421,-0.46179214,0.21731395,656
1747533359050,-0.5022698,-0.58232063,-1.359399,-1.7997643,-0.30519825,0.3057309,657
1747533359060,-0.55059314,-0.5640163,-1.3315763,-1.8588865,-0.19760656,0.39734364,658
1747533359070,-0.55059314,-0.5640163,-1.3315763,-1.8588865,-0.19760656,0.39734364,659
1747533359080,-0.55059314,-0.5640163,-1.3315763,-1.8588865,-0.19760656,0.39734364,660
1747533359090,-0.6299118,-0.5710939,-1.193684,-2.118811,-0.4000068,0.69348717,661
1747533359100,-0.6211257,-0.5989165,-1.1507299,-2.3132217,-0.9171927,0.8644621,662
1747533359110,-0.6125837,-0.60867876,-1.1731832,-2.3861923,-1.077515,0.9507485,663
1747533359120,-0.58085626,-0.6142921,-1.219066,-2.4282703,-1.005077,1.0524813,664
1747533359130,-0.56230788,-0.6271051000000001,-1.2313908,-2.4301345,-0.8870989650000001,1.08683605,665
1747533359140,-0.5222825,-0.6549276150000001,-1.23724815,-2.42028085,-0.608798635,1.13157715,666
1747533359150,-0.5588911,-0.70312893,-1.0867869,-2.292449,0.013848438,1.1169298,667
1747533359160,-0.635281,-0.6557818,-1.0492021,-2.2301311,0.05752428,1.1371698,668
1747533359170,-0.673598,-0.60941094,-1.0426126,-2.247708,-0.10173275,1.1819109,669
1747533359180,-0.6898278,-0.595499695,-1.0417584,-2.29750915,-0.260457155,1.21280355,670
1747533359190,-0.70971845,-0.571460025,-1.03687725,-2.41681875,-0.62744078,1.2751215,671
1747533359200,-0.7399816,-0.5027579,-1.0758044,-2.751578,-1.2410331,1.5302523,672
1747533359210,-0.7475473,-0.4966565,-1.0513986,-2.702576,-0.958738,1.6831179,673
1747533359220,-0.6648119,-0.5110559,-1.0299215,-2.308428,0.3121225,1.9627497,674
1747533359230,-0.5989165,-0.5349735,-1.0099089,-2.0511668,1.0354371,1.995773,675
1747533359240,-0.5703618,-0.53717,-1.0265048,-2.0511668,1.0354371,1.995773,676
1747533359250,-0.55767083,-0.5259434,-1.0755602,-1.8455707,1.6847157,1.8695391,677
1747533359260,-0.5503491,-0.49421594,-1.1148535,-1.9686087,1.555286,1.7598169,678
1747533359270,-0.5862255,-0.40269446,-1.0543274,-2.368083,0.9422264,1.6112125,679
1747533359280,-0.61539035,-0.386830745,-1.0373654,-2.4197483,0.8167915299999999,1.61440825,680
1747533359290,-0.656391975,-0.352052585,-1.0211356,-2.5116273,0.58030282,1.638643,681
1747533359300,-0.6765267,-0.32154542,-1.022844,-2.58726105,0.3768373,1.6863136,682
1747533359310,-0.67677075,-0.28701133,-1.0431006,-2.666357,0.20879184,1.7832527,683
1747533359320,-0.6257628,-0.28920785,-1.0450531,-2.6594326,0.3009372,1.8354506,684
1747533359330,-0.61307182,-0.2710255849999999,-1.048836,-2.5747441,0.53982277,1.85915275,685
1747533359340,-0.595133605,-0.234294965,-1.0808075499999998,-2.46049455,0.93796537,1.8940402,686
1747533359350,-0.58964235,-0.21672285,-1.1050912,-2.4197483,1.3821807,1.9217371,687
1747533359360,-0.584273075,-0.206472445,-1.09069185,-2.42880295,1.41839965,1.9249329,688
1747533359370,-0.5568166,-0.206228385,-1.0306538,-2.48845765,1.2815131000000002,1.88977915,689
1747533359380,-0.5474204,-0.19500175,-0.9898962,-2.576342,0.793622,1.8125474,690
1747533359390,-0.5325329000000001,-0.159613445,-1.04432095,-2.62161585,0.6511429,1.7981663499999998,691
1747533359400,-0.53180075,-0.08151512,-1.1709867,-2.777677,0.376571,1.778459,692
1747533359410,-0.52203846,-0.02831064,-1.1746475,-2.8549087,0.45220476,1.8258632,693
1747533359420,-0.51691324,-0.03636453,-0.959145,-2.7483823,1.0652645,1.9430424,694
1747533359430,-0.51984192,-0.036730615,-0.91338425,-2.59498415,1.2727247,1.9821909,695
1747533359440,-0.498364875,-0.028920783,-0.87885013,-2.3379891,1.63571355,2.03385625,696
1747533359450,-0.45687518,-0.008786061,-0.9386441,-2.1076257,2.020274,2.0501015,697
1747533359460,-0.36803833,0.05296042,-0.9957536,-2.1475732,2.1358552,2.021872,698
1747533359470,-0.348025635,0.0574754799999999,-0.977815365,-2.251969,2.0639498,1.9947077,699
1747533359480,-0.3241080349999999,0.0529604214999999,-0.906550645,-2.2735407,2.0080234,1.97313605,700
1747533359490,-0.32898918,0.0475911625,-0.82308308,-2.2692796,1.89617065,1.93904755,701
1747533359500,-0.3372871,0.08322352,-0.82125264,-2.2011026,1.80775375,1.91641075,702
1747533359510,-0.35193056,0.15424417,-1.074584,-2.308428,1.7305222,1.9467708,703
1747533359520,-0.3360668,0.1632743,-1.1634209,-2.5049694,1.7443706,1.9670109,704
1747533359530,-0.31654223,0.136916118,-1.1632989,-2.60776735,1.748099,1.9512982,705
1747533359540,-0.26968327,0.09225364,-1.1072878,-2.8815403,1.7257284,1.8908445,706
1747533359550,-0.19085276,0.099087246,-0.85639685,-3.119627,1.6692694,1.7741979,707
1747533359560,-0.2208718,0.136428,-0.7770783,-3.1808796,1.6239957,1.7710022,708
1747533359570,-0.19768637,0.15863721,-0.7292431,-3.2671661,1.5345135,1.8077538,709
1747533359580,-0.192927255,0.14899695,-0.67957745,-3.30205355,1.47645655,1.83198855,710
1747533359590,-0.136428,0.14350566,-0.48957884,-3.3332124,1.2303804,1.9169434,711
1747533359600,-0.051496077,0.15888128,-0.35583547,-3.1190944,0.9981528,1.973935,712
1747533359610,-0.019280521,0.19451363,-0.4271002,-3.05145,1.0173275,2.0074909,713
1747533359620,-0.019280521,0.19451363,-0.4271002,-3.06130375,1.04102965,2.0279972500000003,714
1747533359630,0.0295309265,0.216356755,-0.5382682700000001,-3.1188281,1.1068098,2.06288465,715
1747533359640,0.09152147,0.19158493,-0.51593703,-3.2522523,1.2436962,2.0682108,716
1747533359650,0.11373068,0.26187342,-0.33631086,-3.3571808,1.4839134,2.0756679,717
1747533359660,0.09396204,0.27846932,-0.214892393,-3.3510556,1.5622103,2.1257353,718
1747533359670,0.0089080875,0.299580275,0.033313817,-3.2573124,1.64849675,2.2690133,719
1747533359680,-0.0768780325,0.33887349,0.140088865,-3.10524595,1.6437031000000002,2.49458305,720
1747533359690,0.025137896,0.3687705,0.10470056,-3.0605047,1.6362462,2.841593,721
1747533359700,0.29604146,0.20061506,0.42905265,-2.94013,1.2948289,2.8826056,722
1747533359710,0.40903994,0.21721096,0.3414361,-2.8666267,1.1057445,2.8405278,723
1747533359720,0.5437595,0.1986626,0.302631,-2.8900626,1.010936,2.735599,724
1747533359730,0.593669225,0.180480335,0.3430224699999999,-2.893791,0.95287905,2.65384,725
1747533359740,0.730341275,0.135207717,0.4458925849999999,-2.8501151,0.83596625,2.4626251,726
1747533359750,1.1207108,0.11251039,0.6535853,-2.422944,0.7089335,1.6405072,727
1747533359760,1.1465809,0.13471961,0.7365648,-2.249306,0.69668293,1.3534185,728
1747533359770,1.12546995,0.1458242149999999,0.79916545,-2.1411816,0.621581795,1.23304365,729
1747533359780,1.09203415,0.18523946,0.84150937,-1.95236345,0.425839455,1.0242518,730
1747533359790,1.116928,0.214648355,0.81490712,-1.82852645,0.20240024,0.835966275,731
1747533359800,1.2268758,0.18279888,1.0697029,-1.3070794,-0.113983296,0.2130529,732
1747533359810,1.2012497,0.20281157,1.1397473,-0.92464954,-0.09534117,-0.02130529,733
1747533359820,1.1473131,0.22111587,1.210768,-0.35633096,-0.027696876,-0.24714136,734
1747533359830,1.11546365,0.229291795,1.2204082500000002,-0.1091896049999999,-0.0061252704999999,-0.314253015,735
1747533359840,1.0716554,0.24747404,1.1560992,0.6066681,0.033023197,-0.5091964,736
1747533359850,1.0474937,0.23844394,0.95743656,1.3784522,-0.0644485,-0.83889574,737
1747533359860,0.9886759,0.26211748,0.80441266,1.6591494,-0.21145499,-1.0034791,738
1747533359870,0.88055855,0.3133695,0.58256465,1.8386464,-0.39041942,-1.1275824,739
1747533359880,0.837360425,0.33216191,0.46016994,1.87406645,-0.46578686,-1.17818245,740
1747533359890,0.75523515,0.3735296099999999,0.235271185,1.8998991,-0.590955425,-1.2711268,741
1747533359900,0.6025773,0.49763274,-0.1330112,1.6969663,-0.7387609,-1.4429007,742
1747533359910,0.59159476,0.5215503,-0.16693515,1.6213325,-0.69135666,-1.4935007,743
1747533359920,0.5839069800000001,0.53204477,-0.152779835,1.6061524500000002,-0.64395238,-1.51693655,744
1747533359930,0.57158208,0.5525455699999999,-0.105310705,1.6000272,-0.54435014,-1.5587482,745
1747533359940,0.54986095,0.56816524,0.03807293,1.6927053,-0.40746364,-1.603223,746
1747533359950,0.447601,0.5779276,0.15229172,1.969674,-0.36804888,-1.5883093,747
1747533359960,0.38902727,0.5747548,0.1164153,2.098571,-0.4250405,-1.5446335,748
1747533359970,0.36510965,0.5613316,-0.13716017,2.159291,-0.61891866,-1.4679344,749
1747533359980,0.377922655,0.5613316,-0.13716017,2.159291,-0.61891866,-1.4679344,750
1747533359990,0.3773125149999999,0.54973893,-0.1842632149999999,2.1323931,-0.6492787,-1.46846705,751
1747533360000,0.31825066,0.59086263,-0.45052966,1.937716,-0.6689861,-1.4301175,752
1747533360010,0.31532198,0.5981843,-0.532777,1.7949706,-0.53955644,-1.4157364,753
1747533360020,0.30019042,0.601113,-0.39415246,1.6144083,-0.2066613,-1.407747,754
1747533360030,0.28554699,0.59964865,-0.31410167,1.63038725,-0.147006495,-1.3994912,755
1747533360040,0.24576566,0.5793919,-0.07785426,1.778459,-0.03195793,-1.3619406,756
1747533360050,0.234539,0.5452239,0.0605262,2.000034,-0.03355583,-1.3321131,757
1747533360060,0.17254847,0.5171573,0.13496366,2.3457124,-0.15339808,-1.2799152,758
1747533360070,0.05906185,0.5349735,-0.113974735,2.5550368,-0.3749731,-1.1819109,759
1747533360080,0.056133167,0.512642265,-0.2084248875,2.5835326,-0.64555027,-1.10068445,760
1747533360090,0.08175918,0.47786412,-0.4829893,2.4948494,-1.1217234,-0.99442434,761
1747533360100,0.1330112,0.45638704,-0.63332856,2.20563,-1.154214,-1.0865698,762
1747533360110,0.18304294,0.42270714,-0.63332856,2.20563,-1.154214,-1.0865698,763
1747533360120,0.21062139,0.37121108,-0.51691324,2.1640847,-0.8948221,-1.3070794,764
1747533360130,0.16303024,0.36047253,-0.47273886,2.249306,-0.68389976,-1.406149,765
1747533360140,0.021965152,0.37877685,-0.5017817,2.3068302,-0.6306366,-1.4013554,766
1747533360150,-0.04881145,0.38341394,-0.5142286,2.326005,-0.70680296,-1.3560816,767
1747533360160,-0.07614586,0.37316352,-0.5186216,2.3206787,-0.8772453,-1.3017532,768
1747533360170,-0.0809049749999999,0.35339488,-0.49982922,2.3398533500000003,-1.0657971000000002,-1.2684637,769
1747533360180,-0.07858643,0.31581007,-0.483843505,2.400307,-1.2937637,-1.2349079,770
1747533360190,-0.09811102,0.2848148,-0.5435155,2.541721,-1.2623384,-1.2255868,771
1747533360200,-0.12813006,0.287255375,-0.5856154,2.5792716,-1.20428145,-1.1992215000000002,772
1747533360210,-0.16791138,0.22526483,-0.7487676,2.7089674,-1.0290455,-1.1009508,773
1747533360220,-0.1769415,0.22648512,-0.80563295,2.6876621,-1.026915,-1.0871024,774
1747533360230,-0.210743435,0.222946295,-0.836628225,2.66875375,-1.07272135,-1.0735203,775
1747533360240,-0.28432667,0.200371,-0.94206095,2.5795379,-1.3257216,-1.0365024,776
1747533360250,-0.28335047,0.2037878,-1.2385906,2.4517062,-1.5377092,-1.0375676,777
1747533360260,-0.23502712,0.21062139,-1.3052181,2.0639498,-1.5275892,-1.0982877,778
1747533360270,-0.20329969,0.22575295,-1.2710502,1.8823223,-1.2958943,-1.1318434,779
1747533360280,-0.17035197,0.24234885,-1.1397473,1.82453175,-1.13024565,-1.14409395,780
1747533360290,-0.14423785,0.22282428,-0.97500867,1.7475663,-0.52357745,-1.1712582,781
1747533360300,-0.171816315,0.19085278,-0.824547385,1.8983012,-0.406931,-1.1616709,782
1747533360310,-0.38194957,0.10470056,-0.6894617,2.4144218,-0.99762017,-1.0950918,783
1747533360320,-0.40489095,0.09005712,-0.8978866,2.534264,-1.347027,-1.0966897,784
1747533360330,-0.44320798,0.043930303,-1.0662861,2.6727486,-1.6357136,-1.1520835,785
1747533360340,-0.45687518,0.03734076,-1.3181533,2.7787423,-1.7912422,-1.2277173,786
1747533360350,-0.42368335,0.10884953,-1.6505592,2.7787423,-1.7912422,-1.2277173,787
1747533360360,-0.450529665,0.1483868099999999,-1.6621519500000002,2.686597,-1.06047077,-1.3547501,788
1747533360370,-0.4890907399999999,0.2430810199999999,-1.6783817,2.5116273,-0.5728459699999999,-1.27405635,789
1747533360380,-0.49421595,0.325084255,-1.6379902,2.22054375,-0.1874865399999999,-1.1129351,790
1747533360390,-0.43881494,0.35925224,-1.406502,1.726261,-0.007456851,-0.8538095,791
1747533360400,-0.2660224,0.20232345,-0.810026,1.4503576,-0.340352,-0.6892261,792
1747533360410,-0.2660224,0.20232345,-0.810026,1.4503576,-0.340352,-0.6892261,793
1747533360420,-0.149729115,0.014521404,-0.46419687,1.7691379,-0.8487494,-0.8016114750000001,794
1747533360430,-0.142773485,-0.071996886,-0.46139022,2.1294636,-1.12172345,-0.942492675,795
1747533360440,-0.2073266449999999,-0.1189779099999999,-0.7419340249999999,2.4857946,-1.21546675,-1.08710235,796
1747533360450,-0.37365165,-0.10689708,-1.2176017,2.9742184,-0.809601,-1.2532836,797
1747533360460,-0.48640612,-0.026114125,-1.5087619,2.8868667,-0.7315703499999999,-1.2018846,798
1747533360470,-0.51935381,0.0284326675,-1.63225485,2.57900525,-0.578704885,-1.052481275,799
1747533360480,-0.5304584,0.10055158,-1.76514405,2.0724720000000003,-0.4636563499999999,-0.854075775,800
1747533360490,-0.43381175,0.0175721199999999,-1.46690615,1.5387745000000002,-0.42051315,-0.70147665,801
1747533360500,-0.233318727,-0.1585151699999999,-0.9232686,1.0657971,-0.5592638,-0.8383631,802
1747533360510,-0.19744232,-0.3392396,-0.25552794,1.2911005,-0.6894924,-0.9230516,803
1747533360520,-0.30726805,-0.38487828,-0.16229807,1.8594191,-1.005077,-1.07405285,804
1747533360530,-0.371577155,-0.39512869,-0.353760985,2.5537052,-1.3291837000000002,-1.18590565,805
1747533360540,-0.49787678,-0.38768495,-0.77097685,3.02109005,-1.48684285,-1.2237225500000002,806
1747533360550,-0.7568215,-0.20305562,-1.824816,2.7260118,-1.0849719,-0.9395633,807
1747533360560,-0.74766935,-0.16900964,-1.8991314,2.4666199000000004,-0.915861125,-0.84635265,808
1747533360570,-0.6570021,-0.123004854,-1.7921125,1.7033578,-0.53955644,-0.60293967,809
1747533360580,-0.6105092000000001,-0.147654637,-1.6256654,1.5281218,-0.521713255,-0.564856485,810
1747533360590,-0.49641246,-0.2421048,-1.1280326,1.27006155,-0.56032911,-0.512658535,811
1747533360600,-0.4328355299999999,-0.32117935,-0.9088692,1.4956313,-1.0066749,-0.65673554,812
1747533360610,-0.34704942,-0.42612398,-0.72094506,1.7651432,-1.0428939,-0.7771104,813
1747533360620,-0.34704942,-0.42612398,-0.72094506,1.7651432,-1.0428939,-0.7771104,814
1747533360630,-0.40684342,-0.4127008,-0.86518294,2.044775,-0.8942895,-0.871919,815
1747533360640,-0.46419686,-0.3696247,-1.09362052,1.903095,-0.8809737,-0.8564726,816
1747533360650,-0.5344854,-0.30604777,-1.4050376,1.6612799,-0.8900285,-0.8447547,817
1747533360660,-0.5422952,-0.29213652,-1.3784354,1.4045511,-0.9006811,-0.8223842,818
1747533360670,-0.532898985,-0.293478845,-1.34866035,1.2942963,-0.91106745,-0.80720417,819
1747533360680,-0.499951275,-0.302753015,-1.279104,1.0066749,-0.95660746,-0.78563255,820
1747533360690,-0.44418418,-0.36340126,-1.0262607,0.8543421,-1.0290455,-0.8378305,821
1747533360700,-0.4429639,-0.37682438,-0.959145,0.8689895,-1.03676865,-0.8503473500000001,822
1747533360710,-0.45760733,-0.38268176,-0.9340071,0.9310411,-1.0482203,-0.87511474,823
1747533360720,-0.469322085,-0.3803632099999999,-0.934617215,0.952612715,-1.04715495,-0.871918945,824
1747533360730,-0.49128726,-0.39146784,-1.0123495,0.99708754,-0.94542223,-0.8149273,825
1747533360740,-0.48445365,-0.40635532,-1.0240642,1.0088054,-0.82557994,-0.7946873,826
1747533360750,-0.47395915,-0.41196862,-1.0355349,1.0061423,-0.7350325,-0.7707188,827
1747533360760,-0.48518583,-0.43539813,-1.0038075,0.9960223,-0.6711166,-0.7520767,828
1747533360770,-0.49128726,-0.44662476,-1.0208915,0.9853696,-0.7254451,-0.74781567,829
1747533360780,-0.48176901,-0.454556615,-1.04676155,0.96433063,-0.729173515,-0.751544085,830
1747533360790,-0.473227,-0.46590528,-1.0862988,0.8948221,-0.716923,-0.7701862,831
1747533360800,-0.4837215,-0.47127452,-1.0616491,0.8692558,-0.7057377,-0.78083885,832
1747533360810,-0.5000733,-0.4795725,-1.023088,0.86872315,-0.7025419,-0.783502,833
1747533360820,-0.439059,-0.5047104,-1.027481,0.96992326,-0.44368264,-0.83942837,834
1747533360830,-0.46773573,-0.506296765,-1.0269929000000002,1.01519703,-0.317981435,-0.841292585,835
1747533360840,-0.52948218,-0.485795945,-1.0520087500000002,1.10121715,-0.06977482,-0.8069378,836
1747533360850,-0.60745845,-0.4445502799999999,-1.121443,1.1142666499999998,0.10279802,-0.7091997800000001,837
1747533360860,-0.673475965,-0.4174599249999999,-1.2028361,1.00028335,0.14061491,-0.5768407,838
1747533360870,-0.6560259,-0.40391475,-1.3061944,0.3435478,-0.23648871,-0.3174488,839
1747533360880,-0.63589115,-0.4106263049999999,-1.2811785,0.1976065625,-0.3467435749999999,-0.292947725,840
1747533360890,-0.6160005,-0.439059,-1.1543908,-0.12623383,-0.65886605,-0.24714136,841
1747533360900,-0.60916686,-0.4368625,-1.0950848,-0.16085493,-0.7283745749999999,-0.23728766,842
1747533360910,-0.599526615,-0.44394015,-1.1294969,-0.182426535,-0.71612403,-0.22796659,843
1747533360920,-0.588177985,-0.44174363,-1.2134526,-0.17230652,-0.49641323,-0.22743396,844
1747533360930,-0.6156344149999999,-0.41611761,-1.32315635,-0.22503712,-0.213052895,-0.211188675,845
1747533360940,-0.668838885,-0.37267542,-1.4205352,-0.382696255,0.0295610899999999,-0.16511599,846
1747533360950,-0.74291027,-0.33484653,-1.4655638,-0.78083885,0.18855181,-0.06338324,847
1747533360960,-0.8088057,-0.34509695,-1.2869139,-1.347027,0.032490566,0.091080114,848
1747533360970,-0.8049008,-0.35620156,-1.2256555,-1.43837335,-0.051665327,0.127831737,849
1747533360980,-0.785132175,-0.380485265,-1.1113147,-1.57153135,-0.23062976,0.18562233,850
1747533360990,-0.7551131,-0.39878955,-1.0162543,-1.639442,-0.50600064,0.23542345,851
1747533361000,-0.76719395,-0.386586675,-1.00917665,-1.6426378,-0.60533655,0.263919265,852
1747533361010,-0.86615914,-0.32728076,-1.0941086,-1.7049558,-0.9155948,0.4857606,853
1747533361020,-0.87531132,-0.31910483,-1.12034475,-1.7363811,-0.89002845,0.55979647,854
1747533361030,-0.878240025,-0.320813235,-1.1523162500000002,-1.8397117,-0.7813715,0.7707188,855
1747533361040,-0.8537123,-0.36047253,-1.1229074,-1.903095,-0.74675035,0.8767126,856
1747533361050,-0.8256457,-0.3682824,-1.091668,-1.965413,-0.793622,0.9539443,857
1747533361060,-0.79428432,-0.382437715,-1.06970285,-2.0679447,-1.0314423,0.9653959,858
1747533361070,-0.75926207,-0.3973252,-1.03565685,-2.27460595,-1.6080167,0.953678,859
1747533361080,-0.74888965,-0.401718235,-1.011617235,-2.47460935,-2.2743396,0.9089369,860
1747533361090,-0.74486274,-0.40440285,-0.99111646,-2.7467844,-3.2453282,0.8543421,861
1747533361100,-0.77683422,-0.394640565,-0.94755226,-2.8549088,-3.7931406,0.860467375,862
1747533361110,-0.86445075,-0.37169919,-0.85993573,-2.9574405,-4.5582667,0.900681125,863
1747533361120,-0.9695174,-0.33533465,-0.79562665,-2.9156288,-4.9580072,1.00188125,864
1747533361130,-1.06726235,-0.29628548,-0.75340475,-2.8306739,-5.3026203,1.15740985,865
1747533361140,-1.1672038,-0.26626645,-0.71081675,-2.730539,-5.6192698,1.35448375,866
1747533361150,-1.3157127,-0.2660224,-0.6677406,-2.4932516,-6.4917216,1.9275961,867
1747533361160,-1.3713577,-0.28237423,-0.6057501,-2.44478205,-6.6674903,2.001632,868
1747533361170,-1.3955194,-0.280055685,-0.5796359499999999,-2.34038605,-7.00784235,2.150769,869
1747533361180,-1.4461613,-0.280787855,-0.5228926349999999,-2.21282055,-7.2943985,2.3073628,870
1747533361190,-1.48484435,-0.2868893,-0.45687516,-2.04690565,-7.481085999999999,2.5648905500000003,871
1747533361200,-1.4382293,-0.2894519,-0.39805737,-1.5313177,-7.5053205,2.8788772,872
1747533361210,-1.3528093,-0.31995904,-0.35022214,-1.3369069,-7.4259586,2.9433258,873
1747533361220,-1.351345,-0.31678632,-0.2762728,-1.1046792,-7.2565813,2.9710226,874
1747533361230,-1.37086955,-0.28713335,-0.26712066,-0.96619485,-7.14046765,3.0069753,875
1747533361240,-1.500464,-0.16986385,-0.19378147,-0.60560286,-6.89812,3.218164,876
1747533361250,-1.5500076,-0.13081467,-0.17059602,-0.5864281,-6.9465895,3.3220272,877
1747533361260,-1.5617223,-0.08859278,-0.11251039,-0.58483016,-6.9817433,3.4360106,878
1747533361270,-1.5282865,-0.058573738,-0.043930303,-0.58749333,-7.004380149999999,3.49486635,879
1747533361280,-1.44518495,-0.067115744,-0.0444184165,-0.5901565,-6.988933749999999,3.57875585,880
1747533361290,-1.0562798,-0.09884319,0.042221904,-0.5363607,-6.412359,3.448261,881
1747533361300,-0.97378844,-0.08542004,0.18401916,-0.43089947,-6.058159,3.3097768,882
1747533361310,-0.916435,-0.05222825,0.28676724,-0.25726137,-5.6608152,3.1356058,883
1747533361320,-0.9452337,-0.02391761,0.4046469,-0.14221281,-5.432849,3.035471,884
1747533361330,-0.949748785,-0.0018304289999999,0.47334902,-0.06791061165,-5.363606750000001,3.0067089,885
1747533361340,-0.9264413,0.04075756,0.67555046,0.19707392,-5.244297,2.928412,886
1747533361350,-0.84809893,0.021721095,0.78488815,0.57364494,-4.962002,2.763296,887
1747533361360,-0.79611474,0.020988923,0.8673795,0.7882957,-4.8565407,2.6775422,888
1747533361370,-0.76267886,0.027090356,0.8429737,0.8727179,-4.81393005,2.6205505,889
1747533361380,-0.74840155,0.04014742,0.8262558,1.01253385,-4.665858200000001,2.50869775,890
1747533361390,-0.71337935,0.069190232,0.81722567,1.12944665,-4.4293695,2.41735135,891
1747533361400,-0.4893348,0.0605262,0.88934463,1.6367788,-3.667173,2.2034996,892
1747533361410,-0.4300289,0.045882765,0.88983274,1.8663434,-3.4775558,2.0916467,893
1747533361420,-0.401474185,0.0561331675,0.81942222,1.9504992,-3.4309505500000004,2.02560035,894
1747533361430,-0.35632357,0.076633975,0.74315435,2.0964406,-3.2256207,1.6644757,895
1747533361440,-0.41562949,0.125567455,0.80868372,2.1662152,-3.165966,1.5760587,896
1747533361450,-0.43539813,0.14179726,0.8222289,2.25623,-3.0578415,1.5227956,897
1747533361460,-0.4497975,0.15058333,0.8859278,2.352104,-2.9960563,1.4945661,898
1747533361470,-0.4523601,0.1487529,0.909845385,2.4309335,-3.02801415,1.4804513,899
1747533361480,-0.447356935,0.1530239,0.912163915,2.5457157,-3.1699606,1.45435225,900
1747533361490,-0.404768955,0.17730759,0.8047787550000001,2.481001,-3.8211036,1.3422332,901
1747533361500,-0.3354566949999999,0.20049302,0.6628594750000001,2.356365,-4.043744,1.2346416,902
1747533361510,-0.278469325,0.21379414,0.57988,2.3020365,-4.09327885,1.17978045,903
1747533361520,-0.225386875,0.247840135,0.4753014849999999,2.2351912,-4.03335765,1.0322413,904
1747533361530,-0.187313935,0.302753015,0.375238015,2.2093585,-3.4839475,0.88843054,905
1747533361540,-0.15644069,0.322521655,0.40428083,2.23172905,-3.28687355,0.87191895,906
1747533361550,-0.112022278,0.29274668,0.50446635,2.3776703,-2.7803402,0.76272935,907
1747533361560,-0.08151512,0.27432033,0.59013045,2.4762073,-2.6333337,0.66845345,908
1747533361570,-0.136428,0.30043447,0.63967407,2.5619611,-2.61336005,0.6021407249999999,909
1747533361580,-0.136428,0.30043447,0.63967407,2.6477149,-2.5933864,0.535828,910
1747533361590,-0.15387809,0.36388935,0.615268325,2.6865969,-2.6141589,0.49215218,911
1747533361600,-0.15936938,0.3939084,0.6360132,2.71402755,-2.6232136500000003,0.4841627,912
1747533361610,-0.15961345,0.417826,0.55401,2.7803402,-2.6407907,0.49055427,913
1747533361620,-0.073461235,0.5208182,0.3014107,2.7521107,-2.3995082,0.4809669,914
1747533361630,-0.0499097085,0.541319,0.26638848,2.7065706,-2.3100260500000003,0.47137952,915
1747533361640,-0.020988923,0.52960426,0.28579104,2.6035063,-2.0575583,0.44368264,916
1747533361650,-0.023673553,0.49177536,0.3704789,2.7004454,-1.9686087,0.41065946,917
1747533361660,0.0065895454,0.460536,0.19256116,2.974751,-1.8540928,0.29134983,918
1747533361670,0.0137892342,0.473837135,0.1032362115,2.99312675,-1.7891116500000002,0.2567287299999999,919
1747533361680,0.02745644,0.5145947049999999,-0.0571093934999999,2.9981867500000003,-1.63970825,0.179497055,920
1747533361690,0.016839951,0.5640163,-0.18841219,2.8953888,-1.3784522,0.082558,921
1747533361700,-0.029042812,0.5886661,-0.19963883,2.8881982500000003,-1.29456265,0.07696536,922
1747533361710,-0.10933765,0.65090066,-0.4356422,3.005111,-0.79894835,0.24234766,923
1747533361720,-0.102626075,0.66212728,-0.5205740999999999,2.9875342,-0.718254575,0.29481193,924
1747533361730,-0.078830493,0.6668864,-0.677869,2.9052426,-0.61092917,0.3826962499999999,925
1747533361740,-0.0388051,0.6450433,-0.8742131,2.6264095,-0.6945524,0.45167214,926
1747533361750,0.070532545,0.6411384,-1.1751356,2.3292007,-0.90973586,0.43303,927
1747533361760,0.09859913,0.6626154,-1.2061309,1.5451661,-1.2255868,0.26631612,928
1747533361770,0.09396204,0.672377725,-1.2014938000000002,1.40774695,-1.2327773,0.2346245,929
1747533361780,0.089569005,0.6992240249999999,-1.21296445,1.1518171499999998,-1.1243866,0.19680761,930
1747533361790,0.10933764,0.73180565,-1.2440818,0.94808535,-0.83969468,0.193079185,931
1747533361800,0.2672427,0.74632704,-1.2210184,0.55287224,0.082558,0.12250541,932
1747533361810,0.31556603,0.733148,-1.1775762,0.3898868,0.4708469,0.04527374,933
1747533361820,0.30922052,0.7224094,-1.074096,0.24394555,0.84155893,-0.025033714,934
1747533361830,0.30214287,0.7294871,-0.997584,0.12197278,1.1211908,-0.068176925,935
1747533361840,0.28737741,0.733148,-0.85932555,0.015446335,1.3022858,-0.09960223,936
1747533361850,0.2997023,0.7226535,-0.6428468,-0.23915187,1.3768543,-0.17150758,937
1747533361860,0.3145898,0.71142685,-0.5769514,-0.43516052,1.2857742,-0.25033715,938
1747533361870,0.31434575,0.7116709050000001,-0.545956085,-0.513191135,1.24982155,-0.29161614,939
1747533361880,0.29299073,0.72631438,-0.4854298549999999,-0.666056605,1.18217725,-0.355798315,940
1747533361890,0.23380683,0.7577977,-0.39317623,-0.8607337,1.0828413,-0.3888215,941
1747533361900,0.13716017,0.8019721,-0.2860351,-0.9683254,1.0988203,-0.2977414,942
1747533361910,0.138380455,0.7973350349999999,-0.26638849,-0.958738,1.1424961,-0.22796659,943
1747533361920,0.159491405,0.7768342349999999,-0.245643625,-0.948351665,1.15261615,-0.2159823699999999,944
1747533361930,0.189632475,0.76145862,-0.278957435,-0.940628495,1.17978045,-0.2106560499999999,945
1747533361940,0.19109683,0.79660285,-0.40000984,-1.0306433,1.2980248,-0.22743396,946
1747533361950,0.17620933,0.79562664,-0.47444725,-1.2287825,1.4887071,-0.26738137,947
1747533361960,0.18231077,0.79587066,-0.47005424,-1.29509525,1.5387745000000002,-0.288686665,948
1747533361970,0.18536148,0.78915913,-0.43686247,-1.4301175499999998,1.6098809,-0.34514569,949
1747533361980,0.173158615,0.7779325,-0.36230299,-1.5598135,1.61787035,-0.41571946,950
1747533361990,0.10323621,0.7748818,-0.23380683,-1.7299895,1.5180018,-0.49215218,951
1747533362000,-0.058817793,0.810026,-0.097134784,-1.8551581,1.4008228,-0.3787015,952
1747533362010,-0.060770255,0.79269797,-0.052716363,-1.8599517,1.3523532,-0.2727077,953
1747533362020,-0.04344219,0.773661485,-0.0418558165,-1.8695391,1.3073458,-0.23995082,954
1747533362030,-0.0059794024999999,0.73863925,-0.04344219,-1.90416025,1.21546675,-0.20106867,955
1747533362040,0.0302631,0.7153318,-0.082247294,-1.96834245,1.12997925,-0.19707393,956
1747533362050,0.035632357,0.7185045,-0.0959145,-2.2567627,0.91133374,-0.2034655,957
1747533362060,0.043930303,0.7055695,-0.060038086,-2.4106934,0.8229168,-0.21198763,958
1747533362070,0.020744866,0.7080101,0.018060237,-2.5438516,0.7707188,-0.20186761,959
1747533362080,0.026358182,0.7094744,0.12837411,-2.6306705,0.74461985,-0.1768339,960
1747533362090,0.033191785,0.6875093,0.2443013,-2.6674223,0.80107886,-0.15233281,961
1747533362100,0.08005078,0.6269831,0.53887844,-2.4304008,1.1110709,-0.15446335,962
1747533362110,0.08005078,0.6269831,0.53887844,-2.4304008,1.1110709,-0.15446335,963
1747533362120,0.0539366525,0.6455314,0.620393515,-2.16834585,1.3459616,-0.180029695,964
1747533362130,0.0450285625,0.6595647,0.64040623,-2.0687436000000003,1.3518206,-0.19813919,965
1747533362140,0.051252022,0.6604189,0.65065664,-2.0772657,1.0615361,-0.2711098,966
1747533362150,0.024893839,0.67555046,0.694831,-2.3318639,0.47670585,-0.36645097,967
1747533362160,-0.033679903,0.7153318,0.7438865,-2.35822915,0.4130563,-0.3536678,968
1747533362170,-0.044174362,0.7243619,0.8175918,-2.0991037,0.7680557,-0.12463594,969
1747533362180,-0.044174362,0.7243619,0.8175918,-2.0991037,0.7680557,-0.12463594,970
1747533362190,-0.016595893,0.71093875,0.7070338,-1.8434402,1.1877699,-0.03089267,971
1747533362200,-0.024527753,0.712036995,0.69141417,-1.8652781,1.16593195,-0.010918961,972
1747533362210,-0.0107385184999999,0.68848547,0.6756725,-2.010154,0.8905611,-0.011185277,973
1747533362220,0.077122085,0.60770255,0.6562699,-2.097772,0.71772195,-0.0519316435,974
1747533362230,0.0801728025,0.597940275,0.67127945,-2.27407325,0.3797668,-0.13741912,975
1747533362240,0.065407336,0.54888475,0.8007518,-2.5177526,-0.108124346,-0.26205507,976
1747533362250,0.024893839,0.5440036,0.85493255,-2.4181504,0.05006743,-0.25033715,977
1747533362260,0.004881145,0.5527897,0.8747012,-2.100169,0.60773337,-0.17150758,978
1747533362270,0.0375848175,0.52545527,0.83955693,-1.81441175,1.181644635,-0.15765914,979
1747533362280,0.09615856,0.4729829,0.76804817,-1.4125407,2.0570257,-0.23062976,980
1747533362290,0.05759751,0.45370242,0.76121455,-1.4274544,2.0474384,-0.34940675,981
1747533362300,-0.03294773,0.46248847,0.7551131,-1.5270566,1.7869811,-0.43569317,982
1747533362310,-0.102748096,0.4634647,0.75316066,-1.675661,1.3795174,-0.47031426,983
1747533362320,-0.102748096,0.4634647,0.75316066,-1.79443795,0.8881642,-0.468716365,984
1747533362330,-0.123492973,0.4455265,0.73522246,-1.9132149,0.396811,-0.46711847,985
1747533362340,-0.154000125,0.44430622,0.61722078,-1.99497395,0.223172899,-0.426904735,986
1747533362350,-0.12324891,0.44491637,0.50593066,-2.4074976,0.18642128,-0.23382555,987
1747533362360,-0.10348027,0.3917119,0.5852493,-2.4868598,0.40586576,-0.2050634,988
1747533362370,-0.1103138725,0.34704942,0.6765266999999999,-2.4431841,0.9267801,-0.1965413,989
1747533362380,-0.11836776,0.24552159,0.8793382,-2.330266,1.1110709,-0.2034655,990
1747533362390,-0.099575356,0.17523311,0.9791577,-2.1443772,1.1829761,-0.25086978,991
1747533362400,-0.0990872429999999,0.159003295,0.98464895,-2.03358975,1.18164455,-0.286822455,992
1747533362410,-0.126909765,0.1760873,0.85468845,-1.850098,0.98457065,-0.384560465,993
1747533362420,-0.186337705,0.2374677,0.63357262,-1.9236012,0.639691285,-0.4423510499999999,994
1747533362430,-0.25613809,0.277737155,0.5213062900000001,-2.26475215,0.36005938,-0.40426784,995
1747533362440,-0.3443648,0.2979939,0.56670094,-2.61895265,0.177100215,-0.308127735,996
1747533362450,-0.3031191,0.2272173,0.72753465,-2.958772,0.14221281,-0.14434333,997
1747533362460,-0.16400647,0.06321083,1.087275,-2.8613002,0.4261058,-0.12942964,998
1747533362470,-0.10689708,0.0065895454,1.2180897,-2.5843315,0.6423545,-0.20453078,999
1747533362480,-0.091643498,-0.0021965153,1.22175055,-2.4048345,0.7749798999999999,-0.25592979,1000
1747533362490,-0.079318605,0.011714748,1.1373067,-2.2253375,0.9076053,-0.3073288,1001
