id,timestamp,acc_x,acc_y,acc_z,gyro_x,gyro_y,gyro_z
1,1747533381100,0.04344219,0.0752916595,1.33902015,0.310790905,0.48096692,0.24501083
2,1747533381110,-1.05188675,0.0924976949999999,0.570605875,-0.24660872,4.6149919,0.9142632
3,1747533381120,-1.1276665,0.088592785,0.4735931,-0.24687504,4.58356645,0.59228704
4,1747533381130,-1.20918165,0.0959145,0.372797425,-0.2937466749999999,4.62910655,0.37550573
5,1747533381140,-1.2084495,0.13325526,0.35156445,-0.361390965,4.72045305,0.31292144
6,1747533381150,-1.2017379,0.17084008,0.37072295,-0.39627838,4.7654605,0.2892193
7,1747533381160,-1.14438445,0.1997608599999999,0.366085855,-0.389354155,4.78037425,0.29348035
8,1747533381170,-0.9855032,0.21135357,0.30458343,-0.394147845,4.80913635,0.29534457
9,1747533381180,-0.93644768,0.1890223349999999,0.29579738,-0.426372095,4.78729835,0.278300345
10,1747533381190,-0.8387027300000001,0.151925635,0.290306115,-0.452471075,4.6847667,0.246342405
11,1747533381200,-0.7900133,0.13716017,0.2936009,-0.45806372,4.6179214,0.22903186
12,1747533381210,-0.71093878,0.134841635,0.216112695,-0.436225785,4.5241782,0.174437055
13,1747533381220,-0.690926065,0.13118077,0.169985865,-0.459661605,4.54068965,0.13821806
14,1747533381230,-0.72704655,0.14204131,0.14374972,-0.475906895,4.5441518,0.125967525
15,1747533381240,-0.7712209299999999,0.17242644,0.1219066,-0.4532700349999999,4.58836035,0.14913703
16,1747533381250,-0.78415596,0.19134088,0.10909359,-0.35872781,4.63443305,0.21917816
17,1747533381260,-0.752916605,0.13593989,0.068946172,-0.22530343,4.6490805,0.29694247
18,1747533381270,-0.729121035,0.114462845,0.021599067,-0.0966727485,4.69675115,0.34328148
19,1747533381280,-0.65504965,0.0784644,-0.071264718,-0.01810949575,4.777445,0.35739623
20,1747533381290,-0.51715731,0.02525992375,-0.140332925,-0.05779059725,4.767591,0.32170987
21,1747533381300,-0.413799075,0.0128130052499999,-0.155830555,-0.15552861,4.691957,0.27457191
22,1747533381310,-0.431493205,0.0574754814999999,-0.14875289,-0.24980451,4.67225,0.25379925
23,1747533381320,-0.482623205,0.1232489149999999,-0.150217235,-0.355532005,4.68636475,0.2380865999999999
24,1747533381330,-0.46529515,0.1897545199999999,-0.16473864,-0.47723846,4.65041175,0.1928128599999999
25,1747533381340,-0.414531235,0.28103193,-0.17108413,-0.573911225,4.70261,0.119309615
26,1747533381350,-0.37389571,0.358398085,-0.20598432,-0.6226470850000001,4.775048,0.11984225
27,1747533381360,-0.35046622,0.3746279,-0.24356914,-0.63915867,4.760134,0.15978967
28,1747533381370,-0.143261603,0.32227761,-0.22770541,-0.55526911,4.61525825,0.3054645849999999
29,1747533381380,0.4036707,0.14716652,-0.27041543,-0.425306825,4.63576465,0.3856257349999999
30,1747533381390,0.54400362,0.099209271,-0.322643685,-0.30466563,4.4080644,0.25672874
31,1747533381400,0.770122645,0.0362425015,-0.390735655,-0.30466563,4.4080644,0.25672874
32,1747533381410,0.85590875,0.021232981,-0.40659937,-0.42717105,3.9579902,0.060720075
33,1747533381420,1.079709225,0.090545239,-0.3773125,-0.6551376200000001,3.276221,-0.21305289
34,1747533381430,1.0986237,0.24210479,-0.35656764,-0.83223783,2.6328012000000003,-0.400805755
35,1747533381440,1.1829455,0.41294485,-0.3104408,-0.9720538,1.8604844,-0.47510794
36,1747533381450,1.2899646,0.3531508249999999,-0.224654685,-0.9222527,1.6338494,-0.555801735
37,1747533381460,1.4255384,0.3928101349999999,-0.1459462249999999,-0.805073615,1.2090752,-0.6934871650000001
38,1747533381470,1.2822767,0.6108753,-0.41880223,-0.67963874,0.5486112,-0.74461985
39,1747533381480,1.31473635,0.5946454999999999,-0.348269685,-0.5693838600000001,0.3304982999999999,-0.56086174
40,1747533381490,1.4763023,0.50544256,-0.16498269,-0.290284565,-0.033822145,-0.340352
41,1747533381500,1.4383514,0.490677105,-0.189510455,0.043942155,-0.34860778,-0.25752768
42,1747533381510,1.4004005,0.47591165,-0.21403822,0.332096195,-0.790426235,-0.1243696225
43,1747533381520,1.1963686,0.435764215,-0.348269685,0.6079997,-1.36913115,0.0572579675
44,1747533381530,1.024186235,0.373163535,-0.36242501,0.8772453,-1.9680761,0.175236
45,1747533381540,0.91692311,0.319715005,-0.376946415,0.9155948,-2.10416355,0.16777915
46,1747533381550,0.805877025,0.268707045,-0.3991556149999999,0.96433063,-2.360626,0.141680173
47,1747533381560,0.70154255,0.21830922,-0.4214868699999999,0.95341168,-2.6109633,0.093743273
48,1747533381570,0.4097721,0.16425052,-0.45199403,0.7318367,-3.0940607,-0.032490566
49,1747533381580,0.3277689,0.16717921,-0.4497975,0.6679208,-3.19153235,-0.0604537579999999
50,1747533381590,0.2767609,0.16303024,-0.41172457,0.54648065,-3.4194989,-0.148338075
51,1747533381600,0.242958975,0.163762415,-0.414287165,0.4530037249999999,-3.63920965,-0.264984535
52,1747533381610,0.164006468,0.17279253,-0.42368339,0.386957325,-3.79793405,-0.364320435
53,1747533381620,0.020012695,0.2037878,-0.41148052,0.33449304,-4.088485,-0.5587312
54,1747533381630,-0.0124469175,0.20451997,-0.39476259,0.37950047,-4.057326,-0.59654808
55,1747533381640,-0.071020655,0.1901206,-0.38097337,0.5305017,-3.9995353,-0.7387609
56,1747533381650,-0.0748035475,0.17584325,-0.385854515,0.56885122,-4.04028165,-0.82291678
57,1747533381660,-0.09969739,0.14289552,-0.37413976,0.64155552,-4.13349225,-1.01732753
58,1747533381670,-0.32093528,0.03929322,-0.3533949,0.7414241,-4.0432115,-1.635181
59,1747533381680,-0.43320164,0.008297946,-0.40123013,0.6221144,-3.9729037,-1.7028252
60,1747533381690,-0.47615567,0.00134231485,-0.40989414,0.4133226,-3.9963396,-1.6442357
61,1747533381700,-0.585615325,0.0147654633499999,-0.392199995,0.32197618,-3.9923449,-1.5350461000000002
62,1747533381710,-0.6940988,0.0832235215,-0.33448047,0.187486545,-3.9398806,-1.2618058
63,1747533381720,-0.717528325,0.20244549,-0.28078786,0.21385183,-3.86531205,-0.8082694500000001
64,1747533381730,-0.713379365,0.255772,-0.239176105,0.4157194349999999,-3.82642995,-0.446345815
65,1747533381740,-0.759506165,0.18401916,-0.213061975,0.72065139,-3.7912762,-0.342482515
66,1747533381750,-0.8305268299999999,0.0550349024999999,-0.23209844,1.05913917,-3.75026355,-0.3009372
67,1747533381760,-0.87726378,-0.0696783455,-0.27505252,1.2692625999999998,-3.68634775,-0.2934803649999999
68,1747533381770,-1.0196712,-0.17401282,-0.36779428,1.088700275,-3.59926225,-0.21411816
69,1747533381780,-1.0848345,-0.1338654025,-0.33265004,0.671649225,-3.5670379,-0.0138484349999999
70,1747533381790,-1.20088375,0.0041489725,-0.24442334,0.3123888,-3.54440115,0.26525086
71,1747533381800,-1.20417845,0.168765585,-0.176575415,0.021038975,-3.4631748,0.554736465
72,1747533381810,-1.1565872,0.23551524,-0.16180995,-0.16937705,-3.4200315000000003,0.7313040500000001
73,1747533381820,-1.0074683,0.220749785,-0.03429004,-0.03062636,-3.56916855,0.6956177100000001
74,1747533381830,-1.04175835,0.1381364,0.0374627865,0.3406183149999999,-3.6914077,0.544616465
75,1747533381840,-1.11363325,0.0612583685,-0.0015863719999999,0.6479471,-3.6226981,0.3933489049999999
76,1747533381850,-1.2028362,-0.0002440574999999,-0.0338019284999999,0.8668589250000001,-3.5068506,0.23782029
77,1747533381860,-1.3633038000000002,0.018792409,-0.061502425,0.903876875,-3.3127062,0.10466223
78,1747533381870,-1.4743498000000002,0.114706905,-0.0585737375,0.7094661,-3.0807447,0.021837922
79,1747533381880,-1.4637333,0.196954195,-0.0235515236,0.63250077,-3.0458573,0.0143810704999999
80,1747533381890,-1.411139,0.221237895,-0.0107385181,0.47058058,-3.02907945,0.0015978967
81,1747533381900,-1.3414607,0.194269575,-0.0020744854999999,0.38562572,-3.047189,-0.0037284256
82,1747533381910,-1.3035098,0.17279254,0.012202863,0.25246766,-3.1260185,-0.00958738
83,1747533381920,-1.3395082,0.14863086,0.08786061,0.407729985,-3.0349384,0.072437983
84,1747533381930,-1.402597,0.135817855,0.0733392049999999,0.596015485,-2.9007151,0.14594123
85,1747533381940,-1.42456215,0.105676787,0.0130570634999999,0.684698735,-2.58859265,0.1219727774999999
86,1747533381950,-1.4274908,0.082247294,-0.048323333,0.7073356,-2.3707461,0.080960095
87,1747533381960,-1.3773371,0.06601748,-0.0550349079999999,0.542219595,-2.27753545,-0.1677791569999999
88,1747533381970,-1.3126619,0.058817795,-0.0583296799999999,0.416252075,-2.2485069,-0.36884782
89,1747533381980,-1.21455085,0.032459615,-0.08578612,0.25060346,-2.2506374,-0.5997438900000001
90,1747533381990,-1.0905698,0.0021965145,-0.0447845045,0.04048005,-2.3795345,-0.83197157
91,1747533382000,-1.0196712,-0.011470691,0.010494461,-0.06924219,-2.4932516,-0.9395633
92,1747533382010,-1.1120469000000002,-0.0050031736,0.068091973,-0.067111659,-2.43226505,-0.82424835
93,1747533382020,-1.1798947000000002,0.01793820815,0.0982330405,-0.0162452835,-2.3379892,-0.64741445
94,1747533382030,-1.2232148500000002,0.037462788,0.1411871125,0.0700411385,-2.26635015,-0.4612595149999999
95,1747533382040,-1.2888663,0.065773428,0.183042935,0.233559233,-2.24770795,-0.228765545
96,1747533382050,-1.3220581,0.08944698,0.18694785,0.371510985,-2.23652265,-0.022370555
97,1747533382060,-1.29203905,0.086274235,0.17413484,0.406132075,-2.17713415,0.101732755
98,1747533382070,-1.2265097,0.062600683,0.170473985,0.4013383849999999,-2.1299963,0.1989381399999999
99,1747533382080,-1.1363305499999998,0.02135500905,0.17620933,0.367782565,-2.14597535,0.248472935
100,1747533382090,-1.007590325,-0.0349001864499999,0.19536782,0.30652985,-2.2013690500000003,0.24873925
101,1747533382100,-0.890320825,-0.07358326,0.20671648,0.2487392499999999,-2.2389196,0.196274975
102,1747533382110,-0.8027043,-0.06833603,0.22453266,0.20506341,-2.26288805,0.1054611799999999
103,1747533382120,-0.79465042,-0.0511299935,0.24832825,0.156061245,-2.29111755,-0.00479369
104,1747533382130,-0.77146497,-0.0128130054999999,0.32264368,0.0908137964999999,-2.3254724,-0.18375812
105,1747533382140,-0.75340473,0.020134723,0.41160254,0.0545948015,-2.336924,-0.3438141
106,1747533382150,-0.75047606,0.0319715,0.45004156,0.07323693,-2.3204123,-0.39201732
107,1747533382160,-0.7920878,0.07468152,0.518499635,0.1288969999999999,-2.3206786,-0.38509311
108,1747533382170,-0.8216187500000001,0.11812371,0.6135599,0.25353294,-2.3481093,-0.33449304
109,1747533382180,-0.8260117499999999,0.11946602,0.6995901,0.542485925,-2.41601985,-0.26764769
110,1747533382190,-0.8693318999999999,0.0771220865,0.74254418,0.838895775,-2.51855145,-0.23835292
111,1747533382200,-0.9726902,0.043442188,0.74876763,0.98616855,-2.5976474,-0.2439455549999999
112,1747533382210,-1.0257727,0.028066583,0.7438865,1.0439591,-2.6205506,-0.24554345
113,1747533382220,-1.1498758,-0.029897013,0.73046335,1.0953582,-2.56355885,-0.40959417
114,1747533382230,-1.36757485,-0.049665651,0.71301323,0.982173865,-2.3246733,-0.61252705
115,1747533382240,-1.61285235,-0.0456387075,0.6714014800000001,0.762196715,-1.98698445,-0.70973243
116,1747533382250,-1.76648635,-0.037828874,0.61563442,0.6466155,-1.8620822,-0.69721556
117,1747533382260,-1.89437235,-0.011836776,0.58988637,0.262055055,-1.4823155,-0.41358891
118,1747533382270,-2.0095674,0.030751212,0.5154489,-0.03994741,-1.101483475,0.1102548699999999
119,1747533382280,-2.08058795,0.055278964,0.4506517,-0.262587695,-0.707335625,0.6910903150000001
120,1747533382290,-2.1004786,0.059671996,0.42380541,-0.3137204,-0.4261058,1.016262285
121,1747533382300,-2.1097529,0.0562551955,0.33838539,-0.371510985,-0.13235911,1.2298478
122,1747533382310,-2.0920588,0.040635532,0.25943286,-0.452471075,0.185622325,1.29829105
123,1747533382320,-1.98540575,0.0067115745,0.21355009,-0.59095544,0.598678635,1.122522415
124,1747533382330,-1.8440966,-0.0142773495,0.195245805,-0.7374293,0.95261275,0.834368365
125,1747533382340,-1.7446433,-0.004271002,0.20171331,-0.8215851999999999,1.1158645,0.58269965
126,1747533382350,-1.6961979,0.003172744,0.20866893,-0.8580705,1.1787151,0.4527374
127,1747533382360,-1.64933885,0.080172805,0.28762147,-0.842357875,1.36194065,0.119842257
128,1747533382370,-1.6486067,0.163884445,0.341558115,-0.6828345499999999,1.63518095,-0.0865527379999999
129,1747533382380,-1.66874145,0.236369435,0.40708749,-0.43968792,1.870338,-0.205596045
130,1747533382390,-1.7092549,0.265046165,0.437838715,-0.20373182,1.9678098,-0.1816275949999999
131,1747533382400,-1.7381756,0.2723679,0.43808278,-0.0777643,2.0208068,-0.15020229
132,1747533382410,-1.7720997,0.209157065,0.39695911,0.24261398,2.23013115,0.09214537945
133,1747533382420,-1.74037225,0.10653099,0.39622694,0.4005394399999999,2.40616605,0.37657098
134,1747533382430,-1.7041297,0.0172060360499999,0.415873555,0.4362258,2.56781995,0.6436860200000001
135,1747533382440,-1.6869237,-0.0076878037,0.431493225,0.33635725,2.71216335,0.7821704
136,1747533382450,-1.6774055,-0.0134231495,0.43417785,0.26684874,2.7931235,0.8431568
137,1747533382460,-1.6334751,-0.0102504045,0.45370242,0.07829694,2.9625003,0.90707266
138,1747533382470,-1.5903991,0.0386830725,0.5451018999999999,-0.231428715,3.2818135,0.89695265
139,1747533382480,-1.5513499,0.081027005,0.59647595,-0.330232,3.4147053,0.87618
140,1747533382490,-1.534876,0.09225364,0.6155124,-0.36591834,3.5137749,0.8367652
141,1747533382500,-1.4981453999999998,0.137404232,0.6488261799999999,-0.344613045,3.67329815,0.80374205
142,1747533382510,-1.45836405,0.158881265,0.639063895,-0.327568815,3.7462688,0.79894835
143,1747533382520,-1.39002805,0.18316496,0.64650765,-0.279099285,3.82323415,0.8042747
144,1747533382530,-1.3210819,0.213916175,0.65077865,-0.193878135,3.90765635,0.79921467
145,1747533382540,-1.2966762,0.22697324,0.64187056,-0.14966966,3.9430764,0.78936094
146,1747533382550,-1.2742229,0.2706595,0.5952556,-0.02876214,4.0298953,0.7590009
147,1747533382560,-1.1923417,0.267364715,0.53155665,0.121706462,4.02430295,0.6492787
148,1747533382570,-1.17098675,0.238687985,0.49665649,0.275370865,3.92922795,0.50466904
149,1747533382580,-1.1996635,0.2277054,0.437594655,0.396544695,3.8488004,0.39041942
150,1747533382590,-1.2432276,0.22990192,0.36437747,0.407463655,3.840811,0.370712025
151,1747533382600,-1.2673893,0.232830605,0.35790995,0.4037352349999999,3.93775,0.355532005
152,1747533382610,-1.291551,0.23575929,0.35144243,0.40533313,4.0368195,0.34194988
153,1747533382620,-1.2842292999999998,0.23551523,0.324352085,0.440753175,4.24534525,0.251935035
154,1747533382630,-1.2769076,0.23527117,0.29726174,0.47617322,4.453871,0.16192019
155,1747533382640,-1.2683655,0.20305562,0.28286234,0.5113269,4.497014,0.034088463
156,1747533382650,-1.2756872,0.17987019,0.21159762,0.46871635,4.437892,-0.040480047
157,1747533382660,-1.2839851,0.12154051,0.14423785,0.35233621,4.4874268,0.0117179065
158,1747533382670,-1.2366381,0.09542638,0.12349297,0.090014845,4.60141,0.17097494
159,1747533382680,-1.1730612,0.1115341649999999,0.146800435,-0.038615837,4.7697218,0.2820287649999999
160,1747533382690,-1.1060674499999998,0.1275199149999999,0.136794085,-0.0751011474999999,4.9140652,0.29960562
161,1747533382700,-1.03199605,0.1173915349999999,0.0975008699999999,-0.10359697,4.9662631,0.283892975
162,1747533382710,-0.9637821,0.071996887,0.045760734,-0.15632756,4.92604925,0.2729740149999999
163,1747533382720,-0.89202925,0.0136672054999999,0.0145214055,-0.251668735,4.8608017,0.28256139
164,1747533382730,-0.8583493,-0.014887493,0.006833603,-0.30839407,4.8187237,0.29454562
165,1747533382740,-0.8468786500000001,-0.033313815,-0.0169619785,-0.5289038149999999,4.812332,0.4396879099999999
166,1747533382750,-0.8673795,-0.020988923,-0.012935034,-0.6109292,4.900749,0.52624065
167,1747533382760,-0.78684056,0.0423439335,-0.0150095215,-0.710265065,4.89329225,0.660463975
168,1747533382770,-0.72265351,0.07297312,0.0040269445,-0.735831415,4.92791325,0.7368967
169,1747533382780,-0.6789673,0.10055158,-0.012202863,-0.7286409,5.0562778,0.8671253
170,1747533382790,-0.6157564,0.102992155,-0.022941383,-0.69961243,5.1276505,0.95181385
171,1747533382800,-0.58817795,0.0949382675,-0.0358764165,-0.64847973,5.1966264,1.0394318500000002
172,1747533382810,-0.5338752250000001,0.077610205,-0.0366085875,-0.59628177,5.17265795,1.0277139000000002
173,1747533382820,-0.42783235,0.07809832,-0.0329477275,-0.53556167,5.1257863,0.975515915
174,1747533382830,-0.27224586,0.092863785,-0.05820765,-0.49534795,5.08823565,0.892957915
175,1747533382840,-0.0277005,0.09261973,-0.087738575,-0.52171327,5.10554625,0.7704525200000001
176,1747533382850,0.213306035,0.093717985,-0.1057988129999999,-0.64821342,5.0171294,0.66712187
177,1747533382860,0.388173065,0.118001675,-0.108971563,-0.7387609,4.8991513,0.6412892
178,1747533382870,0.58756784,0.135817855,-0.1081173649999999,-0.90600745,4.55240765,0.549143825
179,1747533382880,0.778176525,0.143871745,-0.090301182,-0.9648633,4.229366300000001,0.46871635
180,1747533382890,1.2473766,0.2660224,-0.04881145,-0.91825798,3.65305815,0.306263535
181,1747533382900,1.32510885,0.2911603,-0.03111729975,-0.7986820299999999,2.9957900000000004,0.100134861
182,1747533382910,1.4551914,0.341802185,-0.03441207325,-0.6740461,2.46369045,-0.063915869
183,1747533382920,1.54109955,0.39378637,-0.0627227135,-0.55393753,1.9371834,-0.195209715
184,1747533382930,1.58515185,0.4195344,-0.0821252625,-0.30067089,1.380849,-0.326769875
185,1747533382940,1.6046764,0.419412375,-0.0815151175,-0.01997371,0.934503225,-0.46711846
186,1747533382950,1.6137065,0.42002252,-0.06882414,0.0644485,0.79894835,-0.52837116
187,1747533382960,1.74049425,0.440767405,-0.109215615,0.2151834249999999,0.2689792749999999,-0.8359662999999999
188,1747533382970,1.7495243500000002,0.451017795,-0.160955755,0.2530003,-0.110787505,-1.0897655
189,1747533382980,1.650071,0.455532845,-0.19512377,0.30786141,-0.73609778,-1.3723269
190,1747533382990,1.5924735,0.45467865,-0.20354374,0.35420042,-1.1622036,-1.5270566
191,1747533383000,1.4138237,0.44930938,-0.2277054,0.4575311,-1.5478293,-1.4956313
192,1747533383010,1.1486554,0.411846625,-0.27895744,0.7036071749999999,-1.90309495,-1.13557195
193,1747533383020,0.975252725,0.33777523,-0.32642658,0.925182175,-2.2264027,-0.6892261
194,1747533383030,0.836262175,0.255283875,-0.3511983899999999,1.0942929,-2.56755365,-0.33182988
195,1747533383040,0.8000197,0.22794947,-0.34680536,1.1419635,-2.6812706,-0.24714136
196,1747533383050,0.645897505,0.182432805,-0.35790995,1.1941614,-3.021889,-0.104395915
197,1747533383060,0.52130629,0.15888127,-0.382681755,1.16486665,-3.1830102,-0.04394216
198,1747533383070,0.372919485,0.10628693,-0.41843615,0.997353835,-3.36650205,-0.04846953
199,1747533383080,0.25259926,0.047469136,-0.44467232,0.759000935,-3.58354965,-0.1203748799999999
200,1747533383090,0.21257387,0.029042812,-0.4471129,0.660464,-3.6762276,-0.16298546
201,1747533383100,0.0646751705,0.033069755,-0.436374365,0.291349835,-3.989682,-0.310524585
202,1747533383110,-0.0467369625,0.09200958,-0.417581965,0.1017327594999999,-4.2203117500000005,-0.3637878
203,1747533383120,-0.1910968229999999,0.18877828,-0.36767225,0.008522116,-4.353736,-0.45912898
204,1747533383130,-0.33265002,0.258822715,-0.32447411,0.0703074529999999,-4.282097,-0.47990164
205,1747533383140,-0.38536638,0.27212384,-0.32239962,0.13209279,-4.210458,-0.5006743
206,1747533383150,-0.44076738,0.25870069,-0.33057554,0.370712025,-3.90605865,-0.73343458
207,1747533383160,-0.48957885,0.218553265,-0.33753118,0.494016395,-3.78195525,-0.99442435
208,1747533383170,-0.5922049,0.154000115,-0.370722965,0.43888897,-3.7627804,-1.3837785
209,1747533383180,-0.70898628,0.12178456,-0.39720316,0.227433965,-3.79420565,-1.61920195
210,1747533383190,-0.7751258050000001,0.143017545,-0.395250705,-0.008522115,-3.87383415,-1.5102787
211,1747533383200,-0.781349275,0.173036585,-0.4015962,-0.24687504,-3.9894154,-1.2490226
212,1747533383210,-0.7440085000000001,0.21220777,-0.34741549,-0.40400155,-4.041347099999999,-0.9467538
213,1747533383220,-0.7883049,0.236369435,-0.24527753,-0.2242381705499999,-3.94840275,-0.6836335
214,1747533383230,-0.92900395,0.226119035,-0.20451997,0.19654129445,-3.74174145,-0.5318333
215,1747533383240,-1.07324175,0.18523945,-0.22392253,0.558731195,-3.5183022,-0.46525426
216,1747533383250,-1.142676,0.15546446,-0.24576566,0.72171664,-3.417901,-0.42983422
217,1747533383260,-1.142676,0.15546446,-0.24576566,0.72171664,-3.417901,-0.42983422
218,1747533383270,-1.26763335,0.118367765,-0.282984375,0.802144125,-3.3582462,0.0050600099999999
219,1747533383280,-1.34914845,0.1624201,-0.24344711,0.59068915,-3.46450635,0.331829875
220,1747533383290,-1.4309075999999998,0.2511349,-0.186825825,0.488690075,-3.5396075,0.63037023
221,1747533383300,-1.4704449,0.3018988,-0.15204766,0.4596616,-3.5681033,0.78296936
222,1747533383310,-1.48582055,0.35705574,-0.14484798,0.62717445,-3.48501265,1.0724550000000002
223,1747533383320,-1.470933,0.35241866,-0.15766099,0.7121293,-3.4653053,1.1265172
224,1747533383330,-1.3336508500000002,0.090057123,-0.384268135,1.0657971,-3.0597059,0.91985585
225,1747533383340,-1.2715383,0.020744866,-0.4378387,1.0657971,-2.9550436,0.8048073
226,1747533383350,-1.0942307,-0.06662763,-0.493361725,0.7744472499999999,-2.7371969,0.4428837
227,1747533383360,-0.9011814,-0.053204482,-0.49299565,0.46285741,-2.58539675,0.19600866
228,1747533383370,-0.68994987,0.010494461,-0.32801294,-0.43409526,-2.615757,-0.43569317
229,1747533383380,-0.706179635,0.0456387055,-0.254429675,-0.526240645,-2.7001791,-0.543284885
230,1747533383390,-0.807707415,0.143871745,-0.108117355,-0.617054435,-2.8091023,-0.71452615
231,1747533383400,-1.117172015,0.329477285,0.01696198,-0.3281014435,-2.5989789,-0.69322085
232,1747533383410,-1.40479355,0.45187199,0.045760734,0.1065264515,-2.2708775,-0.49082059
233,1747533383420,-1.44042595,0.4238054,-0.0122028629999999,0.362189925,-2.17021,-0.260723475
234,1747533383430,-1.3559821,0.354737205,-0.0833455519999999,0.5286375,-2.1590247,-0.0495348034999999
235,1747533383440,-1.17464755,0.247962165,-0.135451775,0.5978796749999999,-2.1393174,0.1243696265
236,1747533383450,-1.00368543,0.1664470499999999,-0.150217235,0.501739545,-2.15769315,0.235157125
237,1747533383460,-0.92070598,0.137648295,-0.13972277,0.30759511,-2.21308685,0.22104237
238,1747533383470,-0.8618882,0.107751278,-0.111900245,0.14194649,-2.247708,0.069774825
239,1747533383480,-0.8581052650000001,0.081271063,-0.0639429985,0.005060005,-2.2841933,-0.177899155
240,1747533383490,-1.018328865,0.0976229,0.0141553215,-0.080427468,-2.2642196500000003,-0.62397864
241,1747533383500,-1.1602482,0.12349297,0.0622346,-0.108124346,-2.2210765,-0.9241169
242,1747533383510,-1.37062555,0.192561175,0.0717528299999999,-0.0665790275,-2.0620857,-1.0908308
243,1747533383520,-1.4438427,0.229535845,0.060648226,-0.045007424,-1.92946025,-1.1105382
244,1747533383530,-1.35402955,0.225630925,0.034656129,-0.0519316415,-1.72759265,-1.06180235
245,1747533383540,-1.1802608,0.18597162,0.025381953,-0.090281162,-1.6008262,-1.01892545
246,1747533383550,-1.0711673,0.15729489,0.0303851265,-0.153930717,-1.6487631,-1.01359915
247,1747533383560,-0.93303084,0.13716017,0.030019043,-0.2577939999999999,-1.7504958,-0.99575595
248,1747533383570,-0.88995472,0.128862225,0.0417337915,-0.36432045,-1.8306569,-0.95820535
249,1747533383580,-0.79013533,0.1010397,0.07309515,-0.438090015,-1.85595695,-0.8780441999999999
250,1747533383590,-0.73339206,0.08151512,0.09274176,-0.46818373,-1.8594191,-0.8202536
251,1747533383600,-0.76633977,0.08883684,0.18267684,-0.465254275,-2.03598665,-0.67164925
252,1747533383610,-0.82979467,0.134353515,0.27993365,-0.3174488199999999,-2.1017667,-0.54435012
253,1747533383620,-0.89422577,0.183042925,0.35449314,-0.0857537925,-2.1057614,-0.42024682
254,1747533383630,-0.94218299,0.197930415,0.3950066399999999,0.2969424525,-2.09723935,-0.271376115
255,1747533383640,-0.94730817,0.171206155,0.403182565,0.62078285,-2.1603564,-0.1635181
256,1747533383650,-0.9308343,0.126177595,0.404280825,0.7123956,-2.24957225,-0.14141386
257,1747533383660,-0.923024465,0.0735832585,0.40781966,0.71505875,-2.2770028,-0.13635385
258,1747533383670,-0.919119565,0.0002440585,0.41562948,0.65087657,-2.2820628,-0.131027525
259,1747533383680,-0.93181056,-0.064919226,0.47078642,0.44368264,-2.3571639,-0.0958738
260,1747533383690,-0.92033988,-0.066261543,0.48250118,0.21438447,-2.428004,-0.0495347965
261,1747533383700,-0.90240165,-0.07187486,0.49970722,0.078563253,-2.43226505,-0.0322242489999999
262,1747533383710,-0.89398165,-0.078586435,0.543393475,-0.015180019,-2.4346619,-0.04181163
263,1747533383720,-0.9003272,-0.07565775,0.609288925,-0.017044232,-2.3851271,-0.0908137925
264,1747533383730,-0.96024325,-0.0389271324999999,0.6595647250000001,0.077231675,-2.33319545,-0.2055960299999999
265,1747533383740,-1.04066005,0.0017084005,0.68433654,0.168045465,-2.3329291000000003,-0.31398669
266,1747533383750,-1.09484075,0.0087860607,0.674818265,0.1850897,-2.3342607,-0.380299405
267,1747533383760,-1.1202227,0.0065895454,0.6631035,0.17896444,-2.3334618,-0.41598576
268,1747533383770,-1.2200421,0.0178161786,0.67628265,0.06524745,-2.31828175,-0.571248055
269,1747533383780,-1.3377998,0.0615024265,0.7224094649999999,0.03701794,-2.191249,-0.76938723
270,1747533383790,-1.5875924,0.136428,0.7394935,0.11025487,-1.9909793,-0.92385058
271,1747533383800,-1.6655687,0.1433836299999999,0.69836985,0.252467675,-1.8085527,-0.918524265
272,1747533383810,-1.7940648499999998,0.137648285,0.6146582,0.397343635,-1.6301209,-0.8484831349999999
273,1747533383820,-1.93903485,0.0816371485,0.491409265,0.547013285,-1.24955522,-0.64235446
274,1747533383830,-2.0294581000000003,0.0161077778499999,0.358886165,0.61705442,-0.81865577,-0.392549945
275,1747533383840,-1.9785721,-0.06760386,0.21281794,0.5233111500000001,-0.5696502,-0.214118155
276,1747533383850,-1.94135335,-0.084687865,0.20317766,0.4463458,-0.4543353,-0.12463594
277,1747533383860,-1.9041346,-0.10177187,0.19353738,0.24820662,-0.17044231,0.03834952
278,1747533383870,-1.8011425,-0.12935033,0.17669745,-0.1688444185,0.2809634975,0.14540859
279,1747533383880,-1.7515988500000002,-0.090301184,0.199760865,-0.417583665,0.563258585,0.13528858
280,1747533383890,-1.7620933,-0.061014313,0.21379416,-0.4612595,0.66152924,0.11504856
281,1747533383900,-1.7860109,-0.0021965152,0.23551524,-0.497744825,0.94435695,0.06098639
282,1747533383910,-1.83335805,0.090911326,0.306169815,-0.461525825,1.139833,0.0761664099999999
283,1747533383920,-1.81737225,0.155952585,0.35144243,-0.3752394,1.4599449,0.1813612799999999
284,1747533383930,-1.7579443499999998,0.164494585,0.3773124949999999,-0.171507578,1.746501,0.2974751
285,1747533383940,-1.6968081,0.1134866149999999,0.405989245,0.069242192,1.8453043,0.3339604
286,1747533383950,-1.65129135,0.0601601089999999,0.4246596099999999,0.15925704,1.8748654,0.33822146
287,1747533383960,-1.6004054,-0.020134721,0.389759405,0.36485307,2.0469057,0.2266349999999999
288,1747533383970,-1.5602580499999998,-0.0949382699999999,0.345218975,0.30945932,2.27993225,0.0487358469999999
289,1747533383980,-1.54890935,-0.12080834,0.336432925,0.14114754,2.51402415,-0.130761213
290,1747533383990,-1.5451264,-0.12861817,0.33948365,0.05486112,2.5923212,-0.18535602
291,1747533384000,-1.55208215,-0.122882815,0.39281014,-0.12144015,2.7308054,-0.26205507
292,1747533384010,-1.590277,-0.098477098,0.4413775199999999,-0.30972564,2.90763935,-0.274305595
293,1747533384020,-1.63164465,-0.0528383945,0.502391845,-0.36964677,3.09246275,-0.140082266
294,1747533384030,-1.6461661,-0.023673553,0.54107493,-0.38402784,3.2197618,-0.024501082
295,1747533384040,-1.6303024000000002,-0.0004881145999999,0.59977065,-0.37177729,3.3481263500000003,0.2908172
296,1747533384050,-1.60113755,0.0165958924,0.6242984,-0.36458677,3.4314832,0.47404269
297,1747533384060,-1.5719727,0.0386830715,0.62734915,-0.361657295,3.5196338000000003,0.6511429
298,1747533384070,-1.4392056,0.070532545,0.6133158,-0.2609898,3.7145772,0.95927066
299,1747533384080,-1.389662,0.038316987,0.5696296,-0.21891184,3.7241645,1.0135992
300,1747533384090,-1.3750186,0.0248938389999999,0.5520575,-0.204264455,3.71910455,1.0346381
301,1747533384100,-1.3537856,0.0014643434999999,0.51593703,-0.1920139149999999,3.70392455,1.07671605
302,1747533384110,-1.3230344,-0.022209208,0.43710655,-0.26897928,3.7241645,1.0892329
303,1747533384120,-1.32034975,-0.011592718485,0.435886265,-0.29348037,3.759851,1.0237192
304,1747533384130,-1.31400425,0.025015867515,0.43381177,-0.295610885,3.789412,0.97338543
305,1747533384140,-1.2898425,0.114462845,0.42026657,-0.2892192999999999,3.840811,0.85567368
306,1747533384150,-1.29911675,0.1475326025,0.398667515,-0.20559604,3.976632,0.56245965
307,1747533384160,-1.2793481,0.17718557,0.3402158,-0.18056233,4.0139165,0.52144694
308,1747533384170,-1.2488409,0.17108414,0.34900185,-0.13209279,4.0384173,0.49055427
309,1747533384180,-1.2136967,0.16058967,0.31898284,-0.075101145,4.0661144,0.45540056
310,1747533384190,-1.172695,0.1637624,0.268463,-0.00958738,4.1587925,0.39041942
311,1747533384200,-1.1822133,0.17108414,0.22672918,0.0037284255,4.198207249999999,0.40187101
312,1747533384210,-1.1748916,0.15107143,0.17450093,0.0037284256,4.228567,0.47244477
313,1747533384220,-1.1783084,0.14252943,0.19890666,0.015978966,4.213121,0.57311225
314,1747533384230,-1.1314493,0.12495731,0.1483868,0.022370555,4.1859565,0.6668556
315,1747533384240,-1.13755075,0.109215618,0.118123705,0.0258326635,4.1571944,0.68203558
316,1747533384250,-1.15304845,0.101039703,0.0778542625,0.031425301,4.13162815,0.689492405
317,1747533384260,-1.2119883,0.12666571,0.061502427,0.042876895,4.18569025,0.68176925
318,1747533384270,-1.189047,0.1342315,0.022209208,0.053795855,4.28875475,0.683100825
319,1747533384280,-1.1587838499999998,0.127031805,0.004271001,0.0335558295,4.3635895,0.69188925
320,1747533384290,-1.09996605,0.141553205,0.0135451769999999,-0.0031957939999999,4.40406935,0.795219915
321,1747533384300,-1.0667742,0.16742326,-0.013179091,-0.0154463352499999,4.457599200000001,0.952080115
322,1747533384310,-0.9999026,0.1415532,-0.03099527,0.009054748,4.557734,1.1020161
323,1747533384320,-0.9352274,0.1200761649999999,-0.04905551,0.0282295075,4.6187203,1.09802135
324,1747533384330,-0.7757359850000001,0.060282141,-0.070654575,0.0679106085,4.7177898,0.98696752
325,1747533384340,-0.68091977,0.021965152,-0.0741934,0.08841695,4.755873,0.87990844
326,1747533384350,-0.68091977,0.021965152,-0.0741934,0.08841695,4.755873,0.87990844
327,1747533384360,-0.6194173199999999,0.0673597995,-0.053204477,0.03195793,4.7382965,0.6263755
328,1747533384370,-0.5690195,0.1078733025,-0.0329477284999999,0.0308926675,4.72551325,0.6399576
329,1747533384380,-0.457119235,0.10726316,-0.0350222164999999,0.0455400554999999,4.65653735,0.70653665
330,1747533384390,-0.27261195,0.07980672,-0.07785426,0.071639035,4.588094,0.800546265
331,1747533384400,-0.106164895,0.02318544,-0.110557936,0.0751011445,4.576109649999999,0.8745821149999999
332,1747533384410,0.107385196,-0.05222825,-0.12837411,0.032490566,4.6307044,0.9241169
333,1747533384420,0.47737598,-0.15692882,-0.15229172,-0.026631612,4.49967695,0.8910937
334,1747533384430,0.57207019,-0.15021724,-0.136916115,-0.205063415,4.14068295,0.82105255
335,1747533384440,0.7298532,-0.109215615,-0.126055565,-0.3904194199999999,3.6288234,0.7427556150000001
336,1747533384450,0.8317471000000001,-0.0244057224999999,-0.14313957,-0.49161955,3.0762174,0.66685554
337,1747533384460,0.88788027,0.0976229,-0.17620933,-0.48629323,2.3552997,0.58483016
338,1747533384470,0.90838104,0.1444819,-0.23112221,-0.084155895,1.9094865,0.46552056
339,1747533384480,0.94950467,0.148630865,-0.2712696249999999,0.0069242155,1.8279938,0.41278997
340,1747533384490,1.0463954,0.1583931499999999,-0.33777523,0.135288583,1.6375778,0.304133
341,1747533384500,1.2132086,0.19402552,-0.36291313,0.1107875,1.1350393,0.14594123
342,1747533384510,1.2451801,0.22197007,-0.348025635,0.0519316405,0.9648633,0.1520665
343,1747533384520,1.35878875,0.265534285,-0.356201545,-0.1560612345,0.51585432,0.248472935
344,1747533384530,1.4749599999999998,0.2678528249999999,-0.391467825,-0.356863585,0.108124342,0.379766785
345,1747533384540,1.5094941,0.2545517,-0.4036707,-0.40852892,-0.020772656,0.42077947
346,1747533384550,1.5705084,0.23502712,-0.43295756,-0.45327002,-0.3387541,0.42983422
347,1747533384560,1.5856399,0.217821095,-0.479206435,-0.4444816,-0.88470215,0.30892668
348,1747533384570,1.4697127,0.2323425,-0.49726665,-0.334226715,-1.3417006,0.0972053735
349,1747533384580,1.2776396499999998,0.2463757899999999,-0.51557092,-0.1541970275,-1.75742005,-0.1608549315
350,1747533384590,1.1133891,0.222458185,-0.52277062,0.0154463349999999,-1.97153825,-0.34301515
351,1747533384600,0.96390407,0.175721225,-0.5354616,0.1786981075,-2.1318605,-0.501739575
352,1747533384610,0.72289757,0.1137306825,-0.57829365,0.31265511,-2.30043855,-0.64608292
353,1747533384620,0.48201307,0.07516963,-0.63637928,0.31878038,-2.5182852,-0.750478805
354,1747533384630,0.3518085199999999,0.0641870525,-0.6726217800000001,0.1784317899999999,-2.7222834,-0.764593535
355,1747533384640,0.2945771,0.05735345,-0.686289,0.08628642,-2.7968519,-0.7392935
356,1747533384650,0.12751991,0.0865182999999999,-0.6676186150000001,-0.21118868,-3.04186275,-0.571780715
357,1747533384660,0.017450092,0.1284961399999999,-0.66090705,-0.3874899499999999,-3.1638355,-0.41571947
358,1747533384670,-0.110557928,0.16986384,-0.63113205,-0.48682585,-3.1547807,-0.2378202999999999
359,1747533384680,-0.18841219,0.20012694,-0.59659795,-0.4777711,-3.0818101,-0.16618126
360,1747533384690,-0.18719191,0.21452632,-0.5823206000000001,-0.426638415,-3.0794133,-0.2391518799999999
361,1747533384700,-0.17816179,0.2200176099999999,-0.5618198000000001,-0.376304665,-3.1212249,-0.3882889
362,1747533384710,-0.241494645,0.2381998599999999,-0.5409529,-0.3209109249999999,-3.1827439,-0.70360718
363,1747533384720,-0.343266515,0.2585786399999999,-0.5357056499999999,-0.2910835149999999,-3.22721875,-1.03277393
364,1747533384730,-0.436008275,0.255771995,-0.5396105499999999,-0.309193,-3.24053455,-1.2389026
365,1747533384740,-0.49055508,0.24942651,-0.5437595,-0.32597092,-3.2421324,-1.3401027
366,1747533384750,-0.68189595,0.298848085,-0.50666284,-0.33609094,-3.209908,-1.4136059
367,1747533384760,-0.7036170500000001,0.302875055,-0.5241129499999999,-0.352602525,-3.15158485,-1.28897
368,1747533384770,-0.644799275,0.26541227,-0.5387564,-0.39947417,-3.14652485,-1.06153605
369,1747533384780,-0.52813989,0.22074979,-0.53436335,-0.436758425,-3.2045817000000003,-0.87351685
370,1747533384790,-0.434910015,0.19463566,-0.49494808,-0.39095205,-3.16090595,-0.7337009
371,1747533384800,-0.4303949649999999,0.192317115,-0.494581995,-0.295078255,-3.03840065,-0.655403975
372,1747533384810,-0.51959789,0.189388425,-0.50751704,-0.200802345,-2.9888659,-0.641289205
373,1747533384820,-0.7264364050000001,0.1909747949999999,-0.478596255,-0.0695085005,-2.908971,-0.7544735300000001
374,1747533384830,-0.92168218,0.20793678,-0.452360105,-0.011984224,-2.8218856,-0.89002845
375,1747533384840,-1.0396838,0.2630937,-0.38756293,-0.0846885235,-2.78326975,-0.9169264
376,1747533384850,-0.8756774,0.31995904,-0.40611124,-0.3834952,-2.7020433,-0.67537767
377,1747533384860,-0.836750265,0.29128232,-0.3716991699999999,-0.45540056,-2.876214,-0.49534798
378,1747533384870,-0.827964215,0.2389320549999999,-0.29652955,-0.41944788,-2.9313414,-0.38562574
379,1747533384880,-0.93962035,0.2224581849999999,-0.251989115,-0.29214878,-3.030411,-0.165648625
380,1747533384890,-1.11070445,0.23929813,-0.262971685,-0.05725797,-3.00298045,0.035153725
381,1747533384900,-1.308757,0.241860735,-0.30555967,0.2231729,-2.6839337,0.12809805
382,1747533384910,-1.3818521,0.24796216,-0.38048524,0.325704605,-2.36621865,0.0852211585
383,1747533384920,-1.3818521,0.24796216,-0.38048524,0.1989381399999999,-2.2682143000000003,-0.040480049
384,1747533384930,-1.1431641,0.265046175,-0.437350575,-0.033023195,-2.2527679000000003,-0.2210423775
385,1747533384940,-0.94218297,0.235393215,-0.449797515,-0.319845655,-2.294047,-0.41598577
386,1747533384950,-0.745350835,0.1478986925,-0.4062333,-0.64075656,-2.44717885,-0.63782708
387,1747533384960,-0.639552015,0.0748035475,-0.362913135,-0.834102075,-2.64558435,-0.79841568
388,1747533384970,-0.64443315,0.0608922835,-0.33753118,-0.8178567999999999,-2.7822045,-0.8396946999999999
389,1747533384980,-0.70581355,0.0762678935,-0.274564405,-0.7044060999999999,-2.80004765,-0.8394284
390,1747533384990,-0.7485236,0.09274176,-0.23600335,-0.6269081,-2.7553065,-0.8314389
391,1747533385000,-0.9194857,0.209279095,-0.152291715,-0.1933454949999999,-2.44398295,-0.94435695
392,1747533385010,-0.916435,0.2203837,-0.13838045,-0.13209279,-2.4250746,-1.0034791
393,1747533385020,-0.9465761,0.22489875,-0.056133166,-0.0111852755,-2.36142505,-1.1598066500000002
394,1747533385030,-0.94279317,0.21769906,-0.046126821,0.015978967,-2.3185481,-1.22904885
395,1747533385040,-0.94340327,0.172060355,-0.0203787815,-0.0013315809999999,-2.3414513,-1.2751215500000002
396,1747533385050,-0.9510911,0.13520771,0.007321717,-0.0138484384999999,-2.3891219,-1.29589425
397,1747533385060,-1.06042865,0.1060428725,0.0557670809999999,0.003994742,-2.39018715,-1.3116069
398,1747533385070,-1.1279105500000002,0.126177595,0.0483233349999999,0.019707393,-2.3315976,-1.33078165
399,1747533385080,-1.16830205,0.16095575,0.022941381,0.0082557998499999,-2.22267425,-1.3243901
400,1747533385090,-1.11888045,0.16547081,-0.007199689,-0.05432848615,-2.0485035,-1.2258531
401,1747533385100,-1.040172,0.13459757,-0.0180602365,-0.10972224,-1.89404015,-1.0628676
402,1747533385110,-0.9581688,0.08859278,0.025137896,-0.106792765,-1.85595695,-0.89855057
403,1747533385120,-0.87226063,0.09298581,0.057109397,-0.0735032489999999,-1.90788865,-0.73396722
404,1747533385130,-0.8177138150000001,0.072118916,0.1408210285,0.067910611,-2.03705205,-0.577107035
405,1747533385140,-0.80258222,0.044296391,0.257724445,0.260190845,-2.1603564,-0.527572235
406,1747533385150,-0.84199744,0.03734076,0.29091623,0.33502567,-2.1992385,-0.5566007
407,1747533385160,-1.0334604,0.0524723079999999,0.3000683899999999,0.47404268,-2.1877868,-0.723580875
408,1747533385170,-1.1398694,0.052350279,0.256626195,0.466319515,-2.0887172,-0.84981472
409,1747533385180,-1.2072292,0.0636989435,0.21952949,0.267914005,-1.96860875,-0.97578227
410,1747533385190,-1.2219946,0.078830495,0.21062139,0.10066749,-1.9041603,-1.0402308
411,1747533385200,-1.1373068000000002,0.098477095,0.22319036,-0.149403345,-1.8431738,-0.9632654
412,1747533385210,-1.06799455,0.093351898,0.282008165,-0.20240025,-1.8498317,-0.84102632
413,1747533385220,-1.0016109,0.082125263,0.342778415,-0.0356863599999999,-1.8759307,-0.61172812
414,1747533385230,-0.950359,0.06418706,0.3687705,0.29987195,-1.8828549,-0.26418558
415,1747533385240,-0.94120682,0.05588911,0.3513204,0.352336225,-1.902296,-0.1672465179999999
416,1747533385250,-0.91301814,0.02367355138,0.34497491,0.4298342149999999,-1.96567925,0.010386329
417,1747533385260,-0.88934457,-0.0206228376199999,0.3845121849999999,0.463123725,-2.08552145,0.138218067
418,1747533385270,-0.91716712,-0.0129350339999999,0.42868656,0.46418898,-2.24584375,0.23595607
419,1747533385280,-0.95292154,0.027456441,0.44394015,0.44528054,-2.3451797,0.28762139
420,1747533385290,-0.97354436,0.04148973,0.48054874,0.4407531799999999,-2.37820295,0.2820287649999999
421,1747533385300,-0.96890728,0.0344120715,0.4912872699999999,0.46605321,-2.41495455,0.262055065
422,1747533385310,-0.95499603,0.021965153,0.50153765,0.492684815,-2.47274505,0.2327602899999999
423,1747533385320,-0.91521468,0.022331238,0.5219164000000001,0.51239219,-2.5190841,0.20879184
424,1747533385330,-0.8611559799999999,0.0219651515,0.54412565,0.520648,-2.51881785,0.18109496
425,1747533385340,-0.83760446,0.01586372,0.545468,0.51771855,-2.511361,0.16138756
426,1747533385350,-0.80441266,-0.011714748,0.5876899,0.509729,-2.5161545,0.10066749
427,1747533385360,-0.79452835,-0.049787676,0.6642017950000001,0.5305017,-2.53106845,-0.0215716065
428,1747533385370,-0.80721935,-0.070288483,0.715941935,0.540089075,-2.56915165,-0.127299105
429,1747533385380,-0.837238425,-0.073217172,0.7518183199999999,0.534762725,-2.60909905,-0.20213393
430,1747533385390,-0.8628644050000001,-0.064309082,0.77842055,0.520381675,-2.61682215,-0.243146605
431,1747533385400,-0.87348086,-0.05735345,0.7905014,0.51292485,-2.6098979,-0.267914
432,1747533385410,-0.868233665,-0.044662476,0.86347452,0.5121258799999999,-2.6149579000000003,-0.41492051
433,1747533385420,-0.89471385,-0.05930591,0.9246109,0.5360943300000001,-2.6093653000000003,-0.64075657
434,1747533385430,-0.966222615,-0.077732232,0.967809035,0.5603291,-2.5758094500000004,-0.8820389500000001
435,1747533385440,-1.0777569,-0.110801995,0.9530435,0.5342301,-2.5323999,-1.0431602
436,1747533385450,-1.0777569,-0.110801995,0.9530435,0.5049353,-2.5150893,-1.123854
437,1747533385460,-1.1534146,-0.13447554,0.954996,0.43303,-2.47674,-1.2096078
438,1747533385470,-1.36720865,-0.137160165,0.92168215,0.37816888,-2.1766016,-1.27805105
439,1747533385480,-1.57160655,-0.100673607,0.87140635,0.383761525,-1.9110845,-1.27671945
440,1747533385490,-1.654708,-0.082735404,0.8459024,0.39894155,-1.7976338,-1.2607405
441,1747533385500,-1.9214626,-0.08566409,0.7396155,0.45593318,-1.4721955,-1.1765846
442,1747533385510,-2.0685071,-0.1040904149999999,0.674330175,0.52597435,-0.99628858,-0.8878979
443,1747533385520,-2.15514755,-0.122150655,0.5764632199999999,0.508131165,-0.4689826749999999,-0.48070058
444,1747533385530,-2.14209055,-0.14387175,0.4979988199999999,0.431432115,0.063383235,-0.1012001184999999
445,1747533385540,-2.1084106,-0.1564407,0.4898229,0.3898868,0.22743396,-0.011185277
446,1747533385550,-2.0286038,-0.18938842,0.4893348,0.283893,0.53795856,0.14114754
447,1747533385560,-1.91597135,-0.212085745,0.4583395,0.045806375,0.916926375,0.3238404
448,1747533385570,-1.8489776,-0.200371005,0.4596818099999999,-0.226368685,1.22904885,0.50946273
449,1747533385580,-1.7832042499999998,-0.137038147,0.50422228,-0.4463458,1.4863102499999998,0.69961243
450,1747533385590,-1.7591647,-0.088348724,0.5357057,-0.4857606,1.5446335,0.7621967
451,1747533385600,-1.7301219,0.012935034,0.55840296,-0.5001417,1.6873789,0.88470215
452,1747533385610,-1.6605655,0.1297164224999999,0.66066297,-0.2860235,1.9997677,1.0578076
453,1747533385620,-1.5912532,0.1352077125,0.7032509650000001,0.063116915,2.1726068,0.99948438
454,1747533385630,-1.54793305,0.1126324195,0.730341345,0.42743735,2.3206786,0.8359662800000001
455,1747533385640,-1.5473229,0.108117364,0.72485006,0.53529537,2.3792682,0.757403
456,1747533385650,-1.5155954,-0.024161667,0.6796995,0.633832335,2.7518444,0.3701794
457,1747533385660,-1.51718185,-0.040269446,0.682750175,0.509995355,2.9007151,0.25513083
458,1747533385670,-1.5299948,-0.07272906,0.7038611,0.303067735,3.1103059,0.188818125
459,1747533385680,-1.54366205,-0.071508775,0.7165521,0.070307451,3.31164085,0.188818125
460,1747533385690,-1.5573293,-0.07028849,0.7292431,-0.035153728,3.3923347,0.20932446
461,1747533385700,-1.5214529,-0.01488749175,0.864572825,-0.25726136,3.67249925,0.38828889
462,1747533385710,-1.4942405,-0.00036608587,0.89544605,-0.310524585,3.83894685,0.550741715
463,1747533385720,-1.47288545,-0.00915214612,0.9170451,-0.2830940349999999,3.93615225,0.6870955750000001
464,1747533385730,-1.45031015,-0.027578469,0.92033985,-0.2625877,3.9867523,0.7600662
465,1747533385740,-1.43957165,-0.0165958935,0.94010855,-0.138484385,4.11085555,0.9965549
466,1747533385750,-1.432372,0.0209889235,0.93351902,-0.0066579049999999,4.22696945,1.09269505
467,1747533385760,-1.4095526,0.0424659624999999,0.8916631349999999,0.081492732,4.36465475,1.06100345
468,1747533385770,-1.3752626,0.0362425035,0.861033945,0.127299102,4.47171375,0.96379805
469,1747533385780,-1.3340169,0.0021965152,0.7990434,0.129163315,4.562261299999999,0.84315683
470,1747533385790,-1.3340169,0.0021965152,0.7990434,0.11664646,4.6078014,0.78296936
471,1747533385800,-1.27886,-0.03441207,0.69898,-0.09427591,4.7063384,0.608266
472,1747533385810,-1.25909135,-0.0087860595,0.6784791800000001,-0.211987625,4.770787,0.551008035
473,1747533385820,-1.22382505,0.0342900435,0.634182755,-0.37736992,4.8464208,0.46525425
474,1747533385830,-1.1563432,0.0887148079999999,0.5952556250000001,-0.47004793,4.872253499999999,0.40906155
475,1747533385840,-1.08410225,0.1385024899999999,0.5631621,-0.5235774799999999,4.89089565,0.364586755
476,1747533385850,-1.0638455,0.1513155,0.5462001,-0.5320996,4.8948903,0.34780884
477,1747533385860,-1.0557917,0.153756065,0.52813988,-0.42770368,4.877846,0.400539425
478,1747533385870,-1.04602935,0.156440695,0.5016596600000001,-0.31505196,4.81366375,0.43862264
479,1747533385880,-0.97842545,0.15033926,0.3943965,-0.201601305,4.72231725,0.4958806
480,1747533385890,-0.89434775,0.124713255,0.3065359,-0.1336906924999999,4.6253781,0.55340485
481,1747533385900,-0.8681116,0.10982577,0.29701766,-0.120907515,4.5795717,0.5725796
482,1747533385910,-0.8229610350000001,0.08981307,0.236125385,-0.0580569135,4.505536149999999,0.58429758
483,1747533385920,-0.7854982349999999,0.097256815,0.18072439,-0.038349521,4.45493605,0.54248595
484,1747533385930,-0.763411085,0.123614995,0.17389079,-0.0021305299999999,4.3148537000000005,0.388555225
485,1747533385940,-0.76804817,0.191829,0.11690342,0.027696875,4.179831500000001,0.216781325
486,1747533385950,-0.775003785,0.19243914,0.0939620375,0.01438107,4.1113882,0.122771735
487,1747533385960,-0.8175918,0.183287,0.027334413,-0.006391587,4.044809,0.0500674315
488,1747533385970,-0.8688438,0.18182265,0.000610144,-0.031158987,4.032026,0.0644485015
489,1747533385980,-0.92314655,0.180114245,-0.0356323574999999,-0.0183758135,4.1673145,0.16245283
490,1747533385990,-0.89508,0.176087305,-0.064065025,0.0231695015,4.3121905,0.234358185
491,1747533386000,-0.8282083,0.164128495,-0.08419975,0.0391484685,4.350274000000001,0.28202876
492,1747533386010,-0.76865832,0.156074605,-0.08798264,0.0218379213,4.3550675000000005,0.380832025
493,1747533386020,-0.68287217,0.138014375,-0.145092035,-0.1355549072,4.3055325,0.694552405
494,1747533386030,-0.5615757,0.100551585,-0.196222025,-0.34567832,4.215783999999999,1.04076333
495,1747533386040,-0.5022698,0.08127106,-0.19280522,-0.4165184,4.175304,1.1430287
496,1747533386050,-0.45931573,0.07980672,-0.1931713,-0.5028048,4.0266995,1.2660668
497,1747533386060,-0.305437655,0.143261605,-0.214648345,-0.52650697,3.92523325,1.3683322
498,1747533386070,-0.216356755,0.20439795,-0.233684805,-0.47803744,3.9025964,1.32838475
499,1747533386080,-0.146312318,0.243935205,-0.24979258,-0.42344263,3.8764973,1.1808456
500,1747533386090,-0.0453946475,0.268218905,-0.263947905,-0.417583675,3.86398045,1.1358382
501,1747533386100,0.0652853155,0.273222085,-0.27322209,-0.403202595,3.7963362,1.04662235
502,1747533386110,0.26150735,0.24405724,-0.28481482,-0.3741741349999999,3.65652025,0.94941698
503,1747533386120,0.52301466,0.20769271,-0.34168017,-0.30120353,3.34945775,0.7518104
504,1747533386130,0.58305275,0.202567515,-0.374261795,-0.2335592349999999,3.0237532,0.526240645
505,1747533386140,0.70093242,0.18206671,-0.423073245,-0.194943395,2.810434,0.34860779
506,1747533386150,0.8001416699999999,0.159735465,-0.454190535,-0.14168017,2.454902,0.12250541
507,1747533386160,0.94218297,0.15033926,-0.479694515,-0.145674915,2.2485069500000003,0.0335558299999999
508,1747533386170,1.0919121,0.15778301,-0.504954465,-0.19707393,1.9238676,-0.096406435
509,1747533386180,1.1962465999999998,0.177917735,-0.51874367,-0.37230992,1.5739282,-0.23702134
510,1747533386190,1.2515256,0.18816814,-0.51788944,-0.37230992,1.5739282,-0.23702134
511,1747533386200,1.3146143499999998,0.24027436,-0.483233345,-0.5874933600000001,1.11506555,-0.36378781
512,1747533386210,1.3213259,0.26797485,-0.46883395,-0.65726817,0.9353022,-0.39041942
513,1747533386220,1.33340675,0.393786375,-0.45626502,-0.6945524000000001,0.240749745,-0.252201365
514,1747533386230,1.3264512,0.44882128,-0.45297024,-0.6317018,-0.10918961,-0.12783173
515,1747533386240,1.2783719,0.4424758,-0.49128726,-0.43196473,-0.43303,0.019707393
516,1747533386250,1.1824573,0.3696247,-0.5315567,0.01464738,-0.77098515,0.23568976
517,1747533386260,1.1047251,0.30763416,-0.5692635500000001,0.333161455,-0.9952233,0.34168357
518,1747533386270,0.8776299,0.14643435,-0.61770886,0.9550096,-1.5361114,0.3435478
519,1747533386280,0.8776299,0.14643435,-0.61770886,0.9550096,-1.5361114,0.3435478
520,1747533386290,0.821374665,0.11519502,-0.61587843,1.00401175,-1.6511599,0.29161615
521,1747533386300,0.61331585,0.0345341005,-0.66908295,0.9464875,-2.10070145,-0.046339002
522,1747533386310,0.5043443000000001,0.0207448655,-0.701542565,0.73636408,-2.26848065,-0.28735509
523,1747533386320,0.322765715,0.046370875,-0.687021165,0.3715109849999999,-2.3632893,-0.5832322999999999
524,1747533386330,0.1342315,0.12837411,-0.62503064,0.02822951,-2.42214505,-0.828775775
525,1747533386340,0.1269097775,0.14594623,-0.607946635,-0.135554895,-2.46928295,-0.93423695
526,1747533386350,0.1226387675,0.169741815,-0.581222365,-0.243412915,-2.54651475,-0.99522335
527,1747533386360,0.116049225,0.1790159949999999,-0.564870515,-0.296942455,-2.6631612,-1.00827285
528,1747533386370,0.068946178,0.19195103,-0.546810265,-0.21704763,-2.83786455,-0.99655492
529,1747533386380,-0.008786061,0.21501444,-0.51447266,-0.042344265,-2.9478531,-1.03676867
530,1747533386390,-0.008786061,0.21501444,-0.51447266,0.03888215,-2.9518478,-1.0849719
531,1747533386400,-0.140210885,0.21159764,-0.489944935,0.2660498,-2.8951224,-1.3944312
532,1747533386410,-0.25394157,0.216356755,-0.47432527,0.42317632,-2.80670545,-1.8128138
533,1747533386420,-0.3197149999999999,0.20769272,-0.4657832349999999,0.50653327,-2.76835595,-2.2389195
534,1747533386430,-0.34302245,0.185971625,-0.45870559,0.485227975,-2.8352013,-2.43705865
535,1747533386440,-0.3819495699999999,0.16595893,-0.45919371,0.42344263,-2.9939257,-2.4959146
536,1747533386450,-0.40611124,0.1564407,-0.46151224,0.38296258,-3.1015174,-2.485262
537,1747533386460,-0.50995762,0.14802073,-0.433811755,0.31158986,-3.5057854,-2.0490362
538,1747533386470,-0.573046425,0.15180361,-0.4007419949999999,0.4154531099999999,-3.471697,-1.6884442000000002
539,1747533386480,-0.5906185500000001,0.138868575,-0.394884625,0.597347,-3.1646345,-1.5869777
540,1747533386490,-0.657246175,0.079684692,-0.38194958,0.7986819999999999,-2.93054265,-1.61920195
541,1747533386500,-0.77964085,0.0120808344999999,-0.36279109,0.90707267,-2.83040775,-1.6245283
542,1747533386510,-0.87457915,-0.0201347225,-0.4031825799999999,0.83010732,-2.85490885,-1.44955865
543,1747533386520,-0.8815348000000001,-0.040513503,-0.47286092,0.618386015,-2.95424475,-1.135838265
544,1747533386530,-0.80612107,-0.067725888,-0.473715115,0.334759355,-3.073288,-0.752076685
545,1747533386540,-0.75486904,-0.08542004,-0.44394013,0.18642128,-3.129747,-0.55287224
546,1747533386550,-0.906550645,0.0104944612999999,-0.27932354,0.1736381075,-3.1896681,-0.291882465
547,1747533386560,-0.886049875,0.023917609,-0.246741885,0.363255185,-3.06343425,-0.5491438
548,1747533386570,-0.91277415,-0.000610144,-0.21855326,0.57817231,-3.0088395,-0.9893643
549,1747533386580,-1.185142,-0.0370967014999999,-0.255771985,0.703340875,-2.882872,-1.3539511000000002
550,1747533386590,-1.4315177499999998,-0.042343933,-0.346805345,0.580569125,-2.70630435,-1.2980247500000002
551,1747533386600,-1.4357888,-0.01696197938,-0.385976535,0.231961336,-2.6863306,-0.80747046
552,1747533386610,-1.2644606,0.046614934,-0.32581642,-0.2024002439999999,-2.7619643,-0.0085221199999999
553,1747533386620,-1.1506079,0.0522282495,-0.3038512599999999,-0.5203816800000001,-2.8013792,0.79282304
554,1747533386630,-0.92033988,0.0497876755,-0.1885342099999999,-0.21731395,-2.9619677,1.2069446
555,1747533386640,-0.8371163,0.04368625,-0.022209208,0.014913705,-2.98060985,0.9922938
556,1747533386650,-0.90118135,0.04795725,-0.01098257538,0.49188588,-2.89831825,0.51239218
557,1747533386660,-1.0121054,0.05759751,-0.02184312288,0.9116001,-2.67754225,-0.0213052949999999
558,1747533386670,-1.08581075,0.063332855,-0.0721189165,1.1454255999999998,-2.4671525,-0.532632225
559,1747533386680,-1.11705005,0.05222825,-0.13532975,0.957939035,-2.37500715,-1.07565075
560,1747533386690,-1.1149755,0.0508859365,-0.18401917,0.5041364150000001,-2.36328925,-1.3432985
561,1747533386700,-1.108508,0.061014313,-0.19768637,0.29667616,-2.3531692,-1.310808
562,1747533386710,-0.973056215,0.0546688225,-0.1029921615,-0.21438448,-2.40962825,-1.0223876
563,1747533386720,-1.002465115,0.0402694455,0.0452726185,-0.282295095,-2.42667245,-0.8716526499999999
564,1747533386730,-1.13779485,0.0491775365,0.12056428,0.01757686,-2.4261398,-0.69854715
565,1747533386740,-1.215161,0.0549128814999999,0.093473925,0.28815404,-2.3952472,-0.5885586
566,1747533386750,-1.23004855,0.0507639065,0.0644311115,0.66685555,-2.2913839,-0.443682645
567,1747533386760,-1.198077,0.054424766,0.050763905,0.805872575,-2.341984,-0.340352
568,1747533386770,-1.1600041,0.069922403,0.0143993764999999,0.818922045,-2.3795345,0.041811635
569,1747533386780,-1.05054445,0.07553572,-0.0218431235,0.637294455,-2.3651534,0.51452275
570,1747533386790,-0.89764255,0.040025389,-0.0007321715,0.41332261,-2.4325314,0.7760451749999999
571,1747533386800,-0.7374189499999999,-0.0093962035,0.054668821,0.311323535,-2.5944516,0.915861125
572,1747533386810,-0.630887965,-0.0547908505,0.157783005,0.331297245,-2.7020433,0.8689895000000001
573,1747533386820,-0.60306543,-0.076389916,0.22648512,0.38136467,-2.7265444,0.7909589
574,1747533386830,-0.816249465,-0.066017484,0.31349153,1.01173492,-2.6325348,-0.2466087216999999
575,1747533386840,-1.0294335,-0.055645052,0.40049794,1.2181299,-2.5039041,-0.748614575
576,1747533386850,-1.2261435500000002,-0.0307512125,0.37474991,1.26473525,-2.47061455,-1.1374361
577,1747533386860,-1.3193734,0.0112266324999999,0.355469385,1.1512846,-2.46954925,-1.30122055
578,1747533386870,-1.3307221,0.032825699,0.3366769699999999,0.83703155,-2.3534355,-1.145425615
579,1747533386880,-1.2468885,0.0051252025,0.34387666,0.53476275,-2.22001115,-0.815459935
580,1747533386890,-1.19344,-0.016839951,0.35705575,0.4612595,-2.1907163,-0.67484504
581,1747533386900,-1.0801973500000002,-0.1159271899999999,0.445892575,0.5065332499999999,-2.1931132,-0.317182495
582,1747533386910,-1.1002101,-0.1475326,0.46932207,0.72810825,-2.3078954,-0.081492728
583,1747533386920,-1.1902672,-0.13691612,0.44149956,0.95287905,-2.4122913,0.120641202
584,1747533386930,-1.2051547,-0.130082515,0.44052334,1.00587595,-2.4277377,0.260989795
585,1747533386940,-1.2223607,-0.11177822,0.437228575,0.963798,-2.408563,0.41971419
586,1747533386950,-1.22736385,-0.089080895,0.420876725,0.8508799499999999,-2.37074615,0.61918495
587,1747533386960,-1.21406275,-0.0756577475,0.409528045,0.700145025,-2.3204124000000004,0.850081015
588,1747533386970,-1.125592,-0.0666276309999999,0.42600192,0.42663842,-2.1715417,1.3608754
589,1747533386980,-1.01112915,-0.0696783455,0.45785141,0.40586576,-2.19551015,1.39656175
590,1747533386990,-0.93559345,-0.080660922,0.490311025,0.377103615,-2.2365228,1.4333133500000002
591,1747533387000,-0.87567738,-0.0816371499999999,0.53948855,0.3520699,-2.28126385,1.39576275
592,1747533387010,-0.8451702,-0.076389917,0.5847611500000001,0.304931955,-2.35876185,1.2588763
593,1747533387020,-0.852369905,-0.067237772,0.60648223,0.255397155,-2.4269388000000003,1.12092455
594,1747533387030,-0.86371857,-0.06321083,0.61770886,0.23595607,-2.4453146,1.0812434
595,1747533387040,-0.8947139,-0.054668825,0.64187056,0.18748654,-2.4639566,1.0253171
596,1747533387050,-0.9125301,-0.034778158,0.66102905,0.1014664399999999,-2.4106934,0.918524275
597,1747533387060,-0.917777285,-0.0030507149999999,0.7127692000000001,0.050333745,-2.33106495,0.62610918
598,1747533387070,-0.978303485,0.047347105,0.7879388,0.06178534,-2.2463764,0.202666562
599,1747533387080,-1.09435275,0.095304355,0.83064883,0.15339808,-2.1797974,-0.2340918679999999
600,1747533387090,-1.2378584,0.125689483,0.83943488,0.2551308399999999,-2.0959078,-0.66871975
601,1747533387100,-1.3892959,0.140210885,0.82759808,0.32597093,-1.9483686,-0.9784454
602,1747533387110,-1.6556844,0.1181237,0.72216535,0.37577204,-1.57019975,-1.23144575
603,1747533387120,-1.70120105,0.09188755,0.6986138550000001,0.410126825,-1.1374361,-1.38297965
604,1747533387130,-1.7962613,0.047103049,0.6540734500000001,0.44075317,-0.86552735,-1.41467125
605,1747533387140,-1.8874167,0.0117147479,0.6028214199999999,0.47137952,-0.61865232,-1.41866595
606,1747533387150,-1.95794925,-0.0201347226,0.54632215,0.48895639,-0.36218991,-1.407747
607,1747533387160,-2.0067607,-0.0440523315,0.490188975,0.453003715,-0.07030745,-1.35501645
608,1747533387170,-2.02274645,-0.064187055,0.4090399249999999,0.213585528,0.35872779,-1.097755075
609,1747533387180,-2.00212365,-0.0729731175,0.35473719,-0.110787507,0.74941355,-0.720651425
610,1747533387190,-1.9854058,-0.070532545,0.35168648,-0.23489082,0.871919,-0.5566007
611,1747533387200,-1.86349905,-0.043930306,0.40720952,-0.533431175,1.19096565,0.0926780099999999
612,1747533387210,-1.7767368,-0.0008542,0.47456932,-0.5856291250000001,1.38084905,0.51691959
613,1747533387220,-1.7217019,0.035266271,0.50324605,-0.503870075,1.5435682,0.71958615
614,1747533387230,-1.6706939,0.0555230225,0.52887205,-0.32277513,1.75236,0.87831056
615,1747533387240,-1.6229807,0.0663835725,0.5853713,-0.165648623,1.8967033,0.8506136799999999
616,1747533387250,-1.5971106000000002,0.065163285,0.6424807,0.049801115,2.10842465,0.7797736
617,1747533387260,-1.6022359,0.04637088,0.67481834,0.19387813,2.304167,0.6327671
618,1747533387270,-1.6119982,0.0429540765,0.68628902,0.218379215,2.37021335,0.57790595
619,1747533387280,-1.5974768,0.0283106404999999,0.6850687,0.205329725,2.58965785,0.3976099349999999
620,1747533387290,-1.5502517,0.0047591165,0.66407975,0.108124341,2.84425615,0.222906585
621,1747533387300,-1.4976573,-0.0239176105,0.658466425,-0.0149137039999999,3.0314764,0.1272990974999999
622,1747533387310,-1.45189655,-0.056743311,0.669204975,-0.1454086,3.18141235,0.0455400535
623,1747533387320,-1.4232198,-0.0807829499999999,0.69117015,-0.24927188,3.2858082,0.00452737375
624,1747533387330,-1.4040613,-0.085053952,0.7023967799999999,-0.317715125,3.35744725,0.01251685775
625,1747533387340,-1.39173645,-0.066749658,0.71923673,-0.34940675,3.3886063,0.02609898
626,1747533387350,-1.3767269,-0.030629184,0.73339205,-0.437024745,3.5116444,0.20506341
627,1747533387360,-1.35427365,0.009396204,0.73107352,-0.457531095,3.59153915,0.31585092
628,1747533387370,-1.3247428,0.03721873,0.7308294449999999,-0.462591095,3.6951361,0.43303
629,1747533387380,-1.2783719,0.051862165,0.722409455,-0.442617385,3.78248775,0.58775965
630,1747533387390,-1.23981085,0.0621125699999999,0.71716223,-0.393881545,3.8104509,0.7217166500000001
631,1747533387400,-1.22138455,0.07724412,0.7115488999999999,-0.343547795,3.79021085,0.7768440999999999
632,1747533387410,-1.19807705,0.09640261,0.6950750299999999,-0.303600375,3.78168885,0.796817825
633,1747533387420,-1.1774542,0.1138527025,0.67982146,-0.25726137,3.7923415,0.781904105
634,1747533387430,-1.1603702,0.1371601725,0.6274711799999999,-0.182426535,3.8261635,0.7041398
635,1747533387440,-1.1416998,0.1475326049999999,0.5563285,-0.112651715,3.8914109,0.6125270700000001
636,1747533387450,-1.11204685,0.134231485,0.49909707,-0.08309063,3.95319625,0.5491438200000001
637,1747533387460,-1.0638456,0.1153170474999999,0.43930302,-0.096939065,3.9846218,0.4612595
638,1747533387470,-1.00539387,0.1040904149999999,0.400497925,-0.1166464575,3.92336905,0.3962783749999999
639,1747533387480,-0.98855387,0.1144628524999999,0.39110175,-0.1235706749999999,3.83814785,0.31079091
640,1747533387490,-1.0028312,0.12642166,0.39488465,-0.1107875,3.8141794,0.29028457
641,1747533387500,-1.0749501499999998,0.17389078,0.34997809,-0.058056913,3.798733,0.305464585
642,1747533387510,-1.087031,0.183897135,0.3017767799999999,-0.030360037,3.8195057,0.36432046
643,1747533387520,-1.0797093,0.178771935,0.275662665,-0.0103863285,3.84160995,0.386691005
644,1747533387530,-1.06091685,0.176087305,0.243935225,0.06657903,3.8666436,0.4103931349999999
645,1747533387540,-1.04688355,0.1857275649999999,0.220139635,0.12357068,3.869573,0.41172472
646,1747533387550,-1.048714,0.19304928,0.22135992,0.2034655,3.8605185,0.40586576
647,1747533387560,-1.03834155,0.207692705,0.161809955,0.280697185,3.9569248,0.38535942
648,1747533387570,-0.98281852,0.20598431,0.113974735,0.21997711,3.995807,0.29933932
649,1747533387580,-0.946331945,0.1978084,0.087250465,0.2000034,3.99740485,0.29268141
650,1747533387590,-0.9618296,0.20024897,0.0743154299999999,0.16298546,3.98515425,0.29800773
651,1747533387600,-0.98013395,0.2223361449999999,0.0435642169999999,0.1272991,3.98542055,0.34115094
652,1747533387610,-0.8195442,0.21013328,0.0024405725,0.06338324,3.995807,0.43782368
653,1747533387620,-0.7905013999999999,0.211597635,-0.02123297875,0.083623262,4.0847565,0.45087318
654,1747533387630,-0.72546015,0.20976721,-0.0684580549999999,0.103330652,4.164385,0.4500742399999999
655,1747533387640,-0.65334123,0.199516795,-0.0928637824999999,0.10892329,4.1486725,0.4103931349999999
656,1747533387650,-0.60330951,0.189998565,-0.1015278175,0.12197278,4.12789985,0.3696467599999999
657,1747533387660,-0.58036813,0.187802055,-0.1241031099999999,0.131293845,4.11698085,0.3640541149999999
658,1747533387670,-0.518987715,0.17645339,-0.17084007,0.115581195,4.13748725,0.4455468649999999
659,1747533387680,-0.4195344,0.14545812,-0.21513646,0.040480047,4.062386,0.5944176
660,1747533387690,-0.3684044199999999,0.117147482,-0.222824265,0.0308926684999999,4.01338385,0.6340987
661,1747533387700,-0.358764155,0.118123707,-0.22660715,0.0351537265,3.92869535,0.730505115
662,1747533387710,-0.264680085,0.1182457349999999,-0.26053111,0.1049285515,3.9409459,0.880973695
663,1747533387720,-0.093595953,0.08066092,-0.30555967,0.16085494,3.9888828,0.97471696
664,1747533387730,-0.010982576,0.05296042,-0.32508424,0.2034655,3.9622512,0.9752496
665,1747533387740,0.057597512,0.0278225249,-0.36718412,0.22397185,3.75905195,0.87511475
666,1747533387750,0.129350345,0.0082979464,-0.4507737349999999,0.231428705,3.4756916,0.7052051
667,1747533387760,0.141187115,0.0133011195,-0.50019531,0.16644757,3.3180325,0.4820321899999999
668,1747533387770,0.18206671,0.026358182,-0.51691324,0.03888215,3.2197618,0.17417073
669,1747533387780,0.2401523299999999,0.0385610435,-0.5216723700000001,-0.0247674,3.1774175,0.0705737665
670,1747533387790,0.366451965,0.0555230225,-0.520086,-0.1414138549999999,3.0679616,-0.1147822485
671,1747533387800,0.49360579,0.066261545,-0.52289265,-0.24767398,2.9041772,-0.26125611
672,1747533387810,0.61453615,0.0755357225,-0.54803055,-0.347808835,2.6834011,-0.37603836
673,1747533387820,0.799409525,0.0798067225,-0.556938625,-0.41571945,2.3475765,-0.4551342499999999
674,1747533387830,0.985259125,0.08432178,-0.561453675,-0.445014225,2.01334985,-0.4474110799999999
675,1747533387840,1.091546,0.088958865,-0.58768985,-0.46392266,1.75635485,-0.3430151649999999
676,1747533387850,1.16903415,0.09396204,-0.6327183999999999,-0.48869005,1.46101025,-0.18482339
677,1747533387860,1.2815446,0.0959145,-0.6898278,-0.5129248,0.8948221599999999,0.05379585
678,1747533387870,1.3713577,0.091521465,-0.72448395,-0.516653225,0.327835135,0.21997711
679,1747533387880,1.37575075,0.087982635,-0.71801642,-0.500674275,-0.0029294799999999,0.221575005
680,1747533387890,1.3362135,0.101405785,-0.68043162,-0.4910869,-0.17204021,0.2050634
681,1747533387900,1.25628475,0.141919285,-0.6509007,-0.45912898,-0.5486112,0.12942964
682,1747533387910,1.14401835,0.18731393,-0.60575008,-0.39148468,-1.0181265000000002,-0.016245284
683,1747533387920,0.97915767,0.222702235,-0.558280945,-0.231961332,-1.3299827,-0.1454086
684,1747533387930,0.788549,0.208913,-0.5288721,0.06924219,-1.814678,-0.3206446
685,1747533387940,0.7337581500000001,0.19719826,-0.5368039499999999,0.1355549,-1.92226975,-0.350738325
686,1747533387950,0.47273886,0.14643435,-0.58280873,0.36804888,-2.3025692,-0.44368264
687,1747533387960,0.44845517,0.128252085,-0.589154215,0.37364151,-2.3707461,-0.4676511
688,1747533387970,0.38255974,0.096890725,-0.5969640350000001,0.35686359,-2.5190841500000003,-0.51638693
689,1747533387980,0.19500175,0.07541369,-0.6374775,0.14647387,-2.781938,-0.67005134
690,1747533387990,0.19500175,0.07541369,-0.6374775,0.14647387,-2.781938,-0.67005134
691,1747533388000,0.06882414,0.09030118,-0.56865335,0.03888215,-2.8724856,-0.7637946
692,1747533388010,-0.008786061,0.12471326,-0.54668826,-0.07190535,-3.02109,-1.041296
693,1747533388020,-0.07834238,0.15595257,-0.5186216,-0.055926383,-3.0482543,-1.1909657
694,1747533388030,-0.145458125,0.168277465,-0.4959243,-0.0263652948,-3.08820165,-1.37099535
695,1747533388040,-0.2510128849999999,0.18353105,-0.4738371249999999,0.0711064067,-3.1563785,-1.6293220000000002
696,1747533388050,-0.331185685,0.181090475,-0.4866501399999999,0.14913702,-3.2037828,-1.8050907
697,1747533388060,-0.410138205,0.166202985,-0.512520215,0.1339570025,-3.2053807,-1.8120149
698,1747533388070,-0.50446635,0.13618395,-0.5657247,0.029827405,-3.2218924,-1.7491642
699,1747533388080,-0.523868875,0.120442255,-0.57048382,-0.0266316105,-3.2346755500000004,-1.68231885
700,1747533388090,-0.5904965,0.07883049,-0.5465661900000001,-0.083090626,-3.2474587,-1.6154735
701,1747533388100,-0.6682287499999999,0.076023833,-0.506784855,-0.325171975,-3.3230925,-1.07751505
702,1747533388110,-0.6987359,0.099087246,-0.49568027,-0.3323625,-3.2943304,-0.9827065
703,1747533388120,-0.75145227,0.18597162,-0.44223174,-0.26897928,-3.246926,-0.7073356
704,1747533388130,-0.777078285,0.198662595,-0.4214868699999999,-0.165648625,-3.2224250000000003,-0.6380934149999999
705,1747533388140,-0.8027043,0.21135357,-0.400742,-0.03062635275,-3.21709875,-0.5275722300000001
706,1747533388150,-0.8092938,0.19256116,-0.4356422,0.0010652645,-3.2362735,-0.48629323
707,1747533388160,-0.886171865,0.124713253,-0.39110173,0.10066749,-3.2746229,-0.36405413
708,1747533388170,-1.09093595,0.138624518,-0.32203354,0.283892985,-3.17155865,-0.3155846
709,1747533388180,-1.2928932999999998,0.20598432,-0.27846932,0.4261058,-2.9917953500000003,-0.3102582699999999
710,1747533388190,-1.3291357499999998,0.27248992,-0.301654765,0.4791027,-2.8716867,-0.35180358
711,1747533388200,-1.3135161,0.2997023,-0.31507793,0.5320996,-2.8245487,-0.3834952
712,1747533388210,-1.1299850500000002,0.264558065,-0.389637395,0.45167212,-2.6274748,-0.4812332099999999
713,1747533388220,-1.0609169,0.23990828,-0.40220633,0.4101268,-2.569418,-0.49321744
714,1747533388230,-0.76963453,0.1183677675,-0.451383875,0.1544633465,-2.5960495000000003,-0.275903488
715,1747533388240,-0.6487042,0.054668825,-0.45394647,0.027164243,-2.660498,-0.113983296
716,1747533388250,-0.651510805,0.021477037,-0.426001915,-0.00958737975,-2.819755,0.25060346
717,1747533388260,-0.673842045,0.029164841,-0.38341392,0.03115898525,-2.84319085,0.365652025
718,1747533388270,-0.78037307,0.067237772,-0.26394792,0.185888643,-2.78673185,0.290284565
719,1747533388280,-0.908625125,0.127519915,-0.14802073,0.373641505,-2.6469159,0.05832323
720,1747533388290,-0.94352525,0.15668476,-0.12642166,0.43675843,-2.5710158,-0.06764429
721,1747533388300,-0.99367903,0.240396375,-0.1558305549999999,0.434627885,-2.4479776,-0.470047935
722,1747533388310,-0.90081537,0.25748038,-0.19500175,0.321443545,-2.39870915,-0.6940198
723,1747533388320,-0.829306535,0.206106335,-0.18267686,0.034354785,-2.4144218,-0.8378305
724,1747533388330,-0.7321717000000001,0.1259335369999999,-0.13606192,-0.22929817,-2.55263995,-0.8333031
725,1747533388340,-0.7065457,0.097134784,-0.10177187,-0.265517165,-2.7542413,-0.7278419
726,1747533388350,-0.70459324,0.04759116,0.00976229,-0.24980451,-2.866094,-0.6716492
727,1747533388360,-1.02125755,0.0303851285,0.168521535,0.0854874774999999,-3.0131005,-0.659665025
728,1747533388370,-1.29826255,0.05430274,0.18292091,0.453802665,-2.80830335,-0.858869425
729,1747533388380,-1.36867305,0.078586435,0.141919285,0.68656293,-2.541721,-1.13184345
730,1747533388390,-1.3757507,0.09127741,0.13105874,0.69721556,-2.4762073,-1.2410331
731,1747533388400,-1.25482035,0.1144628474999999,0.068580089,0.4705805799999999,-2.3108250000000004,-1.4660702
732,1747533388410,-1.2097918,0.113974735,0.028554698,0.340352,-2.2253375,-1.504686
733,1747533388420,-0.882144925,-0.0311173,-0.02721238285,-0.230896075,-2.3478428,-1.08470552
734,1747533388430,-0.74461865,-0.10055158,0.10860548,-0.25726137,-2.582201,-0.5475459
735,1747533388440,-0.76121455,-0.111046045,0.17596528,-0.137419117,-2.64824735,-0.35952674
736,1747533388450,-0.8188120750000001,-0.11092402,0.28261829,0.161653883,-2.7595675,-0.0308926699999999
737,1747533388460,-0.96549045,-0.05942794,0.373163515,0.696949265,-2.7877971500000003,0.17923075
738,1747533388470,-1.1110706,0.0047591164999999,0.427954375,1.1587414,-2.7049728,0.19627498
739,1747533388480,-1.15805165,0.044418419,0.419046295,1.2599415,-2.5917884,0.059921125
740,1747533388490,-1.16207855,0.0657734275,0.3913458,1.1779161500000002,-2.52600835,-0.1288969999999999
741,1747533388500,-1.1590278,0.0707766,0.37609223,1.1004182,-2.5076325,-0.23382555
742,1747533388510,-1.1371847,0.081637145,0.36608587,0.722249295,-2.4383903,-0.4998753649999999
743,1747533388520,-1.1113147,0.059305909,0.39317621,0.426904735,-2.3052323,-0.6434197500000001
744,1747533388530,-1.0560358,0.027090356,0.40513504,0.221308695,-2.2264028,-0.7070693
745,1747533388540,-1.020403375,0.02025675275,0.405867205,0.172306525,-2.21575015,-0.68017137
746,1747533388550,-0.956338275,0.0047591168,0.403304605,0.169377045,-2.17686795,-0.60746707
747,1747533388560,-0.870796225,-0.03624249795,0.45101782,0.22237395,-2.2719428,-0.372043625
748,1747533388570,-0.81576136,-0.080172805,0.57646323,0.3653857,-2.46875045,-0.1059938149999999
749,1747533388580,-0.87445715,-0.0866403249999999,0.6978816999999999,0.606934415,-2.59471795,0.0255663475
750,1747533388590,-0.93107843,-0.08151512,0.74486274,0.75101143,-2.644519,0.077231675
751,1747533388600,-1.0845904,-0.047591165,0.7357105500000001,1.1661983,-2.5853968,0.062051655
752,1747533388610,-1.17623395,-0.034412072,0.7098405000000001,1.34729325,-2.48233245,-0.039947415
753,1747533388620,-1.2183338,-0.0292868705,0.6842145,1.31933005,-2.35609865,-0.29454562
754,1747533388630,-1.2099138,-0.0484453664999999,0.65688008,1.082308675,-2.2117553,-0.598146005
755,1747533388640,-1.18026085,-0.081149035,0.60050285,0.797883075,-2.05542775,-0.792290445
756,1747533388650,-1.15341455,-0.1062869275,0.5459560450000001,0.52970275,-1.91001915,-0.904675825
757,1747533388660,-1.1224194,-0.13667206,0.5379022,0.21145499,-1.768339,-0.92305166
758,1747533388670,-1.0604288,-0.15631867,0.5416851,0.151533865,-1.6868463,-0.81519363
759,1747533388680,-0.979157665,-0.190486685,0.55608447,0.109722235,-1.62878935,-0.62531025
760,1747533388690,-0.95987713,-0.20500809,0.56670094,0.12783173,-1.6522251,-0.5432849
761,1747533388700,-0.96378203,-0.21428226,0.62222395,0.31345406,-1.75102845,-0.3291667
762,1747533388710,-1.01991523,-0.17340267,0.6574902300000001,0.463922675,-1.78937795,-0.2034655
763,1747533388720,-1.0777568,-0.13398743,0.68299423,0.62717445,-1.75422425,-0.058855862
764,1747533388730,-1.11680595,-0.125689485,0.7083761799999999,0.7302387850000001,-1.6927052,0.055393751
765,1747533388740,-1.14780125,-0.117635595,0.7192367,0.732102985,-1.6652746,0.108124343
766,1747533388750,-1.1709866999999998,-0.1181237099999999,0.7026408,0.6370281200000001,-1.61893565,0.178431795
767,1747533388760,-1.1835556,-0.131424825,0.68946173,0.50067429,-1.5587482499999998,0.251136095
768,1747533388770,-1.1825793999999998,-0.1485088299999999,0.6899498500000001,0.41252367,-1.4942997,0.29960563
769,1747533388780,-1.17550175,-0.169497755,0.6799435,0.35633096,-1.42559015,0.323574075
770,1747533388790,-1.1880707,-0.18938842,0.66017485,0.3214435399999999,-1.28950265,0.30173615
771,1747533388800,-1.2140628,-0.19548985,0.64309085,0.2929477299999999,-1.1219898,0.259658205
772,1747533388810,-1.2304146,-0.190486675,0.635159,0.2623213749999999,-0.9933591,0.21678131
773,1747533388820,-1.2482308,-0.1820667,0.6432128850000001,0.2298308,-0.8602010200000001,0.161121245
774,1747533388830,-1.2604337,-0.1458242,0.6618832649999999,0.205329725,-0.7451524700000001,0.09933591
775,1747533388840,-1.2625082,-0.11592719,0.67555046,0.1965413,-0.6961503,0.06764429
776,1747533388850,-1.2520137,-0.11251039,0.70361704,0.18855181,-0.51505536,-0.1555286
777,1747533388860,-1.29216105,-0.12727585,0.7226534499999999,0.26125611,-0.4285026349999999,-0.449807915
778,1747533388870,-1.3683069,-0.129716415,0.7091083,0.326503565,-0.33635725,-0.6559365850000001
779,1747533388880,-1.53426585,-0.1270317899999999,0.66481195,0.3651194,-0.0215715999999999,-0.75607145
780,1747533388890,-1.6517794,-0.12398108,0.6343048,0.37124467,0.24021713,-0.7536746
781,1747533388900,-1.709255,-0.144603915,0.5133744149999999,0.18216023,0.7150588,-0.453536335
782,1747533388910,-1.6713041,-0.165714865,0.501293565,0.011185277,0.954477,-0.2109223599999999
783,1747533388920,-1.6127303,-0.174500935,0.52106222,-0.155528613,1.1446267,0.04554005
784,1747533388930,-1.5202326,-0.158271135,0.56108764,-0.324373035,1.3699301,0.37204359
785,1747533388940,-1.4550693,-0.14374973,0.59183884,-0.41385525,1.510545,0.56672066
786,1747533388950,-1.3780693,-0.1352077099999999,0.6488262149999999,-0.375772045,1.61281035,0.6335660350000001
787,1747533388960,-1.35232125,-0.118855875,0.6587105099999999,-0.330498305,1.6767262,0.6048039000000001
788,1747533388970,-1.3617173500000002,-0.097744925,0.64516533,-0.292415095,1.7595505500000002,0.55473645
789,1747533388980,-1.3879535,-0.079562665,0.637843615,-0.28176245,1.918275,0.504136385
790,1747533388990,-1.3977158,-0.07248501,0.64431113,-0.28708878,2.031992,0.48043427
791,1747533389000,-1.4123593,-0.0430761045,0.66017485,-0.2900182599999999,2.2367891,0.51478905
792,1747533389010,-1.3947872,-0.0263581835,0.66102905,-0.287887725,2.3616914,0.5414206500000001
793,1747533389020,-1.36440205,-0.036974673,0.67945538,-0.2761698099999999,2.4844631,0.5448827700000001
794,1747533389030,-1.34792815,-0.045028561,0.70532543,-0.266848745,2.5787389000000003,0.5257080199999999
795,1747533389040,-1.3454876,-0.0388051,0.7094744,-0.26738137,2.6093652,0.5139901
796,1747533389050,-1.36623255,-0.022453266,0.7366868200000001,-0.26391928,2.74705075,0.50679955
797,1747533389060,-1.38331655,-0.0172060355,0.7379070999999999,-0.27563718,2.85011505,0.54514909
798,1747533389070,-1.39259065,-0.0030507159999999,0.74766935,-0.2743056,2.9963226,0.64235449
799,1747533389080,-1.3956413,0.0197686375,0.76219075,-0.2407497699999999,3.13480695,0.74115774
800,1747533389090,-1.39381085,0.036852645,0.76109252,-0.1866875949999999,3.2346755,0.79575252
801,1747533389100,-1.38941785,0.04685899,0.76389917,-0.112119082,3.33267985,0.8314389
802,1747533389110,-1.3910043,0.057841563,0.7841559250000001,-0.0234358169999999,3.4141725,0.8311726
803,1747533389120,-1.4086984,0.07175283,0.78659654,0.16937704,3.5899413,0.7419567
804,1747533389130,-1.40796625,0.068946175,0.76609572,0.18002969,3.62589395,0.7123956
805,1747533389140,-1.39283475,0.0595499699999999,0.7252160999999999,0.1821602199999999,3.6993972,0.6394249750000001
806,1747533389150,-1.3589107500000002,0.048323335,0.682506075,0.149935965,3.7744984,0.53715959
807,1747533389160,-1.3393861,0.04368625,0.66017485,0.12623383,3.812049,0.47830373
808,1747533389170,-1.2913069,0.039537275,0.59549968,-0.0085221149999999,4.0045954,0.220509747
809,1747533389180,-1.28191065,0.040513502,0.54888475,-0.12969595,4.1369545,0.063383232
810,1747533389190,-1.2684875,0.0417337859999999,0.54888475,-0.204264465,4.16118925,0.01331580385
811,1747533389200,-1.2787379,0.05735345,0.5595012500000001,-0.238086605,4.17743445,-0.00079894835
812,1747533389210,-1.2886221999999998,0.0817591775,0.51532691,-0.258326625,4.2416167,0.0620516528
813,1747533389220,-1.2853275,0.0922536405,0.473104985,-0.2644519,4.3273705,0.175236
814,1747533389230,-1.2687316,0.090179153,0.4372285449999999,-0.264984535,4.39075365,0.30173615
815,1747533389240,-1.2532339,0.08956901,0.40611124,-0.27217507,4.4224453,0.37337518
816,1747533389250,-1.1798948,0.0538146209999999,0.36645195,-0.325438285,4.5042042,0.62264707
817,1747533389260,-1.0971594,0.0312393259999999,0.32081324,-0.387489945,4.5446843,0.8314389
818,1747533389270,-1.00063473,0.0272123835,0.27419833,-0.4655205599999999,4.5398908,0.97951068
819,1747533389280,-0.92570916,0.042587991,0.27956759,-0.509729025,4.491687499999999,0.994158075
820,1747533389290,-0.88690406,0.054668825,0.29067218,-0.52357745,4.46186,0.98590225
821,1747533389300,-0.81344282,0.1245912225,0.295309275,-0.5113269,4.394216,0.89855057
822,1747533389310,-0.81942218,0.18267684,0.278103235,-0.426904735,4.3047335,0.7616641
823,1747533389320,-0.8471227,0.2040318549999999,0.24234885,-0.296143515,4.2911515,0.7499461700000001
824,1747533389330,-0.8334555,0.18194468,0.2031776599999999,-0.20186761,4.297277,0.77125144
825,1747533389340,-0.80441266,0.16571487,0.18597162,-0.12516858,4.2797,0.8607337
826,1747533389350,-0.728144795,0.11861182,0.12166254,-0.106526447,4.22830085,0.9555422
827,1747533389360,-0.7083761399999999,0.1116561879999999,0.0655293714999999,-0.16165388,4.10552905,1.0106696
828,1747533389370,-0.69763765,0.1208083329999999,0.0186703789,-0.23062975,3.97689855,1.0407633
829,1747533389380,-0.71557588,0.140576975,-0.0021965152,-0.265783485,3.89753635,1.0578075500000002
830,1747533389390,-0.7481575,0.164860675,-0.0097622901,-0.27537087,3.865312,1.0684602
831,1747533389400,-0.7648754,0.17913802,-0.017328065,-0.21385184,3.8834216,1.1235877
832,1747533389410,-0.7685362499999999,0.18877828,-0.0434421925,-0.18482338,3.9201732,1.1435614
833,1747533389420,-0.62991175,0.1344755425,-0.120564285,-0.072704297,4.0059271,1.10973925
834,1747533389430,-0.456753165,0.063820971,-0.194879715,0.062584288,4.1361555,1.03810025
835,1747533389440,-0.386708725,0.0538146235,-0.2390540649999999,0.087351685,4.2386871500000005,0.950215925
836,1747533389450,-0.253331425,0.034778157,-0.286767255,0.0154463335,4.2320294,0.728907195
837,1747533389460,-0.142773495,0.043564217,-0.32496221,-0.1169127715,4.1204427500000005,0.47457531
838,1747533389470,-0.1092156199999999,0.096280585,-0.368648455,-0.253266625,4.0434775,0.31691617
839,1747533389480,-0.0763899175,0.1425294349999999,-0.4042808249999999,-0.39627838,4.0013997,0.168045465
840,1747533389490,-0.042832047,0.177063525,-0.4136770199999999,-0.5044027200000001,3.97263755,0.003728425
841,1747533389500,-0.0142773488,0.214648335,-0.4234393199999999,-0.54781225,4.00326395,-0.141147535
842,1747533389510,0.0713867456999999,0.241250585,-0.41880224,-0.52277853,4.1353566,-0.25779399
843,1747533389520,0.19231712,0.236491475,-0.3986675,-0.48709217,4.198207,-0.323307765
844,1747533389530,0.315932125,0.21684486,-0.36779426,-0.463123725,4.179032250000001,-0.32037829
845,1747533389540,0.57146008,0.18084641,-0.365475725,-0.44900897,4.1816955,-0.31372038
846,1747533389550,0.842241565,0.143017545,-0.383047845,-0.542485925,4.110056500000001,-0.228232915
847,1747533389560,1.023576065,0.131058745,-0.4007419949999999,-0.63356605,3.8599858,-0.19680761
848,1747533389570,1.2188219,0.13252309,-0.433201615,-0.7520767,3.42722205,-0.183491805
849,1747533389580,1.4128474,0.14033292,-0.45260416,-0.87032105,2.89245925,-0.20586236
850,1747533389590,1.54866525,0.196710135,-0.47054237,-1.01519705,2.0628846,-0.25140241
851,1747533389600,1.58441965,0.268707035,-0.47286092,-1.092695,1.2956279,-0.274305595
852,1747533389610,1.5359743,0.31532198,-0.43832681,-1.0367686,0.8689894300000001,-0.25912558
853,1747533389620,1.48643065,0.366207915,-0.4012301,-0.9105348,0.43729105,-0.23222765
854,1747533389630,1.4206572,0.4351540849999999,-0.397081125,-0.732103,-0.0093210599999999,-0.211721305
855,1747533389640,1.3151025,0.48006062,-0.4139210749999999,-0.36991309,-0.6460828799999999,-0.178964425
856,1747533389650,1.2030802,0.468467885,-0.41709381,0.03009372,-1.2378372999999998,-0.149935975
857,1747533389660,1.078489,0.44686882,-0.41001616,0.308660375,-1.54942715,-0.15100124
858,1747533389670,0.94474565,0.415507485,-0.4335677,0.668986065,-1.8993665,-0.196541295
859,1747533389680,0.7640212200000001,0.37084499,-0.47176267,0.95527585,-2.1984395,-0.285757205
860,1747533389690,0.5995266450000001,0.328501045,-0.498731,1.05301385,-2.37607225,-0.39228365
861,1747533389700,0.54839665,0.30800024,-0.51471674,1.0833739,-2.466087,-0.4511395
862,1747533389710,0.4291746749999999,0.24735202,-0.5577928400000001,1.05754125,-2.65969895,-0.6498113
863,1747533389720,0.368404435,0.21074343,-0.5778055200000001,0.96939065,-2.74385485,-0.806405175
864,1747533389730,0.338385375,0.14972912,-0.5970860499999999,0.74568515,-2.8634308,-1.056209675
865,1747533389740,0.33240595,0.10665302,-0.6062382,0.5832323,-2.9449236,-1.2170646
866,1747533389750,0.25687026,0.096158555,-0.6084347,0.30173616,-3.2661009,-1.41280695
867,1747533389760,0.149363037,0.126421655,-0.5806121799999999,0.179230745,-3.43148315,-1.49696285
868,1747533389770,-0.048689413,0.20964519,-0.54754243,0.14487597,-3.4594463,-1.53504615
869,1747533389780,-0.218919345,0.2834725,-0.5210622300000001,0.23302661,-3.3979273,-1.54995985
870,1747533389790,-0.25821257,0.298482,-0.50544256,0.397876275,-3.30152085,-1.56407455
871,1747533389800,-0.32630455,0.309098495,-0.481402935,0.5592638249999999,-3.19792385,-1.5686019
872,1747533389810,-0.3162982,0.2928687,-0.50580865,0.65886605,-3.17129225,-1.55981345
873,1747533389820,-0.30238693,0.238565965,-0.518987715,0.661529225,-3.34226725,-1.56673765
874,1747533389830,-0.32752483,0.189388425,-0.52033005,0.630103925,-3.51324225,-1.59123875
875,1747533389840,-0.3443648,0.17987019,-0.5276518,0.61412495,-3.5404065,-1.603223
876,1747533389850,-0.43539812,0.123248915,-0.574876835,0.51745222,-3.53294955,-1.60881565
877,1747533389860,-0.52325876,0.07809832,-0.567677135,0.45300371,-3.46184315,-1.5896409
878,1747533389870,-0.66273747,0.07956266,-0.504100225,0.4247742,-3.19046715,-1.46553755
879,1747533389880,-0.74278822,0.114828935,-0.444916365,0.423176305,-2.96196785,-1.31879735
880,1747533389890,-0.7392494,0.12642166,-0.43515408,0.42344263,-2.9364014,-1.2804478
881,1747533389900,-0.759262085,0.1326451149999999,-0.39878954,0.439954215,-2.94385825,-1.1084077
882,1747533389910,-0.7712208899999999,0.107751275,-0.39952171,0.441818425,-2.9854036500000003,-0.91479585
883,1747533389920,-0.77878666,0.061014312,-0.41318891,0.420779455,-3.0807448500000003,-0.468183735
884,1747533389930,-0.760238285,0.0124469205,-0.41965643,0.39947416,-3.1561123,-0.0005326249999999
885,1747533389940,-0.7553571699999999,-0.0215990665,-0.41318892,0.3936152149999999,-3.14785645,0.222906595
886,1747533389950,-0.78232552,-0.0286767265,-0.39171189,0.37417415,-3.15398165,0.334226725
887,1747533389960,-0.881290715,0.003904916,-0.30751214,0.325704605,-3.164368,0.2599245249999999
888,1747533389970,-1.016010265,0.0618685125,-0.231122215,0.268979265,-3.10364795,0.1185106725
889,1747533389980,-1.0875191000000002,0.11275445,-0.227339315,0.200536025,-2.98087625,0.0615190225
890,1747533389990,-1.05383925,0.127641945,-0.2567482199999999,0.0849548349999999,-2.8431908,0.0410126814999999
891,1747533390000,-0.928515825,0.080050781,-0.29555333,-0.07590009,-2.7715517,0.033289515
892,1747533390010,-0.761458625,-0.0071996889999999,-0.306291835,-0.49375007,-2.9896648,0.04261058
893,1747533390020,-0.677869,-0.051984194,-0.265412245,-0.508131135,-3.0437269,0.059388493
894,1747533390030,-0.6850687,-0.049787678,-0.22990192,-0.5225122,-3.097789,0.076166406
895,1747533390040,-0.78806084,-0.013179091,-0.16937573,-0.35579833,-3.3337451,0.13848438
896,1747533390050,-0.98806575,0.0277004985,-0.0563772245,-0.194677075,-3.34759355,0.147272815
897,1747533390060,-1.22772995,0.1139747385,0.0117147485,0.072704305,-3.02694895,0.15632756
898,1747533390070,-1.3122959,0.2403964,-0.038561042,0.27856666,-2.6253443,0.128364365
899,1747533390080,-1.2216286,0.21989559,-0.074803544,0.282561395,-2.44158615,0.013848438
900,1747533390090,-1.028213175,0.1572949,-0.1216625429999999,0.1960086549999999,-2.35529965,-0.168045467
901,1747533390100,-0.823449125,0.0744374615,-0.13118077,0.060453757,-2.3744745,-0.3818973049999999
902,1747533390110,-0.634914925,-0.0252599235,-0.0584517044999999,-0.133956998,-2.711897,-0.705471385
903,1747533390120,-0.6649339750000001,-0.069312258,0.0595499655,-0.205596035,-3.0858048,-0.928378
904,1747533390130,-0.86908787,-0.0308732415,0.1398448,-0.066312714,-3.2336103,-0.92784537
905,1747533390140,-0.95670444,-0.007321717,0.17376876,0.1400822809999999,-3.2469261,-0.893756895
906,1747533390150,-1.2586032,0.0667496539999999,0.2173329749999999,0.388821545,-2.93506995,-0.764859875
907,1747533390160,-1.3490264,0.1070191004999999,0.19671014,0.50919643,-2.59764745,-0.61465757
908,1747533390170,-1.26470465,0.097256813,0.181090475,0.37923414,-2.4804683,-0.4958806
909,1747533390180,-1.0848345,0.055400997,0.13471961,0.29214877,-2.46235885,-0.45566687
910,1747533390190,-1.0848345,0.055400997,0.13471961,0.0772316685,-2.4727452,-0.3717773
911,1747533390200,-0.9518233,0.007565775,0.11983211,-0.1430117565,-2.5435852,-0.304931955
912,1747533390210,-0.7300972800000001,-0.0500317329999999,0.1477766549999999,-0.3752394049999999,-2.64451895,-0.2500708299999999
913,1747533390220,-0.60782458,-0.055767078,0.199516795,-0.556867005,-2.74705075,-0.221575005
914,1747533390230,-0.5668229499999999,-0.0435642165,0.299336215,-0.603472325,-2.8367993,-0.234358175
915,1747533390240,-0.60221125,-0.0154976342,0.427344245,-0.57444385,-2.9153625,-0.240483445
916,1747533390250,-0.71643005,0.0231854388,0.5448578000000001,-0.47830373,-2.99312685,-0.231162385
917,1747533390260,-0.9988043,0.096036523,0.71057266,-0.1376854249999999,-3.0205574,-0.173638105
918,1747533390270,-1.2693418,0.1542441749999999,0.81612743,0.253000305,-2.9521141,-0.10626013
919,1747533390280,-1.33206455,0.14765463,0.7825695699999999,0.40932786,-2.89618775,-0.102265388
920,1747533390290,-1.1995413,0.024649782,0.7214332,0.3797667799999999,-2.83280455,-0.217047628
921,1747533390300,-1.1995413,0.024649782,0.7214332,0.30626354,-2.7744813,-0.32011196
922,1747533390310,-1.1557330499999998,-0.033557874,0.7169181499999999,0.1541970345,-2.6959181,-0.482831105
923,1747533390320,-1.1096062999999998,-0.105310708,0.70227473,-0.0567253305,-2.59951165,-0.739293525
924,1747533390330,-1.1309613,-0.132401058,0.70325093,-0.139283325,-2.56142845,-0.9997507
925,1747533390340,-1.16464115,-0.14667841,0.7148436499999999,-0.1155811925,-2.48313155,-1.25115315
926,1747533390350,-1.1863622500000002,-0.14850884,0.71520975,-0.03089266915,-2.4104272,-1.39336595
927,1747533390360,-1.2289503000000002,-0.14448189,0.7243619,0.04048004835,-2.3912524,-1.4785871
928,1747533390370,-1.3026556,-0.119343995,0.745961,0.105194865,-2.3699471,-1.49403345
929,1747533390380,-1.40027845,-0.0623566265,0.75035403,0.18429075,-2.31961335,-1.3526196
930,1747533390390,-1.4564116,-0.0230634095,0.7438865,0.27190874,-2.26794805,-1.13477295
931,1747533390400,-1.4564116,-0.02648021,0.73265985,0.35952675,-2.2367891,-0.96486325
932,1747533390410,-1.4550693,-0.040147417,0.69959008,0.4500742399999999,-2.20536375,-0.8090683999999999
933,1747533390420,-1.4550693,-0.04807928,0.6792113,0.527305915,-2.14038255,-0.6455503
934,1747533390430,-1.4667841,-0.061014313,0.65138876,0.56245965,-2.0937772,-0.5566007
935,1747533390440,-1.4765464,-0.0706545715,0.61539033,0.572579655,-1.93132445,-0.43143212
936,1747533390450,-1.478987,-0.08908089,0.5347294,0.5251754,-1.6458336,-0.22743396
937,1747533390460,-1.50290455,-0.091155385,0.479694515,0.377902555,-1.3835123,-0.11877699
938,1747533390470,-1.50083,-0.091765525,0.455776915,0.2761698,-1.23197835,-0.087351685
939,1747533390480,-1.5046129499999998,-0.059061853,0.462854565,0.184557065,-1.0301107,-0.1139833
940,1747533390490,-1.5213309,-0.0040269439999999,0.4883585499999999,0.14940334,-0.8282431,-0.152599135
941,1747533390500,-1.55025165,0.03831699,0.515693,0.220243425,-0.6828345,-0.187220225
942,1747533390510,-1.59528025,0.069800376,0.52057415,0.363787815,-0.512392215,-0.254331895
943,1747533390520,-1.6429934,0.071264717,0.50702895,0.539023825,-0.32756883,-0.351270965
944,1747533390530,-1.7145022,0.0209889225,0.4907991499999999,0.7603325000000001,0.042077935,-0.480167965
945,1747533390540,-1.7628256,-0.020500809,0.4803047,0.8878979,0.3158509,-0.5550028
946,1747533390550,-1.7420805499999998,-0.11348662,0.4053790699999999,0.84342312,0.727309285,-0.54035537
947,1747533390560,-1.6918048,-0.1558305549999999,0.38365799,0.7076019,0.87165262,-0.4828310999999999
948,1747533390570,-1.61883175,-0.1824327949999999,0.3674281849999999,0.38748994,1.08976555,-0.256462428
949,1747533390580,-1.5758777,-0.19426957,0.35363895,0.0793622011499999,1.3092100000000002,0.0127831719999999
950,1747533390590,-1.54976355,-0.175233105,0.412944865,-0.02743055885,1.37152795,0.178964435
951,1747533390600,-1.55122795,-0.13532975,0.46541717,-0.0567253325,1.4130733,0.356597285
952,1747533390610,-1.5293848,-0.080416865,0.494093895,-0.0119842264999999,1.56274295,0.6527408
953,1747533390620,-1.4855765,-0.0543027375,0.509835575,0.061785341,1.71773895,0.93423695
954,1747533390630,-1.4471375000000002,-0.0577195375,0.5252112,0.127831735,1.78378535,1.0689929
955,1747533390640,-1.4340804,-0.06455314,0.53033642,0.16138756,1.8178738,1.123854
956,1747533390650,-1.4327381,-0.072118915,0.53655987,0.232760285,1.9755329,1.20055305
957,1747533390660,-1.3935668,-0.079318605,0.5256993,0.22876554,2.123871,1.1880362
958,1747533390670,-1.3357253,-0.08419975,0.5537659,0.120108565,2.3417176,1.06526447
959,1747533390680,-1.321692,-0.079074547,0.56304005,-0.023435815,2.5241441,0.90121372
960,1747533390690,-1.3076587,-0.073949344,0.5723142,-0.0777643,2.576342,0.8367652
961,1747533390700,-1.28459535,-0.031971498,0.6057501000000001,-0.2138518449999999,2.71056545,0.6660566
962,1747533390710,-1.27532115,0.0030507149999999,0.63711145,-0.25379926,2.7790087000000003,0.56432384
963,1747533390720,-1.2675113,0.0351442425,0.64565345,-0.22956449,2.9023131,0.450074225
964,1747533390730,-1.2631183,0.05051985,0.6417485350000001,-0.19867182,2.9891322,0.38562572
965,1747533390740,-1.2612879,0.050031736,0.64016217,-0.12250541,3.0194921,0.3584615
966,1747533390750,-1.3038758,0.0593059125,0.629179575,-0.0151800179999999,3.0306773,0.4271710399999999
967,1747533390760,-1.35341945,0.06540734,0.634792895,0.104662232,3.0855384,0.594683875
968,1747533390770,-1.38844165,0.070288485,0.63967407,0.2426139849999999,3.1707596,0.74941355
969,1747533390780,-1.38673325,0.065285314,0.6177089,0.32463935,3.24639345,0.77737675
970,1747533390790,-1.3820962,0.058573738,0.6067263,0.35579833,3.2858083,0.773382
971,1747533390800,-1.3850249,0.053814625,0.605628045,0.3954794299999999,3.4173684,0.6854976749999999
972,1747533390810,-1.35244325,0.0431981345,0.547054325,0.2569950575,3.57848965,0.540888025
973,1747533390820,-1.3080248499999998,0.027090354,0.49494811,0.0468716359999999,3.72283285,0.3960120649999999
974,1747533390830,-1.291551,0.020988923,0.48640612,-0.027164243,3.755057,0.35579833
975,1747533390840,-1.2651927,0.013667206,0.45199403,-0.1571265,3.7875478,0.30360037
976,1747533390850,-1.2415192,0.041611762,0.42368338,-0.25193503,3.7976677,0.28176245
977,1747533390860,-1.2639724499999998,0.092619725,0.422707155,-0.265250855,3.78967835,0.350472
978,1747533390870,-1.2988727,0.13349931,0.42368339,-0.200003405,3.8032605,0.47031425
979,1747533390880,-1.31058745,0.160101545,0.404524875,-0.10066749,3.845072,0.69029135
980,1747533390890,-1.29789645,0.160345605,0.37401773,-0.0769653575,3.86451315,0.803742025
981,1747533390900,-1.28325295,0.1466784,0.35290678,-0.0284958253,3.89993325,1.01040335
982,1747533390910,-1.2083274,0.1092156099999999,0.29774984,0.0061252702,3.9023301,1.22239095
983,1747533390920,-1.1046031,0.063698939,0.23758973,0.00479368965,3.8685079,1.34489635
984,1747533390930,-1.0440769,0.050031734,0.21599066,-0.02157160535,3.82429935,1.3113405500000002
985,1747533390940,-1.019061,0.06796994,0.20574025,-0.038882153,3.79393935,1.2016183
986,1747533390950,-1.0211354,0.08566409,0.20671648,-0.041012682,3.7875478,1.1291803
987,1747533390960,-1.0560358,0.16522676,0.127886,0.024501082,3.94787,0.62264705
988,1747533390970,-1.04261265,0.159491415,0.114096765,0.01917476,3.964648,0.55633435
989,1747533390980,-1.0222338,0.14106509,0.08639627,0.0127831735,3.99926915,0.472178475
990,1747533390990,-0.999780475,0.11885588,0.0591838875,0.011717909,4.0171123,0.4543353
991,1747533391000,-0.963049875,0.0984771025,0.0388051025,0.0159789665,4.01737855,0.51132691
992,1747533391010,-0.93717982,0.0884707525,0.0092741745,0.035952675,4.00965535,0.603738625
993,1747533391020,-0.90374397,0.0884707525,-0.0372187315,0.041545312,3.99793765,0.68389979
994,1747533391030,-0.8411432999999999,0.0852980075,-0.076878036,0.00399474,4.0053945,0.70733559
995,1747533391040,-0.75804183,0.08297946,-0.12044225,-0.063915867,3.99527435,0.703873475
996,1747533391050,-0.70874226,0.08297946,-0.1483868,-0.152865447,3.95612595,0.68709557
997,1747533391060,-0.73949346,0.09445015,-0.136672055,-0.23782028,3.9444081,0.75207672
998,1747533391070,-0.76646176,0.121052395,-0.111412135,-0.2596582,3.98195865,0.875913715
999,1747533391080,-0.66749653,0.133133225,-0.136428,-0.21784658,4.05093465,0.975515965
1000,1747533391090,-0.51300831,0.12788599,-0.17071804,-0.16511599,4.0882188,1.00827283
