id,timestamp,acc_x,acc_y,acc_z,gyro_x,gyro_y,gyro_z
1,1747532636830,1.07153335,-0.173890795,1.3520771,1.04928551,1.760083215,-0.0612527199999999
2,1747532636840,2.7811544,-0.39781332,2.0736323,1.7267937,3.2836777,-0.69774822
3,1747532636850,2.9916537,-0.4927516,2.2641191,1.7803232,3.4461305,-0.94142745
4,1747532636860,3.0623083500000003,-0.55523023,2.4847469,2.23385955,4.0067260000000005,-0.8655273699999999
5,1747532636870,3.2514526000000004,-0.664567855,2.64875335,2.83972875,4.707936500000001,-0.6311692
6,1747532636880,3.51430225,-0.7480354600000001,2.53282615,3.2016523,5.2360412,-0.5483448799999999
7,1747532636890,3.78032465,-0.823693215,2.40506215,3.5191011000000003,5.5686698,-0.5656554
8,1747532636900,3.92810125,-0.85383423,2.1990778,3.6980656,5.71700785,-0.57630805
9,1747532636910,3.89954675,-0.78025095,1.88009495,3.6674392,6.0016999,-0.615190225
10,1747532636920,3.8044865,-0.7167961,1.65019305,3.6269591,6.3364594,-0.790692525
11,1747532636930,3.57739125,-0.69446487,1.52633405,3.7175067,6.41342475,-0.98004325
12,1747532636940,3.1986144,-0.651266755,1.33902005,3.8309575,6.321013,-1.0298444
13,1747532636950,2.73612585,-0.6295456850000001,0.97415447,3.91830915,6.2238075,-0.97018963
14,1747532636960,2.4657104,-0.6274712,0.72118914,3.96384905,6.18652335,-0.8857674
15,1747532636970,1.9873582,-0.5437595,0.12568948,3.4679685,6.1066284,-0.6508766
16,1747532636980,1.9127987,-0.5314346,0.042343931,3.30338515,5.995574700000001,-0.64714817
17,1747532636990,1.743301,-0.4982428399999999,-0.093107844,3.00990475,5.723932250000001,-0.66232817
18,1747532637000,1.40503765,-0.474569305,-0.213306035,2.71242965,5.1777179,-0.65833345
19,1747532637010,1.07080115,-0.47676583,-0.31983702,2.47194625,4.6421563500000005,-0.574177575
20,1747532637020,0.929980125,-0.489090745,-0.41453123,2.3073628,4.40566755,-0.4388889649999999
21,1747532637030,0.8423635949999999,-0.506540805,-0.52826191,2.102832,4.30286935,-0.300404575
22,1747532637040,0.7796408699999999,-0.5226485750000001,-0.62612885,1.8687402,4.3212452,-0.174170735
23,1747532637050,0.728144785,-0.521794385,-0.7382731499999999,1.68657995,4.2634547000000005,-0.1328917399999999
24,1747532637060,0.683848385,-0.5250891849999999,-0.8516377500000001,1.66394305,4.01418285,-0.213585515
25,1747532637070,0.6410163499999999,-0.54497985,-0.94413542,1.78085585,3.62456235,-0.344879355
26,1747532637080,0.6160005,-0.5547421,-0.99502134,1.9694077,3.10817535,-0.470314265
27,1747532637090,0.4604139849999999,-0.5730464,-1.2385905,2.18059635,2.51935035,-0.5643238349999999
28,1747532637100,0.29543129,-0.578781765,-1.6167572,2.2631542500000004,1.6492956,-0.61598915
29,1747532637110,0.125323395,-0.576829315,-2.05374165,2.0463729500000003,0.8692558,-0.60107548
30,1747532637120,0.0036608579999999,-0.5742667,-2.3425834,1.44316705,0.43755739,-0.5155879999999999
31,1747532637130,-0.077976287,-0.58097827,-2.5284331,0.6506102899999999,0.094275907,-0.410126805
32,1747532637140,-0.137038145,-0.58390697,-2.60433495,-0.14540861,-0.139815963,-0.308127745
33,1747532637150,-0.21196372,-0.5951336,-2.489506,-1.27778475,-0.53316486,-0.086286425
34,1747532637160,-0.231732345,-0.60086895,-2.22092105,-2.24078385,-1.01919173,0.175236005
35,1747532637170,-0.14643434,-0.58927625,-1.9628305,-2.6458506,-1.4719291,0.3448793599999999
36,1747532637180,-0.018670379,-0.570239775,-1.7024213,-2.8929919,-2.00030035,0.47031424
37,1747532637190,0.122516741,-0.548274605,-1.43334825,-2.9824742,-2.5478463,0.5672533
38,1747532637200,0.339361615,-0.48091478,-1.05908645,-2.799515,-3.2218923,0.66871975
39,1747532637210,0.5093475,-0.38609855,-0.72765665,-2.47247875,-3.6964676,0.7366303750000001
40,1747532637220,0.54046478,-0.320691235,-0.5759751,-2.1789985,-3.8266963,0.771517775
41,1747532637230,0.5363158,-0.264069945,-0.47420324,-1.86714235,-3.967045,0.84102627
42,1747532637240,0.601113,-0.21171966,-0.42844249,-1.5864451000000002,-4.20113685,0.93343797
43,1747532637250,0.8130767299999999,-0.1272758575,-0.37230931,-1.3654027,-4.78756485,1.01040335
44,1747532637260,1.00893273,-0.051496079,-0.30421736,-1.3440974,-5.42485915,1.10521185
45,1747532637270,1.0640897,-0.035144243,-0.2860351,-1.4183996,-5.6272593,1.1680624
46,1747532637280,1.249085,-0.010982576,-0.18768002,-1.8604844,-6.008624,1.4476944
47,1747532637290,1.53463195,-0.00939620365,0.0849319225,-2.53559575,-6.142315,1.86474545
48,1747532637300,1.88851495,-0.0724850055,0.492385485,-3.04079735,-6.146576,2.2628881
49,1747532637310,2.31341865,-0.185239455,1.00295325,-3.3334787,-6.099438,2.6144253
50,1747532637320,2.7258754,-0.25284332,1.3702594,-3.27888395,-6.0309946,2.7121633000000003
51,1747532637330,3.1008693000000003,-0.253697525,1.70815665,-3.1425301,-6.1071611,2.64132315
52,1747532637340,3.2415683,-0.2403964,1.892908,-3.0605047,-6.194513,2.564624
53,1747532637350,2.9528487,-0.10884953,2.511349,-1.5249261,-6.08266,2.23252795
54,1747532637360,2.87963155,-0.0652853125,2.4409385,-0.7938883750000001,-6.11568325,2.26661645
55,1747532637370,2.7517455,0.0218431205,2.2445945,-0.167512835,-6.17587075,2.35822915
56,1747532637380,2.6489973,0.107995333,1.7485482,0.165648625,-6.06162125,2.57793995
57,1747532637390,2.63569625,0.1364280075,1.2267538,-0.0364853,-5.7481670000000005,2.80830345
58,1747532637400,2.7362479,0.0872504675,0.992824925,-0.681236635,-5.343632749999999,2.86928985
59,1747532637410,2.8020213,0.05222825,0.91057765,-1.0636666,-5.119661,2.8644962
60,1747532637420,2.7860354,-0.0760238375,1.218821875,-2.1081584,-4.43283175,2.4716798
61,1747532637430,2.5490558,-0.1079953375,1.552082,-2.36834925,-4.0698429,1.9196065
62,1747532637440,2.29621255,-0.0966466699999999,1.6639822,-2.22613635,-3.89993315,1.47272815
63,1747532637450,2.0998685,-0.086396263,1.68838795,-2.1118867,-3.869573,1.3709954
64,1747532637460,1.9340317,-0.048323334,1.63237685,-1.7941717,-3.7039244,1.0532802
65,1747532637470,1.77026935,-0.0047591165,1.5335337,-1.6783242,-3.52895475,0.799480985
66,1747532637480,1.6893643,0.010738519,1.4843562,-1.6468989,-3.4269557,0.66206187
67,1747532637490,1.3132721,-0.0019524579,1.3052181,-1.7928401,-2.7398603,0.13262543
68,1747532637500,1.2005176,-0.00268462975,1.28130055,-2.04477505,-2.10815845,-0.16325178
69,1747532637510,0.73424625,0.0053692593,1.26787735,-2.1528995,-1.78218745,-0.28256139
70,1747532637520,0.48774841,-0.023673553,1.3697713,-2.159291,-0.96779275,-0.47297743
71,1747532637530,0.33899552,-0.054424766,1.4572659,-2.0900489,-0.79095885,-0.478570065
72,1747532637540,0.14728855,-0.09957536,1.6104118,-1.9046929,-0.438356325,-0.478570065
73,1747532637550,0.01952458,-0.10079564,1.7469617,-1.4397049,0.056991648,-0.45699844
74,1747532637560,-0.01940255,-0.078464403,1.77356395,-1.212004635,0.186154974,-0.42850262
75,1747532637570,-0.0521062225,-0.0295309265,1.77283185,-0.42184473,0.548078575,-0.292947725
76,1747532637580,-0.005979404,0.0162298065,1.6766733,0.338754105,0.905474775,-0.162719145
77,1747532637590,0.0945721785,0.064431113,1.5400011999999998,0.670317675,1.15101825,-0.15446334
78,1747532637600,0.22404455,0.1190999379999999,1.4116271,0.874848455,1.36886485,-0.22104237
79,1747532637610,0.4028164999999999,0.19805245,1.29667615,0.97711383,1.55315555,-0.431165785
80,1747532637620,0.5494949,0.2745644,1.2742229,1.0314423,1.67779145,-0.661795535
81,1747532637630,0.6371114499999999,0.30360721,1.35366355,1.1132014,1.7957695,-0.7771104
82,1747532637640,0.7525505,0.305803715,1.4263926,1.2442289,2.0125509,-0.8431568
83,1747532637650,0.8171036,0.30214286,1.4516525,1.3166668,2.1486385,-0.86606
84,1747532637660,1.20271413,0.3253283099999999,1.39490925,1.38271325,2.773416,-0.7885620200000001
85,1747532637670,1.65007105,0.3583980799999999,1.36281575,1.2908342,3.4232273500000003,-0.74568512
86,1747532637680,2.0487386,0.36059459,1.3292578000000002,1.1520835,4.05306485,-0.82930838
87,1747532637690,2.42434265,0.36181487,1.3093671,0.970189585,4.287156700000001,-1.06606338
88,1747532637700,2.74125085,0.35327288,1.3658663999999998,0.783768335,4.3942157,-1.41919855
89,1747532637710,2.9158737500000003,0.2115976425,1.5426858499999998,0.721983,4.6275085,-1.85196225
90,1747532637720,2.99385015,-0.0015863699999999,1.7487922,0.89322425,5.0272493,-2.07007515
91,1747532637730,3.1178314,-0.1313027975,1.8619127,1.2405005,5.3345783,-2.026133
92,1747532637740,3.2700010500000003,-0.19854057,1.8647194,1.6045546000000002,5.4794540000000005,-1.94810235
93,1747532637750,3.4590232,-0.35778793,1.7166987,1.8745991,5.57452865,-1.86181595
94,1747532637760,3.58239425,-0.528383925,1.61065575,2.07886355,5.7087521500000005,-1.7606158500000002
95,1747532637770,3.5908144,-0.5697516499999999,1.60577465,2.26821435,5.8696072,-1.63651255
96,1747532637780,3.59398715,-0.5703618,1.56038005,2.46661985,6.0136842,-1.5188008000000002
97,1747532637790,3.5750728,-0.55571835,1.4955828,2.72095165,6.0560285,-1.4535533
98,1747532637800,3.4935576,-0.505930675,1.41711835,3.0644995,5.896504999999999,-1.4666028
99,1747532637810,3.2604827,-0.421242805,1.12376155,3.3585125,5.590507649999999,-1.51267555
100,1747532637820,2.98372175,-0.35693373,0.7811052,3.35531675,5.45868135,-1.5502261000000002
101,1747532637830,2.7568706,-0.30983067,0.6067263300000001,3.1382692,5.6277922,-1.567004
102,1747532637840,2.5107388,-0.29006204,0.46834585,2.90524255,5.910353499999999,-1.5864451000000002
103,1747532637850,2.12415215,-0.32996541,0.33533466,2.72654435,6.03206,-1.64823045
104,1747532637860,1.7253627,-0.37267542,0.2371016249999999,2.71882115,5.8626830000000005,-1.6908409999999998
105,1747532637870,1.4816715500000002,-0.40306053,0.140454942,2.84612025,5.4831825,-1.6628778
106,1747532637880,1.2970423000000002,-0.44735691,-0.007687803,2.94119515,5.00647665,-1.6309199
107,1747532637890,1.17440355,-0.47566758,-0.152169695,2.98087635,4.51059615,-1.6564861999999998
108,1747532637900,1.0154002,-0.49909707,-0.371455135,2.8826057,3.8232343,-1.75981685
109,1747532637910,0.78854895,-0.5227706000000001,-0.59842835,2.62694215,3.2791504,-1.8149443
110,1747532637920,0.58561537,-0.5233807500000001,-0.7448627,2.27860065,3.15265025,-1.7443705
111,1747532637930,0.4511398199999999,-0.5272857,-0.86640323,1.85489175,3.1582428,-1.61600615
112,1747532637940,0.388539135,-0.54144103,-0.96219573,1.40375225,3.16649855,-1.4865765
113,1747532637950,0.43417785,-0.6062382,-1.1180263,0.7456851200000001,3.08021215,-1.40295325
114,1747532637960,0.445404475,-0.6262509,-1.13657465,0.20399814,2.902313,-1.427987
115,1747532637970,0.416239635,-0.66054097,-1.1661055,0.0492684795,2.6812706,-1.5334482
116,1747532637980,0.32618251,-0.69190232,-1.1960025,0.0122505415,2.3475765,-1.60828305
117,1747532637990,0.211353575,-0.7159419,-1.2245572500000002,0.085487472,1.8477012,-1.6231967
118,1747532638000,0.040635537,-0.7047152649999999,-1.35671425,0.35420044,1.1017498,-1.5241270999999998
119,1747532638010,-0.0817591779999999,-0.683116265,-1.5795385,0.5717807,0.47857008,-1.36753325
120,1747532638020,-0.0957924699999999,-0.665910225,-1.7984578,0.50919641,0.1459412375,-1.25195205
121,1747532638030,-0.1032362149999999,-0.634914905,-2.0275056,0.1898833949999999,-0.2380866025,-1.1523498
122,1747532638040,-0.12764194,-0.61746481,-2.1795533,-0.321709865,-0.60613546,-1.03756755
123,1747532638050,-0.062722713,-0.62893553,-2.16722835,-1.1475561,-1.11613085,-0.8463526
124,1747532638060,0.092497692,-0.6327184299999999,-2.03336295,-1.90176335,-1.7193369,-0.72704298
125,1747532638070,0.19219508,-0.6091668800000001,-1.8400696,-2.22640275,-2.23652275,-0.7443535299999999
126,1747532638080,0.20500809,-0.583418835,-1.6281059,-2.41149245,-2.75610545,-0.7169229500000001
127,1747532638090,0.193415365,-0.551081285,-1.43957175,-2.48765885,-3.2189628,-0.5936186
128,1747532638100,0.215380525,-0.4473569699999999,-1.18477595,-2.42827035,-3.8354846,-0.283626672
129,1747532638110,0.246619845,-0.3299654199999999,-0.941572835,-2.2863239,-4.445881249999999,0.066845343
130,1747532638120,0.2550398,-0.294089,-0.86323047,-2.2194786,-4.6541405,0.19228023
131,1747532638130,0.3511983899999999,-0.210133295,-0.71606397,-2.07486885,-5.53884265,0.6202502249999999
132,1747532638140,0.53021436,-0.18511743,-0.6829942,-2.1678132000000003,-6.257629850000001,0.9190569
133,1747532638150,1.0738519,-0.17206036,-0.64565345,-2.82960885,-7.2523205,1.23410885
134,1747532638160,1.4936304,-0.16180995,-0.6125837,-3.389139,-7.868576,1.401888
135,1747532638170,1.9657592,-0.279079475,-0.30250895,-4.60194265,-8.2030695,1.6149409499999998
136,1747532638180,2.36747745,-0.4943379799999999,0.44796708,-5.2826464,-7.9367532,1.9819246
137,1747532638190,2.69622255,-0.6410164,1.28764605,-5.30421805,-7.42196395,2.30975975
138,1747532638200,2.83094205,-0.6003808500000001,1.7384197499999998,-4.6054046,-7.2573805,2.40536715
139,1747532638210,3.02057445,-0.55156938,1.99492395,-3.6788908,-7.327954249999999,2.4418525
140,1747532638220,3.2442529,-0.517157315,2.06301595,-2.7553066,-7.52289765,2.424542
141,1747532638230,3.46768725,-0.390491605,1.7919903499999998,-2.0090888,-7.66457765,2.3590281
142,1747532638240,3.594231,-0.261751405,1.3535415,-1.9193402,-7.58095425,2.2919165
143,1747532638250,3.59752585,-0.258456625,1.08788515,-2.5230788,-7.19266555,2.25782815
144,1747532638260,3.6269348,-0.32728076,1.053229,-3.39180195,-6.47520995,2.1622206
145,1747532638270,3.5328508000000003,-0.43625232,1.4992436,-3.9641154,-5.30554965,1.7403757999999998
146,1747532638280,3.409968,-0.4971446,1.8782645,-4.0517335,-4.587029,1.4034859
147,1747532638290,3.08110075,-0.45345835,2.11268155,-4.0517335,-4.587029,1.4034859
148,1747532638300,2.58676265,-0.3804852399999999,2.250818,-2.1201425,-4.1641185,0.7960188500000001
149,1747532638310,2.32000815,-0.328989165,1.9625864,-1.49376705,-4.183826,0.78003985
150,1747532638320,2.14270055,-0.26126328,1.4185828,-1.54303555,-3.8067225,0.77364828
151,1747532638330,2.0641141000000003,-0.231366275,0.98513712,-2.2306637,-3.06503225,0.59654808
152,1747532638340,2.00541835,-0.273466155,0.8888564999999999,-3.010171,-2.3989756,0.271376113
153,1747532638350,1.84287615,-0.34619522,0.8961782300000001,-3.6730319,-1.85196225,-0.071639037
154,1747532638360,1.5973546,-0.426612075,0.9770832,-4.2115232,-1.4114754,-0.40772997
155,1747532638370,1.16195652,-0.50422227,1.20759525,-4.5177868,-1.03517075,-0.8245146700000001
156,1747532638380,0.749011695,-0.54705433,1.4479917,-4.4666539,-0.818922035,-1.1544803
157,1747532638390,0.528872075,-0.5447358,1.56379685,-4.1286986,-0.7776430350000001,-1.28204575
158,1747532638400,0.4253918,-0.5430274,1.6110219,-3.9212384,-0.7653925,-1.3331785
159,1747532638410,0.1076292377,-0.48811449,1.69900455,-3.062369,-0.748081955,-1.30175315
160,1747532638420,-0.1275198973,-0.390003475,1.6210282,-2.25409955,-0.591488095,-1.03463808
161,1747532638430,-0.26162934,-0.319715,1.5341438,-1.7939054,-0.45167214,-0.82398206
162,1747532638440,-0.238932035,-0.218309215,1.3583006000000002,-1.4032196,-0.051399005,-0.5201153700000001
163,1747532638450,-0.176575425,-0.13850249,1.23261115,-1.2508868,0.280164555,-0.371244665
164,1747532638460,-0.039537273,-0.0102504045,1.0291895,-1.1888351,0.8090684,-0.22583607
165,1747532638470,0.1119002635,0.0545467957499999,0.94926073,-1.2876384,1.02718125,-0.28043087
166,1747532638480,0.33240599,0.150461293,0.852125915,-1.3864417,1.2452941,-0.33502567
167,1747532638490,0.46102414,0.1986626,0.8465125849999999,-1.62000095,1.28018155,-0.659665
168,1747532638500,0.543515475,0.208180835,0.90362197,-1.7307884,1.28284475,-0.7880294
169,1747532638510,0.631254075,0.1664470499999999,1.09496282,-1.76514315,1.5595472,-0.68895982
170,1747532638520,0.92595315,0.10006347,1.4409139,-1.6117451,2.2050974,-0.29241508
171,1747532638530,1.066286075,0.1190999349999999,1.5079076,-1.4988271,2.41149245,-0.172572835
172,1747532638540,1.206619,0.1381364,1.5749013,-1.2596752,2.8186898,-0.0098536965
173,1747532638550,1.8091964,0.219651525,1.61504885,-1.05461175,3.17848285,-0.0327568815
174,1747532638560,2.3724805,0.31397964,1.57038635,-1.0002833,3.5630433,-0.533164855
175,1747532638570,2.7480845,0.39573882,1.5767318499999998,-1.0215885999999998,3.9723712,-1.153415075
176,1747532638580,2.75137935,0.362669085,1.65653855,-1.0183928,4.1561294,-1.3390374
177,1747532638590,2.7385664,0.32020313,1.7071804,-0.8878979,4.5902247,-1.530785
178,1747532638600,2.8166647,0.164372557,1.89193175,-0.46472164,5.0064765,-1.5819177
179,1747532638610,3.03131305,0.0259920994999999,2.00004905,0.05645901,5.2940978,-1.50681655
180,1747532638620,3.27366185,-0.1116561875,2.04947065,0.5289037999999999,5.6123458,-1.3965617
181,1747532638630,3.4038663,-0.170107905,2.04580985,0.7829694,5.9111525,-1.3219932
182,1747532638640,3.50929905,-0.212939955,2.0085911,1.2186625,6.3031697,-1.2911005
183,1747532638650,3.5675068000000003,-0.251501,1.93488575,1.52173025,6.29970765,-1.3853764
184,1747532638660,3.5335828,-0.269073115,1.8875387,2.04743835,6.23099805,-1.54197025
185,1747532638670,3.4635384,-0.276882925,1.8139554,2.4815336500000003,6.04750625,-1.6674052
186,1747532638680,3.37531185,-0.278591325,1.6365258,2.85171295,5.77320065,-1.81947175
187,1747532638690,3.0714606,-0.254429675,1.3020454,3.10524585,5.505020350000001,-2.0050940500000003
188,1747532638700,2.68719225,-0.2306340949999999,0.97305625,3.2197618500000003,5.3540192,-2.212288
189,1747532638710,2.4278814,-0.2291697449999999,0.7443746,3.10497965,5.366536,-2.30097125
190,1747532638720,2.2022506,-0.23758973,0.524845085,2.8160266,5.528989,-2.24318065
191,1747532638730,2.02555315,-0.25906678,0.345341015,2.51269245,5.7737335000000005,-2.1947111
192,1747532638740,1.7573341999999998,-0.32935525,0.1483868085,2.24637635,6.0088905,-2.19071635
193,1747532638750,1.45909625,-0.4229511999999999,0.0141553203499999,2.0887173,5.955361,-2.18592275
194,1747532638760,1.28679185,-0.47639975,-0.01708400715,2.17260695,5.415538,-2.1901838
195,1747532638770,1.1326697,-0.49519215,-0.055034909,2.49751265,4.6139265,-2.2423817
196,1747532638780,0.9834287,-0.5123982,-0.157905035,2.866893,3.8589205,-2.3001723
197,1747532638790,0.788671,-0.5490068,-0.5203300399999999,2.9169604,3.2900692,-2.2588934
198,1747532638800,0.6228341,-0.5720701850000001,-0.925953165,2.55956425,3.17821645,-2.1608891
199,1747532638810,0.54851865,-0.5882999849999999,-1.1374288,2.04610675,3.43148315,-2.0743363
200,1747532638820,0.5091034,-0.6028214,-1.2293164,1.7715348,3.5659728,-2.0213394
201,1747532638830,0.477864085,-0.6589546,-1.3784353,1.060737075,3.54972755,-1.9113508
202,1747532638840,0.46163429,-0.7202129500000001,-1.334749,0.7858988250000001,3.29592825,-1.95023295
203,1747532638850,0.39464058,-0.7845220150000001,-1.2573829,0.82904205,2.70710325,-2.0852552
204,1747532638860,0.295553335,-0.8096599,-1.23859055,1.1470235,1.98219085,-2.1835258
205,1747532638870,0.23771177,-0.81344277,-1.2376143,1.3390374,1.6809874,-2.1928468
206,1747532638880,0.0959145,-0.78488815,-1.3354812,1.6303873,1.1909657,-2.126268
207,1747532638890,-0.0192805229999999,-0.77219713,-1.68802195,1.67992205,0.53103433,-1.9246665
208,1747532638900,-0.08956901,-0.7408358,-1.90206015,1.2844426,0.1051948649999999,-1.68018835
209,1747532638910,-0.14667841,-0.7138674700000001,-1.97845005,0.70627033,-0.193079175,-1.41653545
210,1747532638920,-0.20525215,-0.6842144699999999,-1.9935816,0.2237055375,-0.34194988,-1.2077436
211,1747532638930,-0.208546915,-0.6626154,-1.93818065,-0.2498045175,-0.5720470200000001,-0.9800433
212,1747532638940,-0.149607092,-0.6179529500000001,-1.8351885,-0.6988135,-0.99948435,-0.77897465
213,1747532638950,-0.0577195429,-0.490066965,-1.5995512,-1.107076075,-1.7515611,-0.64901237
214,1747532638960,-0.004393030385,-0.353638945,-1.33621345,-1.31427,-2.4482441,-0.584830195
215,1747532638970,-0.016473864485,-0.268218905,-1.16464115,-1.31506895,-2.882872,-0.527305915
216,1747532638980,-0.048689418,-0.204642005,-0.9999025,-1.24076675,-3.31803255,-0.425839465
217,1747532638990,-0.076633973,-0.17413485,-0.84992935,-1.11746245,-3.81444565,-0.244211875
218,1747532639000,-0.0472250777,-0.1097037325,-0.71606395,-0.980842275,-4.6520097,0.21598235
219,1747532639010,0.0873724972999999,-0.03038512815,-0.647483865,-1.002946475,-5.4656055,0.7627293500000001
220,1747532639020,0.5287500549999999,0.04893347435,-0.6644458449999999,-1.69749895,-5.9817262,1.2554142
221,1747532639030,0.994411335,0.102015925,-0.63039988,-2.7249465,-6.31728455,1.6626115499999998
222,1747532639040,1.257383,0.0580856235,-0.45089577,-3.5521244000000003,-6.404370050000001,1.88125705
223,1747532639050,1.5430519,-0.0395372715,-0.127519905,-4.2301653,-6.3700152,2.0317256500000003
224,1747532639060,1.81346735,-0.14789869,0.327646865,-4.5819688,-6.2640212,2.0801952000000004
225,1747532639070,2.1485579,-0.283960615,0.9502369,-4.5982140000000005,-6.31515385,2.09244575
226,1747532639080,2.5198909,-0.385366395,1.4678823,-4.19527765,-6.8387313,2.1142837
227,1747532639090,2.7231907,-0.35046621,1.7636797,-3.46423995,-7.34446565,2.02506775
228,1747532639100,2.7152588,-0.241128565,1.97576545,-2.6828685,-7.37855425,1.866077
229,1747532639110,2.6327674,-0.1493630325,2.04727425,-1.87939275,-7.27415845,1.77313265
230,1747532639120,2.51244725,-0.0892029225,1.81371145,-1.06899285,-7.1492562,1.7267936
231,1747532639130,2.43373885,-0.0935959525,1.3490264,-0.1691107349999999,-7.049654,1.7560884
232,1747532639140,2.44106055,-0.1775516475,0.92119405,0.305198265,-7.0264845000000005,1.8823223
233,1747532639150,2.46424605,-0.28274032,0.58305274,0.098004335,-7.003315,2.07460255
234,1747532639160,2.51928105,-0.368526445,0.350344165,-0.370978365,-6.9178275,2.3172165
235,1747532639170,2.69915115,-0.519963975,0.210377335,-1.73132105,-6.5377942,2.763296
236,1747532639180,2.9168502,-0.6790892749999999,0.24454536,-3.33960405,-5.90529345,3.1342744
237,1747532639190,3.142237,-0.78586435,0.59086263,-4.776113,-4.8538775,3.118029
238,1747532639200,3.1677410000000004,-0.8125886250000001,0.739981565,-5.091165,-4.47304555,2.9779467
239,1747532639210,3.1483385000000004,-0.8517598,1.23798035,-5.5505605,-3.8197721,2.62081685
240,1747532639220,2.88268225,-0.7917217,1.7204816,-5.46853525,-3.42642305,1.8836539
241,1747532639230,2.49926825,-0.6706692999999999,1.9392789,-4.94309355,-3.33267985,1.12838137
242,1747532639240,2.17369585,-0.573412475,2.0314104,-4.25093795,-3.3742252500000003,0.644218685
243,1747532639250,1.8339682,-0.4777420599999999,1.97613145,-3.6389434,-3.36303995,0.23009713
244,1747532639260,1.41479985,-0.373285575,1.80809805,-3.2996566,-3.25278505,-0.06524745
245,1747532639270,1.05896435,-0.308488365,1.66141965,-3.15344905,-2.76835605,-0.375772045
246,1747532639280,0.8118563999999999,-0.304095325,1.59479205,-3.1696944,-2.06448255,-0.600809155
247,1747532639290,0.5663348500000001,-0.31532195,1.58417555,-3.2463934,-1.454086,-0.6474144749999999
248,1747532639300,0.4544346,-0.3236199,1.5993071,-3.2810144,-1.1478225,-0.6492787
249,1747532639310,0.1303265652,-0.30507157,1.726705,-3.00777425,-0.04740427,-0.39867522
250,1747532639320,-0.0061014313,-0.241006545,1.7996781,-2.5190841,0.61359233,-0.124902259
251,1747532639330,0.0176941485,-0.170840075,1.79980015,-2.03838345,0.8985506000000001,0.0159789659999999
252,1747532639340,0.10628693,-0.10213796,1.7603849500000002,-1.582184,1.1012172,0.04713795
253,1747532639350,0.2667545699999999,0.0057353449999999,1.63127865,-0.96379802,1.3028185,-0.1086569749999999
254,1747532639360,0.46834585,0.13032657,1.4252943,-0.2796319,1.361408,-0.5006743
255,1747532639370,0.499463155,0.1507053549999999,1.3840486,-0.155262285,1.3070795,-0.6181197
256,1747532639380,0.55156938,0.191829005,1.29118485,0.04527374,1.1899004,-0.81093255
257,1747532639390,0.59537763,0.217943125,1.197833,0.1315601599999999,1.10148345,-0.9009474
258,1747532639400,0.9034999,0.17547716,1.0470055,-0.221575,1.7502295,-0.56245965
259,1747532639410,1.01405785,0.1743789,1.0665301500000002,-0.3720436,2.05329725,-0.44687845
260,1747532639420,1.24640035,0.184873365,1.1325477,-0.66232815,2.72947385,-0.22423817
261,1747532639430,1.50253845,0.215502545,1.21467295,-0.92624745,3.46557155,-0.058589545
262,1747532639440,1.9829651,0.24918245,1.3459758,-1.2474247,4.3771715,-0.019707393
263,1747532639450,2.29438215,0.2693171749999999,1.48325795,-1.3070795,4.573979250000001,-0.1973402465
264,1747532639460,2.7508912,0.28176409,1.71181755,-1.3036174,4.755607,-0.5089301
265,1747532639470,2.8959832,0.27407628,1.803095,-1.2405005,4.740427,-0.6428871
266,1747532639480,3.22631465,0.22209209,2.01835335,-0.7653924999999999,4.6786415,-1.13104455
267,1747532639490,3.4081373,0.0678479115,2.2679019,-0.36804887,4.757471000000001,-1.3587448
268,1747532639500,3.551887,-0.0968907285,2.48389265,0.45167213,5.07784935,-1.4873755000000002
269,1747532639510,3.68868125,-0.190242625,2.53319225,1.68152,5.6459017,-1.5158713
270,1747532639520,3.82632965,-0.256870245,2.4674189,1.9635488,5.79477235,-1.525725
271,1747532639530,3.95262925,-0.31397964,2.30841565,2.45649995,6.0541641,-1.5715314
272,1747532639540,4.06099075,-0.36474355,2.0467862,2.8069719,6.2427158,-1.65755155
273,1747532639550,4.1243234,-0.39317623,1.7213358,3.4887412,6.5625615,-2.0751352
274,1747532639560,4.0950365,-0.394640565,1.6706939,3.6314866,6.4975805,-2.21681535
275,1747532639570,3.96043895,-0.3932982499999999,1.57233885,3.9489353,6.34418245,-2.4940504
276,1747532639580,3.717602,-0.395860865,1.40052255,4.244279799999999,6.2272697,-2.7100328
277,1747532639590,3.3910534,-0.418680225,0.98794375,4.384362149999999,6.2264708,-2.82880985
278,1747532639600,3.2020311,-0.43613032,0.6994681,4.3579969,6.3444488,-2.9129657
279,1747532639610,2.97054275,-0.464318935,0.479694525,4.2275021,6.61236285,-3.12042585
280,1747532639620,2.4147024,-0.58891016,0.07443746,4.156662,6.82381785,-3.3425334500000004
281,1747532639630,2.2367847,-0.641016365,-0.03978133,4.1958103,6.756705999999999,-3.40511775
282,1747532639640,1.9042567,-0.713745415,-0.259798935,4.2432146500000005,6.3998425,-3.37502415
283,1747532639650,1.5356082,-0.76280093,-0.579269875,4.139085,5.4863783,-3.2530515
284,1747532639660,1.1802609,-0.79611474,-0.97647303,3.609116,4.3787694,-3.053048
285,1747532639670,1.1036269,-0.78745072,-1.0573780149999998,3.3137715,4.3092612,-2.974751
286,1747532639680,1.0269929,-0.7787867,-1.138283,3.018427,4.239753,-2.896454
287,1747532639690,0.847976915,-0.7992874999999999,-1.26543685,1.9275961,4.48822545,-2.58912525
288,1747532639700,0.628691475,-0.89422578,-1.2343195,1.05860657,4.77558065,-2.1640848
289,1747532639710,0.434055825,-1.00929878,-1.1487774,0.56405752,4.85414385,-1.74756635
290,1747532639720,0.405135025,-1.08459045,-1.0977695,0.72304823,4.5388255,-1.58964085
291,1747532639730,0.439913175,-1.13376795,-1.1219312,1.10441293,3.9476038,-1.5523566
292,1747532639740,0.33057554,-1.129985,-1.3850249,1.7164074,2.696717,-1.63917565
293,1747532639750,0.134597575,-1.1110706,-1.7325624,2.17074275,1.4098775,-1.70974945
294,1747532639760,0.00622346,-1.10435905,-1.9800364,2.22373965,0.71372718,-1.67832415
295,1747532639770,-0.120320225,-1.09886775,-2.2232394,2.08285835,0.2090581445,-1.59230405
296,1747532639780,-0.2608972,-1.0975254,-2.46314765,1.6812536,-0.2063949855,-1.4000238
297,1747532639790,-0.41758195,-1.05945245,-2.6532683500000003,1.11453293,-0.60080915,-1.12838135
298,1747532639800,-0.4966565,-1.0216236,-2.7268517,0.82877576,-0.7866978,-0.9917612
299,1747532639810,-0.39708114,-0.96451426,-2.545273,-0.717988215,-1.76381155,-0.1238369869999999
300,1747532639820,-0.1608337249999999,-0.90325585,-2.3678435,-1.28364365,-2.2016353,0.170708633
301,1747532639830,0.163884445,-0.81490712,-2.0801001,-2.0029635,-2.94891835,0.33795514
302,1747532639840,0.29823795,-0.7525505299999999,-1.83299205,-2.61282745,-3.71564245,0.37470675
303,1747532639850,0.3441207,-0.71728426,-1.6961979,-2.7696877,-3.9601207,0.360592
304,1747532639860,0.34619521,-0.617830925,-1.23053655,-2.8799426,-4.541222250000001,0.463656335
305,1747532639870,0.32252166,-0.486894225,-0.88702602,-2.5545042,-5.1090082500000005,0.71798825
306,1747532639880,0.345951155,-0.36169285,-0.65114474,-2.08765195,-5.84324185,1.0391655
307,1747532639890,0.43564218,-0.302630975,-0.5901304199999999,-1.7808558,-6.47467735,1.3446301
308,1747532639900,0.62881349,-0.238687975,-0.624176415,-1.6652746,-7.06589915,1.7382453
309,1747532639910,1.05371713,-0.181700615,-0.751696315,-1.9214707,-7.52795765,2.10842465
310,1747532639920,1.83653075,-0.15534244,-0.8955680699999999,-3.4253579500000004,-7.6499305,2.10336465
311,1747532639930,2.39188315,-0.214526325,-0.79953155,-5.262672800000001,-7.5069187,1.9220034
312,1747532639940,2.5154982,-0.39842345,-0.41392109,-6.2483085,-7.4251597,1.9584887
313,1747532639950,2.681579,-0.61966133,0.1083614199999999,-6.848318750000001,-7.4368775,2.1030983
314,1747532639960,2.788598,-0.71996886,0.40269446,-7.0392675,-7.456851,2.1859226
315,1747532639970,3.21996925,-0.93791196,1.57294895,-6.217416,-7.405452,2.3912524
316,1747532639980,3.45731495,-0.989774135,2.2162838,-5.05627775,-7.32635625,2.50257255
317,1747532639990,3.4679314,-0.94108475,2.3882222,-4.063451199999999,-7.06270325,2.511361
318,1747532640000,3.4142387000000003,-0.8601798,2.3463663500000003,-3.0852722000000004,-6.7005135,2.48153355
319,1747532640010,3.4606096500000003,-0.7541369250000001,1.8584959,-2.0357204,-6.5649585,2.18645525
320,1747532640020,3.4434036,-0.655781875,1.2825209,-1.3630059,-6.695986,1.81947165
321,1747532640030,3.33357775,-0.63613525,0.9783035,-1.299889,-6.91516425,1.72279895
322,1747532640040,3.3415097,-0.6696931,0.671889575,-1.52066505,-7.12555375,1.7715348
323,1747532640050,3.3748236,-0.6960513,0.50812715,-1.7182716,-7.21184,1.824798
324,1747532640060,3.56701875,-0.78867095,0.3022649,-3.5851475,-6.533267,2.0165455
325,1747532640070,3.6654959,-0.90325585,0.5008054550000001,-5.2056811,-5.51167825,2.0189424
326,1747532640080,3.6198571,-1.00466165,0.916068835,-6.12207475,-4.50686755,1.8056233
327,1747532640090,3.43486165,-1.0706791,1.46641795,-6.5385930000000005,-3.50818215,1.46447235
328,1747532640100,3.12442085,-1.08373625,2.01042165,-6.342318000000001,-2.72095165,1.09775503
329,1747532640110,2.53526665,-0.933274985,2.47303215,-5.16892925,-1.97446765,0.5832322999999999
330,1747532640120,1.9021822,-0.729609135,2.6151954,-3.698598150000001,-1.5020229,0.116113829
331,1747532640130,1.4960710000000002,-0.61770885,2.4129939,-2.7443875,-1.3962954,-0.156860191
332,1747532640140,1.12180915,-0.50629674,2.1508764,-1.9800603,-1.3930996,-0.39441416
333,1747532640150,0.6217358,-0.33094163,1.7326844,-1.3885722,-1.40348595,-0.55020909
334,1747532640160,0.19109682,-0.185483505,1.3572024,-1.1861719,-1.32172695,-0.557665945
335,1747532640170,0.0076878,-0.124347165,1.210524,-1.35022265,-1.0897656,-0.463123725
336,1747532640180,-0.108971555,-0.0778542634999999,1.14401835,-1.56860195,-0.73077143,-0.361657295
337,1747532640190,-0.19585593,-0.0506418785,1.13596445,-1.76807275,-0.3262372349999999,-0.25672874
338,1747532640200,-0.2518670699999999,-0.0268462965,1.22992655,-1.8192054,0.13555491,-0.06977482
339,1747532640210,-0.235515235,0.0020744854999999,1.3354813,-1.6740631,0.4508732,0.108656975
340,1747532640220,-0.148874915,0.0418558194999999,1.35012475,-1.4381070500000002,0.526506965,0.163518095
341,1747532640230,-0.0219651525,0.0962805875,1.3242547,-1.19735725,0.54887751,0.131560162
342,1747532640240,0.1306926474999999,0.15973547,1.27678555,-0.994158025,0.5259743299999999,0.000266317
343,1747532640250,0.399155645,0.24454537,1.2184558,-0.929443225,0.5038701,-0.32437304
344,1747532640260,0.63955205,0.305315625,1.20710715,-0.98164115,0.5917543999999999,-0.6846987499999999
345,1747532640270,0.7577978,0.29360087,1.2677554,-1.02398545,0.79095885,-0.90281162
346,1747532640280,0.8622543,0.2333187299999999,1.37440835,-1.02398545,1.0823087,-1.01253382
347,1747532640290,0.930102165,0.1748670199999999,1.4797191,-0.9792443,1.5462313499999998,-0.95980323
348,1747532640300,1.215405065,0.1166593675,1.5307271,-0.91133373,2.48819145,-0.65700183
349,1747532640310,1.6960759,0.0605261995,1.51303295,-0.89428953,3.5180359,-0.3691141249999999
350,1747532640320,2.1114614,0.0417337884999999,1.47032295,-0.92624745,4.0914145,-0.339553045
351,1747532640330,2.4754727,0.0538146215,1.46702815,-0.9305085,4.377171649999999,-0.45540057
352,1747532640340,2.87975355,0.08322352,1.5578174,-0.89002845,4.4621265,-0.8021441
353,1747532640350,3.20300735,0.0381949585,1.7091329,-0.64741445,4.5249772,-1.14835505
354,1747532640360,3.4096017,-0.0806609165,1.85605535,-0.2420813349999999,4.69062585,-1.28604055
355,1747532640370,3.8207161,-0.22599702,2.067897,0.4261058,4.9412293,-1.407747
356,1747532640380,3.9662963,-0.265046175,2.1095087,0.6775082,4.99928615,-1.47352705
357,1747532640390,4.3273790000000005,-0.368770515,2.19065785,1.561145,5.262672650000001,-1.71800525
358,1747532640400,4.645019550000001,-0.458949675,2.19468485,2.4889903,5.53644565,-2.0013656
359,1747532640410,4.7731498000000006,-0.486894225,2.0609414,3.07275535,5.722068,-2.2514364
360,1747532640420,4.7506965,-0.502513875,1.81712825,3.58754445,5.99690615,-2.55503675
361,1747532640430,4.57094815,-0.512154125,1.49777935,3.9542617,6.29757715,-2.82641295
362,1747532640440,4.1715485,-0.5133744,1.0141799,4.10393135,6.6826704,-2.98886585
363,1747532640450,3.78496195,-0.50934745,0.57536495,3.99953545,6.9953256,-3.0099047
364,1747532640460,3.56933735,-0.48384348,0.329721345,3.65225925,7.1122382,-2.9430593
365,1747532640470,3.4722025,-0.46712556,0.21306199,3.4189663,7.158577,-2.9044435
366,1747532640480,3.03973305,-0.46871194,0.02501586625,2.89698675,7.10451485,-2.90124775
367,1747532640490,2.5046375000000003,-0.536193785,0.01366720575,2.75983395,6.94259485,-2.9212214000000003
368,1747532640500,1.9996831,-0.617220785,0.0142773488,2.9744847,6.493586,-2.8815403
369,1747532640510,1.7625815,-0.67408612,-0.0641870557,3.3446641,5.9732042,-2.80430865
370,1747532640520,1.5805148,-0.7388832999999999,-0.2140382149999999,3.58062015,5.6549562,-2.75424125
371,1747532640530,1.419559,-0.79404022,-0.393420295,3.68901075,5.3907705,-2.6940538
372,1747532640540,1.172329,-0.83528592,-0.694098815,3.2506545,4.862932,-2.3803334
373,1747532640550,0.9352274,-0.84822095,-0.98672345,3.07408695,4.7971520000000005,-2.32547235
374,1747532640560,0.8639627,-0.8412653,-1.0760484,2.8975194,4.731372,-2.2706113
375,1747532640570,0.76341105,-0.861278,-1.2398108,2.4543693,4.5944858,-2.1779332
376,1747532640580,0.576097145,-0.93681377,-1.43163985,1.73478315,4.4261735,-1.98991405
377,1747532640590,0.42038861,-0.98891995,-1.49155585,1.26366995,4.228567,-1.825597
378,1747532640600,0.33033149,-1.0272369,-1.50046395,1.0604708,3.91324885,-1.70948315
379,1747532640610,0.20769272,-1.04737165,-1.55037365,1.2327772499999998,3.5489285,-1.7004283999999998
380,1747532640620,0.0059794025,-1.04358885,-1.67118195,1.6205335,3.0234868500000003,-1.679922
381,1747532640630,-0.2904281075,-1.0391958,-2.01579075,2.07540145,1.9451729,-1.4378407
382,1747532640640,-0.4879924399999999,-1.0459073,-2.42361045,2.14517625,0.85407575,-1.0649982
383,1747532640650,-0.4645629599999999,-1.03040965,-2.6664475000000003,1.74809895,0.21917816,-0.7832357
384,1747532640660,-0.37218731,-0.9742765,-2.8380197000000003,1.1286477,-0.32384039,-0.5800365
385,1747532640670,-0.286523215,-0.885805765,-2.8441211,-0.0218379249999999,-1.0245181,-0.369913085
386,1747532640680,-0.2174550049999999,-0.811490365,-2.66681365,-1.150751925,-1.69323785,-0.140881222
387,1747532640690,-0.126299625,-0.7732954,-2.41165175,-1.484446,-1.9094865,-0.044208474
388,1747532640700,0.01330112,-0.7388832999999999,-2.12683685,-1.9819245,-2.43705875,0.164583353
389,1747532640710,0.18560554,-0.70666775,-1.82859895,-2.58912525,-3.16170485,0.42663841
390,1747532640720,0.421608885,-0.64528737,-1.3537856,-2.6849991,-3.5838159,0.5134574700000001
391,1747532640730,0.5554743,-0.54461377,-0.90411008,-2.5624937,-3.87649735,0.5619270000000001
392,1747532640740,0.496046375,-0.435642185,-0.6800655099999999,-2.2895197,-4.069842899999999,0.6114618
393,1747532640750,0.373773675,-0.322887735,-0.54973893,-1.9044266,-4.40380335,0.73769565
394,1747532640760,0.3031191,-0.240030315,-0.53106855,-1.4588797,-4.9337722500000005,0.9946907
395,1747532640770,0.68897355,-0.186825825,-0.8290624499999999,-1.27112685,-6.2467107,1.48284815
396,1747532640780,1.32925775,-0.140699,-1.24591225,-1.7656759,-7.6621812,1.8442391
397,1747532640790,1.8134673,-0.14704449,-1.462147,-2.98087635,-8.350076,1.922536
398,1747532640800,2.2604581,-0.2805438,-1.42175555,-4.6386942,-8.6235825,2.03572035
399,1747532640810,2.70452035,-0.65932065,-0.590984673,-6.2991750500000006,-8.3138565,2.2327943
400,1747532640820,2.94882165,-0.9830626,0.506418797,-7.5793567,-6.9386,2.50070835
401,1747532640830,2.96529555,-1.0306538,1.22943837,-7.7870835,-5.6179385,2.56169475
402,1747532640840,2.95284855,-1.01515615,1.7883295,-6.662963,-5.505553000000001,2.3523703
403,1747532640850,2.96956645,-1.0272369,2.11585435,-5.0392335,-6.030462,2.19897225
404,1747532640860,3.17884565,-1.0401719,1.98650395,-3.4810179000000003,-6.8384652500000005,2.17260695
405,1747532640870,3.3616445,-1.0333383,1.7489142,-2.7345338,-7.2741585,2.1736722
406,1747532640880,3.49465585,-1.00344135,1.057744125,-0.96939065,-8.6368975,2.1395837
407,1747532640890,3.56299185,-0.97964575,0.577073365,-1.1249193,-8.7530115,2.2932481
408,1747532640900,3.645239,-1.0168645,0.16876558,-1.7928400999999998,-8.609467500000001,2.55796625
409,1747532640910,3.8730665,-1.2030802500000002,0.0690682,-3.4756917,-7.69706865,2.927613
410,1747532640920,4.045005,-1.342559,0.15229172,-4.694088,-6.9226213,3.1451933
411,1747532640930,3.985943,-1.3462198,0.5153268599999999,-5.0762515,-6.21155715,3.040531
412,1747532640940,3.89576385,-1.3543957,0.9836727,-5.522330999999999,-5.3500245,2.86343085
413,1747532640950,3.8646467,-1.3589108,1.0889834,-5.586247,-5.199556,2.790993
414,1747532640960,3.5022216,-1.295944,1.9573392,-5.461078,-4.140683,1.8024274
415,1747532640970,3.1012354,-1.1348661,2.2916975,-4.968926,-3.6932719,1.2831111
416,1747532640980,2.8320403,-1.055669565,2.39969275,-4.59262135,-3.55931485,1.04688868
417,1747532640990,2.2848641,-0.907160785,2.5522285,-3.7571877,-3.3771546,0.64075658
418,1747532641000,1.53756075,-0.67750292,2.4748624,-2.3534355,-3.3358757,0.357129915
419,1747532641010,0.94779625,-0.44174362,2.2378829,-1.17818252,-3.2818135,0.257794
420,1747532641020,0.77500375,-0.30092259,2.0057845,-0.86259787,-3.0823427,0.273506655
421,1747532641030,0.670547275,-0.168887613,1.80321695,-0.80933465,-2.7166907,0.26684876
422,1747532641040,0.53521754,-0.0207448654999999,1.6706938999999998,-0.94062855,-2.20057,0.2625877
423,1747532641050,0.4219749849999999,0.1565627275,1.6467763,-1.23171205,-1.2647352,0.27909929
424,1747532641060,0.43771667,0.29091624,1.6815544,-1.4831144,-0.324905665,0.236755025
425,1747532641070,0.53436335,0.35681169,1.72853545,-1.57312925,0.320111955,0.049002165
426,1747532641080,0.6291796000000001,0.38194959,1.82139925,-1.54623135,0.96006957,-0.205596045
427,1747532641090,0.6723777,0.33509058,1.9505056,-1.2367721,1.7337179,-0.5230448
428,1747532641100,0.66151717,0.31886079,1.93574005,-0.865261085,1.97500025,-0.69828083
429,1747532641110,0.53863436,0.31605414,1.8631331,-0.1107875,2.2258701,-1.005077
430,1747532641120,0.53863436,0.31605414,1.8631331,-0.1107875,2.2258701,-1.005077
431,1747532641130,0.55742678,0.298604045,1.7872313,0.240217125,2.08152675,-1.03570335
432,1747532641140,0.78293565,0.2443013,1.61468275,0.715058745,1.8927086,-1.0692591500000002
433,1747532641150,1.1631768,0.209767195,1.46971265,0.88337055,2.0493025,-1.1353056
434,1747532641160,1.4819156,0.21513646,1.41443375,0.86499473,2.51455675,-1.23357625
435,1747532641170,1.76404585,0.19915071,1.4072341,0.7270429700000001,3.139068,-1.26952885
436,1747532641180,2.0513012,0.15729489,1.377093,0.562193305,3.88661735,-1.23570675
437,1747532641190,2.5715092,0.0647971975,1.27995825,0.225836057,4.8059407,-1.1848404
438,1747532641200,3.0920833,-0.0206228374999999,1.240421,-0.112918028,5.4525562,-1.2330436
439,1747532641210,3.3413878,-0.07614586,1.3332847499999998,-0.221575005,5.65602165,-1.40375225
440,1747532641220,3.5028316,-0.18304293,1.51120245,-0.11824435665,5.82859445,-1.6341157
441,1747532641230,3.5656762,-0.25015867,1.6239569,0.0015978967,5.9122176,-1.758219
442,1747532641240,3.8358476,-0.5108118349999999,2.1131696,1.209607765,5.93725135,-1.8495654
443,1747532641250,4.23781,-0.7739055,2.2631428,2.3848608,6.0509685,-1.8852518
444,1747532641260,4.3628892,-0.8260117499999999,2.19858965,3.2320124000000003,6.239254000000001,-1.9507656
445,1747532641270,4.6015772,-0.916923115,2.02823775,4.00353015,6.3809342,-2.07247205
446,1747532641280,4.81732385,-0.988309865,1.80309495,4.6339004,6.3473785,-2.27620385
447,1747532641290,4.950945150000001,-1.0426126,1.44384265,5.176919,6.05895805,-2.696717
448,1747532641300,4.8871243,-1.05664585,1.06555395,5.408880249999999,5.922071450000001,-3.0913975
449,1747532641310,4.6744285,-1.044809,0.8155173,5.279450649999999,6.17986535,-3.2738241
450,1747532641320,4.380095300000001,-1.0357788499999998,0.597940255,5.094361149999999,6.5942533,-3.4282874
451,1747532641330,4.0037590000000005,-1.02650475,0.38951537,4.91885885,7.0139675,-3.53800955
452,1747532641340,3.3777523,-1.03175205,0.07992875,4.69701735,7.2278192,-3.5561191
453,1747532641350,2.7628501,-1.03187405,-0.2123298149999999,4.48716015,7.1513865,-3.5073832
454,1747532641360,2.41543465,-1.0113732,-0.36681806,4.35373595,6.92581665,-3.43148305
455,1747532641370,2.2563093,-1.0003906,-0.43613032,4.19101695,6.5899921500000005,-3.28953665
456,1747532641380,1.92732005,-0.9656125,-0.62100362,4.00113345,6.179066649999999,-3.13587225
457,1747532641390,1.7454974,-0.92119405,-0.68836342,3.81923935,5.82033875,-3.03919945
458,1747532641400,1.671304,-0.9010593,-0.7053254,3.7289581,5.6576195,-3.0040457
459,1747532641410,1.3402404,-0.8704301999999999,-0.816493525,3.27409025,5.240834700000001,-2.8101675
460,1747532641420,1.0845904,-0.8581053,-0.98062205,2.98567,5.175321,-2.7121632
461,1747532641430,1.00087875,-0.8612780499999999,-1.031385975,2.6487801,5.14948835,-2.60244105
462,1747532641440,0.8166155500000001,-0.9028898,-1.16879025,2.1281321,5.15987465,-2.4578315
463,1747532641450,0.6685948500000001,-0.97854755,-1.274589,1.5600798,4.9332395,-2.3979104
464,1747532641460,0.56645685,-1.04236855,-1.3020454,1.5646072,4.72844245,-2.4096283
465,1747532641470,0.39866748,-1.1287648,-1.4076002,1.66154625,3.83575095,-2.40563345
466,1747532641480,0.200737075,-1.1966127,-1.57124055,1.768339,2.77155185,-2.34091855
467,1747532641490,0.0148874899999999,-1.21735755,-1.7190172,1.73931055,2.0738036,-2.19790685
468,1747532641500,-0.16107778,-1.2572609,-1.8643533,1.6069514,1.54303555,-1.98405505
469,1747532641510,-0.313247475,-1.2980184499999998,-1.99956105,1.40641535,1.21040675,-1.7172063
470,1747532641520,-0.51386255,-1.31192975,-2.19602715,0.98616855,0.69694928,-1.18936775
471,1747532641530,-0.68067565,-1.30961125,-2.36284025,0.511060625,0.0628505999999999,-0.60347231
472,1747532641540,-0.67774695,-1.29765235,-2.44350105,0.13901701,-0.47723848,-0.20240025335
473,1747532641550,-0.558280965,-1.2444479,-2.5191588,-0.31984564,-1.0924287,0.12516857665
474,1747532641560,-0.328623095,-1.1133892,-2.4697374,-0.872185225,-1.7478327,0.35020569
475,1747532641570,-0.1173915349999999,-0.994899375,-2.27705415,-1.7816547,-2.6767433,0.5816343850000001
476,1747532641580,-0.0097622875,-0.941572875,-2.02445485,-2.6423884500000003,-3.4780885,0.802410465
477,1747532641590,0.0981110075,-0.91399437,-1.7196274,-3.0743532,-3.8093858,0.9882991
478,1747532641600,0.189388415,-0.88299912,-1.38319445,-3.36809985,-3.9715723,1.23570675
479,1747532641610,0.24112855,-0.80148402,-1.05274095,-3.46344105,-4.0085902,1.4937671
480,1747532641620,0.310318785,-0.6446772199999999,-0.68445855,-3.15158485,-4.1790325,1.83411905
481,1747532641630,0.4318593,-0.5123982,-0.4191683,-2.64158955,-4.585164499999999,2.164351
482,1747532641640,0.5909846400000001,-0.41636168,-0.36889253,-2.23705545,-5.1422977,2.36115865
483,1747532641650,0.6823841,-0.35193056,-0.36852646,-2.0474384,-5.4664044,2.4543693
484,1747532641660,1.24810873,-0.106408959,-0.65834444,-2.263687,-7.00118415,2.59791375
485,1747532641670,1.64018665,-0.028310639,-0.8047788,-3.2005871,-7.970575,2.70097805
486,1747532641680,1.8262803,-0.1106799649999999,-0.7059356000000001,-4.27730315,-8.1644535,3.00617625
487,1747532641690,2.05947705,-0.24161667,-0.443452025,-5.804626,-7.953797,3.759851
488,1747532641700,2.4477722,-0.4106263,-0.0156196799999999,-6.221144499999999,-7.78974635,4.020308
489,1747532641710,3.05950165,-0.64662968,0.919363645,-6.789463,-6.8632326,4.3241745
490,1747532641720,3.37299315,-0.7719530800000001,1.89303,-6.55830065,-5.6538911,4.210724
491,1747532641730,3.2052038,-0.751940375,2.34563415,-5.53751115,-4.967594350000001,3.9039279
492,1747532641740,3.0878122,-0.74413055,2.5081763,-4.899684,-4.728176,3.7539918
493,1747532641750,3.0023922,-0.71557585,2.2791287,-2.49271875,-5.31274005,3.3787526
494,1747532641760,3.14296915,-0.697881735,1.47618033,-0.745951415,-6.9138327,2.8559741
495,1747532641770,3.1795778500000003,-0.67457426,0.60501793,0.139549645,-8.389223999999999,2.4865936
496,1747532641780,3.10855725,-0.68067566,0.1292283249999999,-0.0748348299999999,-8.859538,2.6623622
497,1747532641790,3.16285995,-0.7358326049999999,-0.223556445,-0.7989483399999999,-8.754342999999999,3.1441281
498,1747532641800,3.5262612,-0.87970437,-0.35473722,-2.57394525,-7.52316375,3.86264885
499,1747532641810,3.90174325,-1.0052718,-0.17254847895,-4.34095265,-5.8786619,4.23362715
500,1747532641820,3.9883835,-1.0296775,-0.0019524579,-4.8133974,-5.2725263,4.185424
501,1747532641830,3.942989,-1.1275444499999998,0.584761175,-5.4171363,-3.86637735,3.5119106
502,1747532641840,3.8944216,-1.1675699,0.7822035,-5.4461646,-3.6117792,3.2735577
503,1747532641850,3.47976825,-1.06469975,1.27312465,-4.697816,-3.7398772,2.38938825
504,1747532641860,3.1014795,-0.8900768,1.43835145,-4.0197753,-4.1454767,1.7949706
505,1747532641870,2.7733445,-0.7178943799999999,1.47154315,-3.685815,-4.26824835,1.4391723
506,1747532641880,2.42324435,-0.53680392,1.4991216,-3.47941995,-4.1681135000000005,1.1496867
507,1747532641890,2.05105705,-0.38097337,1.50766365,-3.41044415,-3.87782895,0.923317975
508,1747532641900,1.4333482000000002,-0.1830429365,1.5446383,-3.53934125,-2.8652950500000003,0.614391275
509,1747532641910,0.8245474,-0.0246497825,1.6332311,-3.67462985,-1.6037556,0.363255165
510,1747532641920,0.47188469,0.0412456739999999,1.7286575,-3.629356,-0.798149385,0.333427765
511,1747532641930,0.2281935299999999,0.09200958,1.8088303,-3.46157675,-0.15552861,0.4029362749999999
512,1747532641940,0.18389714,0.10299216,1.85166235,-3.1941955,0.295078255,0.498011145
513,1747532641950,0.2762728,0.09274176,1.8642313,-2.6330675,0.62025023,0.475107955
514,1747532641960,0.384268135,0.090545242,1.8547131,-1.9877835,0.7552724850000001,0.34221621
515,1747532641970,0.496778535,0.093840012,1.81969085,-1.51507235,0.6636597500000001,0.169377055
516,1747532641980,0.5886660850000001,0.122638765,1.73610125,-1.04076335,0.435959485,-0.1163801449999999
517,1747532641990,0.577073365,0.173280645,1.5928396500000002,-0.67883978,0.198938137,-0.468716375
518,1747532642000,0.47103049,0.19817449,1.48423415,-0.4354268599999999,0.179230742,-0.84528735
519,1747532642010,0.354859235,0.18523946,1.42163345,-0.32437303,0.389886775,-1.0673949500000002
520,1747532642020,0.29823795,0.174745,1.3830724,-0.3339604,0.5342301,-1.081776
521,1747532642030,0.287133355,0.0355103285,1.2900866,-0.5139901,1.201884615,-0.950748565
522,1747532642040,0.400009845,-0.0881046665,1.27617535,-0.68310083,1.70681995,-0.765658815
523,1747532642050,0.9999026,-0.35705575,1.458242,-0.9235843,2.9358687,-0.20080236
524,1747532642060,1.17257305,-0.393298265,1.5116905,-0.8641958000000001,3.06796155,-0.147805447
525,1747532642070,1.5376827,-0.45431259,1.6151708,-0.7004113750000001,3.25784505,-0.080161152
526,1747532642080,1.9138969500000005,-0.4766438,1.7107193,-0.445280535,3.32868515,-0.09667275
527,1747532642090,2.46388,-0.4565090699999999,1.7979698,0.08149274,3.3997914500000004,-0.37550573
528,1747532642100,2.9263685,-0.44589259,1.86960055,0.67857345,3.5148400000000004,-0.784833615
529,1747532642110,3.10465225,-0.49214144,1.9242693,1.1438277,3.67303185,-1.05940555
530,1747532642120,3.1866555,-0.53131264,1.9490411,1.3880396,3.774232,-1.1723236
531,1747532642130,3.4187541,-0.70703387,1.90108395,2.1435784,4.34042,-1.33051535
532,1747532642140,3.7484754,-0.864572795,1.77026925,2.6684874,4.955610200000001,-1.29003525
533,1747532642150,4.1591016,-0.991482525,1.5789284,2.9451898,5.6000952,-1.1922972
534,1747532642160,4.48320975,-1.0581102,1.43102975,2.9238845,6.10875885,-1.1813783
535,1747532642170,4.6390405,-1.0838583,1.3618395,2.8852687,6.3596287,-1.1968247
536,1747532642180,4.80865975,-1.0799533,1.35732435,2.8226845000000003,6.87361875,-1.4540860000000002
537,1747532642190,4.6965155,-1.1220531500000002,1.5252358,3.2178976,7.021158,-1.69536835
538,1747532642200,4.52286885,-1.1831895,1.66227395,4.0115196,6.965498,-1.93478655
539,1747532642210,4.3344567000000005,-1.1927077499999998,1.620052,4.8099355,6.76735875,-2.1156152500000003
540,1747532642220,4.2278037,-1.193684,1.560502,5.182512,6.653109,-2.2024343
541,1747532642230,3.9459175,-1.210402,1.1997854,5.7758636,6.427806,-2.394182
542,1747532642240,3.7471328,-1.1939281,0.935837525,6.2933161,6.31808365,-2.6706179
543,1747532642250,3.43730225,-1.1524383,0.43942508,6.408098300000001,6.44298585,-2.9846046
544,1747532642260,3.09867285,-1.10814195,-0.07516963,6.2634885,6.59478585,-3.2983251
545,1747532642270,2.8393620000000004,-1.0960611,-0.343998695,5.931925,6.6392607,-3.45571795
546,1747532642280,2.3245232,-1.10435905,-0.57719539,5.39263515,6.46002985,-3.4650389
547,1747532642290,1.84629295,-1.09569505,-0.74339838,4.9010155,6.13246115,-3.3388050500000004
548,1747532642300,1.6861914,-1.0860547500000002,-0.853712275,4.5638592,5.86534625,-3.2032503
549,1747532642310,1.5583055,-1.0982576000000002,-0.988309825,4.130296550000001,5.68105525,-3.0826091
550,1747532642320,1.3054622500000002,-1.12681235,-1.10985035,3.6543897,5.6610815,-2.95823945
551,1747532642330,1.056523825,-1.1841658000000002,-1.163665,3.0652984,5.8285945,-2.7289413500000004
552,1747532642340,0.940962705,-1.26629105,-1.16805795,2.6591663,5.956958800000001,-2.49804525
553,1747532642350,0.8222288799999999,-1.34011835,-1.1995413,2.6320021,5.8245998,-2.36142505
554,1747532642360,0.7069118,-1.402475,-1.274833,2.7385286,5.356416,-2.2240059
555,1747532642370,0.6557818,-1.4367651,-1.3242546,2.8186898,5.017928,-2.1518342
556,1747532642380,0.407087485,-1.53707255,-1.71999345,2.9654299,3.43308105,-2.000833
557,1747532642390,0.2413726199999999,-1.5378047,-1.91719165,2.8546424000000004,2.93373825,-1.9134813
558,1747532642400,0.05064188,-1.53194735,-2.16283535,2.56702105,2.5382588,-1.7598169
559,1747532642410,-0.14533609,-1.5138871,-2.36833155,2.1070931,2.2058964000000003,-1.5337145
560,1747532642420,-0.312881385,-1.47605825,-2.48035375,1.54250285,1.89723605,-1.24476155
561,1747532642430,-0.4999512699999999,-1.4191929,-2.4631478,0.594950157,1.358478465,-0.63969133
562,1747532642440,-0.6086787899999999,-1.3540296,-2.34294965,-0.283892993,0.739293515,0.0181095
563,1747532642450,-0.5652366,-1.28728,-2.21762625,-0.70946615,0.226901325,0.4042678799999999
564,1747532642460,-0.46566123,-1.1427981,-1.98748025,-1.1941615,-0.6769755749999999,0.8724516
565,1747532642470,-0.409284,-1.0355349,-1.8148097,-1.4828482,-1.2985574,1.1653993
566,1747532642480,-0.33826336,-0.9188756,-1.5382929,-1.6330504,-1.8226675,1.490305
567,1747532642490,-0.24112856,-0.81246656,-1.2639725,-1.6623452,-2.167813,1.7976338
568,1747532642500,-0.18304294,-0.6919023,-1.0448091,-1.5867114,-2.3292007,2.076733
569,1747532642510,-0.3530288299999999,-0.342412325,-0.826499885,-1.21866255,-2.9324067,2.7249465
570,1747532642520,-0.488968715,-0.1236149974999999,-0.832967405,-1.0362360000000002,-3.7886131,3.36809995
571,1747532642530,-0.33765321,-0.1277639625,-0.89788662,-1.2141352,-4.64508575,3.9318911
572,1747532642540,0.074193395,-0.14631231,-0.928637815,-1.66234525,-5.425924500000001,4.4352286
573,1747532642550,0.61941728,-0.1190999349999999,-0.888002265,-2.39125235,-5.8919778,4.75214485
574,1747532642560,1.22907235,-0.146068255,-0.590984615,-3.8354847,-5.7268618,4.91859225
575,1747532642570,1.63872245,-0.262971665,-0.09579248,-5.17212535,-5.15028725,5.00194905
576,1747532642580,1.76795075,-0.396959095,0.4308830549999999,-5.54896265,-4.58729505,5.0653323
577,1747532642590,1.8148097,-0.47554554,0.96890727,-5.3473615,-4.27836845,5.155613499999999
578,1747532642600,1.8157859,-0.45846155,1.4028410999999998,-4.0839578,-4.76652565,5.3990265
579,1747532642610,1.8678922,-0.4250256999999999,1.5115686,-2.5853969,-5.6738645000000005,5.7963702
580,1747532642620,2.041905,-0.4355201549999999,1.25396615,-1.8101507,-6.33645915,6.212622400000001
581,1747532642630,2.4103094,-0.451627935,0.84346185,-1.4764566,-6.76389665,6.52980495
582,1747532642640,2.9449168500000003,-0.428930605,0.360106465,-1.69590105,-6.9146315000000005,6.52261425
583,1747532642650,3.41314055,-0.440645365,-0.040513495,-3.2162995500000005,-6.3396550000000005,5.88798285
584,1747532642660,3.56592035,-0.565480635,0.059672005,-4.83576785,-5.477856,5.13723785
585,1747532642670,3.44926105,-0.71093875,0.558158945,-5.2645371,-5.0051448,4.71805625
586,1747532642680,3.3601801,-0.76926845,0.81734776,-5.3321815,-4.8288436,4.5263085
587,1747532642690,3.13491535,-0.82881844,1.3126618,-4.606469499999999,-4.797152,4.0504018
588,1747532642700,3.0431497,-0.94767432,1.29106275,-4.0512006,-4.809136349999999,3.8594531
589,1747532642710,3.0281402,-1.07385185,1.2008836,-3.9784963,-4.6586678,3.76544355
590,1747532642720,3.0208186,-1.05066645,1.2601896,-4.3955474,-4.24880715,3.66850445
591,1747532642730,3.0123987000000003,-1.0195492000000002,1.4060139,-5.02937985,-3.44213565,3.4378747
592,1747532642740,2.855958,-1.1024066,2.0722902,-5.42938665,-2.60750105,3.0389332
593,1747532642750,2.5308738,-0.993068925,2.4748626,-4.80381015,-2.227468,2.32866815
594,1747532642760,2.0992585,-0.780739125,2.87755695,-3.66424345,-2.2090922500000003,1.6655410000000002
595,1747532642770,1.9097479,-0.56548066,2.84326685,-2.7116307,-2.25649645,1.2847089
596,1747532642780,1.7049839,-0.330697575,2.7939674,-1.72892425,-2.1981732,0.8751146999999999
597,1747532642790,1.27019597,-0.11336459,2.6165378500000003,0.1190432999999999,-2.4578314,0.264718195
598,1747532642800,0.8781179699999999,0.0090301189999999,2.1937086,1.76993685,-2.798716,-0.2186455299999999
599,1747532642810,0.6971495,0.0970127539999999,1.6654466499999998,2.1915152,-2.5909895,-0.4029362749999999
600,1747532642820,0.502391825,0.18890031,1.1925857,2.15396465,-2.0090888,-0.505468
601,1747532642830,0.33387031,0.21599066,0.85407828,1.7488979,-1.3118732,-0.47137955
602,1747532642840,0.1408210329999999,0.203787795,0.6272271300000001,1.18057935,-0.5637912150000001,-0.31957935
603,1747532642850,-0.0026846294999999,0.20451998,0.5907406,0.4471447675,0.433029985,0.0527305799999999
604,1747532642860,-0.0362425025,0.216722845,0.7104506500000001,-0.0340884625,1.1840414,0.42450788
605,1747532642870,0.0037828859999999,0.22221413,0.83016073,-0.0458063715,1.3419669,0.5824333500000001
606,1747532642880,0.115927191,0.23209845,0.937545895,0.0990695935,1.2357068,0.6311692
607,1747532642890,0.4379607299999999,0.26699864,1.078855065,1.077515,-0.1107875,0.05219796
608,1747532642900,0.7837898649999999,0.29591942,1.21015785,1.3528858499999998,-0.36938045,-0.18855182
609,1747532642910,0.936325615,0.2746864249999999,1.30595025,1.9534287,-0.8495484,-0.6562029
610,1747532642920,1.0003906,0.25137895,1.3611072,2.2786007,-1.0711234,-0.8831042
611,1747532642930,1.23578385,0.0294088999999999,1.4228538,3.3944652,-1.5289208,-1.3337111
612,1747532642940,1.45909625,-0.21086546,1.2806904,4.304201,-1.73957685,-1.6162725
613,1747532642950,1.7053500499999998,-0.38573249,0.977571285,4.70580565,-1.6791231,-1.8389128
614,1747532642960,2.04190505,-0.46358674,0.68348232,4.10686075,-1.08497185,-1.96168455
615,1747532642970,2.3665011,-0.478596255,0.600014735,3.151585,-0.2756371649999999,-2.1046963
616,1747532642980,2.57004475,-0.46053603,0.6987359,2.2548986,0.302801435,-2.2117553
617,1747532642990,3.01703575,-0.493117665,0.8108801999999999,0.862331575,1.4498249,-2.5012408500000003
618,1747532643000,3.45292215,-0.5779275500000001,1.1155856,-0.3669836,2.8889972,-2.92654775
619,1747532643010,3.48379525,-0.6772588500000001,1.6810663,-0.555535405,3.7212351,-3.1947281
620,1747532643020,3.4714702,-0.8545664500000001,2.18858335,-0.154197025,4.2320294,-3.35025665
621,1747532643030,3.5215019,-1.0654319,2.52587045,0.7337009050000001,4.4818339,-3.4495926
622,1747532643040,3.6396257,-1.3514669499999998,2.5281891,2.4964473,4.5340318,-3.5771581
623,1747532643050,3.7350523,-1.59650045,2.2488655,3.99367645,4.5462823,-3.6711677
624,1747532643060,3.7963104,-1.7389079,1.7738081,4.39501475,4.6906257,-3.6932719
625,1747532643070,3.80228985,-1.7595307,1.64470175,4.52497695,4.9697252,-3.7143108
626,1747532643080,3.74896335,-1.77502835,1.4194369,4.49115485,5.337774,-3.7337519
627,1747532643090,3.50856705,-1.7257288,1.1888029,4.3944823,5.9247345,-3.74200775
628,1747532643100,3.22631485,-1.6528777,0.97256817,4.34281705,6.41608785,-3.7547909
629,1747532643110,3.02460145,-1.59247355,0.8001416699999999,4.36225795,6.54738185,-3.79953205
630,1747532643120,2.6226392,-1.4925321,0.5533998,4.4408212,6.49039,-3.8490668
631,1747532643130,2.18162775,-1.40064455,0.33069757,4.5244445,6.3553675,-3.82136985
632,1747532643140,1.9414754,-1.3447554,0.19121885,4.53776015,6.22354115,-3.7031255
633,1747532643150,1.7658762,-1.270562,0.016229805,4.5295043,6.1460433,-3.6288233
634,1747532643160,1.67447675,-1.2011277,-0.15668475,4.36572015,5.92393565,-3.4818169
635,1747532643170,1.57880635,-1.1141213,-0.297139695,3.91165125,5.58038785,-3.34013675
636,1747532643180,1.44213435,-1.0415143,-0.357299805,3.48874105,5.48611185,-3.3513219000000003
637,1747532643190,1.31266195,-1.04517515,-0.338019285,3.2240229,5.5731973,-3.3148366
638,1747532643200,1.1651292999999998,-1.07580435,-0.33228393,3.0210901000000003,5.6618808000000005,-3.1870049
639,1747532643210,1.01967117,-1.09459675,-0.3784107399999999,2.8866004,5.709285,-2.9779467
640,1747532643220,0.89129707,-1.1148535,-0.50007331,2.6945865,5.643238500000001,-2.6708842
641,1747532643230,0.79050145,-1.14060155,-0.6290576,2.5377263,5.515673,-2.42827035
642,1747532643240,0.7102066,-1.1744035,-0.71813845,2.49751245,5.4360445,-2.2935144000000003
643,1747532643250,0.6723777,-1.197833,-0.7577977,2.4857945,5.399293,-2.2178805
644,1747532643260,0.5282619000000001,-1.2564067,-1.023454075,2.3896545,5.172924,-1.88951285
645,1747532643270,0.42563585,-1.26006755,-1.26202005,2.3457124,5.065865,-1.7752632
646,1747532643280,0.3294773,-1.25152555,-1.43249405,1.90815505,4.27384115,-1.28976895
647,1747532643290,0.2672427,-1.2473766,-1.5148634,1.6431705,3.9095206,-1.0881677
648,1747532643300,0.12385905,-1.21345255,-1.6975402,1.1350393,3.6115128,-0.7640609199999999
649,1747532643310,-0.0399033649999999,-1.1303511,-1.8481235,0.59787967,3.335343,-0.3944141599999999
650,1747532643320,-0.1513155,-1.0665302,-1.9412313,0.23861924,3.1388018,-0.13582122
651,1747532643330,-0.19426957,-1.018939,-1.9990729,-0.14594123,2.8405278,0.15126756
652,1747532643340,-0.26638848,-0.903499935,-2.0176213,-0.7512777749999999,2.2066954,0.5973470350000001
653,1747532643350,-0.30629183,-0.826255785,-2.0095674,-1.14382775,1.73824525,0.903610565
654,1747532643360,-0.39744721,-0.65590383,-1.91865605,-1.53078505,0.985369575,1.26686575
655,1747532643370,-0.46785772,-0.52301466,-1.8357986,-1.7502295,0.44048685,1.4956313
656,1747532643380,-0.543149385,-0.40403676,-1.7359792,-1.8069548,-0.4165184249999999,1.7686052500000002
657,1747532643390,-0.640284175,-0.24283696,-1.59491415,-1.8953717,-1.7225327,2.19790685
658,1747532643400,-0.6045298,-0.1471665225,-1.5000979499999998,-1.99683815,-2.57367895,2.53692735
659,1747532643410,-0.4404013,-0.1039683895,-1.415166,-2.49857775,-3.7385456,3.2152345
660,1747532643420,-0.190242617,-0.1299604869999999,-1.3079028,-3.23254505,-4.7518785,3.90446065
661,1747532643430,0.072607033,-0.1658369,-1.1244938,-3.8360173,-5.18730525,4.2818305500000005
662,1747532643440,0.313613565,-0.21489241,-0.88116872,-4.3809000000000005,-5.48717725,4.6301720500000005
663,1747532643450,0.7208231150000001,-0.34509695,-0.3817055385,-4.7518783,-5.51807,5.00993875
664,1747532643460,1.14157785,-0.457241235,0.1319129315,-4.715393049999999,-5.39529815,5.2690642
665,1747532643470,1.2769076,-0.46810177,0.2818861,-4.5513425,-5.3566823,5.3130064
666,1747532643480,1.6816765,-0.449919535,0.450407655,-3.73588255,-5.9484368,5.31726765
667,1747532643490,2.0193298,-0.37365165,0.42954078,-3.07461955,-6.89092945,5.30874535
668,1747532643500,2.4100654,-0.389393345,0.37706846,-2.58433165,-8.05126865,5.4456317
669,1747532643510,3.0016601,-0.43686247,0.37963106,-2.5814021,-9.09869,5.9521652
670,1747532643520,3.3854401,-0.47481337,0.5640163149999999,-2.7931234,-9.3484945,6.4264742
671,1747532643530,3.7411536,-0.43613032,0.7926979249999999,-2.91243305,-8.46459135,6.42168045
672,1747532643540,3.76519325,-0.40049795,1.03675515,-3.02508475,-7.0291476500000005,5.96787775
673,1747532643550,3.4527998,-0.4497974999999999,1.28447325,-3.030411,-4.940963050000001,5.4368433
674,1747532643560,3.12405465,-0.5171573,1.42187745,-2.7028422,-3.41656945,5.1260526
675,1747532643570,2.963221,-0.567799175,1.3369456,-2.05489515,-3.3619746,4.76119945
676,1747532643580,3.01654765,-0.564870505,1.02186775,-1.42931855,-4.03175965,4.21684915
677,1747532643590,2.8749944,-0.4713965799999999,0.610753275,-0.92944325,-5.5564194,3.2312133
678,1747532643600,2.391761,-0.4097721,0.40611124,-0.5765744150000001,-6.8440578,2.45170605
679,1747532643610,2.26704775,-0.43381174,0.39073564,-0.44341633,-7.09173165,2.38193125
680,1747532643620,2.0779034000000003,-0.45919369,0.32947728,-0.40053943,-7.094661,2.422944
681,1747532643630,2.0134723,-0.460536,0.28359452,-0.46818373,-6.7196884,2.6530411
682,1747532643640,2.0021236,-0.4199004899999999,0.1581491,-0.9012137,-5.74310685,3.00963845
683,1747532643650,2.0441014,-0.37560409,0.200126935,-1.74064215,-4.5942192,3.1904671
684,1747532643660,2.05557205,-0.330819605,0.379264935,-2.6525085,-3.50525275,3.24905655
685,1747532643670,2.01627885,-0.30299708,0.611119325,-3.1396006,-2.90071515,3.16197125
686,1747532643680,1.96283035,-0.25857865,0.9104555,-3.47382735,-2.3702134,2.9702237
687,1747532643690,1.7884514500000002,-0.15631867,1.42431805,-3.5334822,-1.8865833,2.4828652
688,1747532643700,1.59381575,-0.052716367,1.95123765,-3.23227875,-1.5837819,1.90655715
689,1747532643710,1.47618025,0.0229413809999999,2.28535195,-2.6069685500000004,-1.48311445,1.4788534
690,1747532643720,1.34682995,0.113974733,2.6370384500000004,-1.5361114,-1.47326075,1.0215885999999998
691,1747532643730,1.21918795,0.16303024,2.8303318,-0.20373183,-1.57685775,0.60666811
692,1747532643740,1.10850805,0.1615658999999999,2.78200855,1.07405292,-1.7150758000000002,0.28016455
693,1747532643750,0.97940175,0.1624201,2.4040859,2.49325145,-1.695901,-0.14407701
694,1747532643760,0.8419975,0.169619785,1.89193175,3.37848615,-1.44236805,-0.477504775
695,1747532643770,0.79916545,0.174256875,1.5457366,3.4123083000000003,-1.0583402,-0.57790595
696,1747532643780,0.8549325000000001,0.17791774,1.2849614,3.1886028,-0.57257963,-0.641022875
697,1747532643790,1.1968567,0.200371,1.2351737,2.4639566,0.8772453,-0.9651296
698,1747532643800,1.2764194,0.151193465,1.2858156,2.5028388,1.06792765,-1.04529075
699,1747532643810,1.4545812,0.0440523335,1.35647015,2.645318,1.34676065,-1.2098741
700,1747532643820,1.6335971,-0.0611363415,1.38441465,2.88739935,1.4405039,-1.37499005
701,1747532643830,1.79394275,-0.163884445,1.38490285,3.16410175,1.4133396,-1.5377092
702,1747532643840,2.1114613,-0.36303516,1.36501225,3.51510635,1.1126687,-1.92493285
703,1747532643850,2.349051,-0.50666285,1.3525653,3.7278929,0.8447547,-2.2301311
704,1747532643860,2.7041545,-0.8217408,1.3935668,4.162521,0.48203218,-2.7814054
705,1747532643870,2.77810375,-0.8755554000000001,1.40637985,4.260525299999999,0.5062669399999999,-2.861034
706,1747532643880,2.997023,-1.0084445,1.4107729,4.4890243000000005,1.030377,-3.00670895
707,1747532643890,3.24071415,-1.1373067,1.3590328,4.6149918,1.88791495,-3.06876065
708,1747532643900,3.4595115,-1.22943835,1.24762065,4.5747783,2.6535738,-3.0658312
709,1747532643910,3.712965,-1.3213259,1.1025286,4.4781055,3.4530547,-3.1015174
710,1747532643920,3.93676565,-1.3938109,0.95499605,4.417119,3.8445394,-3.1361384
711,1747532643930,4.00436935,-1.47654635,0.8066092199999999,4.28928735,4.4583981,-3.5736959500000003
712,1747532643940,3.91504415,-1.5351201,0.72643637,4.227502100000001,4.563060350000001,-3.86930685
713,1747532643950,3.7810568,-1.5456145499999998,0.72546015,4.1571946,4.639226750000001,-3.958789
714,1747532643960,3.6471915,-1.54488235,0.7043492499999999,4.05253235,4.8698564,-4.02270495
715,1747532643970,3.406185,-1.46800435,0.5809783199999999,3.80645625,5.32738765,-4.0938113000000005
716,1747532643980,3.1332069,-1.3723339499999998,0.45089577,3.51750325,5.72632915,-4.1699777000000005
717,1747532643990,2.8853668,-1.29606605,0.383780015,3.3316146,5.8866513000000005,-4.2205777
718,1747532644000,2.6338658500000003,-1.21406275,0.30800025,3.1550471,5.96920945,-4.2405515000000005
719,1747532644010,2.43447105,-1.1501197,0.25979894,2.97901215,5.950300950000001,-4.24268225
720,1747532644020,2.3370922,-1.1231514,0.24942651,2.8932583,5.9170113,-4.2429485
721,1747532644030,1.9152393,-1.003685465,0.276394835,2.8647625,5.7289922,-4.2589273
722,1747532644040,1.7710015,-0.976473065,0.25320938,3.0027142,5.691708,-4.2477423000000005
723,1747532644050,1.705228,-0.9684192,0.22209209,3.0770164,5.681588,-4.239753
724,1747532644060,1.49887755,-0.93522735,-0.0009762249999999,3.1755533,5.6762617,-4.1513357
725,1747532644070,1.33267455,-0.910333525,-0.25394158,3.0341394,5.7071543,-3.9880838
726,1747532644080,1.1541467,-0.908503125,-0.4799386,2.76649175,5.72845955,-3.76144875
727,1747532644090,0.986357375,-0.90862515,-0.562674,2.53852515,5.68797945,-3.51430745
728,1747532644100,0.851881825,-0.8870260999999999,-0.62478655,2.3398533500000003,5.6565542,-3.19739135
729,1747532644110,0.802338175,-0.9438915,-0.74168995,2.2066953500000004,5.6685385,-2.8690236
730,1747532644120,0.756455425,-1.05627985,-0.92534305,2.192048,5.71807335,-2.69538545
731,1747532644130,0.64614155,-1.1357204,-1.1160738,2.23971855,5.67599535,-2.6317358
732,1747532644140,0.5184996,-1.198321,-1.32535285,2.23812055,5.3737265,-2.514823
733,1747532644150,0.460536,-1.2266316,-1.4399377,2.21575,5.144162,-2.4405208
734,1747532644160,0.179015994,-1.2399328500000002,-1.752331,1.85862015,3.7483993,-2.06794465
735,1747532644170,-0.032581646,-1.22711985,-1.9137749,1.4191986,2.6458507,-1.69616735
736,1747532644180,-0.16400647,-1.1911214,-1.93830265,1.056209735,2.04051415,-1.3837786
737,1747532644190,-0.26333777,-1.12815465,-1.92134065,0.7427556500000001,1.62825675,-1.080977165
738,1747532644200,-0.32410802,-1.05017835,-1.8704548,0.25672874,1.2642026,-0.6530071150000001
739,1747532644210,-0.45223808,-0.9093573,-1.778201,-0.34940675,0.94488955,-0.09054748
740,1747532644220,-0.5494948900000001,-0.85114965,-1.73378265,-0.465786875,0.8380968,0.0878843199999999
741,1747532644230,-0.729975225,-0.751574285,-1.65385395,-0.6807039850000001,0.570449115,0.49268481
742,1747532644240,-0.853224125,-0.671157435,-1.5889347,-0.872984235,0.1653823049999999,0.9781791
743,1747532644250,-0.8605458500000001,-0.54363753,-1.49009155,-1.07804765,-0.492418485,1.5433019
744,1747532644260,-0.76158065,-0.4294187299999999,-1.39259065,-1.4042849,-1.8639465,2.2357238
745,1747532644270,-0.57695133,-0.3961049199999999,-1.31339405,-1.7694043000000002,-3.3710294,2.7654265
746,1747532644280,-0.332283935,-0.402206335,-1.20088365,-2.1062941,-4.319381099999999,3.03440575
747,1747532644290,-0.20598431,-0.41587353,-1.1395032,-2.2929816,-4.718589,3.160107
748,1747532644300,0.093717985,-0.45980385,-0.7246059,-2.755839,-5.185175,3.4157705
749,1747532644310,0.287743485,-0.57573105,-0.32435207,-3.8935415,-5.3931675,4.651211
750,1747532644320,0.5264314999999999,-0.63967405,-0.03233758,-4.19927235,-5.3622748,5.320463500000001
751,1747532644330,0.8828771,-0.6882414299999999,0.280421775,-4.32177785,-5.30768,5.92074
752,1747532644340,1.26104375,-0.72521608,0.5763411700000001,-4.1966093,-5.3500245,6.31089315
753,1747532644350,1.7446432,-0.75450297,0.7862304,-3.68261925,-5.85309585,6.48533015
754,1747532644360,2.22860875,-0.75608937,0.870186115,-3.09006585,-6.49678155,6.4424532
755,1747532644370,2.54978815,-0.67921133,0.867501495,-2.6871295,-6.854177699999999,6.1772022
756,1747532644380,2.72270265,-0.607702555,0.86323048,-2.3467776,-6.9702915,5.91354915
757,1747532644390,2.7651685500000003,-0.611363425,0.814419015,-2.1334584000000003,-6.8360683,5.82486615
758,1747532644400,2.7817645,-0.6240544,0.76463133,-2.0999025,-6.558034449999999,5.92233785
759,1747532644410,2.7817645,-0.6240544,0.76463133,-2.1358552,-6.3937173,6.0091567
760,1747532644420,3.035828,-0.8190561,0.7804951,-2.9593046,-5.3087454,6.388391
761,1747532644430,3.0751213,-0.834065685,1.2540882,-3.00830685,-4.5329666,6.0927801
762,1747532644440,2.97066485,-0.684824635,1.6684974,-1.92519922,-4.514591,5.3119411
763,1747532644450,2.78615755,-0.4379607199999999,1.8471473,-0.354200435,-4.91672825,4.4107275
764,1747532644460,2.6282525000000003,-0.22282427,1.65422,0.825846285,-5.354551750000001,3.8477353
765,1747532644470,2.4838927,-0.0802948365,1.25994555,1.6247946,-5.65469,3.4088463
766,1747532644480,2.34026505,-0.02745644,0.7820814700000001,1.6567525,-5.603024749999999,3.1265512
767,1747532644490,2.23068325,0.0622345964999999,0.49470404,0.5605954,-4.6592005,2.90657415
768,1747532644500,2.15990655,0.16315227,0.49470404,-0.7906925499999999,-3.30125465,2.6999128
769,1747532644510,2.07814745,0.17987019,0.69714952,-1.63731145,-2.22640275,2.49964295
770,1747532644520,1.97735185,0.21745499,1.0221118,-2.24584375,-1.26952892,2.28339435
771,1747532644530,1.8649635,0.247962145,1.39844805,-2.49138725,-0.541154335,2.0122846
772,1747532644540,1.64933895,0.292624635,1.83909335,-1.2681973,0.06657903,1.1669972
773,1747532644550,1.462269,0.37084499,2.0908384,-0.6617955249999999,-0.09773802,0.8897621499999999
774,1747532644560,1.35793445,0.43112712,2.0530095,0.45939529,-0.466053205,0.376571005
775,1747532644570,1.2101578000000002,0.50068344,1.90193805,1.420530165,-0.87298422,-0.0708400849999999
776,1747532644580,1.04480907,0.5388784200000001,1.6525115499999998,2.1784658,-1.1845740500000002,-0.46125949
777,1747532644590,0.75852992,0.46663746,1.24688845,2.6900591,-1.1970909,-0.8295746500000001
778,1747532644600,0.477620025,0.33240597,0.95902297,2.8714204,-0.9672601,-1.0120012
779,1747532644610,0.3241080349999999,0.22904773,0.93852212,2.8282771,-0.707069275,-0.940362185
780,1747532644620,0.223556445,0.109825759,0.9906283,2.8053739,-0.470580575,-0.776577785
781,1747532644630,0.191951035,-0.061868511,1.1021625,2.87301825,-0.1856223225,-0.5347627500000001
782,1747532644640,0.386586675,-0.30250896,1.2781278,3.23147975,0.3043993275,-0.2167813065
783,1747532644650,0.829184525,-0.521672355,1.37672695,3.66450965,0.669518715,-0.0977380115
784,1747532644660,1.32022765,-0.672011615,1.3558601,3.92656475,0.677508215,-0.295877195
785,1747532644670,1.565139,-0.7409578,1.3459758,4.048005,0.6354303,-0.43782368
786,1747532644680,2.1528291,-0.81661555,1.3820962,4.348143200000001,0.26471821,-1.06020445
787,1747532644690,2.55796415,-0.8570070299999999,1.52877465,4.4562677,0.110521185,-1.7568874499999998
788,1747532644700,2.885855,-0.91460455,1.75818845,4.5518752,0.30146985,-2.4887241
789,1747532644710,3.06023385,-1.02638275,1.94037715,4.694354150000001,0.77844205,-2.9089709
790,1747532644720,3.2163085,-1.16964435,2.05484,4.8663943,1.33078165,-3.1609059000000004
791,1747532644730,3.40057175,-1.2758093,2.0477623,4.9556103,1.6250609,-3.2543828
792,1747532644740,3.84255945,-1.31412635,1.7690489500000002,4.8592037,2.8730183,-3.41443885
793,1747532644750,4.208645300000001,-1.28776815,1.4399378,4.37397595,3.92070585,-3.6043222
794,1747532644760,4.2199938,-1.266169,1.32413265,3.82642995,4.8429585,-3.8024614
795,1747532644770,4.04939795,-1.3295018,1.274223,3.10391425,6.159625500000001,-3.997937700000001
796,1747532644780,3.77922665,-1.40467145,1.30485215,2.6202842,7.12875,-4.097806350000001
797,1747532644790,3.5268714,-1.4300534,1.3709916,2.629339,7.27975115,-4.05439665
798,1747532644800,3.3070979,-1.45750985,1.3763608500000002,2.7385286,7.193198150000001,-3.92763005
799,1747532644810,3.11392655,-1.4608047,1.3543957,2.8716867,7.015299000000001,-3.7609161
800,1747532644820,2.8962275,-1.43237205,1.2854495,3.2045818500000003,7.0661655,-3.6176381
801,1747532644830,2.71123205,-1.42724675,1.15317045,3.62855705,7.3119753,-3.55425485
802,1747532644840,2.59420655,-1.44286635,0.98123215,3.93535315,7.4328828,-3.5321506
803,1747532644850,2.47291005,-1.44213425,0.774881735,4.18116285,7.37669,-3.50152435
804,1747532644860,2.24227595,-1.4313958,0.461634265,4.4373591,7.0030485,-3.52229705
805,1747532644870,1.95807135,-1.40137675,0.1524137549999999,4.6179216,6.491189,-3.53827595
806,1747532644880,1.72450855,-1.3679409,-0.0287987569999999,4.614459549999999,6.046441,-3.4613105
807,1747532644890,1.5082738,-1.33743375,-0.178527882,4.5156562000000005,5.585713999999999,-3.31749975
808,1747532644900,1.33255255,-1.28618175,-0.335212625,4.327370500000001,5.19076725,-3.1369375
809,1747532644910,1.22187255,-1.201982,-0.5602334250000001,4.03016165,4.9127332500000005,-2.9630331
810,1747532644920,1.1565872,-1.14865545,-0.760238335,3.29992295,4.844822499999999,-2.7515781
811,1747532644930,1.0822718,-1.1497537000000002,-0.84883112,2.34517975,4.96253435,-2.4908546
812,1747532644940,0.86664724,-1.1609803,-0.86274236,1.3608754,5.204882,-2.0602214
813,1747532644950,0.75730962,-1.1609803,-0.81344278,1.110271915,5.27865165,-1.88578435
814,1747532644960,0.59013045,-1.177088,-0.70459324,0.1736381,5.3321815,-1.0231866
815,1747532644970,0.55327779,-1.172695,-0.66261539,0.130761207,5.22565475,-0.89242535
816,1747532644980,0.492751565,-1.1547568,-0.6009909550000001,0.137685427,4.9723880000000005,-0.6647250499999999
817,1747532644990,0.4139211,-1.0965492,-0.5972081,0.4000068,4.5135255,-0.4346279
818,1747532645000,0.36681805,-1.0751942,-0.6418705650000001,0.5065332499999999,4.34707775,-0.36884782
819,1747532645010,0.15546446,-1.0084445,-0.9930689,0.6516755249999999,3.77263395,-0.1062601299999999
820,1747532645020,0.15546446,-1.0084445,-0.9930689,0.61146179,3.25171985,0.20346551
821,1747532645030,0.027944552,-0.93583753,-1.1950263,0.404267865,3.072489,0.44101947
822,1747532645040,-0.101283758,-0.88324318,-1.29692015,0.09880328,2.9395972500000003,0.6996124
823,1747532645050,-0.295675345,-0.81197845,-1.39283465,-0.29055087,2.7651602,0.98297275
824,1747532645060,-0.444184165,-0.7577977499999999,-1.43334815,-0.9853696,2.43865665,1.44689545
825,1747532645070,-0.5132524,-0.7264364,-1.3875874,-1.69803155,2.1230721,1.9025623
826,1747532645080,-0.61453618,-0.67591655,-1.2954558500000002,-2.15503,1.8892465,2.2120216
827,1747532645090,-0.7607264300000001,-0.6088008,-1.1469471,-2.4996431,1.608283,2.51642095
828,1747532645100,-0.96451425,-0.49738865,-0.8617661999999999,-2.5830001,1.0689929,3.00084995
829,1747532645110,-1.1130231,-0.40623328,-0.57914785,-2.40829665,0.42317632,3.5491948
830,1747532645120,-1.15219425,-0.37804468,-0.44430622,-2.1028320000000003,-0.136353855,3.97077335
831,1747532645130,-1.0860548,-0.3636453,-0.39842345,-1.8021611,-0.798948325,4.393683449999999
832,1747532645140,-0.78806084,-0.33875147,-0.4412555,-1.60934825,-1.4780544,4.75906895
833,1747532645150,-0.656025855,-0.303851285,-0.38133945,-1.74064215,-2.21335325,5.33111595
834,1747532645160,-0.451017765,-0.25113491,-0.247962165,-2.11348475,-2.67754225,5.9761337
835,1747532645170,-0.2661444149999999,-0.24735201,-0.0859081501,-2.51961685,-2.73746335,6.444850000000001
836,1747532645180,-0.0422219,-0.292746665,0.1299604799,-2.93107525,-2.6676886,6.8754832
837,1747532645190,0.06980037,-0.32410803,0.25723633,-3.1206923,-2.5923212,7.0744214
838,1747532645200,0.58012405,-0.5253332,1.036877215,-3.2104408,-2.46235885,7.8864192
839,1747532645210,0.8164934699999999,-0.6373555,1.3182752,-2.7936561500000003,-2.727077,8.1551325
840,1747532645220,1.12180917,-0.7580418,1.4592182500000002,-2.2058964,-3.2501218,8.42278
841,1747532645230,1.61309645,-0.85029545,1.44506295,-1.597364,-3.9156459,8.539959
842,1747532645240,1.9187781,-0.8742131,1.3901501,-1.3049489,-4.261058,8.530638
843,1747532645250,2.8104411,-0.8701861200000001,1.45177455,-0.707868225,-4.83124065,7.4520575
844,1747532645260,2.8245965,-0.814052965,1.6770394,-0.354999385,-4.4165864,7.00970635
845,1747532645270,2.7861576,-0.77756643,1.7803977,-0.12676647,-4.1252365,6.8070397
846,1747532645280,2.5604048,-0.7236297,1.7603849,0.40959418,-3.4104443,6.5258102
847,1747532645290,2.07570685,-0.64650765,1.187216475,1.3305153,-2.43093345,6.2829299
848,1747532645300,1.8709429,-0.5821985599999999,0.562185855,1.7257284,-2.0181434,6.2301993
849,1747532645310,1.9138969,-0.523868875,0.0019524549999999,1.4916364999999998,-2.05303085,6.2336614
850,1747532645320,1.9500173,-0.4737151,-0.30677995,1.2575446,-2.0879183,6.2371235
851,1747532645330,1.99968315,-0.26797485,-0.78049508,0.2133192,-2.74731695,5.877330199999999
852,1747532645340,1.97906035,-0.160711698,-0.80941588,-0.8383631500000001,-3.0328078,5.3689327
853,1747532645350,1.9024263,-0.1242251379999999,-0.657002125,-1.79017695,-3.0011163,4.882107
854,1747532645360,1.78942775,-0.1316688899999999,-0.480060605,-2.26395335,-2.7398602,4.62963935
855,1747532645370,1.6638603,-0.15461027,-0.30616982,-2.6043054000000003,-2.4317324,4.4229778500000005
856,1747532645380,1.5414656,-0.196466085,-0.10945967588,-2.80004765,-2.13638785,4.2602586
857,1747532645390,1.4677603499999998,-0.232586565,0.18145657412,-2.7664918,-1.73425055,4.0200416
858,1747532645400,1.5273103,-0.265290235,0.36230299,-2.7113644,-1.41653545,3.73375195
859,1747532645410,1.6887541,-0.272489905,0.3875629,-2.8533108,-1.35155425,3.42402625
860,1747532645420,1.83872725,-0.2134280499999999,0.50165967,-3.0538468,-1.34383105,2.968093
861,1747532645430,1.8985213,-0.108727505,0.7631669999999999,-3.16729745,-1.3736585,2.41575345
862,1747532645440,1.7618493000000002,0.01561966,1.33755575,-2.7449201,-1.4333133500000002,1.670601
863,1747532645450,1.56160035,0.127153825,1.88790485,-1.876197,-1.42479125,1.08150975
864,1747532645460,1.47862085,0.20708258,2.1171966500000003,-0.828775745,-1.29030155,0.8072041299999999
865,1747532645470,1.4444528,0.27956758,2.16027265,0.20346552,-1.1273160999999998,0.57337858
866,1747532645480,1.4083323499999998,0.340093775,2.0415388,0.881506315,-1.00374547,0.42450789
867,1747532645490,1.4130915,0.439058985,1.8156639,1.2961605,-0.623712345,0.27643613
868,1747532645500,1.4353007,0.5137405,1.6722802,1.4476944,-0.29987195,0.18482338
869,1747532645510,1.7792994,0.7023967499999999,1.5126669,1.15740985,0.379766785,-0.25140242
870,1747532645520,1.8963249,0.759018,1.5075417,1.0423613,0.61199445,-0.4575311
871,1747532645530,2.0877877500000004,0.707033835,1.7729539,1.1150656,1.28843735,-1.40561645
872,1747532645540,2.21713805,0.58610345,2.01542475,1.4527544,1.5776567,-2.0373182
873,1747532645550,2.32244875,0.457241225,2.15246285,1.9909793,1.7353158,-2.5070999
874,1747532645560,2.4026215,0.35266271,2.2508179000000004,2.17527,1.78857905,-2.63386635
875,1747532645570,2.4461858,0.30092257,2.2833996,2.3595607,1.8418423,-2.7606328
876,1747532645580,2.868649,-0.01781618,2.3665011,2.77714445,1.89510545,-3.2250881500000004
877,1747532645590,3.27024505,-0.24076248,2.4931669000000003,2.9137646,1.9611519,-3.49966
878,1747532645600,3.4229028,-0.30238694,2.5628452,2.9236183,2.0245352,-3.5803537
879,1747532645610,3.8692836,-0.45589894,2.7955538,3.1411986,2.7561054,-3.8330878
880,1747532645620,4.0879587,-0.601357075,2.68499595,3.43121685,4.32231065,-4.2458779
881,1747532645630,4.0958907,-0.773173325,2.44093865,3.7135118,5.96228535,-4.6517437
882,1747532645640,3.9622695,-0.9064286,2.25984815,3.92470055,6.61449335,-4.8173925
883,1747532645650,3.77141665,-1.02369815,2.07961185,4.19314715,6.893859,-4.90873875
884,1747532645660,3.49453365,-1.1182703,1.78271615,4.47198015,6.82408415,-4.92471745
885,1747532645670,3.23986,-1.1445064500000002,1.5162056,4.79262475,6.3290024,-4.9079397
886,1747532645680,3.06462685,-1.1302291,1.3547618,5.08264305,5.871737749999999,-4.9390986
887,1747532645690,2.84985635,-1.1476792,1.12620222,5.29356555,5.767075500000001,-5.0442934
888,1747532645700,2.58773885,-1.1880707,0.846634595,5.44243625,5.739645,-5.15348315
889,1747532645710,2.1099969,-1.25469835,0.387562905,5.4839815000000005,5.710883,-5.20355055
890,1747532645720,1.6228587,-1.3060724,-0.05808562,5.34656225,5.430452,-5.0727894
891,1747532645730,1.317421,-1.31363815,-0.303851265,5.07545255,4.938566,-4.798750200000001
892,1747532645740,1.03785345,-1.2916729999999998,-0.491897365,4.7920923,4.433897,-4.516188700000001
893,1747532645750,0.79416232,-1.20369035,-0.62185785,4.495149850000001,3.91298275,-4.22830085
894,1747532645760,0.4848197399999999,-1.12583605,-0.69129215,3.9883502,3.2591766,-3.71590865
895,1747532645770,0.29433304,-1.1124129,-0.7038611,3.45065785,2.803776,-3.16862915
896,1747532645780,0.1109240175,-1.1035048,-0.795992735,3.0788805000000004,2.76862225,-2.81735825
897,1747532645790,0.0053692594999999,-1.1044811,-0.8637186,2.68260215,2.83173915,-2.48020195
898,1747532645800,-0.089080893,-1.1226633,-0.9196077,2.29324805,2.9254825,-2.15289935
899,1747532645810,-0.34265637,-1.2676333,-1.014546,1.83225485,2.98167515,-1.64396935
900,1747532645820,-0.333138135,-1.3038758499999998,-1.06262525,1.46713545,2.8170918,-1.1667309
901,1747532645830,-0.32850105,-1.3596429,-1.1737933,1.30414995,2.37740395,-0.968858
902,1747532645840,-0.3333822,-1.3791674,-1.2368821,1.2325109,2.1076257,-0.9038769
903,1747532645850,-0.424781635,-1.4010106,-1.47361765,0.92864427,0.8982842799999999,-0.753674585
904,1747532645860,-0.55474212,-1.45775395,-1.6360377499999998,0.44634582,0.159789675,-0.389354165
905,1747532645870,-0.685678835,-1.48569845,-1.7259729,-0.138484375,-0.301736155,0.152865445
906,1747532645880,-0.7187486000000001,-1.45934025,-1.72011555,-0.59281966,-0.41678472,0.64341974
907,1747532645890,-0.679333365,-1.4406699,-1.6865576999999998,-1.055677085,-0.4950816449999999,1.137169815
908,1747532645900,-0.606116185,-1.4400598,-1.6123643,-1.4927018,-0.541953275,1.6117450999999998
909,1747532645910,-0.3575438649999999,-1.42370795,-1.49436255,-2.08285825,-0.86526105,2.21095635
910,1747532645920,0.016107785,-1.36647645,-1.41187115,-2.5955168,-1.42692175,2.5747442
911,1747532645930,0.287011335,-1.2924051,-1.37623885,-2.82747815,-1.95369505,2.5169536
912,1747532645940,0.45846157,-1.2249233,-1.2997269,-3.0005836,-2.48925675,2.3971113
913,1747532645950,0.5363158299999999,-1.1643971,-1.16769195,-3.210707,-3.14306275,2.36195755
914,1747532645960,0.531556695,-1.1192465,-1.015766275,-3.3846115,-3.6258938,2.5169536
915,1747532645970,0.514472665,-1.0534731000000002,-0.865060895,-3.3880736,-3.7555898,2.8165593
916,1747532645980,0.5338752,-0.9301022,-0.7272906,-3.26397025,-3.8192394,3.1547807
917,1747532645990,0.72643638,-0.720334975,-0.680309565,-3.0088395,-3.92363525,3.47755585
918,1747532646000,1.04920208,-0.52594335,-0.744740685,-2.65304115,-4.4229781500000005,3.7140446
919,1747532646010,1.38136405,-0.43954709,-0.8302827500000001,-2.46795145,-5.22751915,3.7739656
920,1747532646020,1.5624546,-0.41026023,-0.8642067,-2.4762073,-5.6086173,3.7555897
921,1747532646030,1.8937622,-0.383413925,-0.8113683,-2.6868633500000003,-6.490123649999999,3.78488455
922,1747532646040,2.5129354,-0.355103285,-0.468223815,-3.03653635,-7.6930735,4.1417482
923,1747532646050,3.018012,-0.3392396,0.097134784,-3.1276164,-7.7034597,4.9438925
924,1747532646060,3.17079185,-0.323375865,0.201713317,-3.0509174,-7.4496605,5.217132749999999
925,1747532646070,3.5927668500000003,-0.299824325,0.353272875,-2.9063077,-7.0046463,5.5859805
926,1747532646080,4.05793985,-0.279567585,0.43332364,-2.7691549,-6.693056650000001,5.64936365
927,1747532646090,4.50334435,-0.2776151249999999,0.57170409,-2.3803334,-6.50849965,5.20381685
928,1747532646100,4.702617200000001,-0.2745644,0.673475965,-1.84290745,-6.49811315,4.6093992
929,1747532646110,4.5711922000000005,-0.28554698,0.663591665,-1.44529755,-6.6797407,4.3670515000000005
930,1747532646120,4.39986415,-0.33289409,0.62259005,-1.1395667,-6.8571072,4.3257727500000005
931,1747532646130,4.3098073,-0.35559142,0.5879339,-0.94222645,-6.8136978500000005,4.4030044
932,1747532646140,4.135794,-0.38170552,0.5051985,-0.8708537,-6.7207537,4.4602623
933,1747532646150,3.9255388,-0.5347294300000001,0.253819535,-1.21253725,-5.7737333500000005,4.7627975
934,1747532646160,3.8224244,-0.630888,0.122760795,-1.9105518,-4.967328,4.8480186
935,1747532646170,3.7614102,-0.61185152,0.1569288125,-2.0551615,-4.885835350000001,4.7867658
936,1747532646180,3.525773,-0.5610876199999999,0.305437635,-2.37900185,-4.69968055,4.565723500000001
937,1747532646190,3.2768346,-0.49519217,0.4877483999999999,-2.59498415,-4.507400199999999,4.29035265
938,1747532646200,3.2025192,-0.46102414,0.55571836,-2.6317358,-4.419782,4.1747713
939,1747532646210,2.9964129,-0.35376098,0.68921768,-2.5286715,-4.0535975,3.9167111
940,1747532646220,2.6548548,-0.202811575,0.8544444,-2.3166839,-3.4224284,3.5009917
941,1747532646230,2.28120315,-0.07199689,0.90044918,-2.1486384,-2.9766152,3.22641965
942,1747532646240,1.918046,0.041855815,0.92924798,-2.1046963,-2.479403,2.86369715
943,1747532646250,1.6224926,0.1042124399999999,0.959389035,-2.2210765,-1.9576897,2.5377262500000004
944,1747532646260,1.2817886,0.176209335,1.012593485,-2.4783378000000003,-1.5177355499999998,2.417884
945,1747532646270,1.006492085,0.242714935,1.1152196,-2.79418865,-1.043426575,2.34944085
946,1747532646280,0.836140155,0.30714605,1.2666572,-3.06343425,-0.555801735,2.2727418000000004
947,1747532646290,0.70203069,0.42746628,1.5877145,-2.99072995,0.175502315,2.02773095
948,1747532646300,0.62673902,0.54205113,1.9346418,-2.5326662,0.8066715,1.7070862999999998
949,1747532646310,0.67091334,0.5930591,2.1286674,-1.9156118,1.059938125,1.4298512
950,1747532646320,0.750964135,0.6002588,2.1027973,-1.23677205,1.2194615,1.064731825
951,1747532646330,0.9030118,0.63076595,1.9807686,-0.6263755,1.2426309999999998,0.56831859
952,1747532646340,0.879338265,0.68165188,1.726583,-0.0444747999999999,0.98616857,-0.249271885
953,1747532646350,0.7086202500000001,0.68763128,1.54695685,0.3571299,0.639957635,-0.9102685
954,1747532646360,0.599160555,0.63808765,1.5147413,0.52171327,0.49135324,-1.0817761
955,1747532646370,0.582564655,0.6062382,1.46056065,0.6492787,0.8066715250000001,-1.0761834499999998
956,1747532646380,0.60038084,0.6023333,1.4169964,0.70467246,1.149953,-1.0274476
957,1747532646390,0.60038084,0.6023333,1.4169964,0.70467246,1.149953,-1.0274476
958,1747532646400,0.60038084,0.6023333,1.4169964,0.70467246,1.149953,-1.0274476
959,1747532646410,1.76111715,0.5969640350000001,1.06811655,0.092411689,3.5292211,-1.038632835
960,1747532646420,2.4483824,0.60611618,1.0139358,-0.206394996,4.1249702,-1.52838815
961,1747532646430,2.8055601,0.59855041,1.061527,-0.385359425,4.4069992,-2.243447
962,1747532646440,2.9562654,0.58842206,1.1004542,-0.38456047,4.38889,-2.523079
963,1747532646450,3.147118,0.4978768,1.2212625,-0.13262543,4.2109904,-3.1025827
964,1747532646460,3.4890423,0.248328245,1.4255384,0.545948035,4.2578622,-3.5731633
965,1747532646470,3.657686,0.12764193,1.4645876,0.819721,4.351073,-3.6911414
966,1747532646480,3.94372105,-0.046736963,1.3517111000000002,2.0908478,5.207811700000001,-4.02456915
967,1747532646490,4.076976200000001,-0.152169695,1.2427396000000002,2.4631578000000003,5.46587185,-4.07303855
968,1747532646500,4.2270715,-0.242958995,1.12778865,2.7164244,5.556952,-4.0605216
969,1747532646510,4.471495,-0.35351694,1.0800754,2.85410975,5.42006565,-3.9816921
970,1747532646520,4.74532725,-0.46944414,1.13437805,2.9870015,5.266135,-3.9702406
971,1747532646530,4.92751595,-0.555352285,1.2302925500000002,3.2186966,5.2405687,-4.12390495
972,1747532646540,5.006346450000001,-0.64614156,1.3163228,3.58568025,5.2448297,-4.3686495
973,1747532646550,4.95680275,-0.7502319749999999,1.35402965,4.0836913,5.2765212,-4.63523185
974,1747532646560,4.899205,-0.8061211,1.3535415,4.36066,5.300756,-4.764395
975,1747532646570,4.1872903,-1.0750722,0.8222288499999999,5.6456354,5.24323175,-5.32791995
976,1747532646580,3.9988782,-1.1190025,0.6855568,5.8477693,5.1873055,-5.4285874
977,1747532646590,3.551033,-1.1931958,0.40733153,6.132195,4.962002,-5.5606804
978,1747532646600,3.0721927,-1.2434716,0.16229807,6.301039,4.6845,-5.597965
979,1747532646610,2.4155567,-1.25591855,-0.176209335,6.2760055,4.156928300000001,-5.452289800000001
980,1747532646620,1.9495292,-1.2335873,-0.53765811,5.7305901,3.8266963,-5.268798
981,1747532646630,1.5657492,-1.2028361,-0.8234491349999999,4.92338585,3.5915391,-5.0738545
982,1747532646640,1.4426224,-1.1873385,-0.88031447,4.584898,3.540939,-4.999286
983,1747532646650,1.1563432,-1.15439075,-0.97110378,3.48767585,3.50232315,-4.72897525
984,1747532646660,0.9363256,-1.1590278,-0.94254911,2.46342405,3.500459,-4.52577615
985,1747532646670,0.6934887000000001,-1.185264,-0.84053318,1.5568840000000002,3.51457385,-4.326571749999999
986,1747532646680,0.491775365,-1.2423734,-0.72643642,1.18697095,3.5121770000000003,-4.123905199999999
987,1747532646690,0.24064046,-1.292039,-0.5527897,1.0436929,3.407781,-3.8501321
988,1747532646700,0.2395421999999999,-1.3550057999999998,-0.519963985,1.10308135,3.0738206000000003,-3.4117757500000003
989,1747532646710,0.255894035,-1.46715015,-0.4948260849999999,1.2895026,2.7166907,-3.0559774
990,1747532646720,0.265656325,-1.5580615,-0.5172793499999999,1.52252925,2.4993767,-2.9361352
991,1747532646730,0.227827445,-1.64067485,-0.562674,1.8160096,2.262888,-2.8519794
992,1747532646740,0.16315227,-1.73158615,-0.64858215,2.1321267500000003,1.9662119,-2.7760792
993,1747532646750,-0.0346561299999999,-1.83518845,-0.8700640500000001,2.4940504,1.181378325,-2.5382588
994,1747532646760,-0.307390095,-1.8814373,-1.1632988000000002,2.6213496000000003,0.24021715,-2.13718675
995,1747532646770,-0.50251388,-1.86935645,-1.4267586,2.30656385,-0.355532025,-1.6703346
996,1747532646780,-0.6206376,-1.8610585,-1.65775885,1.6940367,-0.81386205,-1.101749725
997,1747532646790,-0.629789735,-1.84909975,-1.79565125,0.875913665,-1.1068098000000002,-0.503603775
998,1747532646800,-0.54022071,-1.80114245,-1.76819475,-0.447411085,-1.18404145,0.303600385
999,1747532646810,-0.43051696,-1.7424467,-1.5934497,-1.66420945,-1.1558119,1.054079185
1000,1747532646820,-0.38707477,-1.7232883,-1.4894813,-2.001632,-1.1536814,1.2926984
