id,timestamp,acc_x,acc_y,acc_z,gyro_x,gyro_y,gyro_z
1,1747532793360,0.135451775,0.195245795,0.4655391749999999,1.8676749045,-2.94918465,0.420779449
2,1747532793370,6.891688500000001,-3.380681,1.50790765,2.58273375,3.5097801,-10.09737525
3,1747532793380,6.702055850000001,-3.5422467500000003,1.2565287,3.95479435,2.86636035,-9.90642625
4,1747532793390,6.4446976,-3.65109635,0.85920352,5.23497585,1.93265605,-9.699499
5,1747532793400,6.172329899999999,-3.6822138,0.5516913999999999,5.9146147,1.24982155,-9.5919075
6,1747532793410,5.785865299999999,-3.67733265,0.2616293699999999,5.8035607,1.12412035,-9.636116
7,1747532793420,5.272978999999999,-3.63742915,0.068336028,5.4877097500000005,1.0295781,-9.698967
8,1747532793430,4.65307355,-3.5441992,-0.0124469195,5.09169795,0.91133375,-9.6963035
9,1747532793440,3.74493645,-3.3906872,0.0469810175,4.5697183500000005,0.6950850500000001,-9.534117
10,1747532793450,2.8846346,-3.2065461,0.18536148,4.19234815,0.4593953,-9.228386
11,1747532793460,2.5994537,-3.1153908,0.23917611,4.13003,0.3797668,-9.056878
12,1747532793470,1.79638345,-2.8798755,0.341802165,3.9473375,0.1286306784999999,-7.96791175
13,1747532793480,1.3635479,-2.80226525,0.40257242,3.8842206,-0.0471379515,-7.3332806
14,1747532793490,1.19746695,-2.85888645,0.358764155,3.79553725,-0.238885555,-7.15724565
15,1747532793500,0.92265845,-2.9681021000000003,0.240030305,3.5827507,-0.429301585,-7.1130371
16,1747532793510,0.7370529,-3.0292385,0.16303024,3.4370759,-0.505468,-7.0941286
17,1747532793520,0.328257,-3.1183195,0.031483386,2.945989,-0.51665324,-6.888
18,1747532793530,-0.221115872,-3.20166495,-0.13630597,2.2556975,-0.30253512,-6.438991
19,1747532793540,-0.52167237,-3.2469375,-0.105310703,0.201334975,0.953678025,-5.03736925
20,1747532793550,-0.81661553,-3.26194715,-0.014521409,-0.293746675,1.40321965,-4.58915925
21,1747532793560,-0.9828185,-3.2642658,0.032703668,-0.49321744,1.6074841,-4.3643885
22,1747532793570,-1.368429,-3.2847664,0.09640261,-0.6876282,1.9350529,-3.8663774
23,1747532793580,-2.1455072,-3.43181095,0.017572123,-0.67804083,2.1981732,-2.65703595
24,1747532793590,-2.49768185,-3.51771915,-0.10933765,-0.564856485,1.9952403,-0.86712531
25,1747532793600,-2.4962175,-3.4535321000000003,-0.1891443649999999,-0.408795235,1.5566177,1.05887284
26,1747532793610,-2.4630256,-3.3982532,-0.23185438,-0.3371562,1.3651364,1.7033578
27,1747532793620,-2.2326357,-3.2862308,-0.32728076,-0.23542345,0.93796533,2.9060414
28,1747532793630,-1.8494658,-3.1410167,-0.4368625,-0.25885928,0.4527374,4.177967
29,1747532793640,-1.2509154,-2.8719436,-0.4997072,-0.67431239,0.2428802985,5.16200515
30,1747532793650,-0.45980385,-2.51208115,-0.5577928,-1.29056785,0.0029294769999999,6.27786965
31,1747532793660,0.02794455,-2.2875485500000003,-0.4862840499999999,-1.84104325,-0.1153148715,6.504771
32,1747532793670,0.4240494649999999,-2.13818565,-0.3925660749999999,-2.30576495,-0.225569745,6.5977155
33,1747532793680,0.569629615,-2.14343285,-0.357543875,-2.4820663,-0.274838225,6.6349998
34,1747532793690,0.6142921,-2.1642997,-0.34949,-2.54997685,-0.5078648299999999,6.87708115
35,1747532793700,0.64479923,-2.276078,-0.3448529,-2.5566347,-0.7137272,7.0797477
36,1747532793710,1.0287013,-2.570167,-0.21574661,-2.4554346,-1.2080098,7.6667085
37,1747532793720,1.6098017,-2.7944553,-0.19280522,-2.0671456,-1.9489013,9.070194
38,1747532793730,2.2033489,-2.932592,-0.18621568,-1.8338528,-2.016013,9.626263
39,1747532793740,3.10819085,-2.98970125,-0.242958985,-1.60561985,-1.91241605,10.092848
40,1747532793750,3.8146145,-3.116489,-0.33679901,-1.5606124,-1.8327875,10.181265
41,1747532793760,4.2617273,-3.23986,-0.40000984,-1.6916399,-1.0897655,10.466224
42,1747532793770,4.8419735500000005,-3.6066781,-0.3956167849999999,-1.70921685,0.043143195,11.4814205
43,1747532793780,5.0641875,-3.7348082,-0.3790209,-1.5321166000000002,0.547013295,12.197278
44,1747532793790,5.95816975,-4.024382,-0.394762605,-1.2098741,0.725178775,12.8217895
45,1747532793800,6.2476215,-4.0938163,-0.39805737,-1.0157297,0.7323693,13.095296
46,1747532793810,7.412019,-4.2138925,-0.053204484,0.43995422,-0.28708878,13.5975685
47,1747532793820,7.933934900000001,-3.93395865,0.50263589,2.5547705,-1.78032315,12.757341
48,1747532793830,7.9967794,-3.5011230500000003,0.844071985,4.609931899999999,-2.9885994,11.7626505
49,1747532793840,7.603115049999999,-2.57333955,0.2659003749999999,6.7039755,-3.9585226,10.6017785
50,1747532793850,6.84971035,-1.60870335,-0.84980731,7.8749675,-3.7947381,8.654475
51,1747532793860,6.48997,-1.2891104,-1.3018013,7.247793,-2.56835255,6.853911500000001
52,1747532793870,5.8825116,-0.74291027,-1.9268318,5.283445349999999,-1.0772487,5.94976825
53,1747532793880,4.9989025,-0.06113634,-2.0929129,3.12202385,0.5320996,5.14096625
54,1747532793890,3.961049,0.4731049599999999,-1.6334752,1.22318996,2.0389161,4.455735000000001
55,1747532793900,3.227169,0.788793,-1.2527459,0.37230992,2.7377295,4.146542
56,1747532793910,2.6211748,1.0096649,-0.8969103,-1.577124,4.203001,3.240002
57,1747532793920,1.8914436,1.3041199,-0.45236012,-1.82533065,3.8227015,2.784335
58,1747532793930,1.51205665,1.4989996,-0.2711476,-1.6974989,3.202185,2.53932415
59,1747532793940,1.2571389000000002,1.7614831,-0.205862275,-1.39416485,2.29937335,2.03785085
60,1747532793950,1.1641531,1.9248794,-0.20744865,-1.1899004,1.7209347,1.6421051
61,1747532793960,1.070191,2.016157,-0.2706595,-1.1222562,1.3624732,1.1579424
62,1747532793970,0.87445712,1.9999271,-0.40818575,-1.32385735,1.2381036,0.57364492
63,1747532793980,0.7758579999999999,1.91792395,-0.464807035,-1.61041355,1.36060905,0.319046705
64,1747532793990,0.73058538,1.7835704,-0.471518605,-2.1893848,1.83491805,0.0972053815
65,1747532794000,0.75816383,1.68643555,-0.41709382,-2.7414580500000003,2.3110912,-0.0993359135
66,1747532794010,0.8343096999999999,1.65910115,-0.325816415,-2.8852687,2.4144218,-0.17310548
67,1747532794020,0.976351,1.6065068500000002,-0.195611882,-3.0892669,2.43546085,-0.506266935
68,1747532794030,1.24993915,1.5788064,0.0866403229999999,-2.99232785,2.0828583,-0.8631305199999999
69,1747532794040,1.4252943,1.5902771,0.29067218,-2.8788772,1.8263959,-1.0695255
70,1747532794050,1.74183655,1.539025,0.295553335,-1.7515611,0.113983305,-2.3153523
71,1747532794060,1.842144,1.5207207,0.2604091,-1.5558188,-0.17417073,-2.5933864
72,1747532794070,2.1159763,1.32376655,0.0251379049999999,-1.37632165,-0.390952055,-3.34359885
73,1747532794080,2.2099385,1.2366381,-0.08346757,-1.3965617,-0.34993938,-3.5718317
74,1747532794090,3.0575493,0.6754284500000001,-0.51166603,-2.66715585,0.938764315,-4.665325599999999
75,1747532794100,3.5744625,0.424293515,-0.5336312,-3.15957425,1.51400715,-5.1015516
76,1747532794110,3.866355,0.28432667,-0.541319,-3.3832798,1.8050907,-5.331649
77,1747532794120,4.9979265,-0.190974809,-0.52972625,-3.89274265,2.4714135,-6.34604665
78,1747532794130,5.8262567,-0.7298532,-0.379631045,-4.05199965,2.9249499,-7.929029499999999
79,1747532794140,6.2876467,-1.3664765,-0.011836785,-3.8069889,3.21390285,-9.5852495
80,1747532794150,6.384171500000001,-1.86947845,0.4867721849999999,-2.7648939500000003,3.04638995,-10.5378625
81,1747532794160,6.423587,-2.1247623,0.75218445,-1.9941751,2.8623655,-10.992464
82,1747532794170,6.4135804,-2.460097,1.0003906,-0.3153183,2.2993734,-11.330686
83,1747532794180,6.3993033,-3.06035585,0.5150828000000001,2.8232171,0.9752496,-11.7338885
84,1747532794190,6.2703188,-3.132841,0.05845171,4.5100635,-0.018642135,-11.9615885
85,1747532794200,6.045664,-3.15700265,-0.4185581899999999,4.87891125,-0.591488085,-12.008992500000002
86,1747532794210,5.921561,-3.158589,-0.6457755,4.9231195,-0.8479505,-12.004998
87,1747532794220,5.41563015,-3.0649929,-1.03394855,4.156928199999999,-1.0932276,-11.855861
88,1747532794230,4.8003619,-2.97042075,-0.98159827,2.8722193,-0.79841568,-11.518971
89,1747532794240,4.17240275,-2.9185586,-0.709596455,1.6447683,-0.36591834,-11.123225
90,1747532794250,3.71442925,-2.88182805,-0.360228495,1.18484035,-0.161653885,-10.847854
91,1747532794260,3.4641485,-2.8498566,-0.15570852,1.0263823,-0.10652645,-10.698983
92,1747532794270,2.9831119,-2.7490609,0.2774931,1.0226538,-0.22743396,-10.326141
93,1747532794280,2.03433915,-2.57553615,0.7761021,1.6780578,-0.6018744,-9.5554225
94,1747532794290,1.33230845,-2.4480163,0.944501585,2.29750905,-0.8753810500000001,-8.866463
95,1747532794300,0.85554265,-2.340143,0.911919935,2.65969895,-1.0279802,-8.217983
96,1747532794310,0.6213697,-2.284864,0.8605459,2.8107002,-1.0988203,-7.85526
97,1747532794320,0.39598286,-2.19419675,0.79050143,2.8471855,-1.16726355,-7.34366685
98,1747532794330,-0.0967687,-1.85361475,0.5597453,2.3984429,-1.1598066500000002,-5.131911499999999
99,1747532794340,-0.07858644,-1.7828381,0.511544,2.066613,-1.045557,-4.314321
100,1747532794350,0.20415389,-1.79430885,0.52069615,1.6905746499999998,-0.8977516000000001,-4.25013875
101,1747532794360,0.48689422,-1.8057796,0.5298483,1.3145363,-0.7499462,-4.1859565
102,1747532794370,0.43674042,-2.0666768,0.32959932,0.549143815,-0.29241509,-4.6754457
103,1747532794380,-0.1564406799999999,-2.54173425,0.0054912899999999,-0.804807285,0.59548285,-4.9279134
104,1747532794390,-1.00929875,-3.0111784000000004,-0.23893206,-2.25569745,1.6000272,-4.7465522
105,1747532794400,-1.3525653,-3.1407728,-0.268463,-2.6780748,1.911617,-4.488492
106,1747532794410,-1.973935,-3.3745794,-0.17962612,-3.2341428,2.4580977,-3.5883434
107,1747532794420,-2.7457660500000003,-3.45121335,0.338263325,-2.36488705,2.5723473500000003,-0.00053267
108,1747532794430,-2.6114127,-3.31783615,0.3918339,-1.34010268,2.09883725,1.6381104
109,1747532794440,-2.1619812,-3.1838489,0.24991463,-0.2466087199999999,1.4397049000000002,3.06370055
110,1747532794450,-1.5795385,-3.043516,-0.047103045,0.28122982,1.0785803,3.6964676
111,1747532794460,-1.2856936,-2.96676,-0.21891935,1.0045444,0.3121225,4.5556035
112,1747532794470,-0.337653215,-2.4420369,-1.1331578,0.48416269,-1.10734245,5.7460365
113,1747532794480,-0.00793187,-2.3035344,-1.3036318,-0.419447865,-1.18404145,6.02380415
114,1747532794490,0.317884565,-2.21018245,-1.33975225,-1.50841448,-1.057008625,6.20862765
115,1747532794500,0.45687518,-2.1718655,-1.3266952,-3.0578415000000003,-0.68416609,6.4182183
116,1747532794510,1.022844,-2.2997513,-0.84883106,-4.037352,-0.42344263,6.5567026
117,1747532794520,1.2090596,-2.54991,-0.5957437,-4.628574,-0.25353295,6.821954
118,1747532794530,1.37233395,-2.8453414500000003,-0.016107785,-4.599013149999999,-0.529702735,7.74713585
119,1747532794540,1.4710551,-2.9324698500000004,0.46370875,-3.8362837,-1.16113827,8.652344
120,1747532794550,2.14465305,-2.99311815,0.8167375800000001,-1.88738229,-2.12813205,9.8491685
121,1747532794560,2.7473524,-3.0355842,0.9130182,-0.45593318,-2.7100327,10.581272
122,1747532794570,3.5337048,-2.9147756,0.5684093,0.60933125,-2.6290727,10.786335
123,1747532794580,4.731294,-2.70244585,-0.195977964,1.1265172,-2.1928468,10.602044
124,1747532794590,5.0406365,-2.45045675,-0.5624298999999999,0.8546084300000001,-1.269795225,10.1469105
125,1747532794600,5.051741,-2.306341,-0.6733539,0.63436496,-0.94968325,10.050238
126,1747532794610,4.660029,-2.374433,-0.5020258,-0.23542345,0.4777711,10.82362
127,1747532794620,4.7886475,-2.5985994000000003,-0.614536125,-1.2218583,0.9864349,12.4806385
128,1747532794630,5.526310499999999,-2.8749942,-0.361448765,-1.0998855,1.6788568499999998,13.1970295
129,1747532794640,5.77171,-2.584566,-0.13740423,-0.8431568,2.0708742,13.648169
130,1747532794650,7.6530252,-2.6322794,0.286279165,-0.31451933,1.268996315,12.8723895
131,1747532794660,7.9967794,-2.44765,0.42856455,-0.26045716,0.89109373,12.453474
132,1747532794670,7.9967794,-2.166008,0.612339645,0.127032785,0.624244975,11.8598555
133,1747532794680,7.5800519,-1.5378047,0.84346184,1.435710165,0.0101200099999999,10.3178855
134,1747532794690,6.61334135,-0.88751417,0.71643004,2.3568976,-0.3371562,9.369534
135,1747532794700,5.82113145,-0.39317623,0.43368973,3.4021883,0.07510114,8.215053
136,1747532794710,5.5789046,-0.20256752,0.32532832,3.722034,0.2892193,7.684285
137,1747532794720,4.8535665,0.30360721,0.005369258,3.62163285,0.571514385,6.7412598500000005
138,1747532794730,4.3515405000000005,0.61905118,-0.192073047,3.33454405,0.80533992,6.077067400000001
139,1747532794740,4.097721,0.7743936,-0.3018988,3.1473238,0.9406285,5.7433734
140,1747532794750,3.1432134,1.3850248500000002,-0.690559975,1.917476,1.5622103,4.030428
141,1747532794760,2.62154095,1.56599335,-0.704959375,1.917476,1.5622103,4.030428
142,1747532794770,2.08559115,1.6634942,-0.63833175,0.0380832,2.1156152500000003,1.9161444
143,1747532794780,1.57063035,1.73378265,-0.5142286199999999,-0.447943695,2.2117554,1.3275858
144,1747532794790,0.94816235,1.7628255,-0.33460249,-0.852477865,2.1379858,0.74568509
145,1747532794800,0.44320792,1.73061,-0.1785278699999999,-1.04342655,1.92466655,0.3779025649999999
146,1747532794810,0.256016045,1.6889982,-0.079928743,-0.94941695,1.6772589,0.31824775
147,1747532794820,0.191584945,1.645556,-0.0069556329999999,-0.760066175,1.3981596,0.315318275
148,1747532794830,0.19622204,1.6190758,0.01586372,-0.65034395,1.2607405,0.3174488
149,1747532794840,0.500561415,1.6049204499999998,0.030385126,-0.171773893,0.8135957650000001,-0.061785335
150,1747532794850,0.58134435,1.6309126,-0.0344120705,0.127831737,0.508131165,-0.39867523
151,1747532794860,0.6020892,1.6434816,-0.07687803,0.18269286,0.4293016,-0.5566007
152,1747532794870,0.7036170500000001,1.6484847,-0.1607117,0.256995045,0.27856665,-0.97604855
153,1747532794880,0.92778365,1.696686,-0.23795582,0.436758435,0.0093210599999999,-1.42931855
154,1747532794890,1.0860548,1.7389079,-0.30165476,0.588026,-0.20879184,-1.7401094
155,1747532794900,1.40210885,1.7259728,-0.52350281,0.62877235,-0.64714815,-2.2690134
156,1747532794910,1.5275543,1.7166986,-0.60721445,0.598146,-0.7621967,-2.4676852
157,1747532794920,2.00749295,1.5065654,-1.13303575,-0.147805455,-0.6543387,-3.21816385
158,1747532794930,2.39285935,1.2418853,-1.3932008,-1.5741945750000002,0.0173105199999999,-3.9875511
159,1747532794940,2.70122565,1.06055075,-1.23468555,-2.93000995,0.7728493700000001,-4.747617249999999
160,1747532794950,3.06023385,0.83845867,-0.94267105,-3.4716969,1.1518172,-5.3036854
161,1747532794960,3.256944,0.71215904,-0.7807391,-3.6511939,1.2926984,-5.5857143
162,1747532794970,3.7150395,0.4385709,-0.46663743,-3.56730435,1.149953,-6.5649585
163,1747532794980,4.2465963,0.15692882,-0.17328064,-3.4503915,0.9997507,-6.900783
164,1747532794990,5.2630945,-0.5668229650000001,0.17706354,-2.5158883000000003,-0.27244139,-8.4866955
165,1747532795000,5.6768935,-0.8876362,0.25308738,-2.3201459,-0.3832289,-9.0257195
166,1747532795010,5.926198,-1.0675064,0.28994003,-2.282329,-0.31478566,-9.244365
167,1747532795020,6.48801775,-1.61004565,0.437106535,-2.1840584,0.4735100499999999,-9.8518325
168,1747532795030,6.77307675,-2.12097945,0.68433652,-1.6780578,1.25754465,-10.1722105
169,1747532795040,7.0140835,-2.6003079,1.0200373,-0.79868201,1.7480989500000002,-10.3892575
170,1747532795050,7.109631650000001,-2.84363305,1.2429836,0.19787289,1.6721989000000002,-10.53147
171,1747532795060,7.1211023,-2.9425983,1.3203497,0.753142,1.5648735,-10.606305
172,1747532795070,7.006151,-3.0465667,1.3018013,1.8722023,1.1435614,-10.7368
173,1747532795080,6.2184567,-3.1200278,0.8506615500000001,2.7744813,0.67484504,-10.770356
174,1747532795090,5.44467325,-3.12417675,0.4648070399999999,3.60805075,0.17417074,-10.4712835
175,1747532795100,4.84624475,-3.07353485,0.28249627,3.46530525,0.308394065,-10.2158865
176,1747532795110,4.548983,-3.0409532,0.21379416,3.3518546,0.39840892,-10.063021
177,1747532795120,3.9908242,-2.9726174,0.1666911,3.0855384,0.6178534,-9.732256
178,1747532795130,2.90781995,-2.7945775,0.28383857,2.89485625,0.92917695,-9.013735
179,1747532795140,2.1833361,-2.6356962,0.4039147349999999,2.9683595,0.944090625,-8.4182525
180,1747532795150,1.75733425,-2.5063459,0.46895601,3.1795482,0.664991325,-7.8805603
181,1747532795160,1.5595258,-2.4403284,0.48640612,3.31244,0.4660532,-7.5623126
182,1747532795170,1.1116807,-2.3265977,0.49860895,3.5191011,0.044208474,-7.0046463
183,1747532795180,0.503978205,-2.0642362,0.426245985,3.72496355,-0.55846489,-5.6994313000000005
184,1747532795190,0.303119105,-1.98406345,0.29774984,3.67010235,-0.71133035,-4.8301755
185,1747532795200,0.30128868,-2.0212821,0.1743788975,3.4250915,-0.644485,-4.5729139
186,1747532795210,0.0892029349999999,-2.04519965,-0.0475911775,2.7116307,-0.366717275,-4.4251084
187,1747532795220,-0.183653075,-2.1006006,-0.29274668,1.6940368499999998,0.056459015,-4.2480082
188,1747532795230,-0.299824325,-2.24532665,-0.3934202799999999,0.62397869,0.532365925,-4.134824050000001
189,1747532795240,-0.34509695,-2.3395329,-0.41416514,0.00958738,0.81545997,-4.1049967
190,1747532795250,-0.8024602350000001,-2.5128136000000003,-0.35620155,-1.23730465,1.2447615,-4.06904385
191,1747532795260,-1.0069802,-2.552595,-0.3436326,-1.6112125,1.3411679,-4.0107207
192,1747532795270,-1.6135844,-2.8058043,-0.198906655,-2.23492475,1.4034859000000002,-3.1332091
193,1747532795280,-2.3739448000000003,-3.1235668,0.0125689475,-2.83759815,1.5070829,-1.6815199500000002
194,1747532795290,-2.60543315,-3.1999567,0.1492410125,-2.8165593,1.5483619,-1.1073424
195,1747532795300,-2.6831653,-3.2117934,0.21916342,-2.5395904,1.4881744,0.23382555
196,1747532795310,-2.2709527,-3.1622498,0.2604091,-2.0714068,1.310808,1.6655409
197,1747532795320,-1.6437255,-3.068776,0.22233616,-0.7307714,0.28176245,4.1199102
198,1747532795330,-1.0938646,-2.9872608,0.036608588,-0.1603223,-0.16990969,4.6658583
199,1747532795340,-0.88458552,-2.9343003000000003,-0.126909771,-0.00639159,-0.40693103,4.842958449999999
200,1747532795350,-0.17974817,-2.6498516,-1.00624805,-0.6388923525,-1.23836995,5.784652299999999
201,1747532795360,0.07175283,-2.5884712,-1.3657444,-1.3619406,-1.3827133,6.221677
202,1747532795370,0.44735694,-2.630205,-1.4262705,-2.5827336,-1.194694,6.653109
203,1747532795380,1.2522577,-2.6851178,-1.00136685,-4.2594601,-0.8719189350000001,6.898652800000001
204,1747532795390,1.5794164,-2.6571733,-0.561087615,-4.7366986,-0.777643,6.8746843
205,1747532795400,1.833358,-2.549422,0.0711426749999999,-4.498878,-1.024251765,7.40199015
206,1747532795410,1.9973645,-2.460097,0.45736328,-4.0378847,-1.2926984,7.8611193
207,1747532795420,2.5324601,-2.25447885,0.58207652,-2.6197516,-1.97952765,8.802014
208,1747532795430,2.9278328,-2.2445946,0.51349643,-1.82106955,-2.2197448,9.413742
209,1747532795440,3.125153,-2.2528925,0.46419686,-1.4759239,-2.2514365,9.725332
210,1747532795450,4.60792255,-2.3745551000000003,0.198174475,-0.647414465,-1.41227435,10.7352025
211,1747532795460,4.9736423,-2.3849275,0.14277348,-0.33768883,-0.9289106,11.079283
212,1747532795470,5.7106957000000005,-2.11597645,0.135207713,0.28815405,-0.50173955,11.162907
213,1747532795480,6.0205264,-1.94538035,0.2255089,0.7811051999999999,-0.475906895,11.43162
214,1747532795490,6.592108,-1.6361598000000002,0.32703671,1.5590145,-0.31957933,11.651863
215,1747532795500,6.9966326,-1.4028411,0.37072295,2.0676782,-0.1736381,11.696071
216,1747532795510,7.198713,-1.3223021,0.41221267,2.4868598,-0.15286545,11.113372
217,1747532795520,6.8235965,-1.1502418,0.36169285,3.0466564,-0.10173275,10.157563
218,1747532795530,6.7428136,-1.0992339,0.34729347,3.1872714,-0.1257012,9.861153
219,1747532795540,5.9055752,-0.308488355,-0.13593988475,3.3329462,-0.158458085,8.32610685
220,1747532795550,5.146313149999999,-0.018548355,-0.360228495,2.9878005,-0.054594805,7.35804785
221,1747532795560,4.8187883,0.253941565,-0.531190605,2.3853934,0.255663475,6.816361000000001
222,1747532795570,4.51188635,0.51898773,-0.62783727,1.62559355,0.5898901950000001,6.2118235
223,1747532795580,3.94750395,0.796846865,-0.5577928249999999,0.8005462400000001,0.837297865,5.5777248
224,1747532795590,3.3593259,0.989164,-0.40147416,-0.2671150399999999,1.1076087,4.6589341
225,1747532795600,3.0014161,1.0626253,-0.26211748,-1.13770243,1.3206616000000002,3.77343305
226,1747532795610,2.68682635,1.15207225,-0.090301180515,-1.4663365000000002,1.3518206,3.1292144
227,1747532795620,2.3976184,1.3007031,0.060770254485,-1.54463345,1.3166668499999998,2.46235885
228,1747532795630,1.9719825,1.478987,0.0440523335,-1.4527544,1.16433405,1.509213425
229,1747532795640,1.54781105,1.5918635,-0.0779762914999999,-1.4253238499999998,0.981641215,0.5422195949999999
230,1747532795650,1.20210405,1.6525116999999998,-0.147654635,-1.50468605,0.89349058,-0.03808321
231,1747532795660,0.78610845,1.70571615,-0.19756434,-1.6405072,0.83703154,-0.4593952799999999
232,1747532795670,0.43686247,1.7175529,-0.25064679,-1.7283915,0.81439465,-0.6221144
233,1747532795680,0.252111135,1.6572708,-0.2480841899999999,-2.3041671,0.86392945,-0.90387688
234,1747532795690,0.247474065,1.5734371,-0.157294895,-2.7087013,0.8910937,-1.10361395
235,1747532795700,0.3759702,1.50424685,-0.0187924085,-2.7891287,0.8455536699999999,-1.3233247499999998
236,1747532795710,0.5448578,1.43603285,0.1341094565,-2.6945864,0.77071885,-1.6120114
237,1747532795720,0.6313761,1.4057697,0.20940112,-2.6120284,0.7254451,-1.7779263
238,1747532795730,0.66944903,1.3860011,0.42197496,-1.73931055,0.2577940075,-2.306564
239,1747532795740,0.7435204,1.2924052,0.774881775,-0.91799165,-0.1336906925,-2.6003105
240,1747532795750,0.92705145,1.2781278,0.8117344,-0.6306366,-0.2444782,-2.683401
241,1747532795760,1.0555476,1.2773956,0.8258897,-0.07456851,-0.396811,-2.936934
242,1747532795770,1.2935034,1.3118078,0.7570656,0.43888897,-0.41918156,-3.2975261
243,1747532795780,1.6870457,1.2017379,0.3348465269999999,0.94595485,-0.25859294,-4.12630185
244,1747532795790,2.0538638,1.0753162500000002,-0.044418423,0.8828379,-0.144609648,-4.667722449999999
245,1747532795800,2.408357,0.95829082,-0.186459745,0.6215818,-0.0085221155,-5.1135357500000005
246,1747532795810,2.600674,0.88983274,-0.22599702,0.479369,0.075101145,-5.354552
247,1747532795820,2.996779,0.7992875,-0.21452633,0.24607609,0.1603223,-5.870672
248,1747532795830,3.3904433,0.67506236,-0.19573392,-0.07616641,0.0399474175,-6.4855963
249,1747532795840,4.5183536,0.506296775,-0.127275855,-0.46232476,-0.0159789665,-7.08267715
250,1747532795850,5.558647499999999,0.33997176,-0.127031795,-0.74035877,-0.009054748,-7.5143757
251,1747532795860,5.910334,0.24283697,-0.15326795,-1.2186625,0.3387541,-8.342619
252,1747532795870,6.1165625,0.085053955,-0.133987425,-1.433047,0.4756405999999999,-8.703211
253,1747532795880,6.8195695,-0.7087422800000001,0.3803632115,-1.8639465,1.072455015,-9.9431785
254,1747532795890,7.0065175,-1.1837997,0.868721775,-1.4402376,1.51374085,-10.34212
255,1747532795900,6.935619,-1.47032285,1.057256,-0.69242195,1.85515805,-10.4648915
256,1747532795910,6.851175,-1.5958903,1.0965492,-0.2625877,2.004295,-10.502442
257,1747532795920,6.5997963,-1.7984579,1.0543274,0.6535397,2.0948424,-10.460364
258,1747532795930,5.9364485,-2.07741535,0.599770675,1.8506306,2.02852995,-10.162889
259,1747532795940,5.3642563,-2.2502079,0.25198911,2.27220905,2.0112193,-9.935988
260,1747532795950,4.9361798,-2.3450241,0.178405855,2.2804649,2.00322985,-9.8150805
261,1747532795960,4.0636751,-2.41921745,0.262361545,2.423743,1.81787385,-9.620403
262,1747532795970,3.107703,-2.4369116,0.410016165,2.71562555,1.53904085,-9.3205315
263,1747532795980,2.5278229000000003,-2.42885775,0.494826045,3.04212905,1.3544838,-8.928514
264,1747532795990,2.02006175,-2.41348215,0.53216683,3.2192292,1.2751216,-8.697351
265,1747532796000,1.54244175,-2.361864,0.54620012,3.7744982,1.0681939,-7.8118505
266,1747532796010,1.30473,-2.3265977,0.55108124,3.9771647,0.9784454,-7.454188
267,1747532796020,0.40196228,-2.11390185,0.46724759,4.481567650000001,0.7076019499999999,-5.7713365
268,1747532796030,0.2809099,-2.0952315,0.42002252,4.48742655,0.8183894199999999,-5.093562
269,1747532796040,0.17596528,-2.1789432,0.32850105,4.4560013,0.90654004,-4.767591
270,1747532796050,0.21281794,-2.3307467,0.18279888,4.237089,1.1723236,-4.2871566
271,1747532796060,0.14789869,-2.489384,-0.4417436,3.7108488,1.3401027,-4.1092577
272,1747532796070,-0.13032657,-2.5342906,-0.5876899,1.8993665,1.5893745,-4.111921
273,1747532796080,-0.420510635,-2.67047445,-0.649436365,0.7235808699999999,2.0120182,-3.8717037
274,1747532796090,-0.7106947,-2.8066583,-0.71118283,-0.45220476,2.4346619,-3.6314864
275,1747532796100,-1.0350468,-2.9762783,-0.7143555,-1.4375744,2.8426583,-3.2666335
276,1747532796110,-1.892908,-3.4592675,-0.4851858,-2.6578348,3.3105756,-1.866077
277,1747532796120,-2.0610635,-3.5200377,-0.3995217,-3.0477216,3.3625073,-1.0056096
278,1747532796130,-2.4147024,-3.5500567,-0.26406994,-2.958772,2.7808728,0.21891184
279,1747532796140,-2.5567439,-3.5310202,-0.17084008,-2.6221485,1.9259981,1.6575515
280,1747532796150,-1.892786,-3.33016115,-0.179016,-1.3755228,-0.0785632499999999,4.53216765
281,1747532796160,-1.347196,-3.201543,-0.25162303,-0.680704,-1.1259845,5.893043
282,1747532796170,-0.455776905,-2.8791433,-0.63711143,-0.4769721649999999,-2.05356345,6.90344635
283,1747532796180,-0.002074485,-2.685606,-0.854200365,-0.76166408,-2.3422502,7.3940007
284,1747532796190,0.21306199,-2.604091,-0.94620997,-0.99282646,-2.4181504,7.6118474
285,1747532796200,1.3238885,-2.434715,-0.8549325000000001,-2.8919268,-1.9787287,8.15220225
286,1747532796210,1.543174,-2.4112856,-0.7402256,-3.2410672,-1.8466359,8.173774
287,1747532796220,1.90669735,-2.32476735,-0.341070005,-3.74706775,-1.65515465,8.09893875
288,1747532796230,2.114024,-2.27754225,-0.10592084912,-3.7105824,-1.58751035,8.0504695
289,1747532796240,2.2610684,-2.2164059,0.12788598588,-3.37395885,-1.59043985,8.091482500000001
290,1747532796250,2.3182998,-2.1816278,0.2550398,-3.1494544,-1.6197346,8.149273
291,1747532796260,2.3981063,-2.1928544,0.28286234,-1.71853785,-2.2716766,9.30854725
292,1747532796270,2.87182165,-2.2447165,0.200371,-1.25674575,-2.32334185,9.88565375
293,1747532796280,3.5199157000000003,-2.3375803,0.07553571375,-0.95447695,-2.165949,10.303504
294,1747532796290,4.5814427,-2.2448386,-0.0802948362499999,-0.81572625,-1.498827125,10.36875175
295,1747532796300,5.3460741,-1.9778399,-0.1057988199999999,-0.7627293500000001,-0.63969131,10.33279875
296,1747532796310,5.4622455,-1.8404356,-0.05344854,-0.7392935,-0.31158987,10.376741
297,1747532796320,5.665545,-1.5807588,0.11373068,-0.49694586,0.396811,10.776216
298,1747532796330,5.85005235,-1.50034195,0.1591253249999999,-0.35499938,0.60267335,10.853447
299,1747532796340,6.3967404000000005,-1.219188,0.3006785349999999,0.436225805,0.90014847,10.3594305
300,1747532796350,6.4470162,-1.082638,0.37584817,0.77870834,0.75793564,9.927732
301,1747532796360,6.266658,-0.82906246,0.4617563,1.3006879,0.36964676,9.390839
302,1747532796370,6.1199794,-0.8085616,0.47444725,1.8626149,0.09427591,8.7815075
303,1747532796380,5.610022000000001,-0.54022075,0.430883075,2.69565175,-0.339020415,7.9681778
304,1747532796390,5.0501545,-0.179382085,0.070410525,3.1316112,-0.65886605,7.25178765
305,1747532796400,4.545566,0.150217225,-0.357543875,3.10205005,-0.8732504999999999,6.4778731
306,1747532796410,4.2031538,0.36840442,-0.5758531,2.586462,-0.82611255,5.92446825
307,1747532796420,3.8424374,0.55266766,-0.71130485,1.82959165,-0.58616175,5.3806507
308,1747532796430,3.33040525,0.72594827,-0.71301323,0.3696467649999999,0.09347695,4.607535199999999
309,1747532796440,2.8411924,0.85932557,-0.59098461,-1.151018285,0.88337055,3.86451325
310,1747532796450,2.56516365,0.91753325,-0.404646915,-1.6447684,1.1648667,3.6256275
311,1747532796460,2.4422808,0.9408407,-0.29482117,-2.457565,1.6980315,3.1073763
312,1747532796470,2.3051207,0.97085975,-0.158515189,-2.72095165,1.912416,2.8322718
313,1747532796480,1.675453,1.19490425,0.490311025,-2.7659593,2.0892499,1.30654683
314,1747532796490,1.441158,1.2900866,0.6794554,-2.369681,1.8748654,0.76485986
315,1747532796500,1.0787331,1.3609852,0.671401465,-1.53371455,1.2181299,0.130761213
316,1747532796510,0.9115538,1.3996683,0.592204895,-1.05328025,0.7699198700000001,-0.288686657
317,1747532796520,0.74803542,1.4809394,0.462000355,-0.65673552,0.37577203,-0.71319455
318,1747532796530,0.620393545,1.5371945500000002,0.339727685,-0.246875039,0.07057377,-1.20561305
319,1747532796540,0.580978275,1.5237714,0.23954219,0.054594804,-0.024501082,-1.5848472
320,1747532796550,0.60099095,1.50192825,0.11055793,0.137951748,0.072437983,-1.75981685
321,1747532796560,0.6296677,1.4914337,0.0370967,0.15286545,0.13635385,-1.839179
322,1747532796570,0.86603715,1.4623911,-0.0848098935,0.07829694,0.302268785,-2.21681535
323,1747532796580,0.9654905,1.4545813,-0.11251039,0.04527374,0.33981937,-2.3787355
324,1747532796590,1.44921195,1.4010107,-0.130326565,0.016511599,0.118244353,-3.5489285
325,1747532796600,1.5177921,1.3857571,-0.10494461,0.05486112,0.013315806,-3.7982004
326,1747532796610,1.67106,1.343047,-0.038316987,0.24074976,-0.28122982,-4.238687
327,1747532796620,1.8748478,1.3115636,0.051496077,0.7275756,-0.738494565,-4.79315735
328,1747532796630,2.5898135,1.22895025,-0.2229463149999999,1.070857115,-0.905208465,-5.45868135
329,1747532796640,3.2549913000000004,1.1397473,-0.713013275,1.01466442,-0.9632654,-6.2834623
330,1747532796650,3.71028005,1.036511115,-1.070923175,0.447943695,-0.931041165,-6.9551115
331,1747532796660,3.9320061,0.95987713,-1.228096,0.08841695,-0.89109373,-7.2928004
332,1747532796670,4.93813215,0.573290475,-0.9779374,-1.49829445,-0.7084008799999999,-8.64595265
333,1747532796680,5.70007895,0.193659435,-0.408795875,-2.24105015,-0.4151868399999999,-9.6273275
334,1747532796690,6.1171729500000005,-0.09676869,0.0884707649999999,-2.18752065,-0.1438107039999999,-10.2262725
335,1747532796700,6.3020463,-0.2328306,0.34558508,-2.0554278,-0.018642128,-10.508834
336,1747532796710,6.548544,-0.48957884,0.7922098,-1.1675298,0.08628642,-11.150656
337,1747532796720,6.47862175,-1.02918943,0.91204195,0.2119876149999999,-0.0673779805,-11.6137795
338,1747532796730,6.3415835000000005,-1.32388855,0.67445222,1.09695608,-0.281496135,-11.7408125
339,1747532796740,6.211622950000001,-1.48496635,0.44638072,1.5539545499999998,-0.4910869,-11.7445405
340,1747532796750,6.1529274,-1.577098,0.3448529,1.5616777,-0.5656554,-11.716311
341,1747532796760,5.960122,-1.7369554,0.23575929,1.4098775,-0.6988135,-11.608187
342,1747532796770,5.4688348,-2.0323867,0.246009695,0.8705873749999999,-0.7076019499999999,-11.1823475
343,1747532796780,4.9775476,-2.327818,0.2562601,0.33129725,-0.7163904,-10.756508
344,1747532796790,4.4750338,-2.4625378,0.37828872,0.06924219,-0.54914385,-10.342652
345,1747532796800,3.9800854,-2.523552,0.48128092,-0.11824436,-0.29348037,-9.913883
346,1747532796810,2.8798754,-2.6243474,0.6142921,-0.23116238,0.16564862,-8.938102
347,1747532796820,2.8798754,-2.6243474,0.6142921,-0.23116238,0.16564862,-8.938102
348,1747532796830,2.25777355,-2.54283245,0.7415679749999999,-0.0380832,0.27031086,-8.334363
349,1747532796840,0.85615285,-2.2786405,0.919241615,0.76539252,0.3635215,-6.587595500000001
350,1747532796850,0.151681585,-2.110485,0.8498073150000001,1.48311442,0.17204021175,-5.1707938
351,1747532796860,-0.32410803,-1.9919952,0.7814713,1.9872508,0.0127831735,-4.1614556
352,1747532796870,-0.65090066,-1.9158493,0.6130718,2.3164175,-0.020772656,-3.2101743
353,1747532796880,-0.74400855,-1.854591,0.247474055,2.3843282500000003,-0.20905814,-2.07114035
354,1747532796890,-0.6674966,-1.86008225,-0.020012695,2.1481058,-0.25566346,-1.63171885
355,1747532796900,-0.7950165,-1.9889445,-0.389271305,1.255946775,0.07057377,-1.3821806
356,1747532796910,-1.0822718999999998,-2.2092062,-0.667862655,0.066845325,0.55793224,-1.1872372
357,1747532796920,-1.34939255,-2.42763745,-0.718016415,-0.87378315,0.944889525,-0.90520847
358,1747532796930,-1.61529285,-2.66766775,-0.678113035,-1.8194717,1.365669,-0.27936562
359,1747532796940,-1.83164955,-2.9290531,-0.55974529,-2.5819348,1.69856415,0.64901235
360,1747532796950,-1.8838778,-3.24461915,-0.315566025,-3.0578416,1.78458425,2.2623553000000003
361,1747532796960,-1.8467811,-3.4199743,-0.14911897,-3.251187,1.7603495,3.3838124
362,1747532796970,-1.6544641,-3.5876412,-0.06858008,-2.779275,1.2745889,4.8946238
363,1747532796980,-1.5226731999999998,-3.68050525,-0.045028559,-2.5577,1.0285128,5.3774548
364,1747532796990,-1.1050912,-3.815103,-0.016595893,-1.9771309,0.3153183,6.29305
365,1747532797000,-0.25796852,-3.8607419,-0.32166746,-0.7978831,-0.932639,7.941014
366,1747532797010,0.40123012,-3.71955445,-0.645775465,-0.5368933,-1.3907027,8.808672
367,1747532797020,0.89312748,-3.6057017,-0.8040466,-0.803742035,-1.6407736,9.710152
368,1747532797030,1.1448725,-3.5617714,-0.8581053,-0.9635317,-1.6761936,9.978865
369,1747532797040,2.41470245,-3.17384255,-0.7392494000000001,-1.7230653,-1.59683135,10.4068355
370,1747532797050,2.6370385,-3.0919614,-0.677747,-2.0746026,-1.5169365,10.490725
371,1747532797060,3.1493149,-2.9269786,-0.5598673,-2.3355923,-1.4450313,10.385796
372,1747532797070,3.6770886,-2.6852399,-0.465295155,-2.6035063000000003,-1.2285162,10.021209
373,1747532797080,3.9324945,-2.54234445,-0.41892428,-2.7670244,-1.0740528500000002,9.667541
374,1747532797090,3.8598875,-2.43886415,-0.1853614955,-2.83094025,-1.0096043,9.6789925
375,1747532797100,3.74017725,-2.43349485,0.1818226545,-2.61895265,-1.0980213,10.306167
376,1747532797110,3.761166,-2.4517992,0.3431445,-2.424542,-1.186172,10.731474
377,1747532797120,4.105531,-2.5126914,0.30336317,-1.9374498,-1.23437515,11.525895
378,1747532797130,5.1961008,-2.4447214500000003,0.1474105835,-1.4106765,-1.24529405,12.529374
379,1747532797140,6.29716495,-2.22921895,0.0428320465,-1.43171545,-0.7938883,12.555207
380,1747532797150,6.6520243,-2.1425786,0.054424766,-1.4924355,-0.3797668,12.371982
381,1747532797160,7.093768,-2.0395863,0.06418706,-1.4982945,-0.21358553,11.415374
382,1747532797170,6.799435,-1.71767485,0.30189882,-1.05035073,-0.63489762,9.9485045
383,1747532797180,6.33914285,-1.3523212,0.4909211599999999,-0.482564805,-0.97817908,9.53678
384,1747532797190,6.115342350000001,-0.9272955,0.6202715,0.6311691749999999,-1.60828305,9.1066795
385,1747532797200,6.124494500000001,-0.50971355,0.7237518000000001,1.8817897,-2.30283545,8.4267745
386,1747532797210,6.016255,-0.06369895,0.780007015,2.8122982,-2.6873959,7.5892105
387,1747532797220,5.7703675,0.3209352749999999,0.67201164,3.61790445,-2.87408355,6.5750787
388,1747532797230,5.392689,0.651632845,0.362913115,4.0533314,-2.8178908,5.435245699999999
389,1747532797240,4.60426215,0.96366002,-0.28749944,3.2748893,-2.06581405,3.6943372
390,1747532797250,3.7921617,1.13803895,-0.79806718,1.7616811,-0.9424927,2.2005701
391,1747532797260,3.32528005,1.14426245,-0.823937265,0.531833328,-0.0567253249999999,1.5869777
392,1747532797270,2.9178265000000003,1.1258361,-0.67738089,-0.494549022,0.67750819,1.10041815
393,1747532797280,2.4038419500000003,1.0654319,-0.3197149749999999,-1.2572784,1.190433015,0.5222458999999999
394,1747532797290,1.95514265,0.986845465,0.006467515,-1.5800535,1.3227921500000002,0.00798949
395,1747532797300,1.7317082,0.945721835,0.13288917,-1.51533865,1.15075195,-0.30280142
396,1747532797310,1.55366845,0.94303722,0.21562458,-1.3648701,0.96086855,-0.606934425
397,1747532797320,1.4600725,0.9702496,0.266388485,-1.13903405,0.78270307,-0.978179065
398,1747532797330,1.39039415,1.0288233,0.23051207,-0.8367652299999999,0.566720695,-1.7065536
399,1747532797340,1.265925,1.0787330000000002,0.146800435,-0.63809341,0.38589205,-2.44558085
400,1747532797350,1.14902155,1.08324815,0.094450155,-0.601608095,0.31798144,-2.88606775
401,1747532797360,1.0970373,1.0801975,0.07272906,-0.59761333,0.30466563,-3.093528
402,1747532797370,1.0934985,1.10435905,0.0970127525,-0.559796485,0.3946804849999999,-3.64719915
403,1747532797380,1.1430421,1.09740345,0.0816371475,-0.415719465,0.58642809,-4.11618185
404,1747532797390,1.26409445,1.0269929,-0.015375605,-0.31585091,0.860733675,-4.59501815
405,1747532797400,1.3442672,0.9874556,-0.07687803,-0.32490566,0.9853696,-4.7825046
406,1747532797410,1.69863845,0.83369955,-0.25943286,-0.5187838,1.1784488,-5.3718625
407,1747532797420,1.91353075,0.73485635,-0.26309371,-0.61891865,1.1717909,-5.8573565
408,1747532797430,2.21225685,0.6041637,-0.135939884,-0.48389638,0.9451559,-6.6232817
409,1747532797440,2.55894025,0.50580865,0.002806658,-0.1739044225,0.6394249750000001,-7.3431342
410,1747532797450,2.8546157,0.48481974,0.031361356,0.1137169825,0.4612595,-7.7708378
411,1747532797460,3.1274717,0.44930939,-0.067359801,0.29561089,0.3882889,-8.18868805
412,1747532797470,3.63755105,0.33716507,-0.302386925,0.006391585,0.578172295,-8.776713749999999
413,1747532797480,4.32164355,0.220505715,-0.439913175,-0.538757505,0.8471515700000001,-9.4193345
414,1747532797490,4.9243431,0.120076163,-0.31910485,-0.86526105,0.914529525,-10.049705
415,1747532797500,5.2213607,0.051740136,-0.21672285,-0.98110855,0.91346425,-10.42308
416,1747532797510,5.64260365,-0.294821165,0.126421652,-0.828243105,0.814660995,-11.42576
417,1747532797520,5.8571298,-0.73851725,0.41929035,-0.13635385,0.713460865,-12.112856
418,1747532797530,5.913141,-1.16830205,0.5691415,0.78589888,0.657534485,-12.642026
419,1747532797540,5.77854335,-1.41272535,0.45297025,1.4263891000000002,0.5760417600000001,-12.838301
420,1747532797550,5.3781675,-1.69509965,0.206228375,1.9342539,0.331829875,-12.87958
421,1747532797560,5.076879,-1.8611807,0.05051985,2.2250712,-0.02103898,-12.7418945
422,1747532797570,4.7417884,-1.88509825,-0.033435842,2.23865335,-0.455400555,-12.300609
423,1747532797580,4.28076415,-1.87313935,-0.123126877,2.07620045,-0.83383575,-11.7858195
424,1747532797590,3.97801105,-1.7741741,-0.117025445,1.82053695,-1.064731825,-11.426825
425,1747532797600,3.3963005500000003,-1.6098016,-0.074925573,1.2692626,-1.10601085,-10.84359325
426,1747532797610,2.9914095,-1.5085179,-0.044662476,0.64688185,-0.8293084,-10.18073275
427,1747532797620,2.4502126,-1.42492825,0.0035388285,0.1922802415,-0.299871939,-9.61774
428,1747532797630,2.05166725,-1.3719678,0.092497695,-0.1651159935,0.2500708259999999,-9.0654
429,1747532797640,1.6188318,-1.3037538,0.20256751,-0.348607785,0.654871315,-8.5538075
430,1747532797650,1.0853226,-1.2293162999999998,0.351198375,-0.36778254,0.9302422,-7.737282499999999
431,1747532797660,0.5895202500000001,-1.1678139,0.47078644,-0.248472935,1.0229202000000002,-6.90211465
432,1747532797670,0.29616346,-1.1502418,0.506174745,-0.0793622049999999,0.99122857,-6.30929495
433,1747532797680,0.0567433114999999,-1.14487255,0.52045208,0.094808535,0.935302195,-5.6749301
434,1747532797690,-0.057109397,-1.138039,0.52496713,0.18002969,0.90494215,-5.3476276
435,1747532797700,-0.49690053,-1.0604288,0.504100245,0.69801453,0.965928555,-3.3641051
436,1747532797710,-0.5608435,-1.0606729,0.48567393,0.78776306,0.99548966,-2.9859362
437,1747532797720,-0.72448395,-1.0986237,0.393054205,1.03357285,1.1669972,-1.8370485
438,1747532797730,-0.82039845,-1.1161959,0.344852895,1.1976236,1.3022858,-1.06180235
439,1747532797740,-0.8700641,-1.13523235,0.297749845,1.3685985,1.42345965,-0.265517175
440,1747532797750,-0.8751893,-1.1480453,0.26529023,1.4535533,1.474326,0.13635385
441,1747532797760,-0.574998885,-1.19697875,-0.05051985,1.4575481,1.43810705,1.61067985
442,1747532797770,-0.41782601,-1.253234,-0.190852775,1.26580045,1.30841115,1.8817897
443,1747532797780,-0.32203354,-1.32315635,-0.353150845,0.8791094799999999,1.15368145,2.00988775
444,1747532797790,-0.371821225,-1.44237825,-0.57939191,-0.06578007,1.03357285,2.1915153
445,1747532797800,-0.49763274,-1.6026019,-0.74181198,-0.7504788,0.9933591,2.3323965
446,1747532797810,-0.610387165,-1.74427715,-0.746327035,-2.05995515,1.0282464999999998,2.9012477
447,1747532797820,-0.71667408,-1.91755785,-0.648704135,-2.88660035,1.09589075,3.4780885
448,1747532797830,-0.75987223,-2.11060715,-0.458095425,-3.5507927,1.1779161500000002,4.216583
449,1747532797840,-0.7580418,-2.2018845,-0.34509695,-3.829093,1.222391,4.621117
450,1747532797850,-0.330209455,-2.51073885,0.1641284949999999,-3.82749525,1.09003185,6.74259125
451,1747532797860,0.03880509,-2.63642835,0.19646608,-3.3465283,0.79788307,7.408115349999999
452,1747532797870,0.3775565449999999,-2.70244585,0.118611821,-2.8285434,0.409594185,7.7921431
453,1747532797880,0.81893405,-2.73466145,-0.167789374,-2.3590281,-0.179763385,8.068579
454,1747532797890,1.2603116,-2.7861576,-0.515448935,-2.09244575,-1.3643374499999998,8.415589
455,1747532797900,1.61395055,-2.9307616,-0.686044935,-2.15236685,-2.4157535,8.7980195
456,1747532797910,1.9729587,-3.0953782,-0.6910480999999999,-2.41735135,-2.6314696,9.110142
457,1747532797920,2.2593599500000003,-3.1449218,-0.568409335,-2.66262855,-2.4064324,9.419068500000002
458,1747532797930,2.60860585,-3.00959205,-0.32288774,-2.8043088,-1.82932535,9.7655455
459,1747532797940,2.8420465,-2.8930547,-0.15863721,-2.8442562,-1.4658039,9.959157
460,1747532797950,3.0465667,-2.81398,-0.05296042,-2.6104305,-0.83942837,10.370882
461,1747532797960,3.256822,-2.6360623,0.0899350949999999,-1.99843615,-1.1371698,10.5820705
462,1747532797970,3.4944117,-2.66071215,0.1311807649999999,-1.48444595,-1.55422085,10.784471
463,1747532797980,4.0251142,-2.67804015,0.0926197209999999,-0.9390306,-1.98938135,10.9727565
464,1747532797990,4.37375,-2.6419196,0.046858992,-0.660464,-2.1864552,11.054782
465,1747532798000,4.9289801,-2.3716264,-0.0237955815,0.57151438,-2.15449725,12.0428145
466,1747532798010,5.1488757,-2.2690003,-0.03636453,0.78723043,-1.9499665,12.366122
467,1747532798020,5.683605,-1.8624009,-0.16620298,1.0061423,-1.3363743,12.70967
468,1747532798030,6.7418375,-1.39771585,-0.360106465,0.81253047,-0.231162395,12.0619895
469,1747532798040,7.01689005,-1.3353592,-0.274198315,0.65913239,-0.294279315,11.36690425
470,1747532798050,7.1501455,-1.3572023,-0.15424417,0.66152924,-0.35792887,10.9061775
471,1747532798060,6.797971,-0.97427654,0.34265637,1.0562097,-0.8490158,10.043313
472,1747532798070,6.31766585,-0.672987835,0.54766448,2.0772657,-1.33797215,9.43265075
473,1747532798080,6.237371,-0.56523657,0.528384,2.7324033,-1.3126721,8.52637675
474,1747532798090,6.186851000000001,0.476521765,0.0689461715,3.1427964,-1.1155982,7.21743325
475,1747532798100,6.126813,0.690682,0.012202863,3.2304144,-1.0125339,6.6717515
476,1747532798110,5.749745,1.0396838,-0.21794313,3.325223,-0.86499476,5.535647
477,1747532798120,4.627447350000001,1.36733075,-0.99782805,1.83971167,-0.870321075,3.54173805
478,1747532798130,3.88526935,1.46959075,-1.31620065,-0.0862864299999999,-0.5723133499999999,2.2194785
479,1747532798140,3.721629,1.4719093,-1.275199,-0.8655274,-0.3355583,1.8114822
480,1747532798150,3.3757997,1.4177285,-0.9789136,-2.2700787,0.35313517,1.0402308
481,1747532798160,2.8455855000000003,1.2572609,-0.37169919,-3.6756949,1.46500495,0.0181095
482,1747532798170,2.3037784,1.1529265,0.19573391,-3.89380785,2.1446436,-0.7171893
483,1747532798180,1.80785405,1.10057625,0.63125407,-3.49646425,2.40829655,-1.27884995
484,1747532798190,1.5689220499999998,1.1074098,0.742422135,-2.8969867,2.27247535,-1.60588615
485,1747532798200,1.4609268,1.1165619,0.77317333,-2.56782,2.1662152,-1.7678064
486,1747532798210,1.236638,1.17647795,0.76328905,-1.47033125,1.6378441,-2.2817965
487,1747532798220,1.11692795,1.2224828,0.64431115,-0.45433532,1.0391655000000002,-2.80217815
488,1747532798230,1.0496902,1.26397255,0.456021,0.44421528,0.50253851,-3.33161465
489,1747532798240,1.0773907500000002,1.26836555,0.267364725,0.7973504499999999,0.32490566,-3.6679719
490,1747532798250,1.1009423,1.2686096,0.16864355,0.8990832,0.2876214,-3.8136468
491,1747532798260,1.2346857,1.2378583,-0.021965152,0.9150622,0.314253,-4.128965
492,1747532798270,1.48386805,1.1486554,-0.22746135,0.7089335,0.4841627,-4.62724265
493,1747532798280,1.8139555,0.99660778,-0.2374677049999999,0.448210035,0.598678625,-5.2514875
494,1747532798290,2.10121095,0.83260133,-0.0934739305,0.33502567,0.62664181,-5.93352285
495,1747532798300,2.21957875,0.73143958,0.0828574395,0.518517465,0.512924835,-6.37294455
496,1747532798310,2.2731493,0.68409246,0.15766099,0.65247446,0.4362258,-6.5833344
497,1747532798320,2.55601155,0.61941731,0.176819475,1.18191095,0.115314879,-7.18893725
498,1747532798330,2.7166011,0.59794027,0.12349297,1.3576796,-0.029294772,-7.4275565
499,1747532798340,3.2979455,0.4329575599999999,0.033313812,1.57765665,-0.974184325,-8.562861999999999
500,1747532798350,3.4221706,0.40513504,0.06345488,1.6144083,-1.1675298,-8.759669
501,1747532798360,4.38217,0.19414754,0.1541221549999999,1.71134735,-1.35315215,-9.546367
502,1747532798370,4.638064,0.1180016765,0.060282138,1.69137365,-1.2082762,-10.2406535
503,1747532798380,4.7694888,-0.0357543865,-0.0274564419999999,1.5254587,-0.9086706,-10.6212195
504,1747532798390,4.7893796,-0.102259986,-0.08639627,1.4130733,-0.7419567,-10.766628
505,1747532798400,4.866013,-0.26943922,-0.1010397,1.1275824,-0.43196473,-10.981278
506,1747532798410,4.73519885,-0.71057266,0.122394712,1.1041466,-0.4777711099999999,-11.2598455
507,1747532798420,4.6588087,-0.80343646,0.17352471,1.149953,-0.561927,-11.28914
508,1747532798430,4.34519525,-0.97781535,0.3470494,1.438107,-0.94329167,-11.15544925
509,1747532798440,4.10431085,-1.0626253,0.415019345,1.5531555,-1.0791129,-11.0782175
510,1747532798450,3.75774945,-1.1473131,0.33679901,1.7963022,-1.5409051,-10.5011105
511,1747532798460,3.39386,-1.1916095,0.20561824,1.72519585,-1.7465011,-9.963152
512,1747532798470,3.2515748,-1.189047,0.16913168,1.6319852,-1.7603495,-9.757822
513,1747532798480,2.9189248,-1.1226633,0.17791773,1.25168575,-1.6676715,-8.9021485
514,1747532798490,2.613121,-1.0518868,0.19329333,1.1435614,-1.6245283,-8.65048
515,1747532798500,2.0351934,-0.946454,0.23722363,0.9400959,-1.5169365,-8.123174
516,1747532798510,1.7896718,-0.9413288,0.23112221,0.55606806,-1.3171995,-6.9508505
517,1747532798520,1.5539125,-0.9679311,0.19158493,0.30253512,-1.1515509,-6.3372583
518,1747532798530,1.21943205,-1.01442395,0.162908215,-0.1800296945,-0.8410262799999999,-5.470665800000001
519,1747532798540,0.86774557,-1.02382015,0.224532665,-0.687628185,-0.47457531,-4.5742455500000005
520,1747532798550,0.63308454,-1.0252845,0.28237423,-1.0221212,-0.21092236,-3.9500005
521,1747532798560,0.2901840599999999,-1.0315078999999998,0.460414,-1.13530565,0.26178873,-3.1198933
522,1747532798570,0.086884375,-1.01369175,0.5540099650000001,-1.044225535,0.5203816800000001,-2.57367895
523,1747532798580,-0.141797255,-0.9746426,0.619783415,-0.827710485,0.76059883,-2.01255085
524,1747532798590,-0.41135847,-0.92082795,0.6771368499999999,-0.2873550849999999,1.03144233,-1.137968725
525,1747532798600,-0.619905375,-0.8922732499999999,0.6768927849999999,0.341150965,1.2354405000000002,-0.258326642
526,1747532798610,-0.66969305,-0.8978866,0.64821607,0.567786,1.2863069,0.032490566
527,1747532798620,-0.745350825,-0.9925808,0.49470405,1.2218583,1.3448964,0.918258
528,1747532798630,-0.74852355,-1.0599406,0.35022216,1.58058615,1.24982155,1.50788185
529,1747532798640,-0.68836345,-1.1892909500000002,0.03392395,1.707619,1.1792477,1.7656758
530,1747532798650,-0.635281,-1.2847173,-0.19402552,1.609082,0.80374205,2.595517
531,1747532798660,-0.5706058,-1.3925906,-0.38487828,1.2250541,0.6221144,2.9204226
532,1747532798670,-0.440401315,-1.64409165,-0.51825555,0.67005134,0.4495416,3.158509
533,1747532798680,-0.431615235,-1.880095,-0.34204624,-0.1752359915,0.1406149099999999,3.2594429
534,1747532798690,-0.494826035,-2.0871775,-0.0679699485,-0.406931,0.02396845,3.277286
535,1747532798700,-0.51544887,-2.1625912,0.022941383,-0.902279,-0.51026165,3.7907436
536,1747532798710,-0.5339973,-2.3470986,0.17645338,-0.97418433,-0.598146,4.462393
537,1747532798720,-0.543759535,-2.57748855,0.32813496,-0.89828427,-0.222906592,5.50608575
538,1747532798730,-0.52350277,-2.6419196,0.35656762,-0.84368944,-0.025033714,5.877064
539,1747532798740,-0.16644704,-2.907942,0.272856,-0.6311692,0.31478566,6.677078
540,1747532798750,0.284204667,-2.9164841,0.0380729234999999,0.09294432,-0.095607477,8.469384999999999
541,1747532798760,0.6245425,-2.86608635,-0.1630302465,0.29161614,-0.4303668149999999,9.0789825
542,1747532798770,1.0218677,-2.74112915,-0.3973252,0.2727077,-0.629571275,9.59244
543,1747532798780,1.2456682,-2.659492,-0.52252656,0.1933455,-0.68176925,9.814814
544,1747532798790,2.80909895,-2.00968945,-1.12986305,-1.8634139,0.0506000599999999,9.398029
545,1747532798800,2.9731054,-1.8660617,-1.1792847,-2.3798008,0.304133,9.201221
546,1747532798810,3.0795144,-1.7087669,-0.8683557,-3.58568015,0.92118745,8.834503999999999
547,1747532798820,2.9383272,-1.6660568,-0.62063758,-4.05839125,1.2210594,8.965265500000001
548,1747532798830,2.9103826,-1.68631355,-0.244545374,-4.2237735,1.3267869,9.118131
549,1747532798840,3.14553175,-1.76355765,0.017572121,-3.9800942,1.001082265,10.745322
550,1747532798850,3.3160057,-1.8116369,0.04148973,-3.8748994,0.90920323,11.046792
551,1747532798860,4.3037056,-1.91816795,0.011104606,-3.63255185,0.67804083,11.344001
552,1747532798870,5.0525952,-1.8720411,-0.1039683915,-3.54919485,0.562193305,10.8747525
553,1747532798880,5.263704499999999,-1.75782235,-0.064553145,-3.4250915,0.26232135725,10.103235
554,1747532798890,5.1319135,-1.6756970999999998,0.153267945,-3.08846795,-0.19654128775,9.771671
555,1747532798900,5.056866,-1.6517794,0.25137895,-2.8682246,-0.39414784,9.853696
556,1747532798910,5.063944,-1.5216969,0.33094162,-2.324407,-0.7499462,10.214821
557,1747532798920,5.6172216,-1.4339583500000002,0.411602535,-1.27299105,-1.5901735499999998,10.1980425
558,1747532798930,5.919242349999999,-1.34097255,0.6256407500000001,-0.233559215,-2.274606,9.6054895
559,1747532798940,5.91253085,-1.101674435,0.785864315,0.7379619350000001,-2.6943202,8.895224500000001
560,1747532798950,5.8776307,-0.94669807,0.8439499,1.190433,-2.8911278,8.535964
561,1747532798960,5.750477,-0.64211464,0.85127175,2.062352,-3.2128377,7.649664
562,1747532798970,5.2015922,-0.0873724799999999,0.615878465,3.1092406,-3.3870083,6.05363165
563,1747532798980,4.61939385,0.26968325,0.256138075,3.4189662500000004,-2.93906465,4.43735915
564,1747532798990,4.11822215,0.40245039,-0.0589398349999999,3.1273501,-2.18059635,2.96569625
565,1747532799000,3.8470743,0.45223808,-0.21843125,2.8085697,-1.839179,2.5539715
566,1747532799010,3.347733,0.54034275,-0.39366436,1.9004318,-0.9853696,1.959554
567,1747532799020,2.548934,0.69519705,-0.341192015,0.006657895,0.688959815,1.1635351
568,1747532799030,2.0182314,0.787816795,-0.116293272245,-1.08417292,1.5206650000000002,0.608532325
569,1747532799040,1.66508055,0.8732368699999999,0.089446977755,-1.3094763500000002,1.6061524500000002,0.32117723
570,1747532799050,1.479475,0.9261973,0.17938207,-1.3571469,1.5947009,0.20186761
571,1747532799060,1.189047,0.9898962,0.2962855,-1.29909,1.4125407,0.033023197
572,1747532799070,0.97696115,1.1219312,0.442841855,-0.8982843,0.93503585,-0.26498453
573,1747532799080,0.9111877,1.2654368,0.40586719,-0.361923619,0.509729015,-0.68043765
574,1747532799090,0.880924635,1.3589107,0.28200815,0.089482211,0.240749765,-1.23410885
575,1747532799100,0.830892935,1.3947871,0.1563186675,0.21145499,0.27190875,-1.66980205
576,1747532799110,0.7856203,1.4140676,0.093717985,0.23009712,0.3174488,-1.8535602
577,1747532799120,0.7543809699999999,1.35781255,-0.095060295,-0.1006674935,0.8032093950000001,-2.56915165
578,1747532799130,0.78244755,1.3282816,-0.073217172,-0.24687504,1.03543708,-2.846653
579,1747532799140,0.78684056,1.3237665,-0.042221904,-0.30360037,1.1478225,-2.9768815
580,1747532799150,0.8771418,1.2952118,0.026114125,-0.31318775,1.3097427,-3.2112398
581,1747532799160,1.20454455,1.2941135,0.23258655,0.221575005,1.19336255,-3.9497343
582,1747532799170,1.40027845,1.300337,0.330087425,0.8327705,0.8764463499999999,-4.50953065
583,1747532799180,1.64043075,1.2603116,0.315810085,1.22212465,0.59255334,-4.871987
584,1747532799190,1.8023627,1.2388345,0.30019042,1.4034859,0.45912898,-5.086638
585,1747532799200,2.0779035,1.219066,0.2438132,1.6969663,0.3435478,-5.610748
586,1747532799210,2.62520165,0.98416082,-0.0961585549999999,1.773399,0.59255335,-6.64645115
587,1747532799220,2.903793,0.92351262,-0.231854385,1.695901,0.6743124,-6.815029
588,1747532799230,3.26280125,0.8659151,-0.3475375149999999,1.19922145,0.824514675,-7.328220699999999
589,1747532799240,3.4560945,0.8339436,-0.3961049,0.9869675,0.8452873,-7.5175714
590,1747532799250,4.609021,0.6733539,-0.31361356,0.4958806,0.8538095,-8.000669
591,1747532799260,5.0879835,0.47652176,-0.17730759,-0.71479242,0.984836985,-9.7493
592,1747532799270,5.1775525,0.269805285,0.0346561299999999,-1.02292015,1.1219898,-10.0915165
593,1747532799280,5.272003,0.036120472,0.37926495,-1.0950918,1.22532045,-10.2177505
594,1747532799290,5.4876273,-0.203543743,0.766461785,-0.85913575,1.3140037,-10.294716
595,1747532799300,5.6269836,-0.32459614,0.959145,-0.6609966,1.3635385,-10.345316
596,1747532799310,5.5361945,-0.8245474150000001,1.25823705,1.04422553,1.43650915,-10.480604
597,1747532799320,5.4800613,-0.996485715,1.2030802,1.7350495,1.2671321,-10.3900565
598,1747532799330,5.39195655,-1.1518282,1.1044811,2.3009712,1.01386545,-10.3013735
599,1747532799340,5.3358235,-1.2288283,1.0513986,2.515622,0.8793758,-10.265421
600,1747532799350,4.703227,-1.5380487,0.7922098,3.047189,0.38615838,-10.096577
601,1747532799360,3.841217,-1.63127855,0.5789038,3.0413301,0.144875965,-9.6036255
602,1747532799370,3.32650025,-1.6301803499999998,0.507395035,2.9268141,0.041545313,-9.1186635
603,1747532799380,2.9467472,-1.65446405,0.46602732,2.78513385,0.0245010815,-8.620918499999998
604,1747532799390,2.40689255,-1.7046177999999998,0.422951205,2.5403894,0.1965412935,-7.8635158
605,1747532799400,2.0432472,-1.7323183,0.40049794,2.3686156,0.35260254,-7.3460636
606,1747532799410,1.5159616,-1.7152343,0.435642175,2.27753545,0.5595301850000001,-6.58386685
607,1747532799420,1.2182118,-1.6871676999999998,0.465783275,2.2951124,0.6277071000000001,-6.064550349999999
608,1747532799430,0.91838745,-1.6080932,0.496046375,2.3728766500000003,0.63543025,-5.5540225
609,1747532799440,0.49568024,-1.50925,0.501781715,2.5899242,0.51585431,-4.7990165000000005
610,1747532799450,0.22502078,-1.4684924,0.49031103,2.7537086,0.40373522,-4.297277
611,1747532799460,0.013667205,-1.40174275,0.434177845,2.8722193000000003,0.296676145,-3.7657099
612,1747532799470,-0.19768637,-1.3349931,0.37804466,2.99073,0.18961707,-3.2341428
613,1747532799480,-0.44076739,-1.29081875,0.140576967,2.97661515,0.42237735,-2.2969765
614,1747532799490,-0.5263094500000001,-1.3102212999999998,-0.1140967579999999,2.581402,0.761664065,-1.5318503
615,1747532799500,-0.5669449799999999,-1.3382879,-0.28701131,1.9528959500000005,1.03596968,-0.95607485
616,1747532799510,-0.59159476,-1.351345,-0.3692586,1.305481565,1.13237615,-0.65726817
617,1747532799520,-0.62173583,-1.5334116999999998,-0.586835625,0.528903815,1.1624699,-0.41998051
618,1747532799530,-0.63015586,-1.6276178,-0.65260905,0.1123854,1.1622036,-0.31851408
619,1747532799540,-0.89703237,-1.922561,-0.5352175349999999,-1.8034927,0.958738015,0.4396879
620,1747532799550,-0.96036524,-1.9839413,-0.49592432,-2.1283984,0.922519,0.664725
621,1747532799560,-1.1918536,-2.11158335,-0.338995515,-2.96116885,0.878310565,1.8759307
622,1747532799570,-1.28862225,-2.1458734,-0.196954195,-3.2445292500000003,0.808269415,2.80004765
623,1747532799580,-1.12144305,-2.1945628,-0.02904281,-3.35505045,0.6034723150000001,4.2972769
624,1747532799590,-0.7565775,-2.2338559,0.0976229,-3.30311885,0.34115094,5.672533250000001
625,1747532799600,-0.5791479,-2.229951,0.1295944,-3.240002,0.23222765,6.050702
626,1747532799610,-0.34290046,-2.225436,0.14082103,-3.13161125,0.100401175,6.3037023
627,1747532799620,0.6532192050000001,-2.1596625,-0.0529604275,-2.5454494,-0.73982616,6.580671000000001
628,1747532799630,0.948772515,-2.07338825,-0.35400504,-2.40190495,-1.3576795499999998,6.4235445
629,1747532799640,0.9794017,-2.050813,-0.48494175,-2.4666197,-1.5978967,6.403837
630,1747532799650,1.0084445,-2.0810761,-0.64016217,-2.7899277,-1.9718045,6.5428543
631,1747532799660,1.0548154,-2.1137798,-0.6782351,-3.35212085,-2.3230754,6.99106425
632,1747532799670,1.3104654,-2.18223775,-0.438936965,-3.6823529,-2.3521038,7.588145000000001
633,1747532799680,1.675575,-2.23068325,-0.144359863,-3.76011715,-2.29111755,8.210792000000001
634,1747532799690,1.8458049,-2.21604,-0.023429496,-3.4770231000000003,-2.22373965,8.5953525
635,1747532799700,2.2436182,-2.0698495,0.15619664,-3.277286,-2.1774006,8.773518
636,1747532799710,2.7820086,-1.8960809,0.21550256,-2.761698,-2.0442424,8.912535
637,1747532799720,3.525651,-1.5601359,0.1210524,-1.973935,-1.72892425,8.55327475
638,1747532799730,3.7163818,-1.4007666,0.092741755,-1.7848506,-1.6373115,8.429971
639,1747532799740,3.687217,-1.385513,0.11324256,-0.87191895,-0.9765812,9.2608765
640,1747532799750,3.641822,-1.3110756,0.14985114,-0.660464,-0.8133294,9.671003
641,1747532799760,3.7531126,-1.227608,0.10689708,-0.33768883,-0.6583334,10.873155
642,1747532799770,5.2396652,-1.0581102,-0.435764215,-0.98164115,-0.589357555,12.5389615
643,1747532799780,6.641652199999999,-1.13706275,-0.7465711,-1.96541285,-0.4772384899999999,12.022042
644,1747532799790,7.174428799999999,-0.94828445,-0.7712208700000001,-2.7899276,-0.5395564500000001,10.4523745
645,1747532799800,7.3239136,-0.9452337,-0.69556314,-3.0913975,-0.5342301,9.553291
646,1747532799810,6.6200523,-0.7141115,-0.2936009,-3.4951327,-0.6599313,8.209993
647,1747532799820,5.22685215,-0.4479670799999999,0.7225315,-2.5672873,-1.634382,7.312507800000001
648,1747532799830,4.544834,-0.164372555,1.13779485,-1.2540826,-2.46022825,7.1476583
649,1747532799840,4.460634,-0.08078295,1.1485333,-0.364320451,-2.88287185,7.0094403
650,1747532799850,4.4064536,0.08346757,1.0484699,0.049534798,-3.0365362,6.895457
651,1747532799860,4.2805204,0.2723679,0.90130347,0.6844324,-3.13241,6.5162225
652,1747532799870,4.1077275,0.44516042,0.7421781,1.103614,-3.107909,6.0847907
653,1747532799880,3.55884285,0.66456788,0.4388149249999999,1.3800501,-2.9012477,5.4520235
654,1747532799890,3.0895206,0.74449663,0.255039825,1.1142666,-2.1667478,4.509797
655,1747532799900,2.9272225,0.754625,0.2169669,0.7137272,-1.6144083,4.1252365
656,1747532799910,2.3976184,0.7285108849999999,0.272856,-0.174437055,-0.451672125,3.52229685
657,1747532799920,2.1058481,0.73790707,0.370478885,-0.5965481,0.08841695,3.2256207
658,1747532799930,2.01152,0.763167,0.4097721,-0.5965481,0.08841695,3.2256207
659,1747532799940,1.7661202500000002,0.827354065,0.5584029749999999,-0.92331794,0.84075996,1.93025915
660,1747532799950,1.7018112,0.84809893,0.60770255,-0.90174633,0.94329166,1.5717977
661,1747532799960,1.35488385,1.1259581,0.74730325,-0.2442118724999999,1.2463594,-0.0961401249999999
662,1747532799970,1.2141848,1.18624025,0.707766,0.0961401125,1.304949,-0.70813455
663,1747532799980,1.055547585,1.1911214,0.629545675,0.4237089349999999,1.2958943,-1.251952025
664,1747532799990,0.926319285,1.1541467,0.521794395,0.715325075,1.2010857,-1.73638105
665,1747532800000,0.8817788,1.1241276,0.46102414,0.85061365,1.1307782,-1.9680761
666,1747532800010,0.7145996,0.924244775,0.1725484749999999,1.2977584,0.7222493,-3.02295425
667,1747532800020,0.6716455,0.8808026,0.12398108,1.3448963,0.63383234,-3.1984565
668,1747532800030,0.58378493,0.76890237,-0.02440572525,1.3156016,0.4018710199999999,-3.6464002
669,1747532800040,0.5307025,0.73888332,-0.09176553,1.22052675,0.3336941,-3.79660245
670,1747532800050,0.50568664,0.7324158,-0.12129646,1.1611383,0.3121225,-3.8472025
671,1747532800060,0.76377715,0.7547470350000001,-0.1140967599999999,0.86685895,0.36538571,-3.93561945
672,1747532800070,1.01027495,0.773417435,-0.0612583695,0.819721,0.39254996,-3.9707732
673,1747532800080,1.31595665,0.7950165,-0.008786061,0.8277104799999999,0.417849985,-4.3340285000000005
674,1747532800090,1.7026654,0.78244753,-0.0208668965,0.8495484,0.41385525,-4.509797
675,1747532800100,1.91829,0.76219076,-0.04905551,0.813862,0.38775626,-5.552691
676,1747532800110,2.18162775,0.58439508,-0.13447554,0.70254193,0.29001825,-6.0136842
677,1747532800120,2.3424615,0.50849329,-0.145336085,0.643419725,0.07456851,-6.22673705
678,1747532800130,2.60006395,0.442231745,-0.090301177,0.63543025,-0.308660365,-6.4222131000000005
679,1747532800140,3.25328325,0.317640505,-0.0196466085,0.6436860600000001,-0.968059025,-6.81236625
680,1747532800150,3.7511601,0.22868164,0.002928687,0.63915867,-1.3944311,-7.102118
681,1747532800160,4.56679925,0.0695563174999999,-0.098599125,0.234890815,-1.46686915,-7.7687073
682,1747532800170,5.065164149999999,-0.044174363,-0.1441158,-0.28762141,-1.21253725,-8.2707135
683,1747532800180,5.6914148,-0.339605653,-0.0190364649999999,-1.001082315,-0.5494101299999999,-9.0518185
684,1747532800190,6.08617765,-0.7004443,0.27078151,-1.32439005,0.06072007,-9.7692735
685,1747532800200,6.116563,-0.8295506,0.42148685,-1.2650015,0.2050634,-9.986321
686,1747532800210,5.98111105,-1.14841135,0.6663983250000001,-0.594683885,0.4125236599999999,-10.3450495
687,1747532800220,5.7989223,-1.3321865,0.6912921750000001,-0.0380832149999999,0.4721784599999999,-10.480871
688,1747532800230,5.700201,-1.4162643,0.68482465,0.2514024,0.48149952,-10.541325
689,1747532800240,4.79377235,-1.56208845,0.4404013,1.37445745,0.44581317,-10.596186
690,1747532800250,4.5348277,-1.5761217,0.3841461,1.520665,0.44847634,-10.524813
691,1747532800260,3.931274,-1.5873483,0.2762728,1.7374463,0.54648066,-10.089652
692,1747532800270,3.2296095,-1.5591597,0.181090475,1.82373275,0.777110435,-9.3231945
693,1747532800280,3.009714,-1.5397571,0.15375607,1.8343854,0.86233157,-9.060074
694,1747532800290,2.12939955,-1.4859425000000002,0.1175135625,1.819738,1.082574975,-8.0579265
695,1747532800300,1.9583154,-1.475082,0.119588055,1.808819,1.1659319,-7.574563
696,1747532800310,1.51876825,-1.4401818,0.12263877,1.7907095,1.2655342,-7.173491
697,1747532800320,1.14438445,-1.42065725,0.177185565,1.814678,1.50495235,-6.38945635
698,1747532800330,0.9017916,-1.4135796,0.22111587,1.8562233,1.6527578,-5.976134
699,1747532800340,0.5281398900000001,-1.3113196,0.296529545,2.061553,1.85116325,-5.3316485
700,1747532800350,0.42954078,-1.2930154,0.30848834,2.1411815,1.9132149,-5.103682
701,1747532800360,0.25040275,-1.295944,0.28261828,2.288188,2.0644825,-4.625378
702,1747532800370,-0.066505604,-1.2761753,0.17315862,2.39737765,2.372344,-3.79393925
703,1747532800380,-0.15058333,-1.274711,0.12080834,2.404302,2.4698157,-3.500459
704,1747532800390,-0.17669744,-1.5065654,-0.2463757899999999,1.8817897,2.4636904,-2.53426425
705,1747532800400,-0.19353738,-1.5597699,-0.31995904,1.7081516,2.4176178,-2.450641
706,1747532800410,-0.27920148,-1.6564165,-0.48665017,1.2053467,2.2706113,-2.3845944
707,1747532800420,-0.600136765,-1.9231711,-0.73339202,-0.56831855,2.1156151000000003,-2.12866465
708,1747532800430,-0.7739055,-2.046176,-0.79562664,-1.4439659,2.1406488,-1.9414445
709,1747532800440,-1.00039065,-2.2154297,-0.717894405,-2.15982365,2.34331545,-1.4543523
710,1747532800450,-1.2268758,-2.3846834,-0.64016217,-2.8756814,2.5459821,-0.9672601
711,1747532800460,-1.5888127,-2.49817,-0.44027928,-3.2085764,2.6690202,-0.14594123
712,1747532800470,-1.8860743,-2.4879196,-0.2421048,-3.2373388,2.5710158,0.9518138
713,1747532800480,-1.73597915,-2.4670527,0.0694342875,-2.04717195,1.29030155,4.1998051
714,1747532800490,-1.3664765,-2.3929812,0.06382097,-1.6399746,0.8815063,4.9071407
715,1747532800500,-1.1370627,-2.3444138,0.03465613,-1.0237192,0.23062976,5.793441
716,1747532800510,-0.66139513,-2.2677798,-0.08151512,-0.5400891,-0.35313517,6.4310017
717,1747532800520,-0.17962612,-2.200664,-0.22648512,-0.23915187,-0.813862,6.7947893
718,1747532800530,0.4838434849999999,-2.03922035,-0.59928257,-0.4316984199999999,-1.30415,6.993195
719,1747532800540,0.81295468,-1.9624644,-0.80795154,-0.9057411,-1.49509865,7.069095
720,1747532800550,0.91216398,-1.9712505,-0.81612745,-1.3206616,-1.49163655,7.2003887
721,1747532800560,0.9535317,-1.9815009,-0.79538256,-1.75236005,-1.3480922,7.481086
722,1747532800570,1.2077173,-1.9806466,-0.69751563,-2.31481965,-0.96193383,7.991081299999999
723,1747532800580,1.4479916,-2.0085912,-0.63064396,-2.64878,-0.70200926,8.30853
724,1747532800590,1.7786893,-2.0093234,-0.6035536,-2.944391,-0.5075985,8.395882
725,1747532800600,2.0395863,-1.9751552,-0.5530337,-3.2053807,-0.40107206,8.376707
726,1747532800610,2.3517356,-1.948309,-0.44613665,-3.401922,-0.46924898,8.304269
727,1747532800620,2.6067755,-1.8636211,-0.36242503,-3.5260253,-0.6801714,8.176437
728,1747532800630,2.88097385,-1.87997295,-0.144970005,-3.4911380000000003,-1.041029675,8.518387
729,1747532800640,2.911115,-1.9331775,-0.06418706,-3.387541,-1.1867046,8.915198
730,1747532800650,3.036072,-2.0156689,0.17523311,-2.9273467,-1.2346416,9.671536
731,1747532800660,3.98582085,-2.37601925,0.35913024,-1.04955175,-1.66474205,12.056397
732,1747532800670,4.48162315,-2.3577149,0.19475769,-0.44847633,-1.96461395,12.8004845
733,1747532800680,4.6763806,-2.2677798,0.05662128,-0.22903186,-2.1118867,13.141103
734,1747532800690,5.934008,-2.7419832,-0.1493630369999999,0.3597930749999999,-1.79763375,12.8817105
735,1747532800700,6.164398,-2.6675458,-0.19060871,0.5022722,-1.6905746,12.614329
736,1747532800710,6.4926553,-2.1545374,0.1142187865,1.5113439,-1.9936424,10.48566425
737,1747532800720,6.182702300000001,-1.7231662,0.22038369,2.58752725,-2.23279425,8.86912525
738,1747532800730,5.9579253,-1.6063848,0.17840585,2.9092371,-2.2860575,8.4917555
739,1747532800740,5.5379033,-1.3747745,0.04490653,3.4168358,-2.3568976,7.8968053
740,1747532800750,5.1559534,-1.0919122,-0.11226633,3.7800908,-2.3643544,7.370565
741,1747532800760,4.470885,-0.4807928,-0.4356422,3.818973,-2.2146847,6.2003717
742,1747532800770,4.143848,-0.16815543,-0.5708499,3.4887412,-1.9648803,5.5271244
743,1747532800780,4.143848,-0.16815543,-0.5708499,3.4887412,-1.9648803,5.5271244
744,1747532800790,3.1916586,0.47408122,-0.7793968,1.56274295,-0.581368075,3.716441300000001
745,1747532800800,2.984576,0.5762192,-0.7670719,1.0120013,-0.18429075,3.3438652
746,1747532800810,2.352468,0.9447456,-0.55669457,-0.58429754,1.0700581,2.275405
747,1747532800820,2.1101189,1.0618931,-0.39073566,-1.1206582,1.5648735,1.7401094
748,1747532800830,1.8399476,1.1590278,-0.2323425,-1.5571504,1.96727715,1.0327739
749,1747532800840,1.5387809,1.2422514,-0.056133166,-1.6431705,2.0485036,0.8159926
750,1747532800850,1.1787965,1.3706255,0.21013328,-1.6053536,2.1097562,0.4346279
751,1747532800860,1.04066,1.4301754,0.25430766,-1.0077401,2.0676782,-0.23702134
752,1747532800870,0.914970605,1.46007245,0.175721225,-0.4287689649999999,1.76381165,-0.819720975
753,1747532800880,0.85554267,1.4394496,0.0787084625,-0.2181129,1.50761555,-1.1819109
754,1747532800890,0.7526725649999999,1.3470739,-0.0431981325,-0.15792545,1.14436035,-1.61387565
755,1747532800900,0.67750293,1.2703179,-0.11519502,-0.17576863,0.9177253,-1.8626149
756,1747532800910,0.70996255,1.1980771,-0.082125265,-0.22024342,0.72331455,-2.02852985
757,1747532800920,0.7820814549999999,1.1835556500000002,-0.0339239555,-0.190948655,0.6410229000000001,-2.11055525
758,1747532800930,0.82906246,1.1805049,-0.010494461,-0.1635181,0.6061355,-2.1497037
759,1747532800940,1.2867918500000002,1.09972195,-0.0275784673999999,0.0125168599999999,0.57923755,-2.5965822000000003
760,1747532800950,1.4084544,1.0816617,-0.052472305,0.08735169,0.5858955,-2.915629
761,1747532800960,1.7025433,1.0326062349999998,-0.095792472,0.0705737715,0.5464806799999999,-3.5950012
762,1747532800970,1.96014575,0.934007085,-0.12666571,0.0093210664999999,0.48842376,-4.11804615
763,1747532800980,2.1096308,0.8683557,-0.14130914,-0.03195793,0.45806372,-4.3995423
764,1747532800990,2.5680923,0.4955582349999999,-0.16974182,-0.214118155,0.318514075,-5.431517
765,1747532801000,2.73759,0.27529657,-0.17669745,-0.32597092,0.18695392,-5.863748
766,1747532801010,3.03082505,-0.0358764185,-0.0429540755,-0.423975245,-0.2111886725,-6.18892005
767,1747532801020,3.30660975,-0.174744985,0.0442963895,-0.453536335,-0.44821001,-6.3835972000000005
768,1747532801030,3.70295855,-0.3088544399999999,0.0917655225,-0.509462725,-0.511326935,-6.68267015
769,1747532801040,3.940304,-0.38121742,0.105676785,-0.5470133,-0.48043427,-6.8640313
770,1747532801050,4.77217335,-0.740103605,0.222946295,-0.822916815,0.1568601949999999,-8.20919425
771,1747532801060,4.894812,-0.84517026,0.2238005,-0.89109373,0.34940675,-8.457667
772,1747532801070,5.32118015,-1.266413,0.364255435,-1.0815097,1.041295985,-9.02065925
773,1747532801080,5.57695195,-1.5210868,0.616122515,-0.8727179,1.4205301499999998,-9.350625
774,1747532801090,5.62832615,-1.62969225,0.81795785,-0.2852245435,1.57579245,-9.498697
775,1747532801100,5.6389427,-1.6778935,0.9034999,0.058056913,1.567004,-9.480321
776,1747532801110,5.54168585,-1.8057795,1.0197932,1.006408585,1.51853445,-9.393502000000002
777,1747532801120,5.366819,-1.8514182,1.001977,1.59123875,1.47512495,-9.330917500000002
778,1747532801130,5.259678,-1.8704547,0.9794017,1.8631475,1.4466292,-9.299226
779,1747532801140,4.41511785,-1.8924199,0.6002587850000001,2.46875035,1.2868395,-8.9045455
780,1747532801150,4.206815,-1.888271,0.50690687,2.4804683,1.2751216,-8.803878
781,1747532801160,3.8221807,-1.854103,0.36096066,2.376605,1.2761868,-8.600412
782,1747532801170,3.4477968,-1.8399476,0.2848148,2.1965754,1.2857742,-8.398545
783,1747532801180,2.5726075,-1.8397036,0.2774931,1.8796592,1.3038837,-7.985755
784,1747532801190,2.1594185,-1.82469405,0.34558505,1.9379824,1.25008785,-7.7324885
785,1747532801200,1.5640408,-1.7962612999999998,0.4626105,2.12174055,1.1166635,-7.309578500000001
786,1747532801210,1.21662535,-1.76880485,0.54888475,2.42960195,0.9297096,-6.94392635
787,1747532801220,0.7669499,-1.72304415,0.5861035,3.00005105,0.57604177,-6.27707085
788,1747532801230,0.394396525,-1.6960758500000002,0.55437605,3.52469385,0.27989823,-5.56227835
789,1747532801240,0.26577834,-1.7190172,0.4599258699999999,3.7366815,0.223971855,-5.1311126
790,1747532801250,0.22526483,-1.7371994,0.39708114,3.812049,0.21784659,-4.9438925
791,1747532801260,0.0433201639999999,-1.8573977,0.0518621629999999,3.5819517000000003,0.358994125,-4.65147725
792,1747532801270,-0.127275854,-2.07253405,-0.301410692,2.7670244,0.55447015,-4.49754675
793,1747532801280,-0.22184804,-2.2397132,-0.51447266,1.6735305,0.73103775,-4.3750413
794,1747532801290,-0.53582772,-2.45045685,-0.666032225,0.77231678,0.8162589,-4.2810316
795,1747532801300,-0.67481834,-2.5196471,-0.68482465,0.30999196,0.8511463,-4.2179146
796,1747532801310,-1.12522595,-2.7118421,-0.5847611699999999,-0.8902947649999999,1.0634003,-3.7276267
797,1747532801320,-1.5429299,-2.8542495,-0.41196863,-1.5614114,1.18164465,-2.6320021
798,1747532801330,-1.9304927,-2.9560214,-0.25040273,-1.9251992,1.13743615,-1.1922972
799,1747532801340,-2.11194925,-2.93869325,-0.15924735,-1.9574234,1.0604708,-0.6215818
800,1747532801350,-2.1682045,-2.9069657,-0.1147069,-1.8977686,0.89642006,0.7185209
801,1747532801360,-1.9079176,-2.82752535,-0.0580856235,-1.7406421,0.72278196,2.117213
802,1747532801370,-1.21686945,-2.69671055,-0.071874858,-1.41067645,0.2844255999999999,4.3342947
803,1747532801380,-0.442353765,-2.53551065,-0.124469193,-1.18750355,-0.0308926699999999,5.53458145
804,1747532801390,0.000122025,-2.42092585,-0.22648513,-1.1307782,-0.279898235,5.9598882500000006
805,1747532801400,0.19988288,-2.3610098,-0.28871974,-1.1323761,-0.43303,6.117281
806,1747532801410,0.705691485,-2.20444715,-0.45748528,-1.2618058,-0.84848315,6.26482
807,1747532801420,0.84150934,-2.156734,-0.5015376,-1.4972292,-1.2452941,6.3974457
808,1747532801430,1.11424332,-2.2145755,-0.5637722199999999,-1.85968545,-1.3608753,6.88507055
809,1747532801440,1.3869773,-2.272417,-0.62600684,-2.2221417,-1.4764565,7.3726954
810,1747532801450,1.6317668,-2.2992635,-0.5774395,-2.4650218,-1.5499598,7.758321
811,1747532801460,1.76148325,-2.2977991,-0.5354616249999999,-2.55716725,-1.5686019,7.959922499999999
812,1747532801470,2.272417,-2.2855961,-0.4283205,-2.779275,-1.6053536,8.4581995
813,1747532801480,3.1074588,-1.98113475,-0.2929907149999999,-2.78646555,-1.6295883,8.376440500000001
814,1747532801490,3.2120373,-1.9129207,-0.25528386,-2.740393,-1.6767262,8.337825
815,1747532801500,3.3384593,-1.8697226,-0.18621568,-2.6450517,-1.7608821,8.5759115
816,1747532801510,3.7113788,-1.9673455,-0.005857374,-2.0248015,-1.08710235,10.167949
817,1747532801520,4.05013,-2.016645,0.16180995,-1.7811222,-0.8671253,10.523747
818,1747532801530,4.7902334,-1.92439125,0.217943125,-1.12092455,-0.7265104,11.1085775
819,1747532801540,5.0715094,-1.8675259,0.19671014,-0.4607269,-0.5858955,11.693408
820,1747532801550,6.0714121,-1.31510245,-0.10238201088,0.228232922,-1.1140003,11.8614535
821,1747532801560,6.6410418,-1.2398108,-0.20403185,0.5267733,-1.1867046,11.530955
822,1747532801570,6.844829300000001,-0.73607665,-0.19732028,0.40027313,-1.051149675,10.453174
823,1747532801580,6.88583115,-0.4113584899999999,-0.063942999,0.31425302,-1.055943375,9.3937685
824,1747532801590,6.57038735,-0.0959145015,0.212817906,0.31212248,-1.2343752,8.240886
825,1747532801600,6.317666,0.051496077,0.38707477,0.36005938,-1.3379722,7.690144
826,1747532801610,5.1342325,0.32996538,0.9056965,1.2761868,-1.2522184,6.387326
827,1747532801620,4.745693,0.45370242,0.97330034,1.8844528,-1.2703278,5.9207397
828,1747532801630,4.415484,0.5864696,0.8861718,2.4458473,-1.2974921,5.4072824
829,1747532801640,3.65731985,0.84431605,0.430150905,2.7577034,-1.09056447,4.3409526
830,1747532801650,3.257188,0.9813542,0.16547081,2.6951191,-0.87990844,3.8173752
831,1747532801660,2.945893,1.1888029,-0.146190302,2.08845095,-0.34408042,3.126285
832,1747532801670,2.8100750000000003,1.347074,-0.3551033,1.53105135,-0.0793622034999999,2.46795145
833,1747532801680,2.6100701,1.50546715,-0.5222825,0.87138637,0.1030643415,1.67060095
834,1747532801690,2.4910922,1.5768539,-0.5862255,0.52144694,0.16990969,1.2474247
835,1747532801700,1.6005275,1.55257015,-0.4732269999999999,-1.148887715,0.485760575,-0.300937213
836,1747532801710,1.27117225,1.49302015,-0.34045985,-1.7102821,0.70653665,-0.679106085
837,1747532801720,1.1199788,1.4650756,-0.2672427,-1.9776635,0.8404937,-0.85753787
838,1747532801730,0.68604496,1.3624496,0.039537275,-2.26182285,1.0902982,-1.2277173
839,1747532801740,0.51349646,1.3266952,0.17206036,-2.301504,1.1531488,-1.3480922
840,1747532801750,0.43808278,1.3188853,0.24845028,-2.010154,1.2543489,-1.7518274
841,1747532801760,0.45126185,1.3098553,0.25748038,-1.7411747,1.1808456,-1.9494339
842,1747532801770,0.6549276150000001,1.27141625,0.159735465,-1.4386396,0.9219864,-2.3936492
843,1747532801780,0.8346758000000001,1.1885588500000002,0.12373702,-1.3683321,0.8277105,-2.5742116
844,1747532801790,0.9404746,1.06823865,0.172914565,-1.17605195,0.7179882550000001,-3.65225925
845,1747532801800,0.94328125,0.9858693,0.261873425,-1.033040225,0.8098673350000001,-3.9183089
846,1747532801810,0.92302453,0.946332,0.335822775,-0.801078875,0.9550096,-4.08049525
847,1747532801820,0.95719258,0.91130975,0.37328556,-0.6631271,1.0381002,-4.1337585
848,1747532801830,1.2245572,0.9064286,0.319470925,0.031158985,1.22691835,-4.428570499999999
849,1747532801840,1.445795,0.925221,0.25699228,0.3818973,1.226652,-4.6275086
850,1747532801850,1.7464737,0.8973985,0.15888128,0.6631271,0.98110855,-5.0349727
851,1747532801860,2.1330601500000004,0.8524919849999999,0.0861522075,0.9712549,0.39947418,-5.773733200000001
852,1747532801870,2.2445943,0.8454143,0.060770255,1.0519487,0.19441076,-6.020342
853,1747532801880,2.4784014,0.78464407,-0.020988923,1.1361046,-0.11717909,-6.508233
854,1747532801890,3.40642905,0.62856942,-0.19243914,0.76086515,-0.1302285815,-7.408647999999999
855,1747532801900,3.5615275,0.59232694,-0.19646609,0.65673554,-0.034088463,-7.584683
856,1747532801910,3.7682438,0.5100796,-0.17620933,0.2857571949999999,0.341150935,-8.001467349999999
857,1747532801920,4.1057751,0.3358227649999999,0.0165958975,0.0021305299999999,0.611728105,-8.341819000000001
858,1747532801930,4.2646565,0.255772,0.10982577,-0.16458336,0.76965356,-8.554073
859,1747532801940,4.55300995,0.200248965,0.3802412,-0.09427590275,0.833569435,-8.73144
860,1747532801950,4.6705236,0.18841219,0.48201308,0.0010652645,0.84155893,-8.787367
861,1747532801960,4.9310546,0.109215615,0.64467723,0.47537426,0.8476842,-8.967129499999999
862,1747532801970,4.933007,-0.00488115,0.66883888,0.94302535,0.7222493,-9.039034999999998
863,1747532801980,4.81085635,-0.153389985,0.66151715,1.37791955,0.5635249,-9.0440955
864,1747532801990,4.7339783,-0.2135501,0.652365,1.5126755,0.5134575,-9.033976
865,1747532802000,4.391078,-0.31776255,0.630888,1.7491642,0.4181163,-8.965798
866,1747532802010,3.87562905,-0.46822385,0.602455285,1.963815,0.28815404,-8.826781
867,1747532802020,3.33064925,-0.6723777,0.526919585,2.3094933,0.083090629,-8.183095
868,1747532802030,2.7909167,-0.8498073,0.4720067,2.52973675,-0.040746366,-7.575362
869,1747532802040,2.44777215,-0.90447615,0.45675313,2.6618296,-0.097738015,-7.1942635
870,1747532802050,2.2782743,-0.9264413,0.44149956,2.727077,-0.12410331,-7.007842
871,1747532802060,1.9378146,-0.9823304,0.37975308,2.777677,-0.1555286,-6.65737
872,1747532802070,1.27385677,-1.0271149,0.2663885,2.62694215,-0.0021305275,-5.898635649999999
873,1747532802080,0.94865054,-1.04066,0.22013964,2.5118935,0.11451593,-5.5010257
874,1747532802090,0.624786555,-1.070191,0.2316103099999999,2.3025691,0.33182988,-4.8490837
875,1747532802100,0.54034275,-1.0906918,0.25137895,2.2461102,0.40107206,-4.6264434
876,1747532802110,0.237711765,-1.14536065,0.31288139,2.19630895,0.54674695,-3.77716125
877,1747532802120,0.068091973,-1.219554,0.320935275,2.15449745,0.7366303750000001,-3.01629625
878,1747532802130,0.0301410705,-1.31742095,0.333382205,2.11082165,0.978978025,-2.28339435
879,1747532802140,0.1068970725,-1.49643695,0.269317175,2.0399815,1.0881676,-1.9161445
880,1747532802150,0.18768002,-1.6185876,0.20329969,1.9803267,1.107875,-1.7795243
881,1747532802160,0.1705960229999999,-1.8619127,-0.0730951415,1.4642059500000002,1.0306433,-1.7859159
882,1747532802170,-0.168765592,-2.04275915,-0.29884811,0.43436155,1.17978035,-1.6620789
883,1747532802180,-0.6277152349999999,-2.2400794,-0.474325275,-0.7651262000000001,1.4575481,-1.28151315
884,1747532802190,-0.9754968,-2.41043125,-0.534973475,-1.5630093,1.6397083499999998,-0.7107977
885,1747532802200,-1.1353543,-2.507688,-0.5547421,-1.959554,1.7065537,-0.3653857
886,1747532802210,-1.4311516,-2.6834095,-0.4881145,-2.6482475,1.6916399,0.5683186
887,1747532802220,-1.57477935,-2.77163615,-0.1295944064999999,-3.0511838,1.10814135,2.9364014
888,1747532802230,-1.3152245,-2.7248990500000003,0.0719968934999999,-2.9177594,0.42770367,4.69888135
889,1747532802240,-0.8925173500000001,-2.6468008000000003,0.1149509675,-2.6519758500000004,-0.03861584,5.64243935
890,1747532802250,-0.6570021,-2.612877,0.122760795,-2.5076325,-0.24820662,6.056561
891,1747532802260,0.25381953,-2.3898087,-0.029530926,-2.086853,-0.6466155,7.051518
892,1747532802270,0.552057515,-2.28925705,-0.098233038,-2.1150825,-0.76166405,7.15245175
893,1747532802280,0.8972765,-2.12720295,-0.20000491,-2.21654895,-0.935834815,7.28827305
894,1747532802290,0.9442575,-2.0657005,-0.23307467,-2.2897859,-0.99495703,7.3231606
895,1747532802300,1.14389635,-1.8797289,-0.26943921,-2.6796728,-1.0373012,7.536213500000001
896,1747532802310,1.34829425,-1.7628255,-0.24759608,-2.8644962,-1.0077401,7.635283
897,1747532802320,1.5496415,-1.7419586,-0.20110317,-2.9622341,-1.0064086,7.728759699999999
898,1747532802330,1.6764293,-1.7489142,-0.17084008,-2.9672942,-1.0530139,7.753527
899,1747532802340,2.084249,-1.6353056,-0.12349297,-2.68659695,-1.59123875,7.63208725
900,1747532802350,2.2155519,-1.5766098,-0.11983211,-2.5710158,-1.7768611,7.5681715
901,1747532802360,2.6631527,-1.4702009,-0.13716017,-2.1827269,-2.4080303,7.5639105
902,1747532802370,2.9690784,-1.4224877,-0.2441792649999999,-2.0895162000000003,-2.386725,8.02516965
903,1747532802380,3.0978186,-1.4179726,-0.2801777,-2.088451,-2.324407,8.218515
904,1747532802390,3.69697915,-1.45311685,-0.08847075,-1.83864645,-1.85542435,8.8845715
905,1747532802400,4.0825896,-1.4802072,0.09322987,-1.5968314,-1.6447684,9.16447
906,1747532802410,4.6740625,-1.2974082500000002,0.262971675,-0.629304965,-1.57605875,9.3213305
907,1747532802420,4.9243431,-1.1232735,0.269927315,-0.138218065,-1.3989586,9.466739
908,1747532802430,5.11190105,-0.9426712,0.212817915,0.159789665,-1.1331751,9.6390455
909,1747532802440,5.2076936,-0.8571291,0.17645338,0.25513083,-0.9912286,9.717875
910,1747532802450,5.55938,-0.67579454,0.18475133,0.30519825,-0.77444726,9.732256
911,1747532802460,5.590131,-0.516181075,0.43344566,0.748348265,-0.40906155,9.35328875
912,1747532802470,5.5608442,-0.358886175,0.592693,1.213868835,-0.40879524,9.0246545
913,1747532802480,5.550838,0.0084199699999999,0.70788805,1.9060244,-0.569117535,8.497348500000001
914,1747532802490,5.562797,0.28286234,0.7412019,2.314287,-0.69029135,8.177503
915,1747532802500,5.12971735,0.750354,0.142651465,4.794223,-1.7917749,5.783321
916,1747532802510,4.634525,0.9765951,-0.523624825,5.284777249999999,-2.5840652,3.9694417
917,1747532802520,4.0323139,1.1737934,-1.2834971,4.48130125,-2.7747475,2.93959735
918,1747532802530,3.43400765,1.3205938000000002,-1.8951047,2.797917,-2.3984429,2.19018375
919,1747532802540,2.90452525,1.30826885,-1.95868155,-0.4247742500000001,-0.71559145,1.4482270000000002
920,1747532802550,2.652414,1.2442038,-1.7911361,-2.6221485,0.6269081,1.0082728
921,1747532802560,2.2576516,1.0627473,-0.87848405,-4.60993165,2.3952471,0.2434129249999999
922,1747532802570,1.90364665,0.975740825,-0.207326605,-5.0703923500000005,2.9694246,-0.29214879
923,1747532802580,1.36855105,0.92217031,0.528994095,-4.350273700000001,2.7891286500000003,-0.798948385
924,1747532802590,1.03163,0.90081537,0.9100895,-3.639476,2.5177526,-1.073254
925,1747532802600,0.8432178,0.95328766,1.0775127,-2.591256,1.9899141,-1.2618058
926,1747532802610,0.642724755,1.0559137,1.041026185,-0.99096225,1.144893,-1.52838815
927,1747532802620,0.5614536800000001,1.07812295,0.8700640500000001,-0.1275654199999999,0.6671218800000001,-1.6964336
928,1747532802630,0.5099576,1.09410865,0.57329045,0.59921128,0.322508815,-1.92786235
929,1747532802640,0.53497348,1.1115587,0.3108069,1.01839285,0.242081345,-2.1968416
930,1747532802650,0.57280236,1.1197346,0.23966423,1.0791129,0.29454562,-2.3158848
931,1747532802660,0.81734773,1.14194385,0.097744925,1.12598455,0.40693101,-2.8192223
932,1747532802670,0.96268378,1.146825,0.02672426685,1.1512846,0.40426784,-3.2804818
933,1747532802680,1.1950263,1.11216885,-0.08175917815,1.072455035,0.25912557,-4.1305628
934,1747532802690,1.3628157,1.0804414,-0.15790504,0.98430437,0.12942964,-4.7292414
935,1747532802700,1.4384733,1.0843463,-0.22355644,0.74941355,-0.013848438,-5.339638
936,1747532802710,1.41333555,1.16171245,-0.258212565,0.080960095,-0.1360875325,-5.85975335
937,1747532802720,1.67203625,1.1323036,-0.20586228,-0.83996103,0.2372876575,-6.12367275
938,1747532802730,2.0023677,1.05750005,-0.07638991588,-1.6690031,0.7914915,-6.44991
939,1747532802740,2.0705817,1.0413923,-0.00073217176,-1.850897,0.9896307,-6.604107
940,1747532802750,2.2294629,0.9589009,0.23429495,-2.010154,1.2548815,-6.9391327
941,1747532802760,2.4101874,0.8894666,0.71350137,-1.6287894,1.412807,-7.395865000000001
942,1747532802770,2.4676628,0.8793382,0.89080894,-1.3896375,1.4306501,-7.523963
943,1747532802780,3.1205158,0.8423635650000001,1.0823939,0.2700445335,1.3323795,-7.9551288
944,1747532802790,3.5227222,0.8177138150000001,0.97769332,0.898550575,1.3829796,-8.2890895
945,1747532802800,3.717236,0.7878168,0.91497064,1.2010857,1.417867,-8.513594
946,1747532802810,4.0655055,0.62600684,0.7585299,1.562743,1.4855113,-8.9199915
947,1747532802820,4.133598,0.6582224,0.60184515,1.76248,1.347027,-9.117065
948,1747532802830,4.599503,0.490555035,0.23697958,1.65062725,1.1869709,-9.195363
949,1747532802840,4.637453750000001,0.413432955,0.1302045399999999,1.494566,1.31480265,-9.172726
950,1747532802850,4.6373315,0.35876414,0.09567044,1.4093449,1.3891048,-9.150089
951,1747532802860,4.72873115,0.22343441,0.178405855,1.2436962,1.2934974,-9.0116045
952,1747532802870,4.806097299999999,0.14289552,0.2489384,1.1875035,0.92624748,-8.8906975
953,1747532802880,4.810246299999999,0.0281886135,0.29677361,1.1470235,0.5922870650000001,-8.7937585
954,1747532802890,4.64953475,-0.1254454215,0.35534735,1.1611383000000002,0.58589545,-8.7721865
955,1747532802900,4.5201845,-0.21135357,0.3922,1.1845741,0.62903863,-8.755941
956,1747532802910,4.08503,-0.40147418,0.44345203,1.2809805,0.7813715,-8.649415
957,1747532802920,3.0039787,-0.775858025,0.454556645,1.6514262,1.03756757,-8.10746125
958,1747532802930,2.2057894,-1.00856655,0.400253915,1.95183075,1.10627715,-7.5037227
959,1747532802940,1.7827162,-1.0793431,0.3411920499999999,2.0991036000000003,1.06473185,-6.9822757
960,1747532802950,1.5866162,-1.1036268,0.3077562,2.1598237,1.0444918,-6.713829
961,1747532802960,1.2488409,-1.1224194,0.24283697,2.2242723,1.0402308,-6.0224724
962,1747532802970,0.93107843,-1.108508,0.1867038,2.2061627,1.0737866,-5.4605455
963,1747532802980,0.42453756,-1.09423065,0.0837116325,2.03758455,1.2961605500000002,-4.4661213
964,1747532802990,0.19988289,-1.12766655,0.0630887975,1.90522545,1.58031985,-3.81391325
965,1747532803000,0.06931226,-1.1534146,0.05515694,1.8722023,1.71188,-3.6085835
966,1747532803010,-0.40574519,-1.34097255,-0.0200126939999999,1.79497055,2.10442995,-2.9012477
967,1747532803020,-0.723507735,-1.46812635,-0.106408954,1.7773937,2.201369,-2.6493127
968,1747532803030,-0.80172807,-1.513399,-0.15424417,1.6783241,1.8503643,-1.3113406
969,1747532803040,-0.9898962,-1.666789,-0.39988781,1.2852416,1.3211942,-0.43702475
970,1747532803050,-1.044321,-1.7145022,-0.4825012,1.1004182,1.1675298,-0.1555286
971,1747532803060,-1.21479495,-1.9797923,-0.7205790000000001,-0.4101268,0.827710505,1.23224467
972,1747532803070,-1.2184558,-2.0918146,-0.686533025,-1.063133875,0.753408325,1.8650118
973,1747532803080,-1.2090596,-2.148924,-0.64943635,-1.3795174,0.7163904,2.1949775
974,1747532803090,-1.1292529,-2.2140872,-0.49446,-2.0455741,0.577639625,3.25438295
975,1747532803100,-0.8078295,-2.17821085,-0.1511934644849999,-2.27700285,0.4663195,3.95000075
976,1747532803110,-0.6118515,-2.145019,-0.00097622897,-2.3467777,0.40906155,4.2924833
977,1747532803120,-0.37096703,-2.1025531,0.073461235,-2.2461102,0.2727077,5.587312
978,1747532803130,-0.1295944,-2.042271,0.12495731,-2.086853,0.20026971,5.9628177
979,1747532803140,0.07175283,-1.9536783,0.16400647,-1.8482338,0.09534117,6.2147527
980,1747532803150,0.2511349,-1.8467811,0.17547716,-1.5696672,-0.091080114,6.367618
981,1747532803160,0.64040625,-1.6556844,0.04368625,-1.0130665,-0.65673554,6.4831996
982,1747532803170,0.8290624799999999,-1.5342658999999998,-0.1131205365,-0.7882957,-1.0018812,6.478406
983,1747532803180,0.8717725,-1.4824038,-0.17352471,-0.61412495,-1.4199976,6.5034394
984,1747532803190,0.9176552,-1.3886857,-0.3265486,-0.5768407,-1.8018948,6.5934544
985,1747532803200,1.053107,-1.3218141,-0.61819696,-0.7888283,-1.8343854,6.766027
986,1747532803210,1.2891104,-1.2913069,-0.70068836,-1.7443706,-1.6916399,7.042996
987,1747532803220,1.5041249,-1.2866699,-0.7387613,-2.3190808,-1.6037556,7.0126357
988,1747532803230,1.67520895,-1.3273054,-0.7056914999999999,-2.58646215,-1.55315555,6.99106435
989,1747532803240,2.37675155,-1.32535285,-0.4617563,-3.5095137,-1.2032162,6.60277535
990,1747532803250,2.5469816,-1.2568948,-0.33240595,-3.7300234,-1.0492855,6.3559003
991,1747532803260,2.4530194,-1.1905112,-0.11006982,-3.6208339,-0.94275904,6.419816
992,1747532803270,2.36589095,-1.10460305,0.3018988,-3.0045784500000003,-0.7560714500000001,6.96203585
993,1747532803280,2.44887055,-1.08202775,0.481524945,-2.35450075,-0.70227558,7.45072605
994,1747532803290,2.518915,-1.0775127,0.54961693,-1.9851203,-0.70200926,7.7103844
995,1747532803300,3.381169,-1.1092402,0.5195979,-0.25086978,-1.0796455,8.417187
996,1747532803310,3.8209605,-0.9938011,0.38975942,0.67324716,-1.3773869,8.506669
997,1747532803320,4.09283995,-0.929247935,0.1475326075,1.9526298,-1.89404015,8.704276
998,1747532803330,4.3645977,-0.9017915,-0.1962220175,2.6690202000000003,-2.29511225,9.021192
999,1747532803340,4.838557,-0.8626203,-0.573900625,2.9912627,-2.4959147,9.229451
1000,1747532803350,5.084933,-0.8468786,-0.6875093,3.5132422,-2.6253443,9.9740715
