id,timestamp,acc_x,acc_y,acc_z,gyro_x,gyro_y,gyro_z
1,1747533409810,-0.044418417,0.35119838,0.9752528,0.360592,-0.23276028,0.15020229
2,1747533409820,-0.0861522015,-0.32191152,0.2360033499999999,-0.3744404799999999,-0.1717738935,-0.6740461500000001
3,1747533409830,-0.030019043,-0.9989263,-0.33631086,-0.12623383,-0.7163904,-2.7254791
4,1747533409840,0.16644704,-0.9437694,-0.19109683,-0.55979645,-0.9507485,-2.4772725
5,1747533409850,0.24015234,-0.9442575,-0.05296042,-0.5432849,-0.8815063,-2.6104305
6,1747533409860,0.257236335,-0.941816925,-0.010372433,-0.4751079499999999,-0.82238415,-2.7015107
7,1747533409870,0.26284964,-0.941816925,0.0287987535,-0.32091091,-0.69188927,-2.85863725
8,1747533409880,0.3939084,-1.0845904,-0.046858992,-0.0793622,-0.4250405,-3.0280142
9,1747533409890,0.4702983,-1.138039,0.016839951,0.39734364,0.13954964,-3.2911346
10,1747533409900,0.4229512,-1.1399914,0.065163285,0.8069378,0.21198763,-3.1941955
11,1747533409910,0.34595115,-1.1407235999999998,0.041245675,0.91160005,0.160854935,-3.02109005
12,1747533409920,0.263093715,-1.1148535,-0.0342900425,1.0213223,0.01997371,-2.680738
13,1747533409930,0.28237423,-0.9867234,-0.17376876,0.94169377,-0.16804547,-2.4277376
14,1747533409940,0.294089,-0.7739055,-0.2037878,0.18535602,-0.5001417,-2.450641
15,1747533409950,0.35022214,-0.7321718,-0.19890666,-0.18056233,-0.5571333,-2.6557043
16,1747533409960,0.40586719,-0.7460830350000001,-0.188900305,-0.318780385,-0.5347627500000001,-2.7758129
17,1747533409970,0.497266635,-0.80795151,-0.146800425,-0.5086637700000001,-0.4474110649999999,-2.97075625
18,1747533409980,0.528628,-0.9962417,0.045882765,-0.518517475,-0.2900182449999999,-3.0349384
19,1747533409990,0.50617474,-0.9901402,0.050763905,-0.068176925,-0.17470337,-2.6674223
20,1747533410000,0.49860895,-0.9405966,0.00097622897,0.10333065,-0.16618125,-2.5582325
21,1747533410010,0.49226347,-0.8678676,-0.07272906,0.16618125,-0.16884442,-2.5502431
22,1747533410020,0.488846675,-0.82747612,-0.096036528,0.12942964,-0.14594123,-2.6365294
23,1747533410030,0.56548065,-0.72607034,-0.11251039,0.010120012,-0.18056233,-2.9534457
24,1747533410040,0.64187056,-0.8163715,-0.108117364,-0.0026631611,-0.17150758,-3.08181
25,1747533410050,0.66932698,-0.8679896,-0.082369322,0.0316916164499999,-0.105194865,-3.13747015
26,1747533410060,0.7191146500000001,-0.931566475,-0.018182264,0.170175997,0.081226415,-3.24692615
27,1747533410070,0.7649974500000001,-0.929614005,0.035144244,0.34487937,0.262321365,-3.30604835
28,1747533410080,0.77024466,-0.8993509,-0.04807928,0.37896784,0.24288029,-3.2426650500000003
29,1747533410090,0.72338563,-0.88836837,-0.3243521,-0.51505536,-0.6668556,-2.5965822
30,1747533410100,0.7577977,-0.8073414,-0.3943965,-1.0476876,-1.0077401,-2.3792682
31,1747533410110,0.7653635,-0.75657743,-0.38683072,-1.4881744,-1.196292,-2.2109563
32,1747533410120,0.7836677999999999,-0.762800915,-0.35461517,-1.6168051,-1.20055305,-2.15263305
33,1747533410130,0.8876362,-0.8329674,-0.19988288,-1.7598169,-1.0998856,-2.0772657
34,1747533410140,0.9652464,-0.88373125,0.04002539,-0.9651296,-0.58056915,-2.2903185
35,1747533410150,0.95646036,-0.87396896,0.008053889,-0.47617322,-0.2609898,-2.3558323
36,1747533410160,0.94718618,-0.86969798,-0.0447845055,-0.282295085,-0.1046622375,-2.3747408
37,1747533410170,0.93229866,-0.83736044,-0.20085911,0.1486044,0.2657835,-2.4032366
38,1747533410180,0.945843845,-0.8340656449999999,-0.23673553,0.2031992,0.268712975,-2.38885555
39,1747533410190,0.82491344,-0.8261338,-0.27651685,0.2647182,0.048469532,-2.1763353
40,1747533410200,0.8605459,-0.7829357,-0.21306199,0.2593919,-0.04527374,-2.1624868
41,1747533410210,0.882511,-0.73412424,-0.14228538,0.22956449,-0.08042747,-2.3238745
42,1747533410220,0.875677425,-0.7169182000000001,-0.138136405,0.17896444,-0.01917476,-2.3537018
43,1747533410230,0.8751893,-0.6772589,-0.13032657,0.1123854,0.035153728,-2.3297334
44,1747533410240,0.8812907,-0.6794554,-0.11690342,0.04474111,0.032490566,-2.2610238
45,1747533410250,0.8937377,-0.6879974,-0.097134784,-0.012250541,-0.01917476,-2.194445
46,1747533410260,0.9169231,-0.68994985,-0.1071411295,-0.12676647,-0.21358553,-2.0330572
47,1747533410270,0.94913864,-0.6828722,-0.14228538,-0.2050634,-0.26897928,-1.9718045
48,1747533410280,0.9725681,-0.6621273,-0.12837411,-0.2657835,-0.27483824,-1.9542277
49,1747533410290,0.99795,-0.6296677,-0.09786696,-0.27164245,-0.23276028,-1.9920446
50,1747533410300,1.0094208,-0.5937913,-0.08102701,-0.24181503,-0.15286545,-2.0442424
51,1747533410310,1.0174747,-0.56072155,-0.0883487249999999,-0.2082591999999999,-0.01038633,-2.09883725
52,1747533410320,1.0219898,-0.5145947,-0.10470056,-0.15446335,0.21997711,-2.1965754
53,1747533410330,1.01613235,-0.49104317,-0.12190659,-0.1478054449999999,0.24181503,-2.2162827
54,1747533410340,1.0047837,-0.44662476,-0.14472595,-0.11611383,0.2615224,-2.2487733
55,1747533410350,1.00368545,-0.423927445,-0.1524137549999999,-0.07137272,0.25566345,-2.2248049
56,1747533410360,1.0179628,-0.383658,-0.18206671,-0.031425302,0.24181502,-2.1758027
57,1747533410370,1.02638275,-0.369746735,-0.195245795,0.020772656,0.21997711,-2.0969732
58,1747533410380,1.0355349,-0.328257,-0.23649146,0.0005326322,0.19973709,-2.0836573
59,1747533410390,1.0535952,-0.30238694,-0.27407628,-0.14487597,0.113983296,-2.078331
60,1747533410400,1.0704352,-0.29897013,-0.28261828,-0.23062976,0.11132014,-2.086853
61,1747533410410,1.07519425,-0.298848105,-0.27920149,-0.263386645,0.121972785,-2.0884509
62,1747533410420,1.0894716,-0.30433938,-0.25162303,-0.31691617,0.15659387,-2.1012342
63,1747533410430,1.09569505,-0.3038512599999999,-0.23795582,-0.303866685,0.1699096749999999,-2.1105553
64,1747533410440,1.154879,-0.30946457,-0.19646609,-0.0777643,0.27217507,-2.1273332
65,1747533410450,1.1168059,-0.33484653,-0.21550256,0.01438107,0.2514024,-2.027731
66,1747533410460,1.1168059,-0.33484653,-0.21550256,0.01438107,0.2514024,-2.027731
67,1747533410470,1.1231514,-0.36254704,-0.26297169,0.0175768629999999,0.179497055,-1.872735
68,1747533410480,1.1499978,-0.37633628,-0.28798756,-0.020240024,0.075101145,-1.5616777
69,1747533410490,1.2212625,-0.41050428,-0.26992732,-0.06924219,0.06338324,-1.4274544
70,1747533410500,1.2385906,-0.4300289,-0.25089085,-0.11504856,0.098004326,-1.2873721
71,1747533410510,1.23761435,-0.43588625,-0.235271195,-0.08575379,0.13954964,-1.2373047
72,1747533410520,1.2337094,-0.449919515,-0.211475615,-0.058589545,0.15339808,-1.20854255
73,1747533410530,1.22687575,-0.470664395,-0.204519975,0.0045273734999999,0.164583355,-1.12518555
74,1747533410540,1.1966126,-0.55864704,-0.23917611,0.082558,0.082025364,-0.78083885
75,1747533410550,1.2141849,-0.5876899,-0.25821257,0.06977482,0.0314253,-0.5933523
76,1747533410560,1.2130866,-0.6006249,-0.269805285,0.04447479,-0.0165116,-0.487092175
77,1747533410570,1.20918165,-0.62991175,-0.290672185,-0.019707392,-0.133957,-0.26258769
78,1747533410580,1.24383775,-0.6600528000000001,-0.285791035,-0.16618125,-0.39095205,0.283893
79,1747533410590,1.3061944,-0.68433654,-0.23307467,-0.15020229,-0.40213734,0.47244477
80,1747533410600,1.3274274,-0.69287854,-0.19329333,-0.06657903,-0.3552657,0.69721556
81,1747533410610,1.3354812,-0.6760386,-0.17035197,0.039414786,-0.28868666,0.87511474
82,1747533410620,1.3398743,-0.65382934,-0.17328064,0.13848437,-0.22264028,1.0391655
83,1747533410630,1.34780615,-0.644433145,-0.197198255,0.20719394,-0.15286545,1.1808456
84,1747533410640,1.3435352,-0.6296677,-0.23600335,0.28016454,-0.07084008,1.4583471
85,1747533410650,1.3132721,-0.62600684,-0.2506468,0.31052458,-0.08681905,1.6362462
86,1747533410660,1.3163228,-0.62185785,-0.250768825,0.32117723,-0.09720538,1.71853785
87,1747533410670,1.33255255,-0.61539033,-0.24857231,0.33369409,-0.1163801449999999,1.86554435
88,1747533410680,1.3464638,-0.5872018,-0.21965154,0.33182988,-0.13315806,2.038916
89,1747533410690,1.3535415,-0.5776835,-0.20403185,0.29507825,-0.06018744,2.3270702
90,1747533410700,1.3452435,-0.5598673,-0.19329333,0.28016454,-0.020240024,2.47674
91,1747533410710,1.3423148,-0.5516913999999999,-0.193415355,0.267913995,-0.0079894829999999,2.553439
92,1747533410720,1.3482942,-0.54497985,-0.197198245,0.23888554,0.0135821214999999,2.6863307
93,1747533410730,1.4531169,-0.5449798,-0.16791138,0.18695392,0.2561961,2.7872643
94,1747533410740,1.4675162,-0.53961056,-0.14106509,0.2146508,0.41065946,2.7968519
95,1747533410750,1.4392056,-0.53643787,-0.12861817,0.24927188,0.51452273,2.8826056
96,1747533410760,1.4028411,-0.52472305,-0.1313028,0.26312032,0.57790595,3.0317426
97,1747533410770,1.3932008,-0.511055855,-0.13520772,0.24234766,0.6013417750000001,3.1334753
98,1747533410780,1.37855735,-0.492629555,-0.144847985,0.18429075,0.6327670750000001,3.29859135
99,1747533410790,1.3484163,-0.4842096,-0.15277983,-0.028229509,0.6487461,3.432282
100,1747533410800,1.3275494,-0.48189105,-0.151559545,-0.09427591,0.66579026,3.4242926
101,1747533410810,1.28410725,-0.48250119,-0.15436621,-0.11744541,0.67404608,3.422961
102,1747533410820,1.2212625,-0.5100796,-0.17230442,-0.14061491,0.6823019,3.4216294
103,1747533410830,1.23163495,-0.533387085,-0.163274295,-0.175236,0.6823019,3.428021
104,1747533410840,1.2117443,-0.5679212,-0.13447554,-0.17257284,0.8026768,3.3241577
105,1747533410850,1.1460928,-0.5876899,-0.1300825,-0.13901701,0.805339935,3.33401145
106,1747533410860,1.11705,-0.5989165000000001,-0.123004845,-0.07536746,0.809867285,3.3665021
107,1747533410870,1.0496902,-0.6252747,-0.09225364,0.046339005,0.8495484,3.4083135
108,1747533410880,1.0133257,-0.63503695,-0.053936653,0.257794,1.0721886,3.2820797
109,1747533410890,1.0033194,-0.6604189,-0.02831064,0.38562572,1.2596753,3.1734228
110,1747533410900,0.9781815,-0.67018116,0.011714748,0.5640575,1.470065,3.0738206
111,1747533410910,0.9701276,-0.67372003,0.02574804,0.6796386999999999,1.59656515,3.03840055
112,1747533410920,0.94303715,-0.6894617,0.05027579,1.2676647,2.2237396,2.952913
113,1747533410930,0.9237567,-0.68433654,0.065163285,1.3944311,2.3835292,2.974751
114,1747533410940,0.89861876,-0.6640798,0.07272906,1.4476944,2.4820662,2.988067
115,1747533410950,0.8768977,-0.6545615,0.06711575,1.4247912,2.5198832,2.9859362
116,1747533410960,0.82808626,-0.66139513,0.102504045,1.2559468,2.5582325,3.0290794
117,1747533410970,0.8744571,-0.69971216,0.14594623,1.1366372,2.59818,3.0264163
118,1747533410980,0.86664724,-0.69898,0.2208718,1.0562097,2.692456,3.025351
119,1747533410990,0.7812273,-0.6496804,0.25089085,0.9779128,2.790993,3.0866039
120,1747533411000,0.7392494,-0.6245425,0.2208718,0.76965356,2.8527782,3.165966
121,1747533411010,0.70068836,-0.66017485,0.21965154,0.2727077,2.67914,3.1430628
122,1747533411020,0.69898,-0.6875093,0.31654227,0.16458336,2.6818032,3.064766
123,1747533411030,0.67579454,-0.69263446,0.42051062,0.22210763,2.8160267,2.9891322
124,1747533411040,0.68653303,-0.7050814,0.46273252,0.3616573,3.0248184,2.9214878
125,1747533411050,0.69971216,-0.7541369,0.46370876,0.6380934,3.5611792,2.8133633
126,1747533411060,0.6648119,-0.7072779,0.460536,0.7536746,3.8759646,2.7766118
127,1747533411070,0.6169767,-0.6648119,0.42075467,0.8202536,4.2472095,2.7180223
128,1747533411080,0.60526195,-0.6509006500000001,0.39036955,0.8103999,4.34707805,2.6676886
129,1747533411090,0.5513253,-0.6389419,0.32947728,0.7185209,4.465056,2.499643
130,1747533411100,0.34387666,-0.6272271,0.27334413,0.5475459,4.4496098,2.4213462
131,1747533411110,0.3014107,-0.6487042,0.28798756,0.51665324,4.476241,2.47674
132,1747533411120,0.31581008,-0.66944903,0.33704305,0.5448828,4.5753107,2.4889903
133,1747533411130,0.34851375,-0.6721336,0.37658033,0.62903863,4.691425,2.450641
134,1747533411140,0.29701766,-0.6855568,0.44394013,0.777643,5.1478906,2.3963125
135,1747533411150,0.29994637,-0.6587105,0.42978483,1.2532836,5.600628,2.3595607
136,1747533411160,0.294089,-0.6518769,0.39805737,1.4626081,5.9329906,2.2615564
137,1747533411170,0.26162934,-0.6221019,0.35656762,1.587244,6.177469,2.1369205
138,1747533411180,0.24149463,-0.606360225,0.328501045,1.619202,6.322345,2.0069582
139,1747533411190,0.13057062,-0.5320448,0.19500175,1.5414376,6.3777385,1.8727349
140,1747533411200,0.13325526,-0.4829893,0.06638357,0.93796533,6.0182114,1.6362462
141,1747533411210,0.114828935,-0.4842095899999999,0.0125689485,0.692954525,5.8674765,1.5813851
142,1747533411220,0.0604041675,-0.475423515,-0.0702884865,0.190948663,5.579322599999999,1.4932345
143,1747533411230,-0.027090356,-0.43613032,-0.15448824,-0.6045376,5.103682,1.4141386
144,1747533411240,-0.09469421,-0.4588276,-0.36340126,-1.1062771,4.7611995,1.2777847
145,1747533411250,-0.13081467,-0.4656612,-0.46663743,-1.1590078,4.78357,1.1877699
146,1747533411260,-0.15692882,-0.47737598,-0.53717,-1.051416,4.889564,1.107875
147,1747533411270,-0.1901206,-0.50593066,-0.5859815,-0.79735047,4.9598713,1.0450244
148,1747533411280,-0.24088451,-0.5281399,-0.6792113,-0.4314321,4.9204564,0.97897804
149,1747533411290,-0.20134723,-0.5359497,-0.8638406,0.13795175,4.42138,0.62584287
150,1747533411300,-0.17254847,-0.5125202,-1.2346857,0.20772657,4.027765,0.40852892
151,1747533411310,-0.19341537,-0.49677852,-1.30887905,0.139017013,3.7068541,0.30652985
152,1747533411320,-0.2421048,-0.447601,-1.5016843,-0.19920446,2.7393274,0.075101145
153,1747533411330,-0.251012875,-0.4352761,-1.5385369,-0.37390783,2.3805997000000003,0.0053263224999999
154,1747533411340,-0.37291947,-0.4458926,-1.4936304,-1.077515,0.4878911,-0.23489082
155,1747533411350,-0.48176903,-0.51593703,-1.4128474,-1.1217234,-0.3749731,-0.21624869
156,1747533411360,-0.497388665,-0.539732615,-1.3646461,-1.07618335,-0.7640609500000001,-0.19707393
157,1747533411370,-0.5130083,-0.5635282,-1.3164448,-1.0306433,-1.1531488,-0.17789917
158,1747533411380,-0.4831113099999999,-0.53192277,-1.1293749,-0.614124955,-2.2397186,-0.1150485625
159,1747533411390,-0.42905265,-0.460536,-0.8217408,-0.18535602,-3.0594394,-0.0644485
160,1747533411400,-0.4046469,-0.42636803,-0.7294871,-0.07190535,-3.246926,-0.099069595
161,1747533411410,-0.38536638,-0.39927766,-0.6274712,0.02609898,-3.3593116,-0.1965413
162,1747533411420,-0.3790209,-0.3699908,-0.5086153,0.12623383,-3.4621096,-0.35473305
163,1747533411430,-0.3487578,-0.32386398,-0.40049794,0.15925704,-3.776895,-0.79735047
164,1747533411440,-0.340948,-0.31190515,-0.40708748,0.020772656,-3.9862196,-1.0253171
165,1747533411450,-0.37877685,-0.3355787,-0.40318257,-0.2050634,-4.3020706,-1.1973573
166,1747533411460,-0.37877685,-0.3355787,-0.40318257,-0.2050634,-4.3020706,-1.1973573
167,1747533411470,-0.370112825,-0.39561678,-0.34338854,-0.58882494,-4.8482847,-1.4082796
168,1747533411480,-0.27529657,-0.456143,-0.11373068,-0.7984157,-5.24696,-1.839179
169,1747533411490,-0.23551524,-0.49446,-0.060038086,-0.7749799,-5.3348446,-2.0229373
170,1747533411500,-0.19036464,-0.5298483,-0.05686534,-0.80747044,-5.4376426,-2.229066
171,1747533411510,-0.186459735,-0.52508915,-0.05247231,-0.85993472,-5.49782995,-2.33266285
172,1747533411520,-0.14594623,-0.5181335,-0.0690682,-1.02052335,-5.660548950000001,-2.51668725
173,1747533411530,-0.0746815158,-0.57158207,-0.027212383,-1.4306501,-5.9154134,-2.7947214
174,1747533411540,0.07150877,-0.6723777,0.14863087,-1.63225145,-5.86108495,-2.850914
175,1747533411550,0.09664667,-0.7185045,0.25479576,-1.8274611,-5.5196676,-3.0589068
176,1747533411560,0.089324953,-0.73241577,0.2528433049999999,-1.79630215,-5.437376,-3.0964574
177,1747533411570,0.087250468,-0.7709768400000001,0.210011265,-1.76248005,-5.29170105,-3.139068
178,1747533411580,0.17254847,-0.8092938,0.19158493,-1.74117475,-4.96679535,-3.1182954
179,1747533411590,0.21745501,-0.8471227,0.18816814,-1.6346483,-4.4485445,-3.0525153
180,1747533411600,0.25748038,-0.8983747,0.23575929,-1.4215955,-4.061321,-2.9811425
181,1747533411610,0.25320939,-0.8947138299999999,0.258090525,-1.27485525,-3.8711711,-2.95504355
182,1747533411620,0.25076882,-0.873724905,0.241372605,-1.018659115,-3.57635905,-2.92175415
183,1747533411630,0.2238005,-0.7834238,-0.041001618,-1.031974965,-3.52069905,-2.90337835
184,1747533411640,0.3116611,-0.74364245,-0.06589546,-1.5174692,-3.7012613,-2.9209552
185,1747533411650,0.37145513,-0.7487676,-0.061746486,-1.8679413,-3.738013,-2.948652
186,1747533411660,0.388783185,-0.761214515,-0.018548352,-1.94197715,-3.63414965,-2.9593047
187,1747533411670,0.418436155,-0.791111515,0.078708461,-1.98512035,-3.40325355,-2.9992521
188,1747533411680,0.4502856,-0.8278422,0.13496366,-1.8748655,-3.1939292,-3.0511837
189,1747533411690,0.49446,-0.92156017,0.13960074,-1.2202604,-2.6626284,-2.9656963
190,1747533411700,0.507395,-0.89349353,0.1295944,-0.8873653,-2.4559672,-2.9273467
191,1747533411710,0.5103237,-0.75535715,-0.025626011,-0.5683186,-2.0570257,-3.0013826
192,1747533411720,0.5418071,-0.71142685,-0.07297312,-0.6673882,-1.9563582,-3.0487869
193,1747533411730,0.6037976,-0.6867771,-0.09493827,-0.87564737,-1.8359833,-3.08181
194,1747533411740,0.6321083,-0.6484601,-0.16473864,-1.1765846,-1.7981664,-3.067429
195,1747533411750,0.6956852,-0.7073999,-0.18877829,-1.3590111,-1.921737,-3.0346721
196,1747533411760,0.800873825,-0.82186275,-0.232098445,-1.8498317,-2.31481955,-2.9230857
197,1747533411770,0.8429737,-0.9193637,-0.20598431,-2.2269354,-2.64372,-2.7872645
198,1747533411780,0.8548104700000001,-0.93608163,-0.158271123,-2.2024343,-2.57208095,-2.701777
199,1747533411790,0.8171036,-0.9003272,0.040513504,-1.6458336,-1.9829898,-2.7079022
200,1747533411800,0.8046567,-0.84590245,0.0096402614999999,-1.11799505,-1.5401061,-2.8264129
201,1747533411810,0.83321145,-0.7664618,-0.1055547605,-0.446878435,-1.02025703,-3.0431943
202,1747533411820,0.852736025,-0.71643005,-0.28762146,-0.29268141,-1.00560963,-3.18327655
203,1747533411830,0.7792748,-0.67579454,-0.5232587,-0.50813115,-1.3544837,-3.1356058
204,1747533411840,0.7826916150000001,-0.65529372,-0.56011135,-0.715325075,-1.4828481,-3.0218889
205,1747533411850,0.78610843,-0.6347929,-0.596964,-0.922519,-1.6112125,-2.908172
206,1747533411860,0.795992715,-0.6120955699999999,-0.47566758,-2.08285835,-1.9558256,-2.33319545
207,1747533411870,0.795992715,-0.59122867,-0.36266908,-2.2181469,-1.94064555,-2.29937325
208,1747533411880,0.8174697150000001,-0.5576707999999999,-0.3038513,-2.22427215,-1.86181595,-2.4016386
209,1747533411890,0.9449896,-0.52252656,-0.3116611,-2.117213,-1.6591494,-2.7126958
210,1747533411900,0.98428285,-0.53765815,-0.41758195,-1.7928401,-1.3646038,-2.9640985
211,1747533411910,0.96976149,-0.540464775,-0.466027305,-1.7206684,-1.3153353,-2.92548255
212,1747533411920,0.94913864,-0.5537659,-0.59794027,-1.5377092,-1.2037488,-2.6961844
213,1747533411930,1.0438329,-0.56474847,-0.6169767,-1.4748586,-1.2218584,-2.553439
214,1747533411940,1.0328503,-0.50617474,-0.62356627,-1.4210628,-0.95447695,-2.2993734
215,1747533411950,0.9894081,-0.47737598,-0.5957437,-1.4088123,-0.84422207,-2.201369
216,1747533411960,0.9261973,-0.44808912,-0.60648227,-1.4636734,-0.86179894,-2.1337247
217,1747533411970,0.92180425,-0.41221267,-0.6125837,-1.5488945,-0.86179894,-2.1358552
218,1747533411980,0.9093573,-0.35290676,-0.5869577,-1.5973641,-0.79255676,-2.183792
219,1747533411990,0.9025237,-0.32898918,-0.6325964,-1.5638082,-0.60720074,-2.2370553
220,1747533412000,0.94303715,-0.33582276,-0.68994987,-1.4972292,-0.49960902,-2.2322617
221,1747533412010,0.9715919,-0.33094162,-0.71948075,-1.3928332,-0.3653857,-2.231729
222,1747533412020,0.95670444,-0.3270367,-0.7326599,-1.3044163,-0.28549087,-2.2125542
223,1747533412030,0.93327487,-0.32020313,-0.7482795,-1.2463595,-0.2231729,-2.1731396
224,1747533412040,0.9061846,-0.25650415,-0.72558224,-1.1781825,-0.0053263223,-2.1065605
225,1747533412050,0.8839754,-0.20964517,-0.72655845,-1.1994878,0.00958738,-2.128931
226,1747533412060,0.8839754,-0.20964517,-0.72655845,-1.1994878,0.00958738,-2.128931
227,1747533412070,0.8278422,-0.14399378,-0.7382732,-1.31160685,-0.060720071,-2.18432475
228,1747533412080,0.81246656,-0.12983845,-0.6887296,-1.4008228,-0.111852765,-2.1816616
229,1747533412090,0.8161274,-0.1244692,-0.68091977,-1.3203954,-0.037284255,-1.9856529
230,1747533412100,0.8390688,-0.09811102,-0.68360436,-1.2681973,0.008522116,-1.9313245
231,1747533412110,0.86103404,-0.073461235,-0.70215267,-1.2511531,0.0242347664999999,-1.92786235
232,1747533412120,0.86737952,-0.0606482275,-0.7172842349999999,-1.22345625,0.0559263835,-1.95449395
233,1747533412130,0.9030118,-0.012690976,-0.7409578,-1.186172,0.1107875,-2.0836573
234,1747533412140,0.90276775,0.000976229,-0.7484015500000001,-1.0833739,0.2514024,-2.2365227
235,1747533412150,0.89398164,0.016351834,-0.8075854,-1.0828413,0.19813919,-2.2434468
236,1747533412160,0.89324947,0.016351834,-0.83699435,-1.11586455,0.156061243,-2.2277342
237,1747533412170,0.8947138,0.0251378955,-0.8727487700000001,-1.20028675,0.011185278,-2.18592265
238,1747533412180,0.8690878,0.028066583,-0.88788027,-1.28018155,-0.190948655,-2.10389735
239,1747533412190,0.90520835,0.0014643435,-0.9196077,-1.3326459,-0.5139901,-1.8221349
240,1747533412200,0.94157284,-0.0024405725,-0.9096014,-1.32412375,-0.547279625,-1.7811221499999998
241,1747533412210,0.97476465,0.0043930304,-0.9135063,-1.2958943,-0.588026,-1.6873789
242,1747533412220,0.95670444,0.011470691,-0.9445015,-1.2548815,-0.6215818,-1.5994946
243,1747533412230,0.92400074,0.0102504045,-0.9752528,-1.257012,-0.70467246,-1.5217303
244,1747533412240,0.9103335,-0.008297946,-0.9999026,-1.2564794,-0.7909589,-1.4002901
245,1747533412250,0.90789294,-0.044662476,-1.001611,-1.202151,-0.819721,-1.2037488
246,1747533412260,0.90801502,-0.0557670829999999,-0.98708955,-1.1379688,-0.783768335,-1.1241203
247,1747533412270,0.906672725,-0.067969945,-0.9585348,-0.8676579,-0.6535397,-0.89801794
248,1747533412280,0.907770925,-0.0656514,-0.9619516,-0.45167214,-0.62317973,-0.7504788
249,1747533412290,0.88104665,-0.051007964,-1.0001466,-0.294013,-0.6487461,-0.7137272
250,1747533412300,0.8588374,-0.037828874,-1.0164984,-0.20080236,-0.6562029,-0.66632295
251,1747533412310,0.8428516500000001,-0.034778157,-1.0263827,-0.190416025,-0.67511135,-0.633299725
252,1747533412320,0.81283265,-0.0374627875,-1.0280911,-0.18402443,-0.7089335,-0.5587311850000001
253,1747533412330,0.8070973,-0.033679903,-0.94962674,-0.18855181,-0.6801714,-0.38615838
254,1747533412340,0.83125895,-0.028798755,-0.92546505,-0.12942964,-0.4181163,-0.18908444
255,1747533412350,0.8432178,-0.030019043,-0.8964222,-0.056991648,-0.23116238,-0.118776985
256,1747533412360,0.838824785,-0.021599067,-0.8850735999999999,-0.0023968439999999,-0.1603223,-0.088416949
257,1747533412370,0.830038735,-0.01061649,-0.8789721749999999,0.10759171,-0.0431432133,-0.0242347665
258,1747533412380,0.8605459,0.007565775,-0.9576807,0.32384038,0.20879184,0.108124346
259,1747533412390,0.8710403,0.0021965152,-0.9642702,0.42290998,0.30253512,0.14966966
260,1747533412400,0.871772475,-0.0059794024,-0.9630499,0.518517465,0.337688835,0.19467708
261,1747533412410,0.86786756,-0.012080834,-0.9612195,0.710531375,0.366717275,0.28682245
262,1747533412420,0.861278035,0.0,-0.96939545,0.9036106,0.28682245,0.38429415
263,1747533412430,0.85395632,0.0039049163999999,-1.0191831,1.12598455,-0.042876885,0.51851747
264,1747533412440,0.8678676,-0.007565775,-1.0716554,1.3060142,-0.42397526,0.6828345
265,1747533412450,0.94669807,-0.026602242,-1.0794652,1.3480922,-0.37230992,0.7440872
266,1747533412460,1.0179628,-0.049787678,-1.0152781,1.5925703,0.05912218,0.8474179
267,1747533412470,1.0179628,-0.049787678,-1.0152781,1.5925703,0.05912218,0.8474179
268,1747533412480,1.0266268,-0.056255194,-0.985503165,1.84317375,0.345678315,0.93716645
269,1747533412490,1.0511546,-0.049787678,-0.96768695,2.2631543,0.9262474,1.1227888
270,1747533412500,1.0511546,-0.045394648,-1.0050278,2.3574302,1.2016183,1.4173343
271,1747533412510,1.0511546,-0.045394648,-1.0050278,2.3574302,1.2016183,1.4173343
272,1747533412520,1.0121055,-0.024649782,-1.0133257,2.2775354,1.0205233,1.7225326
273,1747533412530,1.0152782500000002,-0.01037243305,-1.0128376,2.22693535,0.94968325,1.7656758
274,1747533412540,1.0028312,-0.008297946,-1.0157663,2.016013,0.72437984,1.8801918
275,1747533412550,0.97476465,-0.009030119,-1.0130817,1.7907095,0.58696073,1.9670109
276,1747533412560,0.98330665,-0.014521407,-1.0046617,1.4618091,0.460726885,2.09271195
277,1747533412570,1.009298775,-0.0187924085,-0.986113315,0.99655488,0.304931955,2.2458437
278,1747533412580,1.0667742,-0.024161667,-0.9405966,0.65034395,0.23329292,2.2897859
279,1747533412590,1.0958171,-0.033435844,-0.89154106,0.56245965,0.22104238,2.295645
280,1747533412600,1.10216255,-0.072607032,-0.83333346,0.69428611,0.23089607,2.3411850000000003
281,1747533412610,1.1264462000000002,-0.12544543,-0.7579198300000001,0.978179085,0.29534457,2.4165525
282,1747533412620,1.1584177,-0.152047665,-0.7250941,1.32119425,0.486293215,2.460761
283,1747533412630,1.1878266,-0.17279254,-0.6726217,1.7281253,0.857271525,2.4732778
284,1747533412640,1.2121102499999998,-0.17096211,-0.6581003249999999,2.21175535,1.47512495,2.43652615
285,1747533412650,1.2459122,-0.16717921,-0.60062486,3.232545,3.260242,2.2833943
286,1747533412660,1.19344,-0.18841219,-0.61966133,3.456783,3.8109837,2.3009713
287,1747533412670,1.1397473,-0.20842488,-0.6501685,3.518036,4.1555967,2.3813987
288,1747533412680,1.1033828,-0.204764025,-0.66151715,3.47622435,4.23069785,2.46102715
289,1747533412690,0.9232686,-0.23697957,-0.7136234,2.8314729,3.7310886,3.0136333
290,1747533412700,0.92131615,-0.25601605,-0.72729063,2.3952472,3.220827,3.244263
291,1747533412710,0.99550945,-0.25162303,-0.68994987,1.8658108,2.674879,3.4141726
292,1747533412720,1.016498425,-0.261629365,-0.6230781649999999,1.7198695000000002,2.5161546,3.45332105
293,1747533412730,1.0355349,-0.3141017,-0.42417148,1.4162691,2.1901836,3.5760927
294,1747533412740,1.0033194,-0.36779428,-0.23795582,1.3576796,2.5150893,3.788613
295,1747533412750,1.010397,-0.38975942,-0.15863721,1.4199976,2.8868666,3.8557248
296,1747533412760,1.0235761,-0.39354231,-0.131424825,1.504686,3.3145704,3.893009
297,1747533412770,1.0369992,-0.40391475,-0.08590815,1.568602,3.7896783,3.9164448
298,1747533412780,0.9914825,-0.414409225,-0.067603857,1.588842,3.991546,3.9366849
299,1747533412790,0.9015475,-0.46151224,-0.044418417,1.7635453,4.51246,4.037352
300,1747533412800,0.8754333,-0.49543622,-0.061502427,1.8066885,4.3787694,4.01871
301,1747533412810,0.8581053,-0.524479,-0.06345488,1.8218685,4.32017995,3.9867522
302,1747533412820,0.8829991,-0.5232587,-0.0388051,1.8327875,4.211523,3.8381479
303,1747533412830,0.7734174,-0.48665017,0.020988923,1.7896442,4.1428137,3.6357477
304,1747533412840,0.73485637,-0.48689422,0.008053889,1.4327807,4.1097903,3.55532
305,1747533412850,0.7080101,-0.4834774,0.04368625,1.1323761,4.0490704,3.4653053
306,1747533412860,0.688607525,-0.4827452399999999,0.0790745475,1.0098707,4.029362949999999,3.4194989
307,1747533412870,0.6440670500000001,-0.49116521,0.1477766575,0.791225175,3.96757745,3.33454405
308,1747533412880,0.55693865,-0.5747548,0.23795582,0.47990164,3.8418763,3.2868736
309,1747533412890,0.56743306,-0.56865335,0.28115395,0.4394216,3.9484026,3.2421324
310,1747533412900,0.59867245,-0.58427304,0.34119204,0.44474792,4.1055293,3.1329427
311,1747533412910,0.6035536,-0.6042857,0.40171823,0.48735848,4.295679,3.0258837
312,1747533412920,0.5603554,-0.6257628,0.43100512,0.53955644,4.4442835,2.9582393
313,1747533412930,0.4334457,-0.626495,0.37682438,0.48043427,4.657869,2.9294772
314,1747533412940,0.45052966,-0.6106312,0.36559775,0.3669836,4.7569385,2.8746161
315,1747533412950,0.45711923,-0.60941094,0.37682438,0.28628982,4.82724595,2.80670545
316,1747533412960,0.4323474149999999,-0.60538399,0.38268176,0.152599135,4.983573399999999,2.6812706
317,1747533412970,0.36632994,-0.5859815,0.37194324,0.013848438,5.313539,2.511361
318,1747533412980,0.3465613,-0.57438875,0.33862942,-0.095341171,5.544435,2.3957798
319,1747533412990,0.26675457,-0.54864067,0.27187976,-0.29241508,6.0512347,2.183792
320,1747533413000,0.20159128,-0.5176454,0.23331872,-0.34514567,6.314355,2.1230721
321,1747533413010,0.168887615,-0.53094655,0.20647242,-0.349673045,6.3772056500000005,2.09617405
322,1747533413020,0.046614934,-0.61209553,0.01513155,-0.38562572,6.4214144,1.917476
323,1747533413030,0.040513504,-0.6289356,0.016839951,-0.40053943,6.3340626,1.7741979
324,1747533413040,0.012446919,-0.62551874,0.037584815,-0.4048005,6.269081,1.653823
325,1747533413050,-0.0129350339999999,-0.58854407,-0.020866895,-0.40160471,6.2685485,1.6045545
326,1747533413060,-0.038316987,-0.5515694,-0.079318605,-0.39894155,6.3324647,1.4503576
327,1747533413070,-0.010006348,-0.5520575,-0.19622204,-0.4511395,6.391054,1.2863069
328,1747533413080,-0.024161667,-0.5281399,-0.44027928,-0.66206187,6.151902,0.88044107
329,1747533413090,-0.025626011,-0.5281399,-0.5535218,-0.8277105,5.9196744,0.68869346
330,1747533413100,-0.04515059,-0.52911615,-0.6313761,-0.98430437,5.703426,0.5118596
331,1747533413110,-0.090789296,-0.54205114,-0.67506236,-1.0892329,5.322061,0.3685815
332,1747533413120,-0.14985114,-0.6360132,-0.86664724,-1.1153319,4.926848,0.31957933
333,1747533413130,-0.16913168,-0.6733539,-0.895202,-1.0237192,3.9515984,0.2412824
334,1747533413140,-0.19817449,-0.7294871,-0.93059033,-0.88470215,3.2975261,0.23276028
335,1747533413150,-0.24161668,-0.75267255,-0.99184865,-0.7366304,2.6727486,0.257794
336,1747533413160,-0.247596075,-0.756455425,-0.995143425,-0.66445873,2.3819313,0.28575719
337,1747533413170,-0.21135357,-0.750232,-0.9898962,-0.51532168,1.81281375,0.334226715
338,1747533413180,-0.17718557,-0.70093244,-0.97500867,-0.21624869,0.46871635,0.37230992
339,1747533413190,-0.183164965,-0.68128582,-0.943037215,-0.181627595,0.270843482,0.37284255
340,1747533413200,-0.18938842,-0.6374775,-0.88104665,-0.120907517,-0.075101143,0.372309925
341,1747533413210,-0.184629305,-0.62710508,-0.8577392100000001,-0.052464273,-0.300404575,0.351803585
342,1747533413220,-0.18109047,-0.60697037,-0.7643873,0.0655137639999999,-0.44394895,0.29055088
343,1747533413230,-0.186215675,-0.607946605,-0.7455949,0.23329292,-0.615989145,0.19307919
344,1747533413240,-0.2660224,-0.61722076,-0.7482795,0.52837116,-1.3869743,-0.044208474
345,1747533413250,-0.29579738,-0.6125837,-0.7133793,0.49215218,-2.2700787,-0.22264028
346,1747533413260,-0.29872607,-0.60648227,-0.66285945,0.45220476,-2.53080215,-0.278832975
347,1747533413270,-0.2933568,-0.6125837,-0.53961056,0.3850931,-3.0983217,-0.4261058
348,1747533413280,-0.2801777,-0.6042857,-0.46322066,0.386158365,-3.19898915,-0.47697215
349,1747533413290,-0.2608972,-0.58988637,-0.3904916,0.40852892,-3.4200315,-0.64341974
350,1747533413300,-0.2289257,-0.567311085,-0.3465612999999999,0.41252366,-3.4714305,-0.80533992
351,1747533413310,-0.19683217,-0.5354616,-0.283716565,0.40879523,-3.53081905,-1.06073705
352,1747533413320,-0.18999857,-0.5287500199999999,-0.23771176,0.39468048,-3.53428115,-1.2532836
353,1747533413330,-0.176819485,-0.53326512,-0.1785278699999999,0.39734365,-3.5169705,-1.4530207000000002
354,1747533413340,-0.1581491,-0.53082454,-0.10518867,0.42344263,-3.4791536,-1.7992316
355,1747533413350,-0.2208718,-0.65163285,-0.04515059,0.405865765,-3.6179044,-1.9531623
356,1747533413360,-0.247107965,-0.6731098900000001,-0.040513503,0.36112465,-3.8906121,-2.133991
357,1747533413370,-0.25967692,-0.699224015,-0.04698102,0.28682245,-4.1577272,-2.1824606
358,1747533413380,-0.20134723,-0.70312893,-0.0605262,0.11717909,-4.5263085,-2.2770028
359,1747533413390,-0.1564407,-0.70020026,-0.046858992,0.048469533,-4.660532,-2.3374566000000003
360,1747533413400,-0.05198419,-0.7302193,0.062478654,-0.117445412,-4.95347975,-2.4937841
361,1747533413410,-0.02367355115,-0.72167727,0.0907892995,-0.20959079,-5.0863715,-2.63040425
362,1747533413420,0.064919226,-0.73290396,0.13154685,-0.15925704,-4.9667954,-2.7542412
363,1747533413430,0.0924977,-0.76756,0.15570852,-0.090014845,-4.8528123,-2.8234835
364,1747533413440,0.117391534,-0.775858,0.20134723,0.0010652645,-4.5401573,-2.9342709
365,1747533413450,0.144237837,-0.7784206,0.2164787799999999,0.1025317072499999,-4.45040865,-2.9518478
366,1747533413460,0.17010791,-0.76707193,0.199516795,0.2125202649999999,-4.3508065,-2.98353945
367,1747533413470,0.16864355,-0.73680884,0.08029483,0.15845809,-4.400074999999999,-3.0016489
368,1747533413480,0.17401281,-0.7521844200000001,0.07858643,-0.00479369,-4.511395,-2.9758163
369,1747533413490,0.31581008,-0.7636551,0.18182266,-0.23515713,-4.5209823,-2.86236565
370,1747533413500,0.3568117,-0.75194037,0.20866893,-0.37337518,-4.2120557,-2.7238812
371,1747533413510,0.3568117,-0.75194037,0.20866893,-0.37337518,-4.2120557,-2.7238812
372,1747533413520,0.43198135,-0.7568215,0.2633378,-0.14807177,-3.3609095,-2.6498454
373,1747533413530,0.4240494649999999,-0.75584527,0.2763948499999999,-0.03062636,-3.1377366,-2.6458507
374,1747533413540,0.3316738,-0.7241178,0.21306199,0.5187838,-2.2871227,-2.5092304
375,1747533413550,0.32410803,-0.75950617,0.18914436,0.65247446,-2.2556975,-2.368083
376,1747533413560,0.346561295,-0.7615806350000001,0.183531045,0.67963871,-2.26581755,-2.3049660000000003
377,1747533413570,0.46712556,-0.72021294,0.18865626,0.6556703,-2.267948,-2.1662152
378,1747533413580,0.63454884,-0.6731099,0.21281794,0.42237735,-2.038916,-2.2530344
379,1747533413590,0.64992446,-0.67481834,0.22306833,0.35739622,-1.8945729,-2.352104
380,1747533413600,0.641382455,-0.66847282,0.203543745,0.332895145,-1.8572886,-2.41681875
381,1747533413610,0.616122525,-0.654927635,0.152169695,0.2841593,-1.814678,-2.55876515
382,1747533413620,0.6009909499999999,-0.634792885,0.09530436,0.2375539749999999,-1.84823385,-2.7337348500000003
383,1747533413630,0.61819698,-0.61111932,0.0590618549999999,0.1866875949999999,-1.9928435,-2.93054245
384,1747533413640,0.7470592,-0.5757311,-0.004148973,-0.15073492,-2.6583674,-3.3060482
385,1747533413650,0.78537625,-0.58891016,-0.016351834,-0.2745719199999999,-2.81176555,-3.2927324
386,1747533413660,0.78537625,-0.58891016,-0.016351834,-0.39840892,-2.9651637,-3.2794166
387,1747533413670,0.90264571,-0.63430478,0.0895690099999999,-0.5099953850000001,-2.6999127,-3.0309438
388,1747533413680,1.0218678,-0.6343048,0.1867038,-0.26525086,-1.8695391,-2.8730183
389,1747533413690,0.9198518,-0.5954997,0.09469421,-0.14807177,-1.5765914,-2.8325381
390,1747533413700,0.86664724,-0.5720702,0.010738519,-0.084155895,-1.5025555,-2.8272119
391,1747533413710,0.85908147,-0.55742675,-0.0122028619999999,-0.0657800809999999,-1.5337145,-2.8333372
392,1747533413720,0.8538342999999999,-0.51447267,-0.0547908515,-0.038615836,-1.6215988,-2.86476255
393,1747533413730,0.8891005,-0.44320798,-0.117391534,-0.049002163,-1.8998991,-3.02109
394,1747533413740,1.0692148,-0.39805737,-0.20232345,-0.3371562,-2.3664849,-3.252785
395,1747533413750,1.1343781,-0.3743838,-0.25015867,-0.69774824,-2.5987127,-3.2240229
396,1747533413760,1.14865545,-0.37011282,-0.270903545,-0.94036217,-2.69165695,-3.155846
397,1747533413770,1.16329885,-0.40135217,-0.29408899,-1.7289242,-3.0120351,-2.8900626
398,1747533413780,1.1124129,-0.46444094,-0.200371,-2.4106934,-3.1015174,-2.4847293
399,1747533413790,1.1097283,-0.48006064,-0.1244692,-2.364887,-2.9321404,-2.3787355
400,1747533413800,1.10179645,-0.475911635,-0.10287013,-2.22587,-2.7830033500000004,-2.3837955
401,1747533413810,1.10655555,-0.444550245,-0.0899350949999999,-1.86288115,-2.4493092,-2.4612935
402,1747533413820,1.13035115,-0.38963738,-0.14985115,-1.3891048,-2.0932446,-2.63866
403,1747533413830,1.0633575,-0.31190515,-0.3778006,-1.2080098,-1.7960359,-2.6317358
404,1747533413840,1.0650659,-0.2596769,-0.36315718,-1.1669972,-1.5382419,-2.5427864
405,1747533413850,1.1011863,-0.20500809,-0.36779428,-1.1664646,-1.3124058,-2.5081651
406,1747533413860,1.0711672,-0.18963248,-0.37487194,-1.1680624,-1.1254519,-2.5209484
407,1747533413870,1.048958,-0.17547716,-0.3619369,-1.1249193,-0.94116116,-2.5624936
408,1747533413880,1.1016744,-0.14936304,-0.34778157,-0.8543421,-0.54275227,-2.747317
409,1747533413890,1.1543908,-0.14130914,-0.37267542,-0.72278196,-0.38296258,-2.8591697
410,1747533413900,1.2044226,-0.14204131,-0.41929033,-0.6375608,-0.27643612,-2.9294772
411,1747533413910,1.21430685,-0.140821025,-0.458705585,-0.64475132,-0.26631611,-2.93267295
412,1747533413920,1.2298044,-0.14741057,-0.5442476549999999,-0.70999877,-0.32650355,-2.91296565
413,1747533413930,1.2156491,-0.15741692,-0.6530972,-1.0668623,-0.7089335,-2.5768747
414,1747533413940,1.21308655,-0.162176035,-0.644677215,-1.1337076499999998,-0.7917578000000001,-2.48819145
415,1747533413950,1.2129645,-0.13569583,-0.6399181,-1.2711268,-0.9353022,-2.3118902500000003
416,1747533413960,1.2483528,-0.10958171,-0.67018116,-1.4309165,-1.0354371,-2.14411105
417,1747533413970,1.25750495,-0.109093595,-0.66774058,-1.6074841,-1.0500845,-1.98405505
418,1747533413980,1.2245572,-0.121906595,-0.6582223700000001,-1.66820415,-1.02664865,-1.7984328
419,1747533413990,1.1419438,-0.15155955,-0.67481834,-1.4721955,-1.0088054,-1.5893745
420,1747533414000,1.1321816,-0.14082102,-0.6889736,-1.257012,-0.91985583,-1.5318503
421,1747533414010,1.1264462,-0.121540503,-0.6901938999999999,-1.1472898,-0.87165263,-1.5270566
422,1747533414020,1.10972825,-0.074315433,-0.73607665,-0.84688526,-0.5683186,-1.5430355
423,1747533414030,1.0721434,-0.05296042,-0.7968469,-0.8527442,-0.42876893,-1.5291871
424,1747533414040,1.0479817,-0.051252022,-0.80294836,-0.88683265,-0.27004454,-1.4833808
425,1747533414050,1.0025872,-0.055645052,-0.8175918,-0.912399,-0.22849922,-1.4221281
426,1747533414060,0.96622265,-0.0560111385,-0.8466346,-0.9440906,-0.27830034,-1.3611417
427,1747533414070,0.92143815,-0.0505198505,-0.8842194000000001,-0.98616855,-0.38775626,-1.28550795
428,1747533414080,0.873725,-0.033435844,-0.90374404,-0.98776647,-0.53103433,-1.2665995
429,1747533414090,0.86225426,-0.026846299,-0.95328766,-0.8697884,-1.031176,-1.2708606
430,1747533414100,0.869576,-0.034900185,-0.9408407,-0.8697884,-1.031176,-1.2708606
431,1747533414110,0.8829991,-0.06589546,-0.8947139,-0.56245965,-1.0647318,-1.1307782
432,1747533414120,0.94816244,-0.06467517,-0.83028275,-0.31691617,-0.80374205,-1.026915
433,1747533414130,1.0162543,-0.04759116,-0.7905014,-0.217580265,-0.633299725,-0.998152815
434,1747533414140,1.02626065,-0.05491288,-0.7812272250000001,-0.027963195,-0.268180325,-0.947286395
435,1747533414150,1.0470055500000002,-0.064431115,-0.797945145,0.21065605,0.2322276549999999,-0.8793757799999999
436,1747533414160,1.039928,-0.08444381,-0.8844635,0.401338385,0.58536283,-0.7853662
437,1747533414170,1.023576,-0.12007617,-0.9340071,0.52411014,0.6812366,-0.56459016
438,1747533414180,1.02052535,-0.13398743,-0.940352585,0.56938387,0.65540395,-0.452737395
439,1747533414190,1.053107,-0.13447554,-0.9117979,0.7339672,0.4607269,-0.10546118
440,1747533414200,1.06738435,-0.14106509,-0.921438165,0.9603359,-0.07190535,0.36804888
441,1747533414210,1.1168059,-0.16058967,-0.9247329,1.0061423,-0.12676647,0.45193844
442,1747533414220,1.1402354,-0.17425688,-0.88421935,1.1696603,-0.1784318,0.6854977
443,1747533414230,1.1839217,-0.17279254,-0.83491987,1.3022858,-0.068176925,0.83942837
444,1747533414240,1.2139407,-0.16547081,-0.7512082,1.619202,0.3371562,1.1430287
445,1747533414250,1.1968567,-0.15302388,-0.7243619,1.7901769,0.51292485,1.2815131
446,1747533414260,1.1900231,-0.150461285,-0.7285109000000001,1.9180087,0.6317018,1.3869743
447,1747533414270,1.1780643,-0.12642166,-0.76926845,2.0010993,0.7462177,1.4530207
448,1747533414280,1.1614684,-0.091033354,-0.78635246,2.0474384,0.8543421,1.4737934
449,1747533414290,1.0679946,-0.09859913,-0.88055855,1.8471686,0.59388494,1.5845809
450,1747533414300,1.0409042,-0.09737884,-0.89349353,1.6682042,0.4063984,1.6836505
451,1747533414310,1.04285665,-0.098843185,-0.88287708,1.58191775,0.30173616,1.7465011
452,1747533414320,1.0632354,-0.1029921575,-0.860667885,1.4261227500000002,0.117445405,1.8687402
453,1747533414330,1.1230294,-0.1220286174999999,-0.8167375699999999,1.3116068,-0.0063915865,1.9837887
454,1747533414340,1.21028,-0.15400012,-0.74291027,1.361408,0.04314321,2.2455776
455,1747533414350,1.22248285,-0.159979525,-0.72265351,1.4828481,0.186421275,2.30256915
456,1747533414360,1.2355398,-0.162176045,-0.693000555,1.71880415,0.468716355,2.41921555
457,1747533414370,1.2221166499999998,-0.1581491,-0.70483735,1.9675435,0.7600662,2.646117
458,1747533414380,1.1946602,-0.1552204,-0.80368054,1.9515644,0.6695187,2.8069718
459,1747533414390,1.1581736,-0.15607461,-0.8615221200000001,1.6213325,0.007456851,3.1739554
460,1747533414400,1.138771,-0.24308102,-0.93010217,1.4333134,-0.3888215,3.4791536
461,1747533414410,1.16342085,-0.2834725,-0.919485685,1.37791965,-0.5326322,3.6541233
462,1747533414420,1.2805684,-0.37999713,-0.8534682,1.3203954,-0.8111989,4.15826
463,1747533414430,1.4482356,-0.44516042,-0.6665203,1.6804547,-0.34408042,4.582235
464,1747533414440,1.5246257,-0.44345203,-0.562796,1.943575,0.19813919,4.5950184
465,1747533414450,1.5168158,-0.42978483,-0.52960426,2.172607,0.8277105,4.507134
466,1747533414460,1.4953387500000002,-0.427588315,-0.52594338,2.2610239,1.0711234,4.4325655
467,1747533414470,1.4385954,-0.41929035,-0.51557092,2.42081355,1.50335445,4.2698462500000005
468,1747533414480,1.34756205,-0.40647733,-0.50898137,2.7867317,2.1827269,3.6048548
469,1747533414490,1.1773322,-0.383658,-0.46541715,2.9550436,2.3137543,3.2490566
470,1747533414500,1.0858107,-0.38780698,-0.44223174,3.0410637,2.38912175,3.1214912
471,1747533414510,1.06592,-0.39573884,-0.43454395,3.2147018,2.6162895,2.91882465
472,1747533414520,1.0623811,-0.42051062,-0.39464056,3.4125748,3.0423954,2.8463867
473,1747533414530,1.0550594000000002,-0.424781635,-0.37365163,3.44107055,3.3273536000000004,2.8967204
474,1747533414540,1.0216236,-0.39073566,-0.33631086,3.3422673,3.7870152,2.996589
475,1747533414550,0.95597225,-0.3773125,-0.3648656,3.0248184,3.704457,3.0828753
476,1747533414560,0.906062575,-0.36425544,-0.383902055,2.77208445,3.5694348500000004,3.1515849
477,1747533414570,0.82149673,-0.34887983,-0.387562915,2.2319954,3.27355775,3.29832505
478,1747533414580,0.8022162,-0.39464056,-0.117147475,1.1462245,2.696717,3.5611792
479,1747533414590,0.82296103,-0.44686884,0.002928687,1.0524813,2.6594326,3.551059
480,1747533414600,0.81685966,-0.4612682,0.064919226,1.1350393,2.8069718,3.478621
481,1747533414610,0.8217407800000001,-0.463952815,0.0924976979999999,1.2199941,2.95690775,3.4258905
482,1747533414620,0.86274236,-0.48787045,0.15668476,1.490305,3.4493263,3.2559807
483,1747533414630,0.8002637,-0.4915313,0.11006982,1.6335831,4.045342,3.1233554
484,1747533414640,0.82759815,-0.5176454,0.08371163,1.5094798,4.189685,3.073288
485,1747533414650,0.81832397,-0.5252112,0.10152781,1.2964269,4.2685146,3.033873
486,1747533414660,0.79721302,-0.52838395,0.113730675,1.17072565,4.3007388,3.034672
487,1747533414670,0.73436826,-0.575487,0.16278619,0.7286409,4.398477,3.1009848
488,1747533414680,0.753038615,-0.64235868,0.2550398299999999,0.6351639250000001,4.53270025,3.1145669
489,1747533414690,0.8070973,-0.767316,0.4825012,0.74089146,4.9145975,3.0706248
490,1747533414700,0.788549,-0.8573731,0.55913514,1.0295781,5.0706587,3.134008
491,1747533414710,0.66822875,-0.8849516,0.5027579,1.15767615,5.18118,3.2890040000000003
492,1747533414720,0.66822875,-0.8849516,0.5027579,1.2857742,5.2917013,3.444
493,1747533414730,0.65419546,-0.83955695,0.4962904,1.1864383,5.443501449999999,3.4610442
494,1747533414740,0.5418071,-0.7604824,0.4612682,0.97045594,5.780658,3.4413369
495,1747533414750,0.5418071,-0.7604824,0.4612682,0.87404947,5.90076625,3.40724845
496,1747533414760,0.4419877,-0.66017485,0.38170552,0.777643,6.0208745,3.37316
497,1747533414770,0.2203837049999999,-0.419412375,0.087616555,0.1536644009999999,6.12154215,3.10950695
498,1747533414780,0.17718557,-0.34631725,-0.03819496,-0.013848438,6.050702,3.0498521
499,1747533414790,0.008297946,-0.25796852,-0.23429495,-1.0274476,5.445632,2.8538435
500,1747533414800,-0.05662128,-0.25601605,-0.28676724,-1.546764,5.0482883,2.7340012
501,1747533414810,-0.13716017,-0.23966423,-0.3360668,-2.2546322,4.303136,2.3174827
502,1747533414820,-0.15546446,-0.2545517,-0.3660859,-2.4080303,3.9446743,1.9659456
503,1747533414830,-0.19158493,-0.25992095,-0.44345203,-2.4580977,3.7294908,1.6932379
504,1747533414840,-0.23014598,-0.26651052,-0.50031734,-2.4469125,3.5851476,1.4716629
505,1747533414850,-0.23600335,-0.2818861,-0.6286915,-2.39524725,3.4685011,1.29003525
506,1747533414860,-0.2421048,-0.2779812,-0.68262815,-2.2732744,3.3262882,0.9528791
507,1747533414870,-0.24979259,-0.2694392,-0.706179675,-2.172607,3.36304,0.8021441
508,1747533414880,-0.31239328,-0.26797485,-0.7834238,-2.0298615,3.4099116,0.6785734
509,1747533414890,-0.3431445,-0.2860351,-0.84565836,-1.8418423,3.2410672,0.46179214
510,1747533414900,-0.46029195,-0.3482697,-0.9789136,-1.2218584,2.8442562,0.350472
511,1747533414910,-0.48799245,-0.36254704,-1.0256506,-1.0649982,2.6501117,0.31664985
512,1747533414920,-0.54253924,-0.37926495,-1.1458488,-0.62584287,2.0543625,0.23915187
513,1747533414930,-0.53863436,-0.3648656,-1.1753798,-0.3787015,1.6943032,0.20293288
514,1747533414940,-0.5319227799999999,-0.34631725,-1.14475055,-0.14674017,1.35368485,0.174437055
515,1747533414950,-0.5444917,-0.3403378299999999,-1.11253495,0.18801918,0.83729787,0.146740175
516,1747533414960,-0.567067,-0.35913023,-1.0921562,0.39441417,0.48043428,0.137152795
517,1747533414970,-0.579636,-0.37291947,-1.0140579,0.69668293,-0.11824436,0.08042747
518,1747533414980,-0.57988006,-0.37267542,-0.98428285,0.776045145,-0.38535941,0.04154531555
519,1747533414990,-0.54839665,-0.353883,-0.8808026,0.89588743,-1.4668691,-0.18642128
520,1747533415000,-0.534607425,-0.35315083,-0.8450481999999999,0.884169515,-1.6295883,-0.249804515
521,1747533415010,-0.50629678,-0.35229663,-0.7632890299999999,0.8657937,-1.9212045,-0.3882889
522,1747533415020,-0.4876264,-0.35461518,-0.64235866,0.8543421,-2.16515005,-0.543817525
523,1747533415030,-0.48799248,-0.3632792099999999,-0.6303998550000001,0.8269115499999999,-2.4146883,-0.705737715
524,1747533415040,-0.48323336,-0.4041588,-0.5349735,0.6716492,-3.022688,-1.1270498
525,1747533415050,-0.4639528,-0.41758195,-0.4886026,0.6130597,-3.2847428,-1.3235911
526,1747533415060,-0.447601,-0.4300289,-0.46663743,0.5123922,-3.6618466,-1.5787219
527,1747533415070,-0.45419052,-0.46419686,-0.456143,0.3834952,-4.052266,-1.7587516
528,1747533415080,-0.43710655,-0.4983649,-0.4058672,0.19920446,-4.4906225,-1.9121497
529,1747533415090,-0.378166725,-0.5115439749999999,-0.39586084,-0.04048004,-4.89835235,-2.0322583
530,1747533415100,-0.27297804,-0.543027325,-0.34912388,-0.40373522,-5.419000349999999,-2.2032332500000003
531,1747533415110,-0.15741692,-0.56987363,-0.18426323,-0.60906495,-5.55748475,-2.3065638
532,1747533415120,-0.1183677625,-0.5762191400000001,-0.13935669,-0.73796195,-5.52339615,-2.4261398
533,1747533415130,0.0026846298,-0.62014943,-0.00097622897,-0.8873653,-4.860269,-2.8826056
534,1747533415140,0.061014313,-0.6472398,0.03807293,-0.9139969,-4.5976815,-3.0668964
535,1747533415150,0.0837116415,-0.6898278,0.05051985,-0.89988215,-4.46718645,-3.1188280500000003
536,1747533415160,0.10262608,-0.76719395,0.101893895,-0.75101143,-3.9888828,-3.2155008
537,1747533415170,0.11202228,-0.8305268349999999,0.1618099499999999,-0.642354465,-3.83415305,-3.2059134
538,1747533415180,0.20183535,-0.9947773,0.2403964,0.13209279,-2.9758162,-3.0322752
539,1747533415190,0.23527117,-0.98452693,0.2523552,0.5486112,-2.5832663,-3.0157638
540,1747533415200,0.234294945,-0.975252765,0.23319671,0.73609775,-2.40243765,-3.0216227
541,1747533415210,0.23917611,-0.93937635,0.17572121,1.149953,-1.9142802,-3.0232205
542,1747533415220,0.26284966,-0.88421935,0.11690342,1.16460035,-1.75182735,-3.02215525
543,1747533415230,0.30360723,-0.80294836,0.08127106,1.0002833,-1.45089015,-2.9619678
544,1747533415240,0.26321574,-0.85664093,0.015619662755,0.4990764,-1.5659387,-2.7569044
545,1747533415250,0.2443013,-0.8644508,-0.00048811449,0.16085494,-1.8434402,-2.6253443
546,1747533415260,0.2477181,-0.846024475,0.024771810755,0.0521979615,-1.9667445,-2.5851306000000003
547,1747533415270,0.26516819,-0.865915145,0.050153763,-0.1041296035,-2.2580943,-2.5204158000000003
548,1747533415280,0.3133695,-0.8812907,0.0370967,-0.31265512,-3.0722227,-2.3515713
549,1747533415290,0.383658,-0.83809257,0.09396204,-0.330232,-3.0333405,-2.2951124
550,1747533415300,0.46785772,-0.81466305,0.17669745,-0.28016456,-2.90737295,-2.30629755
551,1747533415310,0.49995126,-0.80990395,0.17938208,-0.166181255,-2.60829995,-2.370746
552,1747533415320,0.5347294499999999,-0.7865965100000001,0.178039765,-0.035420045,-2.2373216,-2.49751255
553,1747533415330,0.47737598,-0.6962953,0.087616555,0.13635385,-1.7044232,-2.7089674
554,1747533415340,0.43246946,-0.71093875,-0.0039049159,0.007456851,-1.9366508,-2.728675
555,1747533415350,0.47639978,-0.7336361,-0.13154685,-0.36964676,-2.523079,-2.6194854
556,1747533415360,0.5835409,-0.73388016,-0.19817449,-0.9177253,-3.226686,-2.5252094
557,1747533415370,0.66115105,-0.7407138,-0.17254847,-1.5180018,-3.862649,-2.4256072
558,1747533415380,0.79318607,-0.8066092,-0.039537273,-2.4735441,-4.165184,-2.18539
559,1747533415390,0.80636513,-0.8083176,0.09030118,-2.4580977,-3.7241645,-2.1475732
560,1747533415400,0.796358795,-0.815639315,0.129838455,-2.30443335,-3.3635725,-2.1662153
561,1747533415410,0.77097683,-0.811002215,0.211109525,-1.86101705,-2.5395905,-2.2525017
562,1747533415420,0.75535715,-0.7124031,0.12129646,-0.314253,-0.81918836,-2.6716833
563,1747533415430,0.7213111750000001,-0.7108167299999999,0.02879876,-0.02876214,-0.7052051,-2.6786075
564,1747533415440,0.69336665,-0.677747,-0.2037878,-0.008522116,-0.8974853,-2.599778
565,1747533415450,0.721067125,-0.67079135,-0.26138532,-0.168844408,-1.19096565,-2.54225365
566,1747533415460,0.7986773199999999,-0.66054095,-0.3746278899999999,-0.566987,-1.788579,-2.4506408000000004
567,1747533415470,0.9459658,-0.7197248,-0.35119838,-1.3374395,-2.612561,-2.21575
568,1747533415480,0.958412785,-0.7241178500000001,-0.27822526,-1.7715348,-2.454902,-2.1342573
569,1747533415490,0.93059033,-0.733148,-0.094206095,-1.6048208,-1.9398465,-2.1065605
570,1747533415500,0.8390688,-0.69458693,-0.03099527,-1.2692626,-1.3038837,-2.1299963
571,1747533415510,0.78134925,-0.636867415,-0.0538146224999999,-0.843156825,-0.7965515000000001,-2.2242722500000003
572,1747533415520,0.76389915,-0.5437595,-0.19841854,-0.1470065,-0.19813919,-2.4985778
573,1747533415530,0.779274775,-0.5111778849999999,-0.27688294,-0.124635945,-0.334226725,-2.64451905
574,1747533415540,0.8139309,-0.4566311,-0.46956614,-0.26525086,-0.9219864,-2.9854035
575,1747533415550,0.80587703,-0.45345837,-0.5444917,-0.52357745,-1.4205302,-3.035471
576,1747533415560,0.851149615,-0.456509085,-0.54327142,-0.802676725,-1.7262611,-2.97022355
577,1747533415570,0.9238787,-0.45589894,-0.50678486,-1.2623384,-2.0373182,-2.8399951
578,1747533415580,0.95755865,-0.44674679,-0.43466595,-1.28897,-1.91055175,-2.80777085
579,1747533415590,0.94669807,-0.40781966,-0.3162982,-1.2692626,-1.57099875,-2.75237705
580,1747533415600,0.89898491,-0.371333095,-0.3065359,-0.9981528,-0.9254485,-2.68446635
581,1747533415610,0.844194025,-0.3081222649999999,-0.34033782,-0.7137272,-0.44341632,-2.6346652500000003
582,1747533415620,0.8672574,-0.265046165,-0.441621585,-0.6514092499999999,-0.45273737,-2.6559706
583,1747533415630,0.9434033,-0.233440755,-0.5584029850000001,-0.71292825,-0.64102285,-2.7326696
584,1747533415640,1.0494461,-0.19744232,-0.6999562,-1.25861,-1.2277173,-2.8831382
585,1747533415650,1.0853225,-0.24332508,-0.70923036,-1.4977618,-1.3374395,-2.812298
586,1747533415660,1.1036268,-0.25211114,-0.6648119,-1.5832493,-1.34303215,-2.74944745
587,1747533415670,1.1032608000000002,-0.251134905,-0.6430908,-1.7105484,-1.30601425,-2.61549055
588,1747533415680,1.0831261,-0.23697957,-0.59281504,-1.768339,-1.1430287,-2.418683
589,1747533415690,1.0474937,-0.17450093,-0.5430274,-1.6378441,-0.8090684,-2.273807
590,1747533415700,1.0321181,-0.13471961,-0.5462001,-1.551025,-0.7238472,-2.2743397
591,1747533415710,1.01698655,-0.119343995,-0.56169775,-1.5233281500000002,-0.7238472,-2.28792185
592,1747533415720,0.9862353,-0.06199054,-0.609655,-1.4849787,-0.7653925,-2.3419838
593,1747533415730,0.98525906,-0.016595893,-0.6570021,-1.5361114,-0.8229168,-2.3861923
594,1747533415740,0.9752528,0.009518232,-0.70312893,-1.6463662,-0.89801794,-2.4261398
595,1747533415750,0.9596331,0.027090356,-0.7314396,-1.8977686,-0.9853696,-2.4261398
596,1747533415760,0.97793734,0.028798755,-0.7477914,-2.0399814,-0.9438243,-2.3883228
597,1747533415770,0.99355704,0.026114125,-0.7402256,-2.0730046,-0.905208475,-2.3670176
598,1747533415780,1.0091767,0.025870068,-0.7302193,-2.108691,-0.7616641,-2.2913837
599,1747533415790,1.0169866,0.022209208,-0.72338563,-1.9110844,-0.58056915,-2.1363878
600,1747533415800,0.9962417,0.021721095,-0.7280228,-1.7395768,-0.545948,-2.0335898
601,1747533415810,0.99355707,0.032459615,-0.7452288199999999,-1.5861788,-0.53476274,-1.9584887
602,1747533415820,0.9784255,0.09567044,-0.7975791,-1.4849787,-0.6194513,-1.9201392
603,1747533415830,0.9025237,0.10030753,-0.9518233,-1.700162,-1.0950918,-1.7907095
604,1747533415840,0.8886124,0.084687866,-0.954996,-1.9339876,-1.3321131,-1.6053536
605,1747533415850,0.91082162,0.076756003,-0.936813715,-1.9853866,-1.3499563,-1.5414377
606,1747533415860,0.94730822,0.056743308,-0.8910529899999999,-2.02666555,-1.32332475,-1.4306502
607,1747533415870,0.97500867,0.018792408,-0.82247293,-1.94357495,-1.18191095,-1.3496901
608,1747533415880,0.9969738,0.006345488,-0.82857436,-1.75236005,-0.951014875,-1.29429635
609,1747533415890,0.9942892,0.004148973,-0.8515157,-1.103614,-0.25832662,-1.2602079
610,1747533415900,0.98330665,0.001830429255,-0.86140005,-0.973918035,-0.11957593,-1.26100685
611,1747533415910,0.9557282,-0.000366085865,-0.8773858,-0.708134535,0.13928333,-1.25594685
612,1747533415920,0.92436685,0.00280665838,-0.89507995,-0.41225733,0.3422161999999999,-1.232511
613,1747533415930,0.8942258,0.023673553,-0.95743656,0.14221281,0.5320996,-1.1456919
614,1747533415940,0.8980087,0.0262361539999999,-0.962073655,0.202666565,0.528371185,-1.128914
615,1747533415950,0.9017916,0.028798755,-0.96671075,0.31638354,0.5044027,-1.0530139
616,1747533415960,0.90472025,0.017084008,-0.98525906,0.31638354,0.5044027,-1.0530139
617,1747533415970,0.9288819,-0.037828874,-0.96402615,0.35686359,0.44554685,-0.8183894
618,1747533415980,0.93559345,-0.0453946469999999,-0.964880345,0.37763625,0.43089947,-0.5139901
619,1747533415990,0.942915125,-0.054302736,-0.96524642,0.387756255,0.4247742,-0.43196474
620,1747533416000,0.94572186,-0.043198135,-0.94938266,0.46818373,0.3222425,-0.15606125
621,1747533416010,0.950847055,-0.0386830755,-0.94767423,0.5107943,0.26871296,-0.0817590505
622,1747533416020,0.954996025,-0.028676728,-0.95194523,0.6002765000000001,0.165382305,0.0633832395
623,1747533416030,0.9608534,-0.021232981,-0.96304995,0.8127968,-0.050600063,0.40746364
624,1747533416040,1.0064921,-0.024405725,-0.98208636,0.8692558,-0.06498113,0.5022722
625,1747533416050,1.0130816500000002,-0.0219651525,-0.99453328,0.8942895,-0.070573768,0.536893285
626,1747533416060,1.0106411,-0.017084007,-1.0040515,0.95820537,-0.102265388,0.6082659850000001
627,1747533416070,0.98599133,-0.0223312385,-0.9886759,1.05168232,-0.181361275,0.6977481999999999
628,1747533416080,0.96195168,-0.0172060367,-0.95426383,1.24289725,-0.30146984,0.90387685
629,1747533416090,0.9618296,0.00097622897,-0.9022797,1.4977618,-0.33768883,1.1787151
630,1747533416100,0.9813542,0.012446919,-0.8844635,1.6005598,-0.24394555,1.2724584
631,1747533416110,0.99026228,0.0135451765,-0.88482955,1.6399746,-0.1704423075,1.31826475
632,1747533416120,1.00759038,0.007321717,-0.89190718,1.70468945,0.0010652649999999,1.41041015
633,1747533416130,1.0218678,-0.004881145,-0.8812907,1.8413097,0.41225734,1.6437031
634,1747533416140,1.0252845,-0.015375607,-0.8820229,1.8897791,0.5070659,1.7331853
635,1747533416150,1.0411482,-0.024649782,-0.8778739,1.9473034,0.6199839,1.8407769
636,1747533416160,1.05274095,-0.0303851279999999,-0.87116235,1.9787287,0.680171335,1.8817896
637,1747533416170,1.0727536999999998,-0.036730617,-0.8577391999999999,2.05116665,0.8024104350000001,1.963815
638,1747533416180,1.0806855999999998,-0.040513505,-0.844560085,2.138252,0.9139969,2.05063415
639,1747533416190,1.0965492,-0.035632357,-0.8236932,2.4218788,1.0940266,2.2604911
640,1747533416200,1.1109486,-0.01952458,-0.82808626,2.47833775,1.0969561,2.2905849
641,1747533416210,1.1636649,-0.040513504,-0.9261973,2.449043,0.89109373,2.3840618
642,1747533416220,1.1870944,-0.041733786,-0.9230245,2.312689,0.799481,2.385127
643,1747533416230,1.2156491,-0.060038086,-0.8876362,2.159291,0.75420725,2.3718114
644,1747533416240,1.2014939,-0.09152147,-0.85956967,2.0687435,0.74302197,2.4005735
645,1747533416250,1.20613095,-0.111412135,-0.846634585,2.05249825,0.7858988650000001,2.43226505
646,1747533416260,1.2328552,-0.14484798,-0.8088057,2.0650151,0.92811168,2.494583
647,1747533416270,1.2954559,-0.1701079,-0.7551131,2.1539646,1.14595825,2.56622205
648,1747533416280,1.2590914,-0.24527754,-0.7753699,2.3276027,1.47698915,2.7904602
649,1747533416290,1.2295604,-0.2608972,-0.77561396,2.4825988,1.7310548,3.2453282
650,1747533416300,1.108508,-0.2796896,-0.7856203,2.2295985,1.2958943,3.9558597
651,1747533416310,1.0638455,-0.28115395,-0.7739055,1.9851203,0.9305085,4.242416
652,1747533416320,1.142676,-0.29140437,-0.7934301,1.6932379,0.5832323,4.388357
653,1747533416330,1.2546983,-0.2945771,-0.78757274,1.4141386,0.37071204,4.3574643
654,1747533416340,1.2883781,-0.3184947,-0.71142685,1.2756542,0.39894155,4.209925
655,1747533416350,1.2827649,-0.41123646,-0.5025139,1.5100124,0.9166601,3.824832
656,1747533416360,1.2454242,-0.42734426,-0.47225076,1.7656758,1.3140037,3.685815
657,1747533416370,1.1792847,-0.45589894,-0.48128092,2.0154803,1.6559536,3.6474655
658,1747533416380,1.0811737,-0.469078,-0.5332651,2.1928468,1.8136127,3.7864826
659,1747533416390,0.98159826,-0.48006064,-0.61502427,2.150769,1.6096146,4.003264
660,1747533416400,0.9408407,-0.47005424,-0.69263446,1.5744609,0.7797736,4.3569317
661,1747533416410,0.88104665,-0.48225713,-0.6108753,1.2740563,0.43675843,4.4879594
662,1747533416420,0.8502955,-0.51788944,-0.5100796,1.0785803,0.20293288,4.577441
663,1747533416430,0.8502955,-0.52374685,-0.40562314,1.0141318,0.094808534,4.597149
664,1747533416440,0.869698,-0.5228926549999999,-0.3845121999999999,1.03117605,0.087618002,4.5670553
665,1747533416450,0.8891005,-0.52203846,-0.36340126,1.0482203,0.08042747,4.5369616
666,1747533416460,0.8433398,-0.523136705,-0.34778158,1.1179951,0.1347559549999999,4.4381583
667,1747533416470,0.68214005,-0.48396555,-0.35363895,1.1025487,0.1784318,4.1545315
668,1747533416480,0.58085626,-0.46834585,-0.38561043,0.92092115,0.0053263223,4.1577272
669,1747533416490,0.58085626,-0.46834585,-0.38561043,0.92092115,0.0053263223,4.1577272
670,1747533416500,0.43539813,-0.53961056,-0.32117933,0.61732075,-0.467384775,4.4048685
671,1747533416510,0.43930307,-0.5588911,-0.26577836,0.5656554,-0.7568704,4.6552057
672,1747533416520,0.5047104,-0.53912246,-0.21135357,0.6737798,-0.62317973,4.6035404
673,1747533416530,0.49763274,-0.51788944,-0.15229172,0.8266452,-0.40746364,4.4554687
674,1747533416540,0.38219365,-0.49885303,-0.1969542,1.0045444,-0.011185277,4.091681
675,1747533416550,0.40220633,-0.4927516,-0.23087814,0.89642006,0.05912218,3.8733015
676,1747533416560,0.27993366,-0.47762007,-0.21769907,0.76752305,-0.058589544,3.8024614
677,1747533416570,0.13618395,-0.52301466,-0.2626056,0.6178534,-0.34408042,3.89727
678,1747533416580,0.15692881,-0.552789655,-0.29579739,0.40266997,-0.6759103,3.9649143
679,1747533416590,0.12935033,-0.592571,-0.19060871,0.21411815,-1.1744541,3.995807
680,1747533416600,0.1466784,-0.6157564499999999,-0.180602365,0.24314661,-1.1949603999999998,3.99554065
681,1747533416610,0.140210885,-0.6325964,-0.14289552,0.3273025,-1.17764985,3.9894154
682,1747533416620,0.070532541,-0.612461675,-0.08676235,0.474042665,-1.017593875,3.9870186
683,1747533416630,0.06345488,-0.5530337,-0.025626011,0.6572681499999999,-0.589623875,3.83548465
684,1747533416640,-0.08175918,-0.5215503,-0.007565775,0.8213189,-0.07829694,3.5590487
685,1747533416650,-0.19573392,-0.5103237,-0.024649782,0.8697884,0.03089267,3.5302863
686,1747533416660,-0.2029336,-0.4966565,-0.037950902,0.8692558,0.0479369,3.5015242
687,1747533416670,-0.3287451,-0.45736328,-0.04515059,0.8644621,-0.035153728,3.5356128
688,1747533416680,-0.3904916,-0.40196228,0.0012202862,0.76485986,-0.09267801,3.5446675
689,1747533416690,-0.46883395,-0.3380193,0.04637088,0.71532506,-0.070307456,3.4589138
690,1747533416700,-0.5474204,-0.30360723,0.02831064,0.6530071,-0.049534798,3.401922
691,1747533416710,-0.6242984,-0.25479576,0.0065895454,0.5368933,-0.007989483,3.3481262
692,1747533416720,-0.6677406,-0.1969542,0.009518232,0.406931,0.10173275,3.2613072
693,1747533416730,-0.72240945,-0.140576975,0.012690976,0.30812773,0.1771002049999999,3.0903322500000003
694,1747533416740,-0.90838104,-0.050031736,0.0021965152,0.17257284,0.235423435,2.82934235
695,1747533416750,-0.9659786,0.00073217176,0.016107777,0.105993815,0.12836437,2.514024
696,1747533416760,-0.97000553,0.0234294958799999,0.020134722,0.1118527675,0.0695085075,2.35316905
697,1747533416770,-0.99184865,0.11202228,0.059305906,0.1555286,-0.0974717,1.7017599
698,1747533416780,-1.0799533,0.14716652,0.0873725,0.24394555,-0.083090626,0.92092115
699,1747533416790,-1.0989897,0.1867038,0.08322352,0.23595607,0.02609898,0.55340487
700,1747533416800,-1.0936205,0.20110317,0.06687169,0.16777915,0.17150758,0.20186761
701,1747533416810,-1.1077759,0.20647243,0.067847915,0.090014845,0.29614353,-0.1107875
702,1747533416820,-1.0933765,0.17206036,-0.033679903,-0.14221281,0.36005938,-0.61678815
703,1747533416830,-1.0672623,0.13667206,-0.07297312,-0.31798145,0.2695119,-0.83729786
704,1747533416840,-1.0484699,0.090789296,-0.09518232,-0.5028048,0.10546118,-1.0306433
705,1747533416850,-1.03321635,0.0623566265,-0.098721153,-0.607200735,-0.0154463349999999,-1.1358381999999998
706,1747533416860,-0.99014025,-0.0003660865,-0.106286933,-0.7877630600000001,-0.23462449,-1.3177321
707,1747533416870,-0.9030118,-0.17059602,-0.110801995,-1.0199907,-0.5001417,-1.5574167
708,1747533416880,-0.7804951,-0.2277054,-0.08078295,-1.2325109,-0.6679208,-1.8924423
709,1747533416890,-0.72631437,-0.29506522,-0.065163285,-1.2719258,-0.64555025,-2.034655
710,1747533416900,-0.68140787,-0.340948,-0.060038086,-1.2809805,-0.567786,-2.159291
711,1747533416910,-0.636867405,-0.36474357,-0.070410518,-1.28524155,-0.52197961,-2.2261363000000003
712,1747533416920,-0.5462001,-0.49055508,-0.13227904,-1.3070794,-0.3584615,-2.4884577
713,1747533416930,-0.54766446,-0.5198419,-0.13667206,-1.3086774,-0.34940675,-2.4799356
714,1747533416940,-0.5105677,-0.5354616,-0.15009521,-1.3273195,-0.3669836,-2.479403
715,1747533416950,-0.4696881499999999,-0.5474204,-0.169741815,-1.36939745,-0.38029941,-2.511361
716,1747533416960,-0.4011080999999999,-0.5765852499999999,-0.207082575,-1.46500495,-0.4125236599999999,-2.57341265
717,1747533416970,-0.358032,-0.6321083,-0.2438132,-1.6239957,-0.46392268,-2.6189528
718,1747533416980,-0.38146147,-0.67042524,-0.22428861,-1.7230653,-0.5320996,-2.4586303
719,1747533416990,-0.34851375,-0.6721336,-0.22233616,-1.7417074,-0.53742594,-2.3819313
720,1747533417000,-0.32215557,-0.65919864,-0.20134723,-1.7512947,-0.50813115,-2.3542345
721,1747533417010,-0.27529657,-0.65114474,-0.20403185,-1.7390442,-0.39840892,-2.4000409
722,1747533417020,-0.29921418,-0.67579454,-0.21330604,-1.7390442,-0.39840892,-2.4000409
723,1747533417030,-0.31385764,-0.6887296,-0.21647878,-1.6506273,-0.36804888,-2.3180156
724,1747533417040,-0.29872608,-0.6760386,-0.2306341,-1.635181,-0.38029942,-2.2828617
725,1747533417050,-0.21965154,-0.6660322,-0.27139166,-1.6921726,-0.36645097,-2.2993734
726,1747533417060,-0.16620298,-0.64187056,-0.3128814,-1.9750003,-0.23595607,-2.3872576
727,1747533417070,-0.15375607,-0.6465077,-0.33631086,-2.1182783,-0.20453078,-2.3707461
728,1747533417080,-0.14594623,-0.67628264,-0.36242503,-2.2343922,-0.26418558,-2.28659
729,1747533417090,-0.14423785,-0.68214005,-0.3585201,-2.233327,-0.34674358,-2.1758027
730,1747533417100,-0.09469421,-0.69898,-0.30409533,-2.1156151,-0.41278997,-2.049569
731,1747533417110,-0.0543027365,-0.6831162500000001,-0.304949525,-1.9449065,-0.38962047,-2.0548952
732,1747533417120,0.017328065,-0.6491923,-0.3287451,-1.6341157,-0.25832662,-2.1784658
733,1747533417130,0.08517598,-0.6518769,-0.40635532,-1.6010925,-0.0974717,-2.3329291
734,1747533417140,0.13154685,-0.6484601,-0.46883395,-1.6916399,0.10652645,-2.4937842
735,1747533417150,0.328257,-0.7353445,-0.7311955,-2.194445,0.41385525,-2.8490498
736,1747533417160,0.28579104,-0.81295466,-0.78366786,-2.449043,0.34674358,-2.8703551
737,1747533417170,0.20525214,-0.8932495,-0.72485006,-2.3819313,0.16138756,-2.6818032
738,1747533417180,0.18572757,-0.90789294,-0.6452874,-2.107093,-0.05752428,-2.4133565
739,1747533417190,0.14911897,-0.8973985,-0.54107493,-1.7054884,-0.27856666,-2.1299963
740,1747533417200,0.09469421,-0.75267255,-0.32044718,-0.82611257,-0.32437304,-1.794438
741,1747533417210,0.1027481025,-0.6914142050000001,-0.288231615,-0.66712186,-0.261256115,-1.8279938
742,1747533417220,0.18426323,-0.55108124,-0.311173,-0.42237735,-0.011185277,-2.1049626
743,1747533417230,0.3133695,-0.49690056,-0.4698102,-0.65460503,0.26365295,-2.4724789
744,1747533417240,0.417826,-0.55620646,-0.7475473,-1.8072212,0.92305166,-3.1403997
745,1747533417250,0.33435842,-0.61673266,-0.7385172,-2.1513016,1.0359697,-3.0913975
746,1747533417260,0.30360723,-0.6552937,-0.6877533,-2.2354574,1.0466223,-2.845854
747,1747533417270,0.309708655,-0.66334757,-0.6589545800000001,-2.18033005,1.01306648,-2.68100425
748,1747533417280,0.30885444,-0.6733539399999999,-0.61197358,-2.01441515,0.91452953,-2.3329291
749,1747533417290,0.30751213,-0.62576282,-0.56450445,-1.6588831000000002,0.6990798,-1.89111075
750,1747533417300,0.49812084,-0.5210622,-0.70020026,-1.4168017,0.5432849,-1.6474315
751,1747533417310,0.6491923,-0.4881145,-0.8366282,-1.6042882,0.59122175,-1.8413097
752,1747533417320,0.65260905,-0.50593066,-0.9022797,-1.8860507,0.64768076,-2.0937772
753,1747533417330,0.613804,-0.55620646,-0.90130347,-2.0176108,0.6940198,-2.2082932
754,1747533417340,0.70996255,-0.59061855,-0.9659786,-2.0857878,0.8580705,-2.305765
755,1747533417350,0.67750293,-0.59989274,-0.9606094,-2.0442424,0.9672601,-2.2551649
756,1747533417360,0.62356627,-0.61795294,-0.90520835,-1.9094865,1.037035,-2.1156151
757,1747533417370,0.5684093,-0.60086894,-0.85956967,-1.81308005,1.0229202,-2.0232035
758,1747533417380,0.566944975,-0.57768352,-0.875799435,-1.56061235,0.88922948,-1.7728663999999998
759,1747533417390,0.66822875,-0.5293602,-0.9540198,-1.3853765,0.77231675,-1.6101472
760,1747533417400,0.7365648,-0.5337532,-1.0313859,-1.4271881,0.811731525,-1.66980205
761,1747533417410,0.7477914,-0.5520575,-1.052863,-1.5281218,0.88949585,-1.8482338
762,1747533417420,0.7219213,-0.5725583,-1.0382195,-1.5110776,0.87032104,-1.9307919
763,1747533417430,0.68921765,-0.56987367,-0.98489302,-1.38058275,0.85301052,-1.9528961
764,1747533417440,0.6221019,-0.52399087,-0.9010593,-1.1169298,0.8628642,-1.9728698
765,1747533417450,0.6035536,-0.4888467,-0.8956901,-1.0317086,0.9166601,-1.9622171
766,1747533417460,0.6028214000000001,-0.47420325,-0.90618455,-1.02212125,0.939829575,-1.95449395
767,1747533417470,0.58207655,-0.43613032,-0.9279056,-1.0338391,0.95447695,-1.9190739
768,1747533417480,0.5288721,-0.4041588,-0.9098454,-1.0913634,0.74089146,-1.8157432
769,1747533417490,0.5791479,-0.38268176,-0.9237567,-1.1515509,0.69295454,-1.8354506
770,1747533417500,0.6484601,-0.36632994,-0.9586569,-1.2490226,0.73982614,-1.9158782
771,1747533417510,0.69165826,-0.36510965,-0.97208,-1.3464943,0.84209156,-2.0165455
772,1747533417520,0.69117016,-0.37194324,-0.95279956,-1.3933659,0.93636745,-2.0969732
773,1747533417530,0.67799103,-0.36291313,-0.90838104,-1.2703278,0.91186637,-2.1065605
774,1747533417540,0.6731099,-0.35998443,-0.8937377,-1.1403656,0.81918836,-2.0293288
775,1747533417550,0.67018116,-0.34509695,-0.87323684,-0.98803276,0.7616641,-1.9238676
776,1747533417560,0.6816519,-0.31019676,-0.844438,-0.72970617,0.7914915,-1.7901769
777,1747533417570,0.7050814,-0.2672427,-0.839801,-0.72970617,0.7914915,-1.7901769
778,1747533417580,0.7307074,-0.20744865,-0.86201024,-0.7568704,0.81545997,-1.850897
779,1747533417590,0.78610843,-0.19890666,-0.8808026,-0.86020106,0.8277105,-1.9393139
780,1747533417600,0.83125895,-0.19988288,-0.88690406,-0.9709886,0.8724516,-2.031992
781,1747533417610,0.83784854,-0.21379416,-0.8668914,-1.0396981,0.93423694,-2.0900488
782,1747533417620,0.83443177,-0.21550256,-0.82198477,-1.0279802,0.984837,-2.076733
783,1747533417630,0.8297946,-0.20818083,-0.82491344,-0.9518138,0.9262474,-1.9750003
784,1747533417640,0.82344913,-0.20256752,-0.8332114,-0.9076053,0.8309063,-1.8604844
785,1747533417650,0.8439499,-0.17913802,-0.84663457,-0.8996158,0.71798825,-1.7694043
786,1747533417660,0.8542004,-0.15497635,-0.8429737,-0.90494215,0.6279734,-1.7012273
787,1747533417670,0.869576,-0.117391534,-0.8293065,-0.9667275,0.5049353,-1.6117451
788,1747533417680,0.87323684,-0.09884319,-0.8295506,-1.026915,0.4676511,-1.582983
789,1747533417690,0.86249834,-0.08786061,-0.8005078,-1.0663297,0.44421527,-1.5648735
790,1747533417700,0.8551766,-0.0622346,-0.7690244,-1.0663297,0.4612595,-1.5393071
791,1747533417710,0.9025237,-0.05686534,-0.78806084,-1.0769824,0.51931643,-1.5531555
792,1747533417720,0.88739216,-0.047347106,-0.7883049,-1.0748519,0.6380934,-1.5899072
793,1747533417730,0.8571291,-0.04490653,-0.7968469,-1.0205233,0.61678815,-1.540905
794,1747533417740,0.8278422,-0.047347106,-0.8161274,-0.9400959,0.54648066,-1.4407701
795,1747533417750,0.82393728,-0.048689421,-0.8200323199999999,-0.897219,0.4934837549999999,-1.38351215
796,1747533417760,0.81600541,-0.048933478,-0.8286963700000001,-0.8106662499999999,0.388821525,-1.27379
797,1747533417770,0.81869003,-0.0373407595,-0.8415094000000001,-0.6993461,0.2609898,-1.1472899
798,1747533417780,0.8130767,-0.016839951,-0.87421305,-0.6743124,0.06018744,-1.0492855
799,1747533417790,0.80294836,0.0026846298,-0.9059405,-0.7025419,-0.03781689,-0.9853696
800,1747533417800,0.8066092,0.018304294,-0.89813066,-0.70147663,-0.07403588,-0.92731273
801,1747533417810,0.79318607,0.018792408,-0.89398164,-0.6641924,-0.18002969,-0.8383631
802,1747533417820,0.78513217,0.018792408,-0.88885653,-0.6066681,-0.23116238,-0.7781757
803,1747533417830,0.8112463,0.003172744,-0.88739216,-0.51026165,-0.22690132,-0.71319455
804,1747533417840,0.84931916,-0.023673553,-0.91814333,-0.4032026,-0.16192019,-0.6583334
805,1747533417850,0.8600578,-0.07785426,-0.989164,-0.2908172,-0.077231675,-0.58429754
806,1747533417860,0.8576172,-0.09298581,-1.0128375,-0.07084008,-0.05219796,-0.39095205
807,1747533417870,0.83028275,-0.10543273,-1.0206474,0.080960095,-0.14327806,-0.23222765
808,1747533417880,0.8251576,-0.114462845,-1.0269929,0.2066613,-0.23542345,-0.09853696
809,1747533417890,0.84248555,-0.11665936,-1.0304097,0.32969934,-0.30306774,0.03195793
810,1747533417900,0.85359019,-0.13484162,-1.03675515,0.469515295,-0.34248252,0.184024425
811,1747533417910,0.91399443,-0.16791138,-1.0494461,0.7590009,-0.42663842,0.49641323
812,1747533417920,0.941694915,-0.1798701899999999,-1.0638455,0.83569995,-0.451139495,0.570449115
813,1747533417930,1.0079564,-0.23136626,-1.0985017,1.0128002,-0.485494275,0.7142598
814,1747533417940,1.0562798,-0.26358184,-1.0906918,1.361408,-0.4889564,0.91133374
815,1747533417950,1.0936205,-0.28164205,-1.0553036,2.030394,-0.49215218,1.170193
816,1747533417960,1.09715935,-0.279201475,-1.0548155,2.1622205,-0.50813116,1.23517415
817,1747533417970,1.0789771,-0.27090356,-1.056768,2.5182853,-0.56672066,1.4610102
818,1747533417980,1.048958,-0.2689511,-1.0553036,2.696717,-0.64341974,1.6282567
819,1747533417990,1.0164984,-0.22428861,-1.1077759,2.763296,-0.7637946200000001,1.78058955
820,1747533418000,1.0084445,-0.21599068,-1.1395032,2.7510455,-0.96779275,2.0458405
821,1747533418010,0.9867234,-0.20134723,-1.1402354,2.6205506,-1.0157297,2.1406488
822,1747533418020,0.95719254,-0.18841219,-1.1172941,2.457565,-1.0785803,2.247708
823,1747533418030,0.9274175,-0.18182266,-1.1009423,2.3398533,-1.1526161,2.3174827
824,1747533418040,0.9010593,-0.19158493,-1.0389518,2.2397184,-1.2016183,2.390986
825,1747533418050,0.9022796,-0.19951679,-1.02821325,2.2445122,-1.1763183,2.3829966
826,1747533418060,0.90081537,-0.20964517,-1.0172306,2.2743397,-1.0668623,2.3489082
827,1747533418070,0.87616557,-0.21550256,-1.0172306,2.3105586,-1.005077,2.343582
828,1747533418080,0.8515157,-0.22282428,-1.0382195,2.330266,-0.984837,2.3627565
829,1747533418090,0.818568,-0.24161668,-1.0787331,2.2903185,-1.0620687,2.4495757
830,1747533418100,0.82149667,-0.25357547,-1.0897156,2.218413,-1.1558119,2.4905882
831,1747533418110,0.81441903,-0.25821257,-1.0887394,2.1587584,-1.2186625,2.5065672
832,1747533418120,0.81246656,-0.27480847,-1.0733638,2.1150825,-1.2389026,2.4921863
833,1747533418130,0.81149036,-0.307024,-1.0431006,2.0873857,-1.1616709,2.4000409
834,1747533418140,0.80392458,-0.32423005,-1.0415143,2.10975625,-1.1438277,2.3885893
835,1747533418150,0.8102701,-0.36510965,-1.0755602,2.1715417,-1.1190603,2.3537018
836,1747533418160,0.7814713,-0.3785328,-1.0770246,2.2040322,-1.1323761,2.3414512
837,1747533418170,0.7390053,-0.3968371,-1.0428566,2.2540996,-1.1957593,2.3659523
838,1747533418180,0.7573096,-0.42978483,-1.0267489,2.3425164,-1.2644689,2.4351945
839,1747533418190,0.7656076,-0.44052333,-1.0086887,2.4437168,-1.160073,2.485262
840,1747533418200,0.7304634,-0.4554108,-0.9652464,2.4932516,-1.0711234,2.5065672
841,1747533418210,0.70117646,-0.46492904,-0.94157284,2.5092304,-0.9965549,2.540123
842,1747533418220,0.6718896,-0.46029195,-0.9242448,2.4959147,-0.94275904,2.5875273
843,1747533418230,0.65065664,-0.47713193,-0.9264413,2.4021714,-0.87564737,2.694054
844,1747533418240,0.6191732,-0.48542988,-0.91497064,2.359028,-0.8655274,2.7505128
845,1747533418250,0.6145361199999999,-0.490311025,-0.90923527,2.36089225,-0.8855010999999999,2.78779705
846,1747533418260,0.6199054,-0.52033,-0.90374404,2.3957798,-0.9241169,2.860235
847,1747533418270,0.67091334,-0.562796,-0.8551766,2.5747442,-0.74941355,2.7979171
848,1747533418280,0.65285313,-0.5771954,-0.84761083,2.7089674,-0.5970807,2.775014
849,1747533418290,0.61673266,-0.60013676,-0.8681116,2.8309402,-0.5113269,2.8165593
850,1747533418300,0.5604774800000001,-0.61233963,-0.84907515,2.8996498500000003,-0.5225122,2.8791436
851,1747533418310,0.45126185,-0.61038715,-0.77854264,3.0764837,-0.65194184,3.075951
852,1747533418320,0.426001925,-0.579025805,-0.76463137,3.0695596,-0.7946873,3.1553133
853,1747533418330,0.328257,-0.5452239,-0.6823841,2.867692,-1.1675298,3.367301
854,1747533418340,0.29018408,-0.55864704,-0.63625723,2.8272119,-1.3028184,3.50472
855,1747533418350,0.29018408,-0.55864704,-0.63625723,2.8272119,-1.3028184,3.50472
856,1747533418360,0.36462155,-0.5862255,-0.62551874,2.7057717,-1.2884374,3.5750275
857,1747533418370,0.34680536,-0.6325964,-0.59232694,2.6194854,-0.97045594,3.46424
858,1747533418380,0.27407628,-0.6321083,-0.5691415,2.6695528,-0.9502159,3.507383
859,1747533418390,0.1701079,-0.66237134,-0.56548065,2.7963192,-1.0647318,3.6842172
860,1747533418400,0.136183943,-0.66810667,-0.548396645,2.88020885,-1.1685951,3.8043257
861,1747533418410,0.127886,-0.6574902,-0.51520485,3.1419976,-1.577124,4.1364217
862,1747533418420,0.07248501,-0.5845171,-0.4075756,3.1478565,-1.572863,4.0863543
863,1747533418430,0.07004443,-0.5518134,-0.34290043,3.0754185,-1.4620755,3.9244342
864,1747533418440,0.09737884,-0.53302103,-0.33631086,2.9332056,-1.2367721,3.6794233
865,1747533418450,0.0583296804999999,-0.521672365,-0.302753,2.8900624500000003,-1.1337077,3.58354965
866,1747533418460,-0.0353882995,-0.5056866,-0.237833785,2.8415929,-0.9603359,3.4432011
867,1747533418470,-0.12910628,-0.4554108,-0.1615659,2.8048413,-0.7073356,3.2820797
868,1747533418480,-0.2111095,-0.42685616,-0.13203497,2.829875,-0.7222493,3.2975261
869,1747533418490,-0.26529023,-0.42441553,-0.10714114,2.8698225,-0.7121293,3.3433325
870,1747533418500,-0.21232979,-0.38780698,-0.08127106,2.8570392,-0.67271453,3.266101
871,1747533418510,-0.29384494,-0.3192269,0.010982576,2.8794098,-0.6578008,3.1611724
872,1747533418520,-0.3904916,-0.19963883,0.13667206,2.8730183,-0.6641924,3.0178943
873,1747533418530,-0.45248213,-0.0976229,0.2613853,2.8075044,-0.58909124,2.5869946
874,1747533418540,-0.4937278,-0.0043930304,0.34119204,2.7867317,-0.44421527,2.3265376
875,1747533418550,-0.5316787,0.0344120728,0.3725533949999999,2.76489385,-0.3539341099999999,2.2048311
876,1747533418560,-0.6550496,0.15302388,0.469078,2.6823359,-0.09960223,1.8732675
877,1747533418570,-0.73607665,0.30800024,0.49738866,2.3323965,0.32330775,1.4359765
878,1747533418580,-0.7922098,0.35583547,0.5171573,2.111354,0.52464277,1.2692626
879,1747533418590,-0.8676235,0.38878322,0.5530337,1.9201392,0.6178534,1.1366372
880,1747533418600,-0.9298581,0.42124277,0.55742675,1.82373275,0.6069344249999999,1.06979185
881,1747533418610,-0.99453324,0.49519217,0.4932397,1.1195929,0.23116238,0.59388494
882,1747533418620,-1.0379754,0.5047104,0.4829893,0.72970617,0.020240024,0.33449304
883,1747533418630,-1.0548154,0.5047104,0.503002,0.33076462,-0.17150758,0.03888215
884,1747533418640,-1.0433447,0.47664383,0.5383903,-0.05006743,-0.26312032,-0.28708878
885,1747533418650,-1.00771235,0.419900505,0.56584675,-0.421045785,-0.13448963725,-0.67857344
886,1747533418660,-0.90691674,0.30433938,0.5657247,-1.0871024,0.20932446,-1.4125407
887,1747533418670,-0.8634745500000001,0.2651681999999999,0.540342735,-1.2061457,0.31851407,-1.5747272
888,1747533418680,-0.77732235,0.1403329,0.4978768,-1.4215955,0.62531024,-1.9829898
889,1747533418690,-0.75682154,0.0826133695,0.482989285,-1.39975755,0.7137271700000001,-2.061553
890,1747533418700,-0.693732735,-0.0621125654999999,0.4146532349999999,-1.2434299,0.87538105,-2.21069
891,1747533418710,-0.64040622,-0.181212505,0.3206911999999999,-1.07804755,0.91346428,-2.2847259
892,1747533418720,-0.61490223,-0.242958995,0.2458876599999999,-1.1012171,0.78509993,-2.2943133
893,1747533418730,-0.57011773,-0.3022649,0.1859716149999999,-1.3518206,0.58696073,-2.356365
894,1747533418740,-0.5400987,-0.33191785,0.16034561,-1.3518206,0.58696073,-2.356365
895,1747533418750,-0.46639341,-0.46834587,0.1598574999999999,-1.8200043,0.5440838299999999,-2.5057683
896,1747533418760,-0.41868022,-0.5252112,0.18731393,-1.8663433,0.68203558,-2.571282
897,1747533418770,-0.328257,-0.5764632,0.23429495,-1.7113473,1.0700581,-2.7302728
898,1747533418780,-0.317884565,-0.5873237499999999,0.236125385,-1.56513975,1.221592,-2.78859605
899,1747533418790,-0.33081959,-0.5814663849999999,0.1777957025,-1.0434265,1.53824185,-2.9153625
900,1747533418800,-0.3764583,-0.5541319849999999,0.0297749805,-0.6287723350000001,1.5787219,-2.98353935
901,1747533418810,-0.43466598,-0.52399087,-0.17450093,-0.700944005,1.29376365,-2.9667615
902,1747533418820,-0.43637437,-0.5188657,-0.2111095,-1.1824435,0.77604514,-2.9316077
903,1747533418830,-0.37243137,-0.53961056,-0.20403185,-1.5941683,0.5997439,-2.9619677
904,1747533418840,-0.21550256,-0.6357691,-0.023429496,-1.979794,1.0034791,-3.1856732
905,1747533418850,-0.1815786,-0.648826165,0.0012202859999999,-1.91960655,1.1997541,-3.2663671
906,1747533418860,-0.134841635,-0.678479135,0.0167179215,-1.7121463,1.57419455,-3.41550425
907,1747533418870,-0.10543273,-0.6982478,-0.016107777,-1.1829761,2.0192087,-3.6005938
908,1747533418880,-0.16693515,-0.6203935,-0.20696054,-0.7392935,2.0511668,-3.690076
909,1747533418890,-0.2020794,-0.5940353,-0.36803833,-0.69721556,1.2213258,-3.4759579
910,1747533418900,-0.14472595,-0.59964865,-0.5315567,-1.113734,0.6087986,-3.2964609
911,1747533418910,-0.06931226,-0.6042857,-0.5703618,-1.6618125,0.09161274,-3.1467912
912,1747533418920,-0.023551526,-0.6311320300000001,-0.5422952000000001,-1.9094865,-0.066046395,-3.0897995
913,1747533418930,0.31385764,-0.81319875,-0.37975308,-2.6359968,-0.06764429,-3.1169639
914,1747533418940,0.3699908,-0.8459024,-0.29555333,-2.5326662,0.20453078,-3.2804818
915,1747533418950,0.375726135,-0.848831125,-0.288841755,-2.4144219,0.30226879,-3.36277355
916,1747533418960,0.39403042,-0.854322425,-0.31019677,-1.979794,0.45327002,-3.6261601
917,1747533418970,0.41221267,-0.835408,-0.39537275,-1.7576864,0.38402784,-3.6906087
918,1747533418980,0.43930307,-0.87079626,-0.47932845,-1.3406353,0.38935417,-3.4892738
919,1747533418990,0.45589894,-0.8454143,-0.53082454,-1.2405005,0.3392867,-3.3832798
920,1747533419000,0.4718846949999999,-0.8416314199999999,-0.57585307,-1.3049489,0.25086978,-3.320962
921,1747533419010,0.50641879,-0.826377835,-0.63564708,-1.39629535,0.1949434,-3.3180325
922,1747533419020,0.4595598,-0.7656076,-0.57280236,-1.6884441,-0.0037284256,-3.299124
923,1747533419030,0.5344854,-0.75340474,-0.5708499,-2.0777984,-0.25566345,-3.2735577
924,1747533419040,0.5344854,-0.75340474,-0.5708499,-2.0777984,-0.25566345,-3.2735577
925,1747533419050,0.54253924,-0.7407138,-0.5195979,-2.1257353,-0.29241508,-3.2144356
926,1747533419060,0.5447357500000001,-0.7754919,-0.5127643,-1.9481024,-0.3470099,-2.88526875
927,1747533419070,0.6559038500000001,-0.7846440349999999,-0.5609656000000001,-1.7006947,-0.263386635,-2.66209585
928,1747533419080,0.75999427,-0.75633341,-0.624176425,-1.4945661,-0.19600865,-2.6098979
929,1747533419090,0.80246022,-0.745594875,-0.708986325,-1.5379756,-0.198405505,-2.65543795
930,1747533419100,0.8234491349999999,-0.73571058,-0.7476693999999999,-1.6282567,-0.188285495,-2.7348002
931,1747533419110,0.7913556100000001,-0.734490305,-0.715819915,-1.69536835,-0.165648615,-2.7747476
932,1747533419120,0.6799435,-0.665056,-0.59086263,-1.7156084,-0.13209279,-2.7265444
933,1747533419130,0.7309515,-0.63015586,-0.6128277,-1.8093517,-0.027696876,-2.6338663
934,1747533419140,0.77048874,-0.6455314,-0.6667644,-1.8732675,0.08894958,-2.5459821
935,1747533419150,0.76914642,-0.64797198,-0.672133665,-1.8727349,0.14407702,-2.47274515
936,1747533419160,0.7473033,-0.6478499799999999,-0.671889615,-1.8279938,0.213585525,-2.29750915
937,1747533419170,0.73644275,-0.6399181199999999,-0.679821475,-1.7307884,0.211188675,-2.1020331
938,1747533419180,0.75316066,-0.55791485,-0.73729694,-1.6314526,0.111852765,-1.8530275
939,1747533419190,0.7922098,-0.5269196,-0.78757274,-1.7726,0.051132694,-1.9020296
940,1747533419200,0.8280862499999999,-0.51361847,-0.8194222449999999,-1.86740855,0.041012682,-1.953695
941,1747533419210,0.85505458,-0.50141562,-0.8462685249999999,-2.0439762,0.0135821222,-2.04078045
942,1747533419220,0.8167375800000001,-0.50715095,-0.8152732149999999,-2.15955735,-0.0652474465,-1.975533
943,1747533419230,0.754625,-0.48176903,-0.7241178,-2.1124194,-0.0958738,-1.8801918
944,1747533419240,0.75096416,-0.45858356,-0.7180164,-2.0106866,-0.08362326,-1.7672738
945,1747533419250,0.74474068,-0.43954709,-0.71520975,-1.96195075,-0.072970615,-1.7214674
946,1747533419260,0.7366867850000001,-0.4017182099999999,-0.7216773,-1.8847191,-0.04713795,-1.6508936
947,1747533419270,0.7353445,-0.31141704,-0.7968469,-1.86181595,-0.0250337135,-1.6266588
948,1747533419280,0.74888967,-0.30128868,-0.80026372,-1.9358518,-0.0021305294999999,-1.6860473
949,1747533419290,0.75291663,-0.27407628,-0.78513217,-2.044775,0.05219796,-1.8136127
950,1747533419300,0.762068745,-0.265656305,-0.783301735,-2.050634,0.06498113,-1.8527612
951,1747533419310,0.78952518,-0.24649781,-0.7955046,-2.0594225,0.0942759,-1.938515
952,1747533419320,0.83491987,-0.19719826,-0.822717,-2.0407803500000004,0.15499598,-2.06608045
953,1747533419330,0.84858704,-0.19793043,-0.84761083,-1.9382486,0.24554345,-2.1901836
954,1747533419340,0.8459024,-0.2020794,-0.873725,-1.8189391,0.29614353,-2.1800637
955,1747533419350,0.8219848000000001,-0.206472425,-0.87640962,-1.71427685,0.316383555,-2.11987625
956,1747533419360,0.80123997,-0.19036464,-0.9169231,-1.406149,0.2514024,-1.8109496
957,1747533419370,0.8422416,-0.15863721,-0.9530435,-1.4215955,0.21891184,-1.7465011
958,1747533419380,0.8683557,-0.13886857,-0.95792466,-1.4215955,0.21891184,-1.7465011
959,1747533419390,0.878362,-0.117635585,-0.9518233,-1.5712651,0.18855181,-1.7017599
960,1747533419400,0.87396896,-0.099087246,-0.9408407,-1.7353158,0.16777915,-1.655421
961,1747533419410,0.8671354,-0.09396204,-0.921072,-1.7933728,0.1304949,-1.6314526
962,1747533419420,0.8710403,-0.091033354,-0.9127741,-1.8232001,0.09534117,-1.5835156
963,1747533419430,0.8815348,-0.09274176,-0.9247329,-1.8072212,0.06391586,-1.526524
964,1747533419440,0.8778739,-0.10470056,-0.9471862,-1.7347832,0.041545313,-1.4301175
965,1747533419450,0.85322416,-0.13911264,-0.93986446,-1.4455639,0.024501082,-1.1387677
966,1747533419460,0.8507836,-0.12935033,-0.9117979,-1.2623384,0.0058589545,-1.000816
967,1747533419470,0.86103404,-0.10079564,-0.9081371,-1.1046792,-0.027164243,-0.9108011
968,1747533419480,0.86152214,-0.082003236,-0.92278045,-1.0141318,-0.05006743,-0.86872315
969,1747533419490,0.82442534,-0.04075756,-0.9132622,-0.9805759,-0.13475595,-0.84848315
970,1747533419500,0.81576132,-0.038561045,-0.9060625,-0.99469065,-0.160588615,-0.840227325
971,1747533419510,0.8070973,-0.03636453,-0.8988628,-1.0088054,-0.18642128,-0.8319715
972,1747533419520,0.8111649222222223,-0.0241074326666666,-0.8791212888888889,-1.0348451888888888,-0.1188953511111111,-0.8290716277777778
973,1747533419530,0.8152325444444445,-0.0118503353333333,-0.8593797777777779,-1.0608849777777778,-0.0513694222222222,-0.8261717555555556
974,1747533419540,0.8193001666666667,0.000406762,-0.8396382666666667,-1.0869247666666666,0.0161565066666666,-0.8232718833333333
975,1747533419550,0.81502917,0.0222092095,-0.7990434200000001,-1.0855044500000002,0.153664395,-0.8194547
976,1747533419560,0.767316,0.010006348,-0.77317333,-0.9464875,0.24660872,-0.74089146
977,1747533419570,0.7585299,0.019280521,-0.76975656,-0.79894835,0.28975195,-0.65886605
978,1747533419580,0.73388016,0.047103047,-0.7421781,-0.5917544,0.31318775,-0.55127436
979,1747533419590,0.77292925,0.11202228,-0.83174706,-0.4607269,0.26525086,-0.42717105
980,1747533419600,0.782081425,0.11434082,-0.84309575,-0.454867935,0.255397155,-0.408528925
981,1747533419610,0.80514485,0.115439077,-0.865305005,-0.441285805,0.231162385,-0.36884782
982,1747533419620,0.8295506,0.10055158,-0.8947139,-0.40107206,0.16831179,-0.2908172
983,1747533419630,0.8393129,0.06296677,-0.9354714,-0.360592,0.077231675,-0.21198763
984,1747533419640,0.89080894,0.042221904,-0.9369358,-0.19867182,-0.13582122,-0.02396845
985,1747533419650,0.89324952,0.0317274425,-0.925709165,-0.12330436,-0.186953915,0.0375505725
986,1747533419660,0.88421935,-0.003172744,-0.88958865,0.24554345,-0.33502567,0.2892193
987,1747533419670,0.90642864,-0.016107777,-0.8944698,0.51292485,-0.3435478,0.4250405
988,1747533419680,0.97647303,-0.02318544,-0.94962674,0.99495703,-0.22210763,0.59867865
989,1747533419690,0.9693954,-0.025137896,-0.9876996,1.1707256,-0.14434333,0.6828345
990,1747533419700,0.9733003,-0.0224532665,-1.0135697,1.2162657,-0.1158475099999999,0.7222493
991,1747533419710,0.9784255,-0.0147654635,-1.05213075,1.2777847,-0.06231797,0.8341021
992,1747533419720,0.96329397,-0.017328065,-1.0714114,1.2655342,-0.08149273,0.92092115
993,1747533419730,0.9530435,-0.04783522,-1.053107,1.2623384,-0.13635385,1.026915
994,1747533419740,0.967443,-0.06467517,-1.0455412,1.3938985,-0.30839407,1.2458268
995,1747533419750,0.97244612,-0.070410515,-1.0390737,1.443966,-0.328101455,1.2833774
996,1747533419760,0.97085972,-0.082735405,-1.0263827,1.55129145,-0.35819517,1.3635385000000002
997,1747533419770,0.9225364,-0.09884319,-0.9867234,1.8189391,-0.4250405,1.6266588
998,1747533419780,0.912286,-0.09225364,-0.9925808,1.8690065,-0.4495416,1.7209347
999,1747533419790,0.91399443,-0.08322352,-0.99233675,1.8647454,-0.47990164,1.7923075
1000,1747533419800,0.91399443,-0.08322352,-0.99233675,1.8647454,-0.47990164,1.7923075
1001,1747533419810,0.90472025,-0.07736614,-0.9864794,1.8263959,-0.5049353,1.8429075
