timestamp,acc_x,acc_y,acc_z,gyro_x,gyro_y,gyro_z,id
1747533279900,-0.15277983,0.09274176,0.9020356,0.96299905,0.14966966,0.118776985,1
1747533279910,-0.50495446,-0.059549972,1.3730661,-0.6844324,2.5118935,1.1659319,2
1747533279920,-0.3321619,0.38512233,0.65797836,-1.8333201,-0.85594,0.058589544,3
1747533279930,-0.22282427,0.4233173,0.60440775,-2.39870915,-0.87298425,0.0085221165,4
1747533279940,-0.2020794,0.45760733,0.6118515,-2.6077673,-0.8538095,-0.03355583,5
1747533279950,-0.19280522,0.46541715,1.0233321,-2.93560255,-0.67191552,-0.2466087249999999,6
1747533279960,-0.22282428,0.38536638,1.2503053,-2.9273467,-0.56618804,-0.34461305,7
1747533279970,-0.26651052,0.34045988,1.4172405,-2.6264095,-0.49215218,-0.36964676,8
1747533279980,-0.2882316,0.3133695,1.5085179,-2.2194786,-0.5028048,-0.33449304,9
1747533279990,-0.29555333,0.29579738,1.5063213,-1.6863136,-0.55553544,-0.23382555,10
1747533280000,-0.17938207,0.29042813,1.2095478,-1.3741912,-0.51718587,-0.18961707,11
1747533280010,-0.111290105,0.28554696,1.0777569,-1.2367721,-0.21891184,-0.43089947,12
1747533280020,-0.09030118,0.28505886,0.9886759,-1.335309,-0.026631612,-0.63383234,13
1747533280030,-0.10323621,0.28261828,0.94303715,-1.4796523,0.11664646,-0.819721,14
1747533280040,-0.15107143,0.27334413,0.9440134,-1.6261262,0.17204021,-0.9683254,15
1747533280050,-0.36681804,0.25674823,0.9711038,-1.9350529,0.12144015,-1.0104034,16
1747533280060,-0.459315715,0.27895743,1.048836,-2.078331,0.029827405,-0.86233157,17
1747533280070,-0.46810177,0.27920148,1.0809295,-2.1965754,-0.14807177,-0.59228706,18
1747533280080,-0.43466598,0.27944556,1.142432,-2.2647521,-0.27803403,-0.40959418,19
1747533280090,-0.35607952,0.313857615,1.26604695,-2.2945797,-0.35260254,-0.29241508,20
1747533280100,-0.32117933,0.333138135,1.34658585,-2.12360465,-0.32011196,-0.204530775,21
1747533280110,-0.31361356,0.33435842,1.3672087,-2.0682108,-0.28549087,-0.20932446,22
1747533280120,-0.3533949,0.32606047,1.38112,-1.9201392,-0.1784318,-0.20240025,23
1747533280130,-0.37194324,0.33826336,1.3615954,-1.6966999500000002,0.029294775,-0.140082275,24
1747533280140,-0.30092257,0.4080637,1.3669646,-1.6080167,0.10652645,-0.10918961,25
1747533280150,-0.22843759,0.47176263,1.4477476,-1.4426344,0.145674915,-0.149403335,26
1747533280160,-0.16449459,0.50885934,1.5536685,-1.3646038,0.17150758,-0.18322548,27
1747533280170,-0.13057062,0.5098356,1.6715481,-1.1547467,0.2806972,-0.32384038,28
1747533280180,-0.12666571,0.5405868,1.7808857,-0.89375687,0.42024684,-0.4825648,29
1747533280190,-0.2911603,0.627837285,1.93268925,-0.24607609,0.48149952,-0.6609966,30
1747533280200,-0.33777523,0.63113207,1.9346417,0.05486112,0.40906155,-0.66632295,31
1747533280210,-0.44369608,0.6489482,1.9146291,0.29134983,0.31478566,-0.62371236,32
1747533280220,-0.52399087,0.70874226,1.892908,0.49694586,0.2412824,-0.53476274,33
1747533280230,-0.6418705499999999,0.69690545,1.9070633,1.031175975,0.16831178,-0.1850897015,34
1747533280240,-0.6731099,0.64736185,1.914263,1.45035755,0.160322295,0.0761664085,35
1747533280250,-0.652731125,0.6002588,1.8736274,1.6058862,0.1587244,0.1603223,36
1747533280260,-0.64089435,0.5710939,1.842144,1.8887138,0.17204021,0.3110572,37
1747533280270,-0.5793919,0.5130083,1.7320743,2.1022995,0.18535602,0.43356264,38
1747533280280,-0.5315567,0.48298927,1.6237129,2.19737425,0.156061245,0.5177185200000001,39
1747533280290,-0.4837215,0.45297024,1.5153515,2.292449,0.12676647,0.6018744,40
1747533280300,-0.338751465,0.439913195,1.36049715,2.1864553,0.14647386,0.593884925,41
1747533280310,-0.32288775,0.44223174,1.3520772,2.160889,0.1555286,0.5784386,42
1747533280320,-0.3366769699999999,0.45382444,1.4013767499999998,2.1568942,0.127032788,0.55553542,43
1747533280330,-0.38304783,0.45687515,1.46666205,2.2596923,0.119309623,0.593618615,44
1747533280340,-0.42234106,0.458705585,1.51962245,2.41202505,0.14780545,0.653539715,45
1747533280350,-0.43149322,0.45907167,1.5329236,2.4778051,0.165116,0.6780408,46
1747533280360,-0.4656612449999999,0.44015725,1.55989185,2.66582425,0.1818939,0.771784095,47
1747533280370,-0.48054874,0.43661842,1.5656272,2.7292075,0.17576863,0.81226414,48
1747533280380,-0.50495446,0.41514137,1.5761217,2.942793,0.070573768,1.0082728,49
1747533280390,-0.4739591749999999,0.37853278,1.5966225,3.19259765,-0.054328487,1.19389515,50
1747533280400,-0.45223808,0.3487578,1.5949141,3.3625073,-0.12197278,1.3001553,51
1747533280410,-0.42734426,0.2831064,1.5546447,3.5547874,-0.07563378,1.3699301,52
1747533280420,-0.30165476,0.2831064,1.4038173,3.8141794,0.21518342,1.3619406,53
1747533280430,-0.22404456,0.29042813,1.3188853,3.81124995,0.35340148,1.28497525,54
1747533280440,-0.16107778,0.28871974,1.2700739,3.788613,0.386691,1.2500879,55
1747533280450,-0.12898426,0.297627825,1.2250454,3.6956687,0.40959418,1.11879395,56
1747533280460,-0.13227904,0.29994637,1.210524,3.6623793,0.41172472,1.0791129,57
1747533280470,-0.179015995,0.3763362799999999,1.25945735,3.5689023,0.348341485,1.0439592,58
1747533280480,-0.17254847,0.38609856,1.2874019,3.594735,0.3153183,1.051416,59
1747533280490,-0.16254212,0.33484653,1.3069266,3.7385457,0.25246766,1.0657971,60
1747533280500,-0.15033926,0.264314,1.2605556,3.904727,0.25992453,1.0482203,61
1747533280510,-0.14179726,0.255772,1.1534146,4.013384,0.3158509,0.9864349,62
1747533280520,-0.14985114,0.31556603,0.9471862,4.032026,0.48948902,0.87298423,63
1747533280530,-0.15863721,0.2979939,0.8742131,3.9622512,0.57577544,0.83942837,64
1747533280540,-0.1444819,0.3214234,0.82296103,3.8083205,0.66152924,0.7813715,65
1747533280550,-0.14692247,0.4036707,0.81930023,3.7028592,0.65460503,0.75580513,66
1747533280560,-0.22965786,0.4139211,0.88836837,3.6309538,0.58909124,0.8314389,67
1747533280570,-0.24186075,0.42661208,0.91472656,3.652259,0.5763081,0.8996158,68
1747533280580,-0.23600335,0.45297024,0.92278045,3.724697,0.5411543,0.9768475,69
1747533280590,-0.21208574,0.44516042,0.8942258,3.8498657,0.5091964,1.0551444,70
1747533280600,-0.137160175,0.38243771,0.7756139200000001,4.07543535,0.456199495,1.1369035,71
1747533280610,-0.08859278,0.35974038,0.7133793,4.1742387,0.43089947,1.1616709,72
1747533280620,-0.066017485,0.36022849,0.68641098,4.208061,0.41278997,1.1408982,73
1747533280630,-0.0143993765,0.36596383,0.559867325,4.279167,0.350472,1.0652645,74
1747533280640,-0.012690976,0.36047253,0.5205741,4.311658,0.3797668,0.9912286,75
1747533280650,-0.020256752,0.4339338,0.36340126,4.291418,0.479369,0.8900285,76
1747533280660,-0.059305906,0.47810817,0.31190515,4.152401,0.64075655,0.7137272,77
1747533280670,-0.107629254,0.49104318,0.2962855,4.1039314,0.680704,0.6801714,78
1747533280680,-0.174744985,0.417948055,0.27139166,4.12923145,0.7499461700000001,0.73583143,79
1747533280690,-0.22233616,0.398789535,0.24539956,4.1731738,0.7182545300000001,0.92544845,80
1747533280700,-0.25040275,0.4085518,0.22672918,4.201936,0.66579026,1.0839065,81
1747533280710,-0.25479576,0.39293218,0.20110317,4.247742,0.6061355,1.2926984,82
1747533280720,-0.194269575,0.34875782,0.15546447,4.276504,0.58056915,1.4807175,83
1747533280730,-0.16022359,0.346073185,0.128496145,4.3071303,0.49481535,1.7214673,84
1747533280740,-0.15058333,0.34509695,0.11251039,4.331365,0.45220476,1.8024274,85
1747533280750,-0.0959145,0.20574026,-0.026114125,4.488492,0.4032026,2.0921793,86
1747533280760,-0.019768637,0.1552204,-0.1010397,4.535363,0.43196473,2.15503,87
1747533280770,0.05198419,0.10836142,-0.19646609,4.5827675,0.5161206,2.1646173,88
1747533280780,0.191584945,0.09432813,-0.386830745,4.45307185,0.752343025,2.0141488,89
1747533280790,0.24405725,0.12544543,-0.44564855,4.3532033,0.8048073,1.9462382,90
1747533280800,0.33240595,0.23600335,-0.53717,3.901531,0.85700524,1.6873789,91
1747533280810,0.38780698,0.17376876,-0.5623079,3.7252297,0.96086854,1.5318503,92
1747533280820,0.39586085,0.15302388,-0.59135073,3.5920718,1.0125339,1.3891048,93
1747533280830,0.36974674,0.16742326,-0.64162654,3.4594464,1.0162623,1.284709,94
1747533280840,0.3513204049999999,0.263825875,-0.5953776550000001,3.1198933,0.853809485,1.25994155,95
1747533280850,0.3747498999999999,0.262239505,-0.537047975,2.95477735,0.747815675,1.2551478,96
1747533280860,0.39830142,0.23380683,-0.5171573,2.9417279,0.73609775,1.230913,97
1747533280870,0.4429639,0.15619664,-0.5210622,3.0109699,0.79628515,1.1265172,98
1747533280880,0.47591165,0.12568948,-0.5742667,3.075951,0.9129316,0.9917612,99
1747533280890,0.497388675,0.13264511,-0.622101915,3.0863374,0.978978,0.9142632,100
1747533280900,0.5409529,0.1641285,-0.717650315,3.0586406,1.09668975,0.7472829999999999,101
1747533280910,0.5288721,0.22965786,-0.780251,2.676477,1.2016183,0.44474792,102
1747533280920,0.5227706,0.1398448,-0.7226535,2.5742116,1.107875,0.44900897,103
1747533280930,0.54937285,-0.0156196635,-0.6828722,2.5635588,1.0024139,0.45007423,104
1747533280940,0.603553585,-0.283228435,-0.79050145,2.6093652,0.93636745,0.42024684,105
1747533280950,0.611485435,-0.42173092,-0.9274176,2.6695528,0.8873653,0.31478566,106
1747533280960,0.5994046,-0.45516676,-0.9781815,2.5758095,0.8042747,0.330232,107
1747533280970,0.5976962,-0.55010504,-1.0767806,2.4208136,0.66632295,0.3898868,108
1747533280980,0.6233222,-0.66944903,-1.1787965,2.2003038,0.47617322,0.45540056,109
1747533280990,0.6667644,-0.7839119,-1.3110756,1.55741665,0.103330653,0.5587312,110
1747533281000,0.85786125,-0.803802565,-1.62163835,1.1893678,-0.087884314,0.5970807,111
1747533281010,0.9054524,-0.7883049,-1.6769173,0.6785734,-0.35739622,0.56725335,112
1747533281020,0.97476465,-0.7250941,-1.7523311,-0.06498113,-0.6961503,0.42290998,113
1747533281030,1.00673617,-0.560599515,-1.6990046,-1.3385048,-0.792823075,-0.07110641,114
1747533281040,0.96475827,-0.4422317449999999,-1.5321914,-1.9734024,-0.753142,-0.35792887,115
1747533281050,0.8944698,-0.3975692549999999,-1.32986795,-2.4226777,-0.71639037,-0.61465761,116
1747533281060,0.8534682,-0.38731885,-1.2217506,-2.871953,-0.67963874,-0.87138635,117
1747533281070,0.7822035,-0.36169282,-0.98062205,-2.99472475,-0.67990507,-0.969390675,118
1747533281080,0.69812575,-0.25113491,-0.7174062999999999,-3.30098835,-0.7752462,-1.2663331,119
1747533281090,0.67091334,-0.20744865,-0.6411384,-3.3401368,-0.819721,-1.3171995,120
1747533281100,0.5747548,-0.0723629735,-0.39488463,-3.2770198500000003,-0.859934745,-1.64210515,121
1747533281110,0.528628,-0.061502427,-0.353883,-3.2378714,-0.85487473,-1.695901,122
1747533281120,0.47847425,-0.06125837,-0.33875145,-3.17768395,-0.8562063,-1.7180052,123
1747533281130,0.32581642,-0.034900185,-0.31654227,-3.0029805,-0.92518216,-1.7129452,124
1747533281140,0.18182265,0.08859278,-0.393542305,-2.974751,-1.21440145,-1.3480922,125
1747533281150,0.223800495,0.09225364,-0.47176264,-2.9885995,-1.2362394,-1.2751216,126
1747533281160,0.2511349,0.09127741,-0.5188657,-3.037069,-1.2618058,-1.2106731,127
1747533281170,0.217455005,0.33240597,-0.711670935,-3.696734,-1.1789815,-1.24529415,128
1747533281180,0.20049303,0.4195344,-0.640650265,-3.919108,-1.1739215,-1.2548815,129
1747533281190,0.20281157,0.44930938,-0.5781716,-4.238687,-1.128115,-1.2958943,130
1747533281200,0.1857275649999999,0.45760734,-0.274808465,-4.438957,-1.0197244,-1.42798705,131
1747533281210,0.16913168,0.45687518,-0.16986385,-4.452273,-0.9832391,-1.4727281,132
1747533281220,0.072851089,0.38731885,0.16046764,-4.078365,-0.8341021,-1.5675366,133
1747533281230,0.0052472315,0.36486561,0.167911385,-3.7555897,-0.7914915,-1.5488945,134
1747533281240,-0.0890808975,0.40562316,0.11055793,-3.39872625,-0.915062165,-1.3475595,135
1747533281250,-0.13496366,0.447601,0.06369894,-3.3230925,-0.97418433,-1.2420983,136
1747533281260,0.04368625,0.5645044,-0.25333142,-3.4823494,-0.87777793,-1.0274476,137
1747533281270,0.110557936,0.58183247,-0.34729347,-3.7678404,-0.7286409,-1.1792477,138
1747533281280,0.122394718,0.6635916550000001,-0.247718115,-4.1167145000000005,-0.63356605,-1.4002901,139
1747533281290,0.1342315,0.74535084,-0.14814276,-4.4655886,-0.5384912,-1.6213325,140
1747533281300,0.08395569,0.76121455,0.07809832,-4.5564022,-0.62877235,-1.7989654000000002,141
1747533281310,-0.23795582,0.71142685,0.545712,-4.4815674,-0.73130405,-1.8050907,142
1747533281320,-0.3956168,0.67140144,0.69458693,-4.1460094,-0.88949585,-1.5632756,143
1747533281330,-0.469078,0.63015586,0.7385172,-3.44027155,-1.00241385,-1.01306645,144
1747533281340,-0.42563587,0.6045298,0.6343048,-3.186206,-0.9784454,-0.8186557,145
1747533281350,-0.28969595,0.66017485,0.40318257,-3.0264163,-0.8522116,-0.7094661,146
1747533281360,-0.19329333,0.77634615,0.07736614,-3.397661,-0.6269081,-0.79202414,147
1747533281370,-0.2037878,0.8246695,0.06662763,-3.8589206,-0.628506,-0.8612663,148
1747533281380,-0.35461518,0.913628315,0.354005055,-4.3265715,-0.7680557,-0.8314389,149
1747533281390,-0.41001618,0.9127741,0.47639978,-4.598214,-0.9166601,-0.6359629,150
1747533281400,-0.332405965,0.66481195,0.94669808,-4.6003447,-1.1153319,-0.32863408,151
1747533281410,-0.25162303,0.6360132,0.9818423,-4.027765,-1.2980248,0.22530343,152
1747533281420,-0.126299629485,0.6301558,0.9658566,-3.6661077,-1.1275824,0.17204021,153
1747533281430,0.12861817,0.6638357,0.88421935,-3.5393412,-0.94542223,-0.10865697,154
1747533281440,0.13618395,0.7299752,0.8019721,-3.522297,-0.6860303,-0.4596616,155
1747533281450,-0.039537273,0.75364876,0.728999,-3.652259,-0.2972088,-1.0242518,156
1747533281460,-0.21818718,0.77781045,0.8102701,-3.7763624,-0.30146983,-1.1265172,157
1747533281470,-0.2843267,0.830526795,0.89105305,-3.82323405,-0.3507383149999999,-1.0902982,158
1747533281480,-0.4271002,0.9127741,1.1597601,-3.7657099,-0.5800365,-0.8309063,159
1747533281490,-0.41294485,0.82247293,1.2942356,-3.4716969,-0.70467246,-0.5699165,160
1747533281500,-0.0403914761,0.68531275,1.25433225,-2.7201529,-0.4612595,-0.55553544,161
1747533281510,-0.0051252022,0.70190865,1.2217506,-2.54758,-0.34674358,-0.8005462,162
1747533281520,-0.0291648431,0.733025925,1.17806435,-2.5041704,-0.31132354,-0.9054748,163
1747533281530,-0.17254847,0.7907455,1.0501783,-2.4176178,-0.21997711,-1.1163971,164
1747533281540,-0.29897013,0.7475473,0.9701275,-2.3755398,-0.17204021,-1.1201255,165
1747533281550,-0.49934113,0.7167961,0.878118,-2.3707461,-0.23648871,-0.7803062,166
1747533281560,-0.47542354,0.7197248,0.87030816,-2.4181504,-0.35260254,-0.48149952,167
1747533281570,-0.39195594,0.65285313,0.88739216,-2.4165523,-0.5683186,-0.20080236,168
1747533281580,-0.22697324,0.55010504,0.84468216,-2.4266725,-0.6801714,-0.017576864,169
1747533281590,0.04954362,0.6185631,0.81881205,-2.541721,-0.5800365,-0.11132014,170
1747533281600,0.04490653,0.656514,0.8473667,-2.9406626,-0.31691617,-0.6583334,171
1747533281610,-0.049299564,0.67091334,0.9432813,-3.0423954,-0.20772657,-0.8586032,172
1747533281620,-0.19671014,0.6269831,1.044321,-3.0104373,-0.11558119,-0.9214538,173
1747533281630,-0.3470494,0.59013045,1.09776955,-2.8714204,-0.07829694,-0.85487473,174
1747533281640,-0.38512233,0.62503064,1.1177822,-2.700978,-0.2615224,-0.48149952,175
1747533281650,-0.33582276,0.6672525,1.168302,-2.572081,-0.52357745,-0.18216023,176
1747533281660,-0.26992732,0.58134437,1.2173575,-2.3718114,-0.6535397,0.00479369,177
1747533281670,-0.20159128,0.47762007,1.2151611,-1.9768645,-0.56965015,0.1254348925,178
1747533281680,-0.14521407,0.40220633,1.1668377,-1.8375812,-0.509729,0.13901702,179
1747533281690,-0.0593059085,0.282740325,0.88409743,-1.48790815,-0.170708625,0.031691617,180
1747533281700,-0.026724268,0.227583385,0.7553572049999999,-1.4753913,-0.13156016,0.011717909,181
1747533281710,-0.009030119,0.19841854,0.69385475,-1.5739282,-0.06764429,-0.04580637,182
1747533281720,0.06345488,0.18914436,0.6079466,-1.8242654,-0.008522116,-0.17044231,183
1747533281730,0.11275445,0.2186753,0.5520575,-2.2178805,0.075101145,-0.37390783,184
1747533281740,0.019768637,0.3436326,0.7660957,-3.2586439,0.18482338,-0.8644621,185
1747533281750,-0.143017545,0.34436476,1.1485334,-3.47356105,0.096672752,-0.913996905,186
1747533281760,-0.20451997,0.33240595,1.2869139,-3.4706316,0.025033714,-0.88949585,187
1747533281770,-0.2671206499999999,0.32496221,1.3928347,-3.2501218,-0.14966966,-0.6993461,188
1747533281780,-0.42612398,0.29823795,1.6439695,-2.8884647,-0.28815404,-0.4293016,189
1747533281790,-0.34558506,0.353028825,1.6141946,-2.00908875,-0.2399508149999999,-0.0247673995,190
1747533281800,-0.2673647,0.434299875,1.5625765,-1.8892465,-0.18482338,-0.02130529,191
1747533281810,-0.2328306,0.4737151,1.543174,-1.6905746,0.002130529,-0.16192019,192
1747533281820,-0.21428227,0.4829893,1.5429299,-1.5574167,0.14008227,-0.30999196,193
1747533281830,-0.2988481,0.49714462,1.57221675,-1.23783725,0.2330266,-0.426372115,194
1747533281840,-0.3881730399999999,0.5274077,1.55342435,-0.9837717,0.22024343,-0.367249915,195
1747533281850,-0.41135847,0.56474848,1.4942405,-0.908138,0.20719394,-0.3110572,196
1747533281860,-0.40903994,0.58891016,1.4604386,-0.8069378,0.18588865,-0.17576863,197
1747533281870,-0.35193056,0.63162017,1.4267586,-0.757403,0.13901702,-0.06764429,198
1747533281880,-0.20659447,0.63235233,1.4555574,-0.63596287,0.1118527649999999,-0.06924218675,199
1747533281890,-0.14497001,0.613804,1.4846002,-0.5475459,0.12037488,-0.1257012,200
1747533281900,-0.1558305549999999,0.6325963649999999,1.5567192,-0.359526755,0.22077606,-0.28362666,201
1747533281910,-0.17352471,0.64479923,1.5849078,-0.28549087,0.2444782,-0.32863408,202
1747533281920,-0.337775225,0.606116205,1.6516574,0.13475595,0.1949434,-0.28229508,203
1747533281930,-0.3577879,0.58158845,1.6561725,0.36645097,0.1635181,-0.22264028,204
1747533281940,-0.35315084,0.5559624,1.6439695,0.58909124,0.18002969,-0.18695392,205
1747533281950,-0.35168648,0.55523026,1.6239569,0.8005462,0.20612867,-0.1736381,206
1747533281960,-0.3660859,0.5442477,1.5983309,0.9800433,0.2647182,-0.16937704,207
1747533281970,-0.3896374,0.52582135,1.6041883,1.16779615,0.327036185,-0.12996226,208
1747533281980,-0.44369608,0.48518583,1.6254213,1.5222629,0.38136467,-0.006924219,209
1747533281990,-0.47444725,0.47859627,1.63738,1.7326527,0.237820285,0.2005360325,210
1747533282000,-0.5022698,0.4937278,1.6356717,1.91454655,0.0529969099999999,0.44235106,211
1747533282010,-0.46688148,0.47273886,1.6102897,2.0335898,-0.07190535,0.60240704,212
1747533282020,-0.443574025,0.46029195,1.59625635,2.0921794,-0.10918961,0.65140922,213
1747533282030,-0.3706009249999999,0.42429352,1.5202326,2.2604911,-0.18056233,0.7536746,214
1747533282040,-0.35656762,0.42661208,1.4977793,2.340386,-0.1587244,0.7755125,215
1747533282050,-0.3082443,0.43832684,1.4609268,2.4916537,-0.06018744,0.7701862,216
1747533282060,-0.31776255,0.4412555,1.4677603,2.5635588,-0.016511599,0.7707188,217
1747533282070,-0.33313814,0.45004156,1.4719093,2.6498454,0.010120012,0.79415464,218
1747533282080,-0.34509695,0.44735694,1.4702009,2.7499802,0.017576864,0.8378305,219
1747533282090,-0.35046622,0.43149322,1.4567777,2.8394625,0.03355583,0.88470215,220
1747533282100,-0.3526627,0.42807645,1.4477476,3.0040457,0.020240024,0.9981528,221
1747533282110,-0.340948,0.4036707,1.4252943,3.080212,0.007989483,1.0641992,222
1747533282120,-0.31605414,0.3917119,1.3955194,3.1435955,0.013848438,1.1068097,223
1747533282130,-0.29091623,0.39927766,1.3657444,3.193663,0.06977482,1.1206582,224
1747533282140,-0.2767609,0.40733153,1.3381659,3.235741,0.1486044,1.1163971,225
1747533282150,-0.255527935,0.3870748,1.2891104,3.34892525,0.29800774,1.13210985,226
1747533282160,-0.2523552,0.3841461,1.2781278,3.4104443,0.35792887,1.1531488,227
1747533282170,-0.23307467,0.37243137,1.2246792,3.4551852,0.35420042,1.2096078,228
1747533282180,-0.13935668,0.372797445,1.1280326,3.4432009,0.278566645,1.23197835,229
1747533282190,-0.11495096,0.37828872,1.0987457,3.4296188,0.24607609,1.2261194,230
1747533282200,-0.035998443,0.39891157,1.0080785,3.281547,0.18801917,1.0998856,231
1747533282210,-0.03172744,0.4144092,1.0074683,3.184608,0.1736381,0.96566224,232
1747533282220,-0.07297312,0.45345837,1.0365112,3.1553133,0.18002969,0.89162636,233
1747533282230,-0.110557936,0.46590528,1.087519,3.1968586,0.16564862,0.8580705,234
1747533282240,-0.13667206,0.47054234,1.1194906,3.3055155,0.16564862,0.85700524,235
1747533282250,-0.19500175,0.43320164,1.0472497,3.6187034,0.25513083,0.87831056,236
1747533282260,-0.20744865,0.4373506,0.97208,3.7332194,0.30999196,0.89588743,237
1747533282270,-0.22282428,0.4334457,0.9022797,3.7976677,0.3206446,0.91612744,238
1747533282280,-0.22306833,0.441011465,0.8762875999999999,3.79100985,0.3270362,0.92784537,239
1747533282290,-0.2186753,0.4803047,0.8246695,3.7518613,0.30040458,0.98110855,240
1747533282300,-0.25430766,0.4385709,0.77512586,3.7992656,0.2977414,1.1052119,241
1747533282310,-0.27602875,0.41196862,0.72045696,3.8461373,0.35420042,1.1989552,242
1747533282320,-0.25723633,0.43588626,0.6460195,3.84667,0.41278997,1.2916331,243
1747533282330,-0.135451775,0.48213512,0.5346074000000001,3.7417414,0.44048685,1.381648,244
1747533282340,-0.0634548849999999,0.50092751,0.48408755,3.6421392,0.4809669,1.3709954,245
1747533282350,-0.0436862465,0.5465662250000001,0.486528125,3.4232273,0.5800365000000001,1.30148685,246
1747533282360,-0.039537273,0.5779276,0.49348375,3.3523872,0.6130597,1.2756542,247
1747533282370,-0.07370529,0.63406074,0.54034275,3.2676988,0.68816084,1.2532836,248
1747533282380,-0.13960074,0.56474847,0.6884855,3.3081787,0.7392935,1.3768543,249
1747533282390,-0.0923756675,0.428442495,0.6537073200000001,3.7199035,0.6870956,1.5014902,250
1747533282400,-0.06199054,0.38951537,0.6145361,4.0328251,0.536094325,1.6279903999999998,251
1747533282410,0.041977845,0.36022848,0.47981656,4.10766,0.4809669,1.6484967,252
1747533282420,0.13569583,0.37999713,0.30385128,4.156662,0.396811,1.6096146,253
1747533282430,0.232220475,0.453214305,0.059794018,4.099138,0.38775626,1.5121429,254
1747533282440,0.27895743,0.49421594,-0.033435844,3.9409459,0.46232477,1.3630059,255
1747533282450,0.23222048,0.523380755,-0.060648225,3.50472,0.7281082,0.9321064,256
1747533282460,0.19817449,0.52252656,-0.06296677,3.3609095,0.8378305,0.8245147,257
1747533282470,0.13789235,0.5559624,-0.039781332,3.2053807,0.88044107,0.8005462,258
1747533282480,0.0685800875,0.5879339,0.04075756125,3.06929315,0.73902723,1.026116025,259
1747533282490,0.10470056,0.514350635,0.0867623499999999,3.0589068,0.65513766,1.1856394,260
1747533282500,0.15717287,0.46297657,0.09445015,3.1308122,0.4990764,1.3092101,261
1747533282510,0.25333142,0.38975942,0.056133166,3.235741,0.2561961,1.3763217,262
1747533282520,0.3104408,0.36291313,-0.051496077,3.3300166,0.10279802,1.3779196,263
1747533282530,0.35315084,0.3734076,-0.17938207,3.3491914,0.046339005,1.2591426,264
1747533282540,0.40171823,0.47884035,-0.39854547,3.1318774,0.25885928,0.8809737,265
1747533282550,0.39073566,0.49446,-0.4300289,2.9939258,0.42024684,0.6711166,266
1747533282560,0.37633628,0.5108118,-0.41904628,2.8565066,0.588026,0.4612595,267
1747533282570,0.37633628,0.5108118,-0.41904628,2.8565066,0.588026,0.4612595,268
1747533282580,0.24539956,0.572558285,-0.29567536,2.7957866,0.796285175,0.3339604149999999,269
1747533282590,0.077122085,0.53961056,-0.15326795,2.8447888,0.86392945,0.38083205,270
1747533282600,0.0095182322,0.438692915,-0.12947237,3.10790905,0.61918495,0.8277105,271
1747533282610,0.012446919,0.38463423,-0.13105874,3.2256207,0.4878911,1.0247844,272
1747533282620,0.08102701,0.22502078,-0.22428861,3.5342811,0.268180325,1.40774695,273
1747533282630,0.2843267,-0.0554009975,-0.649192275,3.647998,0.22583607,1.5243934,274
1747533282640,0.33826336,-0.09884319,-0.73461235,3.6581182,0.3158509,1.4711303,275
1747533282650,0.4762776999999999,-0.23722364,-0.97403248,3.597398,0.4857606,1.3156016,276
1747533282660,0.5100796,-0.26162934,-1.036023,3.4487936,0.6982809,1.0823087,277
1747533282670,0.43368973,-0.338019285,-1.2003956,2.974751,1.1142666,0.67324716,278
1747533282680,0.40147418,-0.3499781,-1.2202863,2.54571565,1.27219205,0.65061027,279
1747533282690,0.393664345,-0.4668815349999999,-1.3320644499999998,2.21335325,1.1432951,0.7914915,280
1747533282700,0.554254025,-0.554864175,-1.58869055,1.44742813,0.62264711,1.0263823,281
1747533282710,0.6804316,-0.57402265,-1.7938206,0.84688526,0.23489082,1.1685951,282
1747533282720,0.788793,-0.50593066,-1.8916876,0.03781689,0.01917476,1.2032162,283
1747533282730,1.00807853,-0.525455275,-1.72999985,-0.97738013,-0.17789917,1.009870715,284
1747533282740,1.0633575,-0.5271637,-1.649339,-1.4825818,-0.222107645,0.7701862150000001,285
1747533282750,1.2116221500000002,-0.43735057,-1.24664445,-1.9936424,-0.079894835,0.15339808,286
1747533282760,1.2254114,-0.38378,-1.0988677,-2.36009335,0.15153387,-0.584297555,287
1747533282770,1.2197981,-0.35510328,-1.0225998,-2.4319987,0.23648871,-0.84422207,288
1747533282780,1.1241277,-0.254429675,-0.796724855,-2.50283885,0.39095206,-1.5667377500000002,289
1747533282790,1.0823939,-0.22843759,-0.72094506,-2.573679,0.42983422,-1.7880464,290
1747533282800,0.736808825,-0.1748670199999999,-0.405989245,-2.3081618500000003,0.332628835,-2.4937841,291
1747533282810,0.64040625,-0.15668476,-0.37218732,-2.2210765,0.2657835,-2.5587652,292
1747533282820,0.4842096,-0.102748096,-0.38951537,-2.1507690000000004,0.18216023,-2.5582326,293
1747533282830,0.35998443,-0.0353883,-0.4617563,-2.0423783,-0.1233043615,-2.39924195,294
1747533282840,0.2433250799999999,0.0306291845,-0.588544045,-2.2218753,-0.26391927,-2.16914475,295
1747533282850,0.21208574,0.04344219,-0.63503695,-2.3829966,-0.3371562,-2.0069582,296
1747533282860,0.073461235,0.09689073,-0.77146494,-2.3829966,-0.3371562,-2.0069582,297
1747533282870,0.042343932,0.16449458,-0.77695622,-3.1161649,-0.4231763,-1.55528615,298
1747533282880,0.074925572,0.223678455,-0.7210671200000001,-3.289004,-0.45060685,-1.4753913,299
1747533282890,0.141553205,0.28945188,-0.5221605,-3.6458676,-0.6173208,-1.2783173,300
1747533282900,0.187557995,0.33728711,-0.283228445,-4.278900999999999,-0.800546225,-1.2074772500000002,301
1747533282910,0.19256116,0.35461518,-0.19793043,-4.346279,-0.8516789,-1.1845741,302
1747533282920,0.19134088,0.37658033,-0.05344854,-4.36066,-0.92092115,-1.1733888,303
1747533282930,0.109337645,0.44918734,0.161931982,-4.278102,-0.85700524,-1.200553,304
1747533282940,0.06321083,0.47395915,0.24991462,-4.107127,-0.7259777,-1.2117383,305
1747533282950,0.07980672,0.49738866,0.27480847,-3.584615,-0.33129725,-1.2436962,306
1747533282960,0.10933765,0.5537659,0.2633378,-3.396063,-0.2130529,-1.2985574,307
1747533282970,0.130082515,0.57865975,0.22013965,-3.2698293,-0.11558119,-1.3646038,308
1747533282980,0.27456442,0.6252747,0.06638357,-3.2586439,0.043675844,-1.5425029,309
1747533282990,0.36096066,0.66700846,0.0026846298,-3.4141726,0.16405073,-1.8562233,310
1747533283000,0.15692882,0.7819594,0.19548985,-3.9286952,0.082025364,-2.3707461,311
1747533283010,-0.018792408,0.72777873,0.3785328,-3.9318912,-0.10226539,-2.3350596,312
1747533283020,-0.21843125,0.6406503,0.5025139,-3.7454698,-0.30839407,-2.12467,313
1747533283030,-0.38902727,0.60062486,0.5657247,-3.487676,-0.54275227,-1.7465011,314
1747533283040,-0.36779428,0.6428468,0.4651731,-3.0503848,-0.89322424,-0.7930894,315
1747533283050,-0.2290477299999999,0.641504485,0.405135025,-3.077549,-0.777643055,-0.80267677,316
1747533283060,0.15204766,0.6677406,0.23014598,-3.1047132,-0.66206187,-0.81226414,317
1747533283070,0.3099527,0.7048373,0.17547716,-3.2953956,-0.304133,-1.2250541,318
1747533283080,0.053326505,0.70398313,0.359374275,-3.44346735,-0.093476955,-1.54756295,319
1747533283090,-0.358153995,0.7427882299999999,0.6416264650000001,-3.9313585,0.1198422515,-2.2146848500000003,320
1747533283100,-0.5108118,0.77829856,0.76463133,-3.953729,-0.033023197,-2.0975058,321
1747533283110,-0.77097684,0.8607899,0.9706156,-3.850931,-0.49321744,-1.5164039,322
1747533283120,-0.8390688,0.8293065,1.1050912,-3.5531895,-0.9358348,-0.7813715,323
1747533283130,-0.613804,0.72631437,1.1099724,-3.2011197,-1.158475,-0.19600865,324
1747533283140,-0.015375607,0.79611474,0.8471227,-2.8772793,-1.0359697,-0.034621093,325
1747533283150,0.17328065,0.78891505,0.7387612800000001,-2.948652,-0.7728494,-0.33662358,326
1747533283160,0.1849954,0.7700006,0.7238738,-3.0637007,-0.38136467,-0.8186557,327
1747533283170,0.059549972,0.6867771,0.72167724,-3.093528,-0.12836437,-1.1089402,328
1747533283180,-0.20134722,0.6096549950000001,0.741079815,-3.12308905,-0.120108559,-1.12811505,329
1747533283190,-0.33228395,0.61331585,0.804534715,-3.16703115,-0.436225785,-0.87218525,330
1747533283200,-0.3660859,0.60770255,0.8358961,-3.1771512,-0.60773337,-0.7222493,331
1747533283210,-0.32410803,0.54937285,0.8751893,-3.110572,-0.90174633,-0.4000068,332
1747533283220,-0.14350566,0.45174995,0.8402891,-2.9896648,-0.97471696,-0.23915187,333
1747533283230,0.162664155,0.428198425,0.7276566950000001,-2.9678268,-0.8250473,-0.3669836,334
1747533283240,0.25601605,0.46297657,0.70190865,-3.3806167,-0.053795855,-1.401888,335
1747533283250,0.10201593,0.4971446,0.8422416,-3.5899413,0.15446335,-1.8317223,336
1747533283260,-0.17669745,0.5010495,1.0326062,-3.678358,0.15606125,-1.9861856,337
1747533283270,-0.4356422,0.53302103,1.2544543,-3.6634445,-0.06498113,-1.8599517,338
1747533283280,-0.63162017,0.59281504,1.4211453,-3.4855454,-0.3888215,-1.4929681,339
1747533283290,-0.58768983,0.5325329249999999,1.4820377,-2.78593285,-0.9600696,-0.572313325,340
1747533283300,-0.34936794,0.456509095,1.3186414,-2.401106,-1.1781825,-0.15446335,341
1747533283310,-0.23649146,0.43368974,1.2176017,-2.171009,-1.176052,-0.068176925,342
1747533283320,-0.04075756,0.41758195,0.99868226,-2.1193435,-0.89162636,-0.2806972,343
1747533283330,0.08078295,0.36681804,0.8507836,-2.198706,-0.6306366,-0.61572284,344
1747533283340,-0.006833603,0.25821257,0.7304634,-2.4703484,-0.14274544,-1.2229236,345
1747533283350,-0.17718556,0.2809099,0.74681515,-2.795254,0.088416953,-1.42239435,346
1747533283360,-0.23429495,0.302631,0.7695125,-2.9214878,0.13741912,-1.4524881,347
1747533283370,-0.385488435,0.29396695,1.1734273,-3.2053807,0.0306263539999999,-1.1656656,348
1747533283380,-0.40123013,0.26236153,1.2564068,-3.176086,-0.041012682,-1.0610034,349
1747533283390,-0.4058672,0.20940112,1.355494,-3.0067089,-0.22423817,-0.80800307,350
1747533283400,-0.3585201,0.1867038,1.38112,-2.7297401,-0.43303,-0.50333744,351
1747533283410,-0.26797486,0.15400013,1.27153825,-2.64851375,-0.4724448,-0.434894205,352
1747533283420,-0.13325526,0.16180995,1.0452971,-2.7451866,-0.38935417,-0.5022722,353
1747533283430,-0.18182266,0.21232979,1.0218678,-3.0072415,-0.23009712,-0.65513766,354
1747533283440,-0.24967057,0.26504618,1.1582958,-3.2586439,-0.06551377,-0.7600662,355
1747533283450,-0.272856,0.255772,1.3562261,-3.3699641,0.041545313,-0.8346347,356
1747533283460,-0.3917119,0.2865232,1.7084008,-3.3268209,0.11771172,-0.85753787,357
1747533283470,-0.41684976,0.31361356,1.820423,-2.8224182,0.15819177,-0.72437984,358
1747533283480,-0.36462155,0.32117933,1.8558112,-2.49698,0.15073492,-0.63436496,359
1747533283490,-0.31434575,0.36730617,1.842388,-2.209891,0.11451593,-0.59122175,360
1747533283500,-0.239176105,0.502269825,1.79772565,-1.789378,0.163518095,-0.613326025,361
1747533283510,-0.20769271,0.55693865,1.786499,-1.5962988,0.2263687,-0.6487461,362
1747533283520,-0.18182266,0.58280873,1.8174944,-1.4253238,0.37550572,-0.7643272,363
1747533283530,-0.22672918,0.57988006,1.8621569,-1.2170646,0.4394216,-0.8452873,364
1747533283540,-0.26821893,0.61941725,1.8689904,-1.0295781,0.48522797,-0.8857674,365
1747533283550,-0.33313814,0.6794554,1.8948604,-0.83729786,0.48948902,-0.89588743,366
1747533283560,-0.47737598,0.65675807,1.9688098,-0.1965413,0.4362258,-0.74461985,367
1747533283570,-0.50812715,0.6406503,1.9900427,0.14966966,0.37710363,-0.63915867,368
1747533283580,-0.5357057,0.65065664,1.9932156,0.5139901,0.29561087,-0.51452273,369
1747533283590,-0.58134437,0.6296677,1.9719826,0.8878979,0.19813919,-0.360592,370
1747533283600,-0.63406074,0.5605995,1.9029144,1.24849,0.14807177,-0.18855181,371
1747533283610,-0.6638357,0.447601,1.6737447,1.7864485,0.16884442,0.096939065,372
1747533283620,-0.66871685,0.436618435,1.6163912,1.8498317,0.19947077,0.1603222975,373
1747533283630,-0.6491923,0.40562314,1.4682485,1.9648803,0.26525086,0.38296258,374
1747533283640,-0.615878475,0.393298255,1.436521,1.9209381,0.1880191799999999,0.49215219,375
1747533283650,-0.47078644,0.36938065,1.39698365,1.79896535,-0.056991648,0.733434565,376
1747533283660,-0.44882128,0.3734076,1.40699,1.784318,-0.103863284,0.7701862,377
1747533283670,-0.415751505,0.39097971,1.4977793,1.8013622,-0.16564862,0.813862,378
1747533283680,-0.41172457,0.39830142,1.5404893,1.8924423,-0.20240025,0.8516789,379
1747533283690,-0.40391475,0.38146147,1.5971106,2.0730047,-0.18642128,0.8841695,380
1747533283700,-0.39586085,0.32166746,1.5934497,2.5102956,-0.08042747,0.91452956,381
1747533283710,-0.375116,0.3526627,1.5265781,2.6844664,0.03568636,0.89855057,382
1747533283720,-0.37462788,0.36059458,1.4980234,2.7611654,0.09853696,0.8815063,383
1747533283730,-0.40867389,0.352296635,1.45055425,2.815494,0.1454086,0.8990832,384
1747533283740,-0.4190463,0.32532832,1.4281009999999998,2.9518479,0.12809805,1.01732755,385
1747533283750,-0.41196862,0.3141017,1.4101628,3.0146985,0.10279802,1.0945592,386
1747533283760,-0.36632994,0.32215557,1.38112,3.029612,0.02876214,1.1712582,387
1747533283770,-0.3200810699999999,0.36279109,1.35805655,3.012568,-0.055926383,1.2442288,388
1747533283780,-0.30580372,0.36559775,1.3596429,3.0131005,-0.143011755,1.31453635,389
1747533283790,-0.19402552,0.34070393,1.3903941,3.0194921,-0.15126756,1.3267869,390
1747533283800,-0.1295944,0.31898284,1.3762388,3.2043154,0.0015978967,1.2000204,391
1747533283810,-0.08688438,0.31068486,1.3413386,3.2911346,0.12250541,1.0759171,392
1747533283820,-0.082247294,0.32239962,1.2976524,3.353985,0.22423817,0.9624664,393
1747533283830,-0.11226633,0.32923323,1.2551864,3.3795514,0.2828277,0.89322424,394
1747533283840,-0.16864355,0.38487828,1.2127205,3.31350505,0.272974005,0.87165262,395
1747533283850,-0.2175770349999999,0.37316353,1.2254114,3.3087113,0.24394555,0.89322424,396
1747533283860,-0.22794947,0.3682824,1.228096,3.3257556,0.1667139,0.9518138,397
1747533283870,-0.2362474,0.36779428,1.21931,3.3992589,0.055926383,1.037035,398
1747533283880,-0.23917611,0.3572998,1.1846539,3.4722295,-0.0010652645,1.1030813,399
1747533283890,-0.17254847,0.34973404,1.0933765,3.6581181,0.0316916185,1.1132014,400
1747533283900,-0.1807243949999999,0.313491535,0.9898961,3.701794,0.10040118,1.09322765,401
1747533283910,-0.172914565,0.31324747,0.9069167,3.6996635,0.19760656,1.056476,402
1747533283920,-0.16229807,0.3236199,0.8649389,3.6661076,0.281762445,1.00507698,403
1747533283930,-0.18572756,0.348025635,0.761214555,3.5539885,0.356597275,0.96805906,404
1747533283940,-0.20488605,0.38133945,0.7175282700000001,3.3989925000000003,0.379500465,0.97098853,405
1747533283950,-0.20354374,0.4087959,0.7138674,3.333745,0.36272255,0.9853696,406
1747533283960,-0.19915071,0.42856455,0.733148,3.2522523,0.29294774,1.0088054,407
1747533283970,-0.21037734,0.44442827,0.77073276,3.2149682,0.22690132,1.0386329,408
1747533283980,-0.22184804,0.43588626,0.7897693,3.218164,0.23276028,1.0636666,409
1747533283990,-0.24332508,0.45858356,0.763167,3.3374736,0.3190467,1.0844392,410
1747533284000,-0.23441698,0.49433797,0.713379365,3.3683662,0.39254996,1.0769824,411
1747533284010,-0.23307467,0.50617474,0.6994681,3.4210968,0.4213121,1.0902982,412
1747533284020,-0.23087814,0.48054874,0.65090066,3.4780884,0.44794372,1.1147993,413
1747533284030,-0.20451997,0.4807928,0.6020892,3.458381,0.52144694,1.1222562,414
1747533284040,-0.2020794,0.5447358,0.6040417,3.4674358,0.43036684,1.2463595,415
1747533284050,-0.192927245,0.46370879,0.60306545,3.5984633,0.30706248,1.44343335,416
1747533284060,-0.18157859,0.44467232,0.5937913,3.6511939,0.2625877,1.5089471,417
1747533284070,-0.1513155,0.42099872,0.53180075,3.7747645,0.20453078,1.6335831,418
1747533284080,-0.09274176,0.3943965,0.3397277,3.8647795,0.2050634,1.7289242,419
1747533284090,0.040757561,0.39195594,0.2255089049999999,3.81444575,0.28495824,1.68791155,420
1747533284100,0.05515694,0.39464056,0.19817449,3.764112,0.36485308,1.6468989,421
1747533284110,0.15534244,0.40757559,0.07004443,3.62616025,0.6372944700000001,1.5558187,422
1747533284120,0.18255483,0.40684342,0.045882765,3.5617118,0.76059884,1.5068166,423
1747533284130,0.226973235,0.414897305,0.0090301184,3.44453265,0.8857674,1.4130733000000002,424
1747533284140,0.22648512,0.41855815,-0.0021965152,3.401922,0.9038769,1.3907027,425
1747533284150,0.20696054,0.45711923,-0.018304294,3.290602,0.8809737,1.4093449,426
1747533284160,0.1871919,0.4983649,-0.024161667,3.1904671,0.82078624,1.4876418,427
1747533284170,0.1533899775,0.483233335,-0.017816179,3.16516705,0.66046397,1.654622,428
1747533284180,0.14497001,0.417826,-0.030507157,3.1478565,0.34248254,1.9899141,429
1747533284190,0.18304294,0.42465958,-0.06028214,3.1563785,0.1555286,2.130529,430
1747533284200,0.22111587,0.39586085,-0.17206036,3.2037828,0.058056913,2.1848574,431
1747533284210,0.277859175,0.34534101,-0.21379415,3.2663671,0.1531317665,2.1358552,432
1747533284220,0.39878955,0.29823795,-0.32337585,3.3545177,0.396811,1.9371834,433
1747533284230,0.43661842,0.31898284,-0.38975942,3.3433325,0.5203817,1.7704695,434
1747533284240,0.44345203,0.328257,-0.42636803,3.2953956,0.598146,1.6223978,435
1747533284250,0.44686884,0.27139166,-0.46932206,3.238404,0.6332997,1.5014902,436
1747533284260,0.44686884,0.27139166,-0.46932206,3.238404,0.6332997,1.5014902,437
1747533284270,0.43466598,0.25381953,-0.49031103,3.1734228,0.57311225,1.315069,438
1747533284280,0.42685616,0.15936938,-0.5793919,3.1734228,0.47351006,1.2495552,439
1747533284290,0.4540685,0.069556313,-0.6721336849999999,3.13906805,0.51159325,1.15927405,440
1747533284300,0.4583395,0.034168016,-0.7050814,3.1206923,0.5422196,1.1302456,441
1747533284310,0.54961693,-0.061746486,-0.8751893,2.9939258,0.7190535,0.9890981,442
1747533284320,0.60135704,-0.11861181,-0.93571544,2.8911278,0.77604514,0.90707266,443
1747533284330,0.6274712,-0.17059602,-0.9772052,2.7585022,0.7190535,0.84209156,444
1747533284340,0.69153623,-0.23441699,-1.1097283,2.4897894000000003,0.458596365,0.7669904249999999,445
1747533284350,0.72485006,-0.24405725,-1.1892909,2.3734093,0.33662358,0.73609775,446
1747533284360,0.780007,-0.25943285,-1.2603117,1.8354506,-0.0037284256,0.62264705,447
1747533284370,0.8161274,-0.2853029,-1.325719,1.5078819,-0.105993815,0.48735848,448
1747533284380,0.82393724,-0.25406358,-1.3703815,1.1265172,-0.13741912,0.32756883,449
1747533284390,0.7946504,-0.17498904,-1.3796556,0.72651035,-0.15819177,0.20186761,450
1747533284400,0.789769275,-0.131912945,-1.31620075,-0.018642128,-0.12250541,-0.018109497,451
1747533284410,0.79391825,-0.13032657,-1.3013133,-0.350472,-0.05752428,-0.18269286,452
1747533284420,0.7942842999999999,-0.1287401899999999,-1.25372205,-0.817057835,0.086552735,-0.4846953149999999,453
1747533284430,0.7995315,-0.1300825,-1.2378583,-0.9901633,0.13954964,-0.60933125,454
1747533284440,0.8053889,-0.0724850019999999,-1.0994779,-1.57765665,0.03701794,-0.9648633,455
1747533284450,0.8053889,-0.049299564,-1.0543274,-1.8791265,-0.05486112,-1.1249193,456
1747533284460,0.7922098,0.012202863,-0.9242448,-2.1518342,-0.15499598,-1.2740563,457
1747533284470,0.7636551,0.05832968,-0.7678041,-2.328668,-0.25885928,-1.4013554,458
1747533284480,0.76170266,0.057109397,-0.63235235,-2.3904533,-0.386691,-1.5185345,459
1747533284490,0.76389915,0.07248501,-0.5103237,-2.3558323,-0.48629323,-1.6548884,460
1747533284500,0.72167724,0.07175283,-0.49128726,-2.16515,-0.40852892,-2.0532973,461
1747533284510,0.66237134,0.067847915,-0.47444725,-2.0809941,-0.27483824,-2.249306,462
1747533284520,0.61990542,0.0704105174999999,-0.47127451,-2.0410467,-0.224504485,-2.32280925,463
1747533284530,0.424903665,0.1078733,-0.519353825,-1.98698455,-0.1123854,-2.50230625,464
1747533284540,0.31727443,0.15094941,-0.5564505150000001,-2.093511,-0.16005599,-2.4919199,465
1747533284550,0.250890865,0.18133454,-0.56328413,-2.24131645,-0.2604571599999999,-2.4066987,466
1747533284560,0.22477673,0.18987654,-0.5623079,-2.3206787,-0.32011196,-2.3526366,467
1747533284570,0.174745,0.21013328,-0.55108124,-2.4980452,-0.44528055,-2.2173479,468
1747533284580,0.10055158,0.24600971,-0.520086,-2.7031085,-0.6221144,-2.0426445,469
1747533284590,0.0455166765,0.26553428,-0.43722858,-2.9507825,-0.8133294,-1.7715348,470
1747533284600,0.0654073415,0.2456436099999999,-0.385122345,-3.25571455,-0.91745905,-1.39922485,471
1747533284610,0.08127106,0.23649146,-0.37755656,-3.2874062,-0.908138,-1.3619406,472
1747533284620,0.127886,0.2443013,-0.40196228,-3.4655716,-0.72624405,-1.39443115,473
1747533284630,0.14521407,0.28749946,-0.43027294,-3.5452,-0.6593987,-1.4231933,474
1747533284640,0.103968385,0.36437747,-0.386220575,-4.23842095,-0.330764625,-1.70602105,475
1747533284650,0.06955632,0.38487828,-0.3487578,-4.5947521,-0.339286735,-1.76061585,476
1747533284660,-0.026602242,0.44149956,-0.23966423,-4.7888966,-0.3669836,-1.7619474,477
1747533284670,-0.0622346,0.5315567,-0.06345488,-5.073322,-0.45380265,-1.7390442,478
1747533284680,-0.025381953,0.605262,0.09884319,-5.301821,-0.48522797,-1.7672738,479
1747533284690,0.0064675175,0.61758685,0.48811445,-5.412076,-0.46552056,-1.8727349,480
1747533284700,-0.007321717,0.6113634,0.5613316,-5.2490907,-0.1635181,-2.191249,481
1747533284710,-0.264069935,0.595987785,0.7873286850000001,-4.779575100000001,-0.07536746,-2.1776669,482
1747533284720,-0.482867265,0.625518735,0.84053317,-4.19634295,-0.27403928,-1.6674052499999998,483
1747533284730,-0.5740226500000001,0.6761606,0.810025985,-3.6634445,-0.606135485,-0.933704325,484
1747533284740,-0.4770098849999999,0.7182604699999999,0.7091083149999999,-3.47435995,-0.813595735,-0.46418899,485
1747533284750,-0.2809098949999999,0.73400217,0.607580515,-3.47196315,-0.90520845,-0.255397165,486
1747533284760,-0.16449459,0.7307074,0.5703618,-3.512177,-0.9310411,-0.2146508,487
1747533284770,0.019036464,0.7660957,0.5269196,-3.6938045,-0.86872315,-0.35260254,488
1747533284780,0.160467645,0.7841559250000001,0.6825061,-3.9095206,-0.6689861,-0.6801714,489
1747533284790,0.0759018034999999,0.7898913000000001,0.9155808,-4.20246835,-0.087085374,-1.76754005,490
1747533284800,-0.012202863,0.78537625,1.0023432,-4.163586,-0.004261058,-1.9286613,491
1747533284810,-0.23649146,0.76975656,1.1626887,-3.8978026,0.043675844,-2.0266657,492
1747533284820,-0.49653443,0.7937962000000001,1.28764605,-3.1936628,-0.140881225,-1.6868463,493
1747533284830,-0.57207015,0.8288184350000001,1.2631183,-2.54385145,-0.434894205,-1.057275,494
1747533284840,-0.491897365,0.792453885,1.14414035,-1.92812865,-0.6873619,-0.42184473,495
1747533284850,-0.198052455,0.6667644,0.915458675,-1.5350461000000002,-0.8410263,-0.1584580924999999,496
1747533284860,0.09078929,0.55071517,0.686166925,-1.30415005,-0.9472864,-0.1451422775,497
1747533284870,0.2094011049999999,0.49458198,0.550715175,-1.34223325,-0.89855055,-0.374706765,498
1747533284880,0.25137895,0.47127452,0.48445365,-1.53611135,-0.7251787700000001,-0.73982617,499
1747533284890,0.233196705,0.4783521899999999,0.35717778,-1.93132445,-0.404800495,-1.24556047,500
1747533284900,0.19915071,0.49738866,0.32923323,-2.1885858,-0.20240025,-1.5387745,501
1747533284910,-0.259066765,0.5941574000000001,0.45687518,-3.3585125500000004,0.305997215,-2.08685315,502
1747533284920,-0.41745992,0.597452165,0.62637295,-3.69460345,0.227433965,-1.9608856,503
1747533284930,-0.52838392,0.557304715,0.815151225,-3.8242993,0.1587244,-1.8471686,504
1747533284940,-0.5706058,0.5232587,0.91423845,-3.8780951,-0.13315806,-1.4604776,505
1747533284950,-0.5357057,0.39024755,1.0926442,-3.4565169,-0.8660599999999999,-0.61465758,506
1747533284960,-0.31581009,0.29518725,1.0978915,-3.176086,-1.2117383,-0.24181503,507
1747533284970,-0.19451363,0.2967736,1.0250404,-2.9694247,-1.2751216,-0.08841695,508
1747533284980,-0.07907455,0.31678632,0.9022797,-2.9507825,-1.0849719,-0.20293288,509
1747533284990,-0.009030119,0.33435842,0.83174706,-3.0605047,-0.7355651,-0.4745753,510
1747533285000,0.013911263,0.34265637,0.8417535,-3.2115061,-0.069242185,-1.04262755,511
1747533285010,-0.12983845,0.28505886,1.0182068,-3.2362735,0.20985709,-1.2687299,512
1747533285020,-0.229413815,0.230390045,1.1230294,-3.0948596,0.247407675,-1.27991525,513
1747533285030,-0.25308737,0.22062775,1.138771,-3.042928,0.20772657,-1.2516857,514
1747533285040,-0.26797485,0.23136626,1.1541467,-2.9710226,-0.025033714,-1.1318434,515
1747533285050,-0.21599067,0.188046105,1.1406015,-2.9374666,-0.3153183,-0.96779275,516
1747533285060,-0.17523311,0.14179726,1.1329137,-2.9214878,-0.76752305,-0.6982809,517
1747533285070,-0.1507053549999999,0.12654368,1.11241295,-3.02135635,-0.68310085,-0.81865575,518
1747533285080,-0.1513155,0.14887492,1.108264,-3.0722227,-0.61891866,-0.8825716,519
1747533285090,-0.265778345,0.206228365,1.2690977,-3.1587754,-0.26205505,-1.134773,520
1747533285100,-0.379142925,0.20976719,1.44433085,-3.0660973,-0.04500742225,-1.2378373,521
1747533285110,-0.42148685,0.20842488,1.5031487,-2.8474519000000003,0.01438107025,-1.1827098500000002,522
1747533285120,-0.5106898,0.226363095,1.6100456,-2.5670211,0.01544633475,-1.04662232,523
1747533285130,-0.50922545,0.262483575,1.6436035,-2.0972394000000003,-0.06018744275,-0.75101142,524
1747533285140,-0.47347105,0.2826183,1.64738645,-1.64849675,-0.138218065,-0.48256478,525
1747533285150,-0.4583395,0.27529657,1.6415291,-1.5211977,-0.15499598,-0.42397526,526
1747533285160,-0.41148053,0.20281157,1.568922,-1.30015525,-0.0628506015,-0.35659727,527
1747533285170,-0.3830478499999999,0.1959779649999999,1.51400915,-1.26686575,0.014381071,-0.36591834,528
1747533285180,-0.37291947,0.21135357,1.4889933,-1.32918375,0.009054749,-0.3773699299999999,529
1747533285190,-0.424659615,0.36718413,1.53914705,-1.3859091,-0.024501082,-0.37550572,530
1747533285200,-0.454190525,0.3953727299999999,1.6204181,-1.31773215,-0.087351683,-0.270044545,531
1747533285210,-0.46053602,0.410016165,1.7079126,-1.2591426,-0.098004326,-0.22530343,532
1747533285220,-0.42209701,0.428442495,1.76465595,-0.877245265,-0.0114515925,-0.1046622325,533
1747533285230,-0.3909797,0.44149956,1.7786893,-0.50546798,0.1004011725,-0.1342233199999999,534
1747533285240,-0.27432033,0.46688148,1.7633137,-0.25513083,0.17097494,-0.18002969,535
1747533285250,-0.25528386,0.46029195,1.7296337,-0.012250541,0.2082592,-0.23542345,536
1747533285260,-0.26236155,0.4557769,1.6299364,0.27537086,0.226368695,-0.281496125,537
1747533285270,-0.280421785,0.454068495,1.5652612,0.4082626,0.21891185,-0.28336035,538
1747533285280,-0.29189247,0.45174995,1.5353642,0.4628574,0.21198763,-0.2775014,539
1747533285290,-0.37413976,0.46785772,1.4540931,0.5954828,0.05219796,-0.050600063,540
1747533285300,-0.36681804,0.4805487,1.42138945,0.6559366,-0.0575242775,0.153131765,541
1747533285310,-0.353883,0.4729829,1.4187049,0.6812366,-0.0777643,0.20772657,542
1747533285320,-0.284326705,0.42795439,1.43420245,0.7906925300000001,-0.0218379225,0.224504475,543
1747533285330,-0.26406996,0.420388595,1.4715432000000002,0.93823165,0.0921453775,0.1283643625,544
1747533285340,-0.28640118,0.42356135,1.52499165,1.0466223,0.16884442,0.051665325,545
1747533285350,-0.335822775,0.430517005,1.5651391,1.1744541,0.20133498,0.007456851,546
1747533285360,-0.36242503,0.43466598,1.5831994,1.335309,0.1784318,0.029294772,547
1747533285370,-0.42148685,0.42465958,1.6032121,1.72253265,0.07057377,0.24128239,548
1747533285380,-0.48713827,0.4053791,1.5724608,1.887116,0.03195793,0.35473305,549
1747533285390,-0.4893348,0.39244407,1.5268221,2.0048277,0.018109497,0.4596616,550
1747533285400,-0.46602732,0.3876849249999999,1.46885855,2.11934365,0.019973708,0.57444385,551
1747533285410,-0.44833316,0.376458305,1.4460392,2.1747374500000003,0.0340884615,0.6239786350000001,552
1747533285420,-0.44149956,0.36852646,1.4367651,2.197108,0.047404267,0.64395237,553
1747533285430,-0.3943965,0.34534101,1.41894885,2.3166838,0.140881225,0.70786823,554
1747533285440,-0.38707477,0.33997175,1.4169964,2.3414512,0.15659387,0.71532506,555
1747533285450,-0.373163525,0.3522966349999999,1.4290772,2.401106,0.1635181,0.7435546,556
1747533285460,-0.36559775,0.35315084,1.4365209,2.463424,0.1571265,0.7653925,557
1747533285470,-0.36047253,0.35193056,1.457998,2.59258735,0.12197278,0.806937815,558
1747533285480,-0.382193655,0.332283945,1.4382294,2.7561055,0.1177117199999999,0.8775116000000001,559
1747533285490,-0.400741995,0.32410802,1.39088235,2.866094,0.12197278,0.928378,560
1747533285500,-0.41013819,0.33326016,1.34670795,2.9454563,0.14487597,0.9763149,561
1747533285510,-0.41684976,0.33435842,1.3266952,3.0013826,0.1768339,1.0295781,562
1747533285520,-0.41782598,0.341680155,1.2726365,3.0804785,0.27057716,1.155013,563
1747533285530,-0.39793533,0.335090595,1.24371575,3.15238385,0.319313015,1.2564794,564
1747533285540,-0.36132677,0.31068487,1.2156491,3.19925545,0.345944645,1.31533525,565
1747533285550,-0.3392396,0.2962855,1.1968567,3.2192292,0.36432046,1.3406353,566
1747533285560,-0.31214923,0.29396696,1.1736713,3.2139028,0.38136469,1.34649425,567
1747533285570,-0.22428861,0.33313814,1.1136333,3.1649008,0.4101268,1.3347764,568
1747533285580,-0.158881275,0.364255465,1.1263242,3.1068437,0.345678315,1.23330995,569
1747533285590,-0.15204767,0.364255465,1.1423099,3.13400795,0.3155846,1.20428145,570
1747533285600,-0.14765464,0.36242503,1.1473131,3.21709865,0.271642435,1.1827098,571
1747533285610,-0.14008886,0.35363895,1.1316935,3.274623,0.24394555,1.1707256,572
1747533285620,-0.11690342,0.34582911,1.00502775,3.3872746,0.27537086,1.0676613,573
1747533285630,-0.110191845,0.353272855,0.91558075,3.4043189,0.328101455,0.959803275,574
1747533285640,-0.1149509599999999,0.35790995,0.86908785,3.38301365,0.34274885,0.891093725,575
1747533285650,-0.11836776,0.35827604,0.8437059,3.37316,0.34567833,0.8612663,576
1747533285660,-0.13838045,0.34680536,0.7924539,3.3726273,0.34194988,0.82824314,577
1747533285670,-0.17742962,0.34460884,0.6545615,3.264503,0.28815404,0.8335694,578
1747533285680,-0.217699055,0.48738233,0.5861034700000001,2.9422605,0.09400959,0.90600745,579
1747533285690,-0.261507335,0.5482746000000001,0.5824426,2.8410604,0.03355583,0.9400959,580
1747533285700,-0.2860351,0.562796,0.5930591,2.64878,-0.07084008,1.0492855,581
1747533285710,-0.31751847,0.59135073,0.7053254,2.5017736,-0.18535602,1.3699301,582
1747533285720,-0.2766388899999999,0.5818325,0.78049507,2.5987127,-0.243146605,1.57552615,583
1747533285730,-0.22319035,0.5610876,0.816859625,2.71562545,-0.2695119099999999,1.6700684,584
1747533285740,-0.14509203,0.5305804249999999,0.8169816400000001,2.8887309,-0.27004455,1.71853795,585
1747533285750,-0.10079564,0.50812715,0.80636513,2.9939258,-0.2593919,1.7294569,586
1747533285760,0.06858008,0.4803047,0.66944903,3.3720946,-0.12676647,1.5563514,587
1747533285770,0.12495731,0.50885938,0.528628,3.3691652,0.019441075,1.31560165,588
1747533285780,0.140699,0.56352822,0.46297661,3.3289514,0.08362326,1.2229236,589
1747533285790,0.119343995,0.61563442,0.4313712,3.16596595,0.250337145,0.963265375,590
1747533285800,0.09689073,0.63454884,0.42612398,3.1057785,0.30679616,0.88683265,591
1747533285810,-0.0136672052499999,0.705569525,0.570605875,3.0333406,0.4625910949999999,0.75926725,592
1747533285820,-0.07102066,0.6299117700000001,0.6172208,3.2221587,0.47084689,0.83037365,593
1747533285830,-0.10128376,0.58378494,0.630888,3.3406694,0.47137952,0.8809737,594
1747533285840,-0.13886857,0.51398456,0.58085626,3.768373,0.432231055,1.17764985,595
1747533285850,-0.09884319,0.5344854,0.3287451,3.865312,0.39627838,1.29909,596
1747533285860,-0.0388051,0.5645044,0.22404456,3.8168426,0.35313517,1.3518206,597
1747533285870,-0.004148973,0.5625519,0.1466784,3.7369478,0.32597092,1.3731259,598
1747533285880,0.083711635,0.53021437,0.0915214675,3.60671915,0.200536035,1.35554905,599
1747533285890,0.106530987,0.493483765,0.0224532699999999,3.52895475,0.10839066,1.3134711,600
1747533285900,0.099819414,0.47713193,-0.022453265,3.478621,0.05752428,1.2793826,601
1747533285910,0.046614934,0.53814626,-0.06443111,3.3486588,0.301736165,1.2231898499999998,602
1747533285920,-0.0503978199999999,0.5906184999999999,-0.039415245,3.3350767,0.53769225,1.25195205,603
1747533285930,-0.06443111,0.5620638,-0.02831064,3.3667684,0.6540724,1.2884374,604
1747533285940,0.243691155,0.3355787,-0.03404598638,3.6136433,0.60853231,1.37152795,605
1747533285950,0.30092257,0.3018988,-0.06833603,3.7502635,0.41598576,1.3901701,606
1747533285960,0.30092257,0.3018988,-0.06833603,3.7502635,0.41598576,1.3901701,607
1747533285970,0.3303314899999999,0.2944550849999999,-0.236125385,3.7891457,0.03355583,1.3840448,608
1747533285980,0.35876416,0.07602383,-0.416971815,3.9294943,0.09028116,1.2487563000000002,609
1747533285990,0.445648535,-0.166813125,-0.558036925,4.15825965,0.330764605,1.0865698,610
1747533286000,0.560599505,-0.312393275,-0.751818385,4.262389199999999,0.50333744,0.9257148,611
1747533286010,0.6291796,-0.37023485,-0.8644508,4.2855587,0.57790595,0.8271778,612
1747533286020,0.75657743,-0.40171823,-1.1399914,4.1380196,0.6679208,0.5523396,613
1747533286030,0.84614646,-0.37047891,-1.5591597,3.1798145,0.7155914,0.03781689,614
1747533286040,0.801361945,-0.37279745,-1.6974181000000002,2.595517,0.6823019,-0.18748654,615
1747533286050,0.69007185,-0.36059458,-1.67044975,1.66207885,0.48229848,-0.25939191,616
1747533286060,0.62356627,-0.35290676,-1.6490947,1.3805827,0.4000068,-0.23489082,617
1747533286070,0.501781685,-0.32862309,-1.5929616,0.632767085,0.10492854835,0.13821807,618
1747533286080,0.51508281,-0.28603509,-1.5962564,0.35899413,0.0015978967,0.35792887,619
1747533286090,0.5872017350000001,-0.240640445,-1.5893008000000002,-0.8578042,-0.350472005,0.50200589,620
1747533286100,0.63113207,-0.21940747,-1.5761217,-1.1206582,-0.40053943,0.51771855,621
1747533286110,0.6975156,-0.16937573,-1.5116906,-1.6250609,-0.42557314,0.4575311,622
1747533286120,0.8161274,-0.11006982,-1.3459758,-2.365686,-0.40400154,0.027430555,623
1747533286130,0.84700065,0.0502757905,-0.8079515150000001,-2.7148265,-0.37497309,-0.3669836,624
1747533286140,0.8351639,0.071020655,-0.6972716,-2.73906125,-0.4114584,-0.6559365699999999,625
1747533286150,0.78513217,0.09542638,-0.51666915,-2.7132285,-0.43995422,-0.8085357,626
1747533286160,0.7226535,0.10860548,-0.39537275,-2.5545042,-0.41758367,-1.0349044,627
1747533286170,0.568043225,0.192317115,-0.314345735,-2.3595607,-0.39947417,-1.2218584,628
1747533286180,0.5198419,0.22575295,-0.30360723,-2.163552,-0.38935417,-1.3310479,629
1747533286190,0.33460248,0.277005,-0.3829258,-1.9574234,-0.44528055,-1.4221281,630
1747533286200,0.17193833,0.36437746,-0.51544892,-2.0604878,-0.55633435,-1.27458885,631
1747533286210,0.14301755,0.3863426,-0.5559624,-2.1273332,-0.5917544,-1.2080098,632
1747533286220,0.13252309,0.42075467,-0.605506,-2.3467777,-0.6535397,-1.0828413,633
1747533286230,0.189998565,0.467247605,-0.56304005,-2.9161614,-0.668187125,-0.97951065,634
1747533286240,0.266266455,0.521916415,-0.44674679,-3.31643455,-0.5616606749999999,-1.0415623,635
1747533286250,0.3344804649999999,0.5331430500000001,-0.29689565,-3.4301515,-0.4311658,-1.2098741,636
1747533286260,0.36779428,0.5222825,-0.21403822,-3.452522,-0.3616573,-1.3124058,637
1747533286270,0.24491145,0.4501636049999999,0.093840015,-2.9987194500000003,-0.103064335,-1.8575549,638
1747533286280,0.064675177,0.487138285,0.123859055,-2.72175065,-0.1334243749999999,-1.8455707,639
1747533286290,-0.077854263,0.5358277,0.09469421,-2.4852619,-0.220776065,-1.6626115,640
1747533286300,-0.1261776,0.5593792,0.06882414,-2.340386,-0.357928855,-1.4005564499999998,641
1747533286310,-0.1398448,0.59110665,-0.018060237,-2.295645,-0.43782368,-1.2639363,642
1747533286320,-0.0693122625,0.6527311250000001,-0.164494582,-2.4985777,-0.7036071500000001,-0.88363688,643
1747533286330,0.0698003725,0.71081675,-0.21611269,-2.9483857,-0.747016685,-0.834901025,644
1747533286340,0.185361475,0.766583835,-0.175233105,-3.4384074,-0.686296635,-0.949949575,645
1747533286350,0.20232345,0.78464407,-0.12422514,-3.5894086,-0.6428871,-1.0333065,646
1747533286360,0.07956265615,0.7239958049999999,0.31288139,-3.67835815,-0.55074175,-1.3078784,647
1747533286370,-0.05479084885,0.669449025,0.413677025,-3.583017,-0.567786,-1.3182647,648
1747533286380,-0.14777666,0.63125407,0.439669135,-3.0445258,-0.58536283,-1.12811505,649
1747533286390,-0.20342172,0.62381032,0.37572615,-2.7174895,-0.580302805,-0.92012215,650
1747533286400,-0.0874945285,0.65004647,0.1681554555,-2.7334685,-0.40480048,-0.8428905,651
1747533286410,0.0673597995,0.69983417,0.00097623,-3.05331425,-0.226368695,-0.96166745,652
1747533286420,0.112022273,0.76267892,-0.0143993764999999,-3.5087148,-0.13848438,-1.18004665,653
1747533286430,0.13801437,0.82942855,0.082857439,-4.01657955,0.00479369,-1.44583015,654
1747533286440,0.14545812,0.86274236,0.17523311,-4.266384,0.08362326,-1.5904398,655
1747533286450,0.13886857,0.7687803,0.77317333,-4.4890246,0.02876214,-2.1012342,656
1747533286460,0.0059794049999999,0.7099625199999999,0.899106865,-4.2642536,-0.035420045,-2.11188685,657
1747533286470,-0.38988145,0.548030555,1.1585398,-2.7688886,-0.4229099799999999,-1.6535567,658
1747533286480,-0.50165965,0.54278333,1.027236975,-2.10496255,-0.623446,-1.2037488,659
1747533286490,-0.52033,0.5464442,0.90472025,-1.8221349,-0.7030745,-0.9635317,660
1747533286500,-0.40147418,0.5266756,0.5786598,-1.6186694,-0.7233146,-0.6396913,661
1747533286510,-0.10006347,0.5613316,0.07907455,-2.2583606,-0.43516052,-0.628506,662
1747533286520,0.0328256995,0.6732319,0.0368526435,-3.3401368,-0.252733995,-1.013599075,663
1747533286530,0.04783522,0.6962953,0.0707766,-4.1763695,-0.38748993,-1.29536155,664
1747533286540,-0.12032023,0.471152515,0.713257285,-4.639227,-0.5475459,-1.4322481,665
1747533286550,-0.250524765,0.352174595,0.943403285,-4.3561328,-0.7089334700000001,-1.21173835,666
1747533286560,-0.3807293,0.30214286,1.023088,-4.0730386,-0.87032104,-0.9912286,667
1747533286570,-0.4133109499999999,0.263215735,1.0471276,-3.3894052500000003,-0.96592855,-0.52304484,668
1747533286580,-0.34704941,0.273710205,0.907038765,-3.10311545,-0.9222527,-0.30040458,669
1747533286590,-0.159857501,0.244057245,0.6534632650000001,-3.2860745,-0.571248065,-0.35926044,670
1747533286600,-0.024649782,0.21086545,0.5005614,-3.55532,-0.27803403,-0.49801114,671
1747533286610,-0.024649782,0.21086545,0.5005614,-3.55532,-0.27803403,-0.49801114,672
1747533286620,-0.024649782,0.21086545,0.5005614,-3.55532,-0.27803403,-0.49801114,673
1747533286630,-0.09493827,0.3778006,0.9830626,-5.2203283,0.21092236,-1.6112125,674
1747533286640,-0.30385128,0.3180066,1.6766733,-5.2075453,0.02609898,-1.6101472,675
1747533286650,-0.61124137,0.264314005,1.8896132,-4.173706,-0.57577544,-1.0018812,676
1747533286660,-0.6296677,0.24527754,1.9138969,-3.4125748,-0.81439465,-0.561927,677
1747533286670,-0.4679797599999999,0.183286985,1.6248111,-2.6538400500000003,-0.861532635,-0.131293845,678
1747533286680,-0.25626011,0.240518405,1.3072927,-2.5611621,-0.72437985,-0.102531705,679
1747533286690,-0.1313028,0.3053156,1.1478013,-2.5960495,-0.6375608,-0.14221281,680
1747533286700,-0.13105874,0.32947728,1.1714748,-3.1462586,-0.360592,-0.6295713,681
1747533286710,-0.18060236,0.3398497099999999,1.24505805,-3.2959282,-0.21518342,-0.85487473,682
1747533286720,-0.35119838,0.3316738,1.500464,-3.1350732,-0.15765914,-0.8676579,683
1747533286730,-0.40440285,0.32215557,1.6132184,-2.7989824,-0.12836437,-0.7600662,684
1747533286740,-0.2928687,0.33997175,1.5529363,-1.9899141,-0.21944448,-0.4990764,685
1747533286750,-0.183042945,0.266388485,1.3349932,-1.6841831,-0.25726137,-0.43089947,686
1747533286760,-0.15058333,0.24552159,1.2637285,-1.468467,-0.2860235,-0.41385525,687
1747533286770,-0.13057062,0.19793043,1.1319375,-1.3427658,-0.30040458,-0.42184472,688
1747533286780,-0.12349297,0.1564407,1.0182068,-1.3140037,-0.30306774,-0.42557314,689
1747533286790,-0.08297946,0.10836142,0.8454143,-1.4908376,-0.3089267,-0.43089947,690
1747533286800,-0.06980037,0.08102701,0.79538256,-1.6612799,-0.3073288,-0.4314321,691
1747533286810,-0.06638357,0.031239327,0.77414954,-1.8897791,-0.2657835,-0.45327002,692
1747533286820,-0.05344854,-0.03099527,0.78586435,-2.179531,-0.21678132,-0.5305017,693
1747533286830,-0.1181237,-0.06833603,0.97085977,-2.7957866,-0.037284255,-0.7590009,694
1747533286840,-0.1701079,-0.02831064,1.121443,-3.05571105,0.06391587,-0.87831055,695
1747533286850,-0.24234885,-0.0017084008,1.3196175,-3.099387,0.07563378,-0.9054748,696
1747533286860,-0.2815200399999999,0.0042710018499999,1.42382995,-3.06503215,0.0681769275,-0.90148005,697
1747533286870,-0.38561043,0.024405725,1.7081566,-2.7047064,-0.014913702,-0.7882957,698
1747533286880,-0.41977844,0.042954076,1.8372629,-2.304167,-0.07456851,-0.66152924,699
1747533286890,-0.35363895,0.061014313,1.7869871,-1.4588797,-0.13954964,-0.4958806,700
1747533286900,-0.34290043,0.05588911,1.6608096,-1.1925635,-0.11504856,-0.4990764,701
1747533286910,-0.356323585,0.055523025,1.5969886,-1.133974,-0.075900092,-0.5139901,702
1747533286920,-0.456509075,0.122516735,1.4589742,-1.03197495,0.1123854,-0.52411011,703
1747533286930,-0.523380775,0.176209335,1.4738617,-1.00374545,0.17976338,-0.425573145,704
1747533286940,-0.52911615,0.18231077,1.4997318,-0.9827065,0.18269286,-0.36645097,705
1747533286950,-0.5037342,0.19231711,1.5626985,-0.8426242,0.1438107,-0.21145499,706
1747533286960,-0.45297024,0.19817449,1.6017478,-0.6562029,0.09267801,-0.0958738,707
1747533286970,-0.43368972,0.18804611,1.60626285,-0.54461645,0.04713795335,-0.042876894,708
1747533286980,-0.39268813,0.17669745,1.5807588,-0.23702134,-0.048469532,0.10173275,709
1747533286990,-0.31263736,0.20744865,1.5038807,-0.006924219,0.05486112,0.16831179,710
1747533287000,-0.27920148,0.21623473,1.5024164,0.04527374,0.15446335,0.128897,711
1747533287010,-0.27432033,0.22892569,1.5321914,0.09374327,0.23009712,0.082558,712
1747533287020,-0.2967736,0.23575929,1.5893008,0.17257284,0.25300032,0.08042747,713
1747533287030,-0.2997023,0.23722363,1.7059602,0.33449304,0.21624869,0.12037488,714
1747533287040,-0.25552794,0.21135357,1.7206036,0.7366304,0.07350325,0.18482338,715
1747533287050,-0.272856,0.21721096,1.6942455,0.9353022,0.036751624,0.19068234,716
1747533287060,-0.3014107,0.2272173,1.6561725,1.0966897,0.0479369,0.20719394,717
1747533287070,-0.3145898,0.23039004,1.6310346,1.2378373,0.0793622,0.22956449,718
1747533287080,-0.317152395,0.203299695,1.5954022,1.3763217,0.091080114,0.25566345,719
1747533287090,-0.31678632,0.18743597,1.5739251,1.6399746,0.11771172,0.3153183,720
1747533287100,-0.3099527,0.1637624,1.5336558,1.7459685,0.12197278,0.33289513,721
1747533287110,-0.3099527,0.15766099,1.4828918,1.8429075,0.12623383,0.35153726,722
1747533287120,-0.3598624,0.1417972499999999,1.4232199,1.96381505,0.0375505725,0.439954225,723
1747533287130,-0.379509,0.15595257,1.4143118,1.9718045,0.025566347,0.4708469,724
1747533287140,-0.393176225,0.177917735,1.4283450000000002,2.01787715,-0.006657903,0.602407035,725
1747533287150,-0.37975308,0.17206036,1.4384733,2.040514,-0.021837922,0.64714813,726
1747533287160,-0.30555966,0.13935669,1.4399377,2.1901836,-0.10918961,0.7222493,727
1747533287170,-0.293112755,0.15473229,1.41333555,2.263687,-0.04687163425,0.68203557,728
1747533287180,-0.29042813,0.1666911,1.4104068,2.2833943,-0.0058589545,0.6530071,729
1747533287190,-0.357543865,0.1758432449999999,1.4677603,2.3270702,0.053263225,0.61572284,730
1747533287200,-0.3943965,0.16547081,1.4941185,2.5060346,0.11345066,0.65513766,731
1747533287210,-0.43173727,0.16058967,1.4863087,2.632801,0.12410331,0.7419567,732
1747533287220,-0.43808278,0.15961345,1.4570218,2.7462518,0.1123854,0.84581995,733
1747533287230,-0.40733153,0.15717287,1.4084544,2.8410604,0.07829694,0.93903065,734
1747533287240,-0.37682438,0.13691612,1.360131,2.902313,0.058056913,1.005077,735
1747533287250,-0.32044718,0.13569583,1.2725145,2.9379995,0.05965481,1.0476876,736
1747533287260,-0.31776255,0.14106509,1.2349297,2.9891322,0.11132014,1.0695255,737
1747533287270,-0.3014107,0.14472595,1.2097918,2.992328,0.15073492,1.0801781,738
1747533287280,-0.242836965,0.163884445,1.1895351,3.02721525,0.11744541,1.0855045,739
1747533287290,-0.22306833,0.1701079,1.1817253,3.0450585,0.09427591,1.0855045,740
1747533287300,-0.20574026,0.17987019,1.1314493,3.1649008,0.0010652645,1.099353,741
1747533287310,-0.19963883,0.19378147,1.1063116,3.2202945,-0.01917476,1.0934939,742
1747533287320,-0.19231711,0.20403185,1.0814177,3.274623,-0.013848438,1.0764498,743
1747533287330,-0.181090475,0.207692715,1.0416364,3.3204293,0.022370555,1.0466223,744
1747533287340,-0.18084641,0.20598431,1.0265048,3.3694315,0.10918961,1.0018812,745
1747533287350,-0.2306341,0.21135357,0.95987713,3.361442,0.24607609,0.99282646,746
1747533287360,-0.23685756,0.227827435,0.952433365,3.3238915,0.27084348,1.00667488,747
1747533287370,-0.23014598,0.2936009,0.94035256,3.2128377,0.30466563,1.0572749,748
1747533287380,-0.20500809,0.28725538,0.94572186,3.141465,0.2876214,1.077515,749
1747533287390,-0.14094306,0.35766588,1.003319375,2.99632265,0.2154497349999999,1.0527476,750
1747533287400,-0.10884953,0.41465324,1.0435888,2.9497173,0.16405073,1.0279802,751
1747533287410,-0.119343996,0.4497975,1.1143653,2.9997847,0.08841695,1.0072075,752
1747533287420,-0.126055568,0.44894331,1.1480453000000002,3.07941315,0.0532632235,1.010137,753
1747533287430,-0.13154685,0.439059,1.2219946,3.37316,-0.039947417,1.0338391,754
1747533287440,-0.099575356,0.34631723,1.0723876,3.8211036,-0.07456851,1.0482203,755
1747533287450,-0.12324891,0.3333822,0.93107843,3.9057922,-0.016511599,1.0349044,756
1747533287460,-0.11592719,0.4097721,0.77829856,3.8733015,0.11824436,1.0082728,757
1747533287470,-0.1018939,0.476521775,0.6407723000000001,3.67143395,0.34274884,0.92518219,758
1747533287480,-0.10860548,0.48713827,0.6079466,3.5792885,0.42290998,0.89801794,759
1747533287490,-0.12593354,0.5508372,0.61673266,3.2011197,0.52144694,0.9060074,760
1747533287500,-0.16132184,0.6042857500000001,0.7233856599999999,3.06183635,0.41944788,1.04928545,761
1747533287510,-0.16315227,0.6449212799999999,0.80551091,3.0439932,0.36112466,1.1089402,762
1747533287520,-0.16303024,0.65846646,0.84834296,3.1265512,0.17097494,1.24849,763
1747533287530,-0.19719826,0.6125837,0.9093573,3.3225598,-0.03355583,1.4109428,764
1747533287540,-0.162664155,0.4263679999999999,0.70886425,3.9606533,-0.24660872,1.7299895,765
1747533287550,-0.14277348,0.3961049,0.6242984,4.2290998,-0.24021713,1.7901769,766
1747533287560,-0.09005712,0.36315718,0.45321432,4.3872914,-0.14807177,1.784318,767
1747533287570,-0.018792408,0.36730617,0.32069123,4.476241,0.0010652645,1.7283915,768
1747533287580,0.034168016,0.33142975,0.18450728,4.508732,0.30253512,1.593103,769
1747533287590,0.08712844,0.41148052,0.00097622897,4.1827607,0.7105314,1.3401027,770
1747533287600,0.08297946,0.4888467,-0.028798755,3.9223037,0.777643,1.2804478,771
1747533287610,0.08053889,0.519109775,-0.0173280645,3.78381935,0.73982613,1.2849752,772
1747533287620,0.09384001,0.53607173,0.086518295,3.4402716,0.52357745,1.3566142,773
1747533287630,0.10201593,0.50593066,0.12398108,3.3438652,0.30040458,1.4263891,774
1747533287640,0.18645974,0.43198135,0.15277983,3.4083135,-0.08735169,1.551025,775
1747533287650,0.255772,0.38316986,0.07565775,3.5185685,-0.17896444,1.5233282,776
1747533287660,0.3287451,0.3572998,-0.0690682,3.5595813,-0.12197278,1.3677995,777
1747533287670,0.35107635,0.3875629,-0.133621345,3.5159054000000003,-0.0695085055,1.2711268,778
1747533287680,0.37963104,0.456753135,-0.247718115,3.3752904,0.0615190195,1.06632975,779
1747533287690,0.39195594,0.5449798,-0.28359452,2.8772793,0.43249738,0.535828,780
1747533287700,0.33826336,0.50446635,-0.17401282,2.8107002,0.47723848,0.40906155,781
1747533287710,0.2774931,0.43539813,-0.10079564,2.8959215,0.47404268,0.37337518,782
1747533287720,0.21525851,0.38975942,-0.060770255,3.0621028,0.42344263,0.4063984,783
1747533287730,0.19475769,0.353883,-0.08175918,3.2671661,0.3392867,0.4910869,784
1747533287740,0.21037734,0.2848148,-0.25650415,3.5872781,0.09534117,0.6087986,785
1747533287750,0.21062139,0.28457075,-0.366574,3.6405413,0.049002163,0.6578008,786
1747533287760,0.19622204,0.24674188,-0.4698102,3.6474655,0.043675844,0.7041398,787
1747533287770,0.20940112,0.23819989,-0.5720702,3.6048548,0.10066749,0.73822826,788
1747533287780,0.22404456,0.20842488,-0.65944266,3.5531895,0.16777915,0.7504788,789
1747533287790,0.2362474,0.22282428,-0.8000197,3.3087113,0.34141725,0.77870834,790
1747533287800,0.27358818,0.15180361,-0.8031924,3.1766186,0.30040458,0.82398206,791
1747533287810,0.2848148,0.102259986,-0.8268659,3.0445259,0.17736652,0.90174633,792
1747533287820,0.30458343,0.111290105,-0.85542065,2.8367991,-0.06870956,1.0349044,793
1747533287830,0.33655494,0.07785426,-0.869576,2.680738,-0.32330775,1.0966897,794
1747533287840,0.41196862,-0.00097622897,-0.9964857,2.3454461,-0.42903526,0.955009575,795
1747533287850,0.4881145,0.018792408,-1.0557917,2.2727418,-0.39095205,0.90494215,796
1747533287860,0.53399728,-0.017206038,-1.07617045,2.2029669,-0.357662545,0.838096795,797
1747533287870,0.6662763,-0.19963883,-1.2219946,1.7465011,-0.216248685,0.37603834,798
1747533287880,0.69117016,-0.21232979,-1.3340169,1.6474315,-0.19387813,0.30519825,799
1747533287890,0.72631437,-0.24064046,-1.4406699,1.2953615,-0.17576863,0.13209279,800
1747533287900,0.7636551,-0.25430766,-1.5373166,0.9406285,-0.18695392,-0.0037284256,801
1747533287910,0.78659654,-0.27310005,-1.6393324,0.5448828,-0.2146508,-0.1257012,802
1747533287920,0.7703667,-0.237833795,-1.6706938,-0.54195328,-0.230629745,-0.4298342,803
1747533287930,0.76389915,-0.21477039,-1.6769173,-0.7771104,-0.20985709,-0.4878911,804
1747533287940,0.75096416,-0.17889395,-1.6432374,-1.2783173,-0.14913702,-0.60080916,805
1747533287950,0.7592621,-0.13520771,-1.5290186,-1.7608821,-0.16298546,-0.73982614,806
1747533287960,0.7224094,-0.13398743,-1.1546348,-2.3947146,-0.27377295,-0.9986854,807
1747533287970,0.681896,-0.13081467,-0.98159826,-2.3947146,-0.27377295,-0.9986854,808
1747533287980,0.635281,-0.12568948,-0.88641596,-2.540123,-0.34461305,-1.2751216,809
1747533287990,0.57329047,-0.12690976,-0.8534682,-2.5241442,-0.29028457,-1.4066817,810
1747533288000,0.40977213,-0.042465959,-0.92485497,-2.7366644,-0.16698021,-1.5731293000000002,811
1747533288010,0.38268176,-0.032703668,-0.946454,-2.8261466,-0.1470065,-1.587244,812
1747533288020,0.3053156,-0.0017084008,-0.95328766,-3.0770164,-0.14114754,-1.572863,813
1747533288030,0.23087814,0.04783522,-0.9401085,-3.5356127500000003,-0.246342395,-1.41839965,814
1747533288040,0.16571487,0.08053889,-0.7514523,-3.9952744,-0.46871635,-1.1877699000000002,815
1747533288050,0.15058333,0.08566409,-0.6282034,-4.2967443,-0.63223445,-1.0279802,816
1747533288060,0.14741059,0.10348027,-0.46663743,-4.4554687,-0.74461985,-0.9321064,817
1747533288070,0.16278619,0.14252943,-0.2967736,-4.5151234,-0.813862,-0.8612663,818
1747533288080,0.18572757,0.13276714,-0.13691612,-4.43949,-0.84422207,-0.8378305,819
1747533288090,0.18475133,0.113974735,-0.017816179,-4.2429485,-0.8335694,-0.84635264,820
1747533288100,0.174745,0.14277348,0.0034168016,-3.776895,-0.65886605,-0.9166601,821
1747533288110,0.1244692,0.17596528,-0.08151512,-3.6634445,-0.6130597,-0.9369001,822
1747533288120,0.000488113,0.23039005,-0.20903504,-3.6980655,-0.5853628,-0.89535475,823
1747533288130,-0.037828874,0.24454537,-0.24064046,-3.9244342,-0.55606806,-0.7819041,824
1747533288140,-0.017084008,0.40440285,-0.082247294,-4.2248387,-0.588026,-0.6689861,825
1747533288150,0.042465962,0.37975308,0.10323621,-4.650412,-0.9012137,-0.43675843,826
1747533288160,0.054912884,0.31727442,0.29262465,-4.64189,-1.123854,-0.3392867,827
1747533288170,0.07931861,0.27090356,0.4190463,-4.374775,-1.18430775,-0.2676477,828
1747533288180,0.09176553,0.26455808,0.42636803,-4.256797,-1.160073,-0.2657835,829
1747533288190,0.085420035,0.25223316,0.097866954,-4.2267029,-0.442351065,-0.5454154,830
1747533288200,0.082003236,0.2545517,0.006345488,-4.3771715,-0.22210763,-0.64395237,831
1747533288210,0.027334413,0.30848834,-0.099087246,-4.963067,0.096939065,-0.85966843,832
1747533288220,0.09567044,0.5608435,0.012202863,-5.8035607,0.3158509,-1.1163971,833
1747533288230,0.17523311,0.6631035,0.3243521,-6.551909,0.43089947,-1.4056164,834
1747533288240,0.11092402,0.377556565,1.60931345,-6.3886571,0.01731055,-1.9454392,835
1747533288250,-0.082735405,0.2898179899999999,1.99419175,-5.3284528,-0.08495484,-1.9606192,836
1747533288260,-0.19988288,0.27602875,2.1137798,-4.688229,-0.11504856,-1.9142802,837
1747533288270,-0.38878322,0.34119204,2.02836,-3.4328146,-0.14647387,-1.6745957,838
1747533288280,-0.40342662,0.596964,1.1302291,-2.6141589,-0.11345066,-1.387507,839
1747533288290,-0.30263099,0.6023333,0.67481831,-2.5550368,0.036751624,-1.0913634,840
1747533288300,-0.2757847,0.5945235,0.57988006,-3.093528,0.07084008,-1.0764498,841
1747533288310,-0.21574661,0.6621273,0.5513253,-3.8141794,0.028229509,-1.1163971,842
1747533288320,-0.15692882,0.74291027,0.707766,-4.4725127,-0.07989483,-1.1957593,843
1747533288330,-0.14789869,0.5527897,1.4748379,-4.7841024,-0.13102753,-1.2825783,844
1747533288340,-0.2550398,0.46102414,1.7608731,-3.9702406,-0.18482338,-1.3432984,845
1747533288350,-0.35485923,0.464685,1.8555672,-3.1222901,-0.24021713,-1.1978899,846
1747533288360,-0.40293851,0.5193538,1.6774055,-2.3675501,-0.37230992,-0.964597,847
1747533288370,-0.38927132,0.5549862,1.2937474,-1.8216022,-0.53263223,-0.6556703,848
1747533288380,-0.3077562,0.42270714,0.7392494,-1.9281287,-0.5683186,-0.31957933,849
1747533288390,-0.20818083,0.4424758,0.5864696,-2.3489082,-0.46232477,-0.3009372,850
1747533288400,-0.10640897,0.5015376,0.54815257,-2.886334,-0.4165184,-0.37923414,851
1747533288410,-0.094206103,0.5243569800000001,0.6109972850000001,-3.1419975,-0.43542685,-0.42237735,852
1747533288420,-0.14204131,0.5103237,0.93303084,-3.697533,-0.5470133,-0.4745753,853
1747533288430,-0.21745501,0.43954712,1.2166255,-3.6687708,-0.67271453,-0.376571,854
1747533288440,-0.24845028,0.3585201,1.4777666,-2.7462518,-0.9006811,0.076166406,855
1747533288450,-0.1615659,0.3372871,1.3667207,-2.324407,-0.9443569,0.22050974,856
1747533288460,-0.132523085,0.32776888,1.25360015,-2.2226743,-0.899615815,0.25726137,857
1747533288470,0.006223461,0.26114126,0.8839752999999999,-2.2634207,-0.6024070850000001,0.212253945,858
1747533288480,0.121540515,0.295431305,0.8546884699999999,-2.7806065,-0.352868865,-0.09880328,859
1747533288490,0.19573392,0.30983068,0.98684552,-3.3292177,-0.120108571,-0.507598515,860
1747533288500,0.19744232,0.27846932,1.0838583,-3.4780884,-0.041012682,-0.66845345,861
1747533288510,0.1415532,0.25015867,1.3396302,-3.5792885,0.13102753,-0.96566224,862
1747533288520,0.009518232,0.2877435,1.5695322,-3.4493263,0.22104238,-1.1536814,863
1747533288530,-0.2495485399999999,0.37426178,1.7546495,-2.7257454,0.01518002,-0.99149487,864
1747533288540,-0.35461518,0.42319524,1.7818619,-2.376605,-0.13688648,-0.81226414,865
1747533288550,-0.33240595,0.42856455,1.7213358,-2.0602214,-0.27057716,-0.608266,866
1747533288560,-0.256748215,0.36596385,1.5492754,-1.6951021,-0.36272256,-0.4237089349999999,867
1747533288570,-0.208302865,0.30934255,1.32998995,-1.5353124,-0.2889529899999999,-0.381630985,868
1747533288580,-0.18743597,0.2818861,1.1861182,-1.4748586,-0.21038973,-0.3787015,869
1747533288590,-0.163274305,0.2672426799999999,1.0422465,-1.5920377499999998,-0.085487475,-0.42450789,870
1747533288600,-0.14936304,0.23112222,0.9741545,-1.6474315,-0.05273059,-0.4394216,871
1747533288610,-0.1398448,0.19939478,0.946454,-1.8343854,0.0127831735,-0.44208476,872
1747533288620,-0.1398448,0.19939478,0.946454,-1.9968382,0.01438107,-0.42024684,873
1747533288630,-0.051496077,0.15595257,1.0079564,-2.4040356000000003,0.0005326329999999,-0.5131911650000001,874
1747533288640,-0.0319715,0.17450093,1.0672623,-2.485262,0.028229509,-0.56885123,875
1747533288650,-0.07834238,0.20085911,1.1924638,-2.612561,0.15233281,-0.7142598,876
1747533288660,-0.26553428,0.28579104,1.5168158,-2.6168222,0.37124467,-0.86872315,877
1747533288670,-0.26553428,0.28579104,1.5168158,-2.6168222,0.37124467,-0.86872315,878
1747533288680,-0.46053604,0.45711924,1.9466005,-2.2221417,0.24660872,-0.6860303,879
1747533288690,-0.4949481,0.47884035,2.038366,-1.8439728,0.07882957,-0.49055427,880
1747533288700,-0.49055508,0.44784504,2.152585,-1.3752564,-0.05486112,-0.29454562,881
1747533288710,-0.44491637,0.48835856,2.0959635,-0.47990164,0.011185277,-0.092145376,882
1747533288720,-0.3956168,0.5183776,2.0110316,-0.16884442,0.12197278,-0.11558119,883
1747533288730,-0.38683072,0.5432714,1.9356179,0.055926383,0.27057716,-0.17576863,884
1747533288740,-0.41929033,0.55962324,1.9239032,0.25992453,0.3616573,-0.20719394,885
1747533288750,-0.46639338,0.5215503,1.8999857,0.69348717,0.41385525,-0.099069595,886
1747533288760,-0.466515405,0.5121541000000001,1.8791188,0.836232605,0.38855521,-0.0340884625,887
1747533288770,-0.44857723,0.4837215,1.8006544,1.1819109,0.3291667,0.14327806,888
1747533288780,-0.402816485,0.43417783,1.72743715,1.44662915,0.31611723,0.281496135,889
1747533288790,-0.38902727,0.41026023,1.7091328,1.5286545,0.3174488,0.32490566,890
1747533288800,-0.3104408,0.3397277,1.6005274,1.6905746,0.283893,0.39894155,891
1747533288810,-0.30629183,0.33496858,1.5652611,1.78138845,0.23036345,0.442351075,892
1747533288820,-0.31654227,0.34900185,1.4821596,1.8903117,0.1470065,0.51665324,893
1747533288830,-0.3236199,0.34387666,1.4616588,1.8924423,0.16298546,0.5550028,894
1747533288840,-0.3265486,0.28994003,1.4858205,2.0112193,0.19228023,0.6743124,895
1747533288850,-0.30214286,0.27212384,1.4777666,2.069276,0.19920446,0.72491246,896
1747533288860,-0.25699228,0.29384494,1.4609268,2.1209416,0.21891184,0.76592517,897
1747533288870,-0.19500175,0.29579738,1.462391,2.1864552,0.21837921,0.76485986,898
1747533288880,-0.16058967,0.2757847,1.4702009,2.25623,0.22583607,0.74248934,899
1747533288890,-0.13691612,0.26480213,1.4848443,2.336125,0.24021713,0.7073356,900
1747533288900,-0.15717287,0.24527754,1.4816716,2.560363,0.25566345,0.6849651,901
1747533288910,-0.16278619,0.22453266,1.4518965,2.6732812,0.26897928,0.690824,902
1747533288920,-0.16913168,0.22892569,1.4018649,2.764894,0.29241508,0.6892261,903
1747533288930,-0.18645974,0.24308102,1.343291,2.7851338,0.3206446,0.68869346,904
1747533288940,-0.22111587,0.2489384,1.3100992,2.7553065,0.3882889,0.69987875,905
1747533288950,-0.22868164,0.25943285,1.3308442,2.7537086,0.4165184,0.71532506,906
1747533288960,-0.22904772,0.265656305,1.34805025,2.7707528,0.42450789,0.7315703650000001,907
1747533288970,-0.22746135,0.26699865,1.3894179,2.8876656,0.37257625,0.82691154,908
1747533288980,-0.20769271,0.27846932,1.3894179,2.9209552,0.3387541,0.85700524,909
1747533288990,-0.16205402,0.27602875,1.3484163,3.1031153,0.07882957,0.9736517,910
1747533289000,-0.14521407,0.24283697,1.2874019,3.2112398,-0.03355583,1.0135992,911
1747533289010,-0.13179092,0.24064046,1.2097918,3.2559807,-0.046871636,1.0045444,912
1747533289020,-0.113974735,0.260165,1.1365746,3.2517197,0.0031957934,0.9571401,913
1747533289030,-0.13593989,0.27346614,1.0943526499999998,3.1989892,0.16990969,0.8229168,914
1747533289040,-0.1538781,0.282740325,1.0974034,3.2202945,0.305198265,0.7749798999999999,915
1747533289050,-0.1564407,0.29506522,1.0963051,3.2394693,0.34514567,0.7680557,916
1747533289060,-0.16742326,0.30433938,1.0836142,3.2900693,0.3653857,0.7701862,917
1747533289070,-0.18475133,0.30092257,1.0484699,3.3332124,0.3323625,0.80747044,918
1747533289080,-0.21062141,0.308732415,0.90496427,3.3806167,0.10173275,0.95660746,919
1747533289090,-0.21794313,0.3275248,0.87982637,3.320962,0.010120012,1.0359697,920
1747533289100,-0.2111095,0.36047253,0.86469483,3.2368062,-0.06977482,1.1132014,921
1747533289110,-0.1901206,0.375116,0.87909424,3.171825,-0.111852765,1.1664646,922
1747533289120,-0.17987019,0.3682824,0.90789294,3.1643682,-0.098004326,1.1994878,923
1747533289130,-0.13801437,0.390491605,0.88824638,3.2471924,0.022370555,1.2407668,924
1747533289140,-0.10421244,0.38829508,0.86933196,3.299124,0.09267801,1.2580773,925
1747533289150,-0.04783522,0.4046469,0.8278422,3.2783513,0.18162759,1.2159994,926
1747533289160,0.0056133163,0.47591165,0.82344913,3.2362735,0.24873926,1.1227888,927
1747533289170,0.03294773,0.50934744,0.87079626,3.278884,0.24341293,1.0466223,928
1747533289180,0.0,0.4373506,0.9298581,3.5318842,0.21145499,0.9896307,929
1747533289190,0.009274175,0.44369608,0.88104665,3.7798246,0.1834917999999999,0.97232014,930
1747533289200,-0.0024405725,0.4288086,0.7665838,3.840811,0.18322548,0.96086854,931
1747533289210,-0.023429496,0.45223808,0.6572462,3.8764973,0.2130529,0.9422264,932
1747533289220,-0.051740136,0.49568027,0.5767073,3.8402784,0.18535602,0.9470201,933
1747533289230,-0.089446985,0.51776745,0.468956015,3.7278929,0.22264028,1.000816,934
1747533289240,-0.076145865,0.5358277,0.4506517049999999,3.7137781,0.37497309,0.972053825,935
1747533289250,-0.06613952,0.5400987,0.44418418,3.7252297,0.43995422,0.9534117,936
1747533289260,-0.044418417,0.5181335,0.43100512,3.7758298,0.5858955,0.88949585,937
1747533289270,-0.035144243,0.5039782,0.4058672,3.8440068,0.727043,0.8229168,938
1747533289280,-0.058085624,0.49348375,0.29579738,3.9366848,0.922519,0.7414241,939
1747533289290,-0.102504045,0.53887844,0.24283697,3.8951395,0.9086706,0.75154406,940
1747533289300,-0.16595893,0.5718261,0.20134723,3.8370826,0.8341021,0.83996105,941
1747533289310,-0.22575295,0.5774395,0.16986385,3.7763624,0.78776306,0.9816412,942
1747533289320,-0.23966421,0.584395115,0.1640064749999999,3.7215014,0.8511463,1.1893678,943
1747533289330,-0.22477673,0.59037447,0.17913802,3.7800908,0.9464875,1.347027,944
1747533289340,-0.12642166,0.37658033,0.1683995,4.1950116,1.226652,1.6010925,945
1747533289350,-0.032215554,0.2975058,0.08664032,4.3809,1.4040185,1.6644757,946
1747533289360,0.015375608,0.3094646,0.022453267,4.4141896,1.4559502000000002,1.685781,947
1747533289370,0.2072046,0.3360668,-0.26968327,4.2461443,1.5638082,1.7614148,948
1747533289380,0.26406993,0.396471005,-0.31825064,3.88928055,1.40082275,1.78884535,949
1747533289390,0.28945188,0.36974673,-0.321179345,3.6900761,1.267931,1.8239991,950
1747533289400,0.3361888549999999,0.31568806,-0.314345745,3.53641165,1.1124024,1.83971175,951
1747533289410,0.39232202,0.279933675,-0.33374828,3.47009895,1.02398545,1.81920535,952
1747533289420,0.448089105,0.25028071,-0.38011916,3.45465265,1.0341054500000002,1.7558221,953
1747533289430,0.5009275049999999,0.233806835,-0.43844883,3.42162945,1.0442255,1.6548883,954
1747533289440,0.54986098,0.23856596,-0.53253292,3.3981936,1.0391655,1.5984293,955
1747533289450,0.5771954,0.24259292,-0.5945235,3.3204293,1.0183928,1.4860439,956
1747533289460,0.58390697,0.2823742449999999,-0.64565345,2.96409835,0.77418093,1.22212465,957
1747533289470,0.59916055,0.273710205,-0.67066935,2.81975495,0.69428611,1.10654345,958
1747533289480,0.6203935199999999,0.241616675,-0.6838484499999999,2.70950005,0.67910613,0.96060225,959
1747533289490,0.62600684,0.22843759,-0.6879974,2.6551716,0.6849651,0.8788432,960
1747533289500,0.56767714,0.23429495,-0.6218578,2.5284052,0.7813715,0.6631271,961
1747533289510,0.58207655,0.14277348,-0.584029,2.595517,0.85487473,0.58269966,962
1747533289520,0.6086787650000001,0.0124469195,-0.6823840999999999,2.7116307,0.9968212,0.46738479,963
1747533289530,0.602455285,-0.020256751,-0.79135565,2.6884612,1.04236125,0.43942159,964
1747533289540,0.59281504,-0.027822526,-0.8546885,2.6498454,1.0562097,0.4463458,965
1747533289550,0.6657882,-0.13349932,-1.0626253,2.167813,0.8740495,0.48735848,966
1747533289560,0.66017485,-0.13789235,-1.1265682,1.8503643,0.73822826,0.55553544,967
1747533289570,0.73558853,-0.21110953,-1.1355982999999998,1.5579493,0.5635249,0.6279734,968
1747533289580,0.7678041,-0.23966423,-1.1373067,1.3161342,0.38402784,0.6508766,969
1747533289590,0.88629393,-0.291892465,-1.22297085,1.0695255,0.257794,0.6375608,970
1747533289600,0.91253006,-0.30116665,-1.2417632,0.54435015,0.101200126,0.5113269,971
1747533289610,0.9447456,-0.314955875,-1.2650706500000002,0.396811015,0.085753791,0.44181841,972
1747533289620,0.97696114,-0.3219115,-1.3367015,-0.075101145,0.06018744,0.18588865,973
1747533289630,1.0500563,-0.246863895,-1.32559695,-0.75979988,-0.0298274036499999,-0.216781315,974
1747533289640,1.0496902,-0.20940112,-1.2981404,-0.96140116,-0.066046394,-0.3371562,975
1747533289650,1.0496902,-0.20940112,-1.2981404,-0.96140116,-0.066046394,-0.3371562,976
1747533289660,0.9823304,-0.16107778,-0.8605459,-1.609082,-0.19867182,-1.0226538,977
1747533289670,0.92937,-0.12080834,-0.7582859,-1.6474315,-0.28122982,-1.2159994,978
1747533289680,0.8502955,-0.06272271,-0.681896,-1.6724652,-0.3717773,-1.3672669,979
1747533289690,0.70190865,-0.01586372,-0.6467517,-1.717739,-0.6178534,-1.4982945,980
1747533289700,0.62600684,0.01854835,-0.6743302,-1.7805896,-0.8165252,-1.4929681,981
1747533289710,0.58646957,0.048201305,-0.69946805,-1.8700718,-0.92145375,-1.45834705,982
1747533289720,0.48640612,0.11568313,-0.76292294,-2.1513016,-1.1126688,-1.361408,983
1747533289730,0.4510178,0.110557936,-0.75316066,-2.3270702,-1.113734,-1.3230585,984
1747533289740,0.41123646,0.065407336,-0.716064,-2.5869946,-0.8785769,-1.325189,985
1747533289750,0.4183141,0.060770255,-0.728999,-2.637062,-0.8175905,-1.3401027,986
1747533289760,0.39830142,0.1181237,-0.73388016,-2.8032434,-0.7366304,-1.375789,987
1747533289770,0.37828872,0.1952458,-0.69336665,-3.0344057,-0.72011876,-1.3800501,988
1747533289780,0.405501105,0.259798935,-0.35437113,-3.3851441,-1.030377,-1.3744573999999998,989
1747533289790,0.4024504,0.2724899149999999,-0.2400303,-3.401922,-1.1089402,-1.3795174,990
1747533289800,0.3968371,0.27895743,-0.19744232,-3.3390715,-1.1941614,-1.4141386,991
1747533289810,0.38975942,0.29994637,-0.18792409,-3.238404,-1.1888351,-1.4828482,992
1747533289820,0.37096703,0.33191785,-0.23014598,-3.1931303,-1.0871024,-1.5936357,993
1747533289830,0.28713335,0.356567635,-0.34436476,-3.28101455,-0.8223842,-1.78272,994
1747533289840,0.26114124,0.34265637,-0.40830776,-3.3491914,-0.6870956,-1.8615496,995
1747533289850,0.2853029,0.35705575,-0.45516676,-3.5345476,-0.6013418,-2.0005667,996
1747533289860,0.276150775,0.385122325,-0.46236645,-3.6788908,-0.55047541,-2.0823257,997
1747533289870,0.21403822,0.460536,-0.36413342,-4.1955442,-0.46232477,-2.3371902,998
1747533289880,0.031117298,0.546810275,0.226119037,-4.409129650000001,-0.6665892250000001,-2.44345035,999
1747533289890,-0.018304294,0.5618198,0.32972133,-4.3617253,-0.74941355,-2.4309335,1000
1747533289900,-0.14814276,0.6218578,0.4761557,-4.172108,-0.9102685,-2.3212113,1001
