id,timestamp,acc_x,acc_y,acc_z,gyro_x,gyro_y,gyro_z
1,1747533047290,-0.06345488,0.30287504,0.9791577,-0.05486112,-0.18801917,-0.12144015
2,1747533047300,0.6628595,-0.6982478,0.5435155,-0.05752428,0.14114754,-0.14061491
3,1747533047310,0.7171622200000001,-0.7032509499999999,0.55620645,0.05352954,0.186421285,-0.213585515
4,1747533047320,0.79501647,-0.696783425,0.5667009000000001,0.25353295,0.248472945,-0.37603834
5,1747533047330,0.8078294749999999,-0.6727438,0.54095287,0.3904194199999999,0.26525086,-0.54488278
6,1747533047340,0.7371749249999999,-0.632230275,0.46920003,0.4133226,0.2732403399999999,-0.70121035
7,1747533047350,0.6378436350000001,-0.58024608,0.41355498,0.31744881,0.28442561,-0.7568703999999999
8,1747533047360,0.5647484650000001,-0.54839663,0.40965007,0.1938781299999999,0.268712955,-0.6934871499999999
9,1747533047370,0.507761105,-0.53778015,0.4229511999999999,0.1134506649999999,0.220776055,-0.59974387
10,1747533047380,0.472006725,-0.5431494,0.48323335,0.092944325,0.147805442,-0.49641323
11,1747533047390,0.47432527,-0.560599465,0.55913515,0.22184133,-0.035952673,-0.35313516
12,1747533047400,0.51679122,-0.56401628,0.5830527750000001,0.4277037,-0.204264455,-0.22956448
13,1747533047410,0.5758530749999999,-0.542295215,0.5679212250000001,0.579503865,-0.238086605,-0.17550232
14,1747533047420,0.631742175,-0.51630312,0.5538879,0.6950850500000001,-0.253266625,-0.1387506949999999
15,1747533047430,0.6798214300000001,-0.499829245,0.54864065,0.7736483350000001,-0.2583266349999999,-0.116912775
16,1747533047440,0.68531273,-0.498242875,0.5470543,0.763262,-0.294012995,-0.05432848775
17,1747533047450,0.642846775,-0.4981208499999999,0.56169775,0.67963873,-0.35979307,0.0335558292499999
18,1747533047460,0.611485425,-0.490555075,0.586347525,0.59148808,-0.4133226,0.101200122
19,1747533047470,0.61124137,-0.4833554,0.6064822249999999,0.5060006,-0.4857606,0.17710022
20,1747533047480,0.62734917,-0.479328455,0.612705665,0.42876894,-0.590156525,0.25699506
21,1747533047490,0.6458975,-0.514350655,0.654073415,0.33955304,-0.780306225,0.332362515
22,1747533047500,0.6557818,-0.5762191750000001,0.7269245,0.295610885,-0.9749833,0.37417415
23,1747533047510,0.6632255650000001,-0.62551875,0.7836678,0.361390965,-1.0836402500000002,0.380299425
24,1747533047520,0.66993713,-0.6474839,0.8095379,0.41918156,-1.1275824,0.38083205
25,1747533047530,0.7255822000000001,-0.66908292,0.8672574,0.6905577,-1.1134676,0.31824775
26,1747533047540,0.7789087299999999,-0.6604189,0.88287707,0.99016335,-1.1669972,0.1669801935
27,1747533047550,0.82881843,-0.630765945,0.85932557,1.2482237,-1.2303804500000002,-0.0274305615
28,1747533047560,0.8449262,-0.581466365,0.812588615,1.33504275,-1.2570120500000002,-0.183491795
29,1747533047570,0.8631085000000001,-0.51056773,0.7926979350000001,1.37152805,-1.2953616,-0.4679174
30,1747533047580,0.87226065,-0.4544345899999999,0.8034364700000001,1.3792512,-1.3435648,-0.7707188199999999
31,1747533047590,0.8592035499999999,-0.426245985,0.8147851500000001,1.37259325,-1.356348,-0.96433062
32,1747533047600,0.84370592,-0.4006199649999999,0.825157565,1.3635385000000002,-1.3278522,-1.10494555
33,1747533047610,0.79538259,-0.35754387,0.854566465,1.35182065,-1.28497525,-1.1733888
34,1747533047620,0.73949347,-0.3048275,0.8880022999999999,1.3137374,-1.2194615,-1.1512845500000002
35,1747533047630,0.7111828499999999,-0.26248357,0.898008625,1.24076675,-1.1534151,-1.04209495
36,1747533047640,0.6917803,-0.224044555,0.8937376450000001,1.13983295,-1.0905645000000002,-0.8908274
37,1747533047650,0.6786011700000001,-0.1915849399999999,0.89202927,1.00614225,-1.0096044,-0.70813455
38,1747533047660,0.65651399,-0.169863845,0.934617235,0.78296937,-0.88843055,-0.38722363
39,1747533047670,0.64211464,-0.16254212,0.97500867,0.63383234,-0.809601,-0.16298546
40,1747533047680,0.64126043,-0.168155445,1.0513986,0.5022722,-0.7217166749999999,0.1203748835
41,1747533047690,0.6440671,-0.16217604,1.1003321,0.417051025,-0.65726817,0.287621405
42,1747533047700,0.6513888,-0.141431165,1.1537806000000002,0.310790905,-0.59042282,0.42450789
43,1747533047710,0.674574225,-0.094084065,1.16488525,0.0247673999999999,-0.46418899,0.55606805
44,1747533047720,0.69812575,-0.053936653,1.08715305,-0.35206988,-0.260190845,0.659132375
45,1747533047730,0.710206575,-0.0540586805,0.93840015,-0.67031765,-0.03195793,0.714259805
46,1747533047740,0.726558425,-0.0793186075,0.798067225,-0.9978865,0.1720402,0.7496798650000001
47,1747533047750,0.703006895,-0.19317133,0.710328625,-1.345429,0.321976175,0.763794635
48,1747533047760,0.64809402,-0.33948365,0.70495938,-1.7475663,0.4641889999999999,0.77870835
49,1747533047770,0.6105092,-0.43869291,0.78134928,-1.9888487,0.572047,0.80533995
50,1747533047780,0.58097825,-0.52277063,0.8736029000000001,-1.97286975,0.63702812,0.84049365
51,1747533047790,0.5559624,-0.5737786,0.942305025,-1.8439728,0.68389979,0.8828379
52,1747533047800,0.5623079,-0.59757418,0.94291514,-1.52892085,0.73077142,0.9105348
53,1747533047810,0.60843475,-0.61197353,0.88714808,-1.20401515,0.817590475,0.888164265
54,1747533047820,0.66957108,-0.61502423,0.830892915,-1.03783388,0.934236945,0.807470465
55,1747533047830,0.72411783,-0.60269935,0.766583825,-0.9406285,1.06925922,0.66472503
56,1747533047840,0.7585299000000001,-0.583174785,0.704471275,-0.924649535,1.17418775,0.48149953
57,1747533047850,0.75084215,-0.5541319849999999,0.64540942,-1.038899165,1.1691277,0.2146507735
58,1747533047860,0.7081321300000001,-0.5372920299999999,0.59720807,-1.20428145,1.1377024,-0.0007989499999999
59,1747533047870,0.662371365,-0.5436375099999999,0.5961098,-1.3137374,1.17045935,-0.0458063725
60,1747533047880,0.617342835,-0.5547421299999999,0.6228341,-1.3699301,1.20215095,-0.029028457
61,1747533047890,0.5945235,-0.5618198,0.6389419,-1.3811153,1.2074772,-0.008522116
62,1747533047900,0.45833954,-0.57731745,0.66444585,-1.29403,1.10787505,0.1957423449999999
63,1747533047910,0.37145513,-0.5749989,0.66493395,-1.2173310000000002,0.98403808,0.383495215
64,1747533047920,0.35534735,-0.56853135,0.656636,-1.18217725,0.8753810799999999,0.485227975
65,1747533047930,0.3731635399999999,-0.5763412,0.65797832,-1.13690345,0.7813714700000001,0.566720695
66,1747533047940,0.43637437,-0.60672635,0.64357897,-1.0663296999999998,0.69668292,0.62344602
67,1747533047950,0.49384986,-0.6322303,0.59427942,-0.989897,0.5672533,0.6540723749999999
68,1747533047960,0.51447267,-0.64138245,0.54497985,-0.97258645,0.442617375,0.662061875
69,1747533047970,0.532166815,-0.6411384,0.5271636850000001,-1.0165286,0.371244655,0.65034395
70,1747533047980,0.558280965,-0.6406502700000001,0.53216687,-1.05834025,0.28948561,0.62078285
71,1747533047990,0.6205155499999999,-0.67799102,0.548396635,-1.0223876,0.1624528275,0.5022722000000001
72,1747533048000,0.68262813,-0.732171735,0.5739006,-0.9116001,0.04740427,0.3273025
73,1747533048010,0.70801008,-0.755967335,0.5830527999999999,-0.78616518,-0.0079894834999999,0.16831178
74,1747533048020,0.716308,-0.7604824,0.5786598,-0.72011876,-0.026631612,0.08522116
75,1747533048030,0.7470592,-0.74315435,0.5691415,-0.59388494,-0.0644485,-0.07563378
76,1747533048040,0.7470592,-0.74315435,0.5691415,-0.59388494,-0.0644485,-0.07563378
77,1747533048050,0.825767675,-0.6655441,0.506296755,-0.053263221,-0.180296015,-0.463390035
78,1747533048060,0.770000605,-0.57268035,0.399643735,-0.043409526,-0.245543465,-0.46046056
79,1747533048070,0.69617331,-0.47774209,0.269317175,-0.2082591999999999,-0.2708434899999999,-0.347542525
80,1747533048080,0.5781716299999999,-0.4527261999999999,0.174744995,-0.498011125,-0.280164555,-0.137951737
81,1747533048090,0.47042035,-0.50568661,0.187557995,-0.9004148,-0.30120354,0.268446638
82,1747533048100,0.42868655,-0.5818324500000001,0.270293405,-1.18164465,-0.34541201,0.68656295
83,1747533048110,0.40659936,-0.70276285,0.36767223,-1.15927405,-0.40293628,0.9281117
84,1747533048120,0.41038224,-0.84919725,0.49189735,-0.942759025,-0.442617385,1.11639715
85,1747533048130,0.60611618,-0.95072505,0.62661698,-0.2042644649999999,-0.520648015,1.07858025
86,1747533048140,0.87531135,-0.95719255,0.59305913,0.67351344,-0.61545655,0.732901965
87,1747533048150,0.9992924,-0.862986425,0.36986877,1.06286763,-0.649545015,0.2908172
88,1747533048160,1.0310198499999998,-0.736442745,0.165470815,1.10441295,-0.686030315,-0.1272991
89,1747533048170,0.977449315,-0.62820337,0.019524578,0.89136003,-0.7600662,-0.510527985
90,1747533048180,0.762800965,-0.5321668500000001,-0.0684580569999999,0.2612561049999999,-0.8255799749999999,-0.81679152
91,1747533048190,0.511788075,-0.5156929800000001,-0.0129350349999999,-0.334226725,-0.870321075,-0.873250545
92,1747533048200,0.3785328,-0.59488955,0.168643555,-0.450873185,-0.8777779,-0.65007764
93,1747533048210,0.340825945,-0.6842145049999999,0.3952507,-0.25459821,-0.804008325,-0.332362515
94,1747533048220,0.35315084,-0.72631437,0.5176454,-0.07350325,-0.74461985,-0.1635181
95,1747533048230,0.72521609,-0.7165521,0.447967075,1.16699718,-0.5805691150000001,0.0170442275
96,1747533048240,0.960609315,-0.652243,0.106408965,1.8021611,-0.491086915,-0.1262338425
97,1747533048250,0.9664667,-0.5904965,-0.13203497,1.7235979,-0.469249,-0.32144356
98,1747533048260,0.89739848,-0.51227616,-0.29189247,1.44609655,-0.4865595499999999,-0.48975532
99,1747533048270,0.76963453,-0.41709384,-0.3900035,1.0620687,-0.5768407,-0.58323227
100,1747533048280,0.59049654,-0.3437546449999999,-0.410138215,0.66099659,-0.755538815,-0.56459017
101,1747533048290,0.49006698,-0.32410803,-0.3909797,0.46924898,-0.85966843,-0.5219796
102,1747533048300,0.64943635,-0.436130285,-0.312759375,0.39254994,-1.1930962,0.0897485265
103,1747533048310,0.83662825,-0.468711915,-0.30775619,0.6514092,-1.3094763,0.22583606
104,1747533048320,1.0534731,-0.4512618499999999,-0.41184661,0.8729842299999999,-1.37978375,0.1776328449999999
105,1747533048330,1.3270613,-0.372675415,-0.61709877,0.972586455,-1.4053501,-0.0210389699999999
106,1747533048340,1.52743235,-0.281275965,-0.7693905000000001,0.745152475,-1.41813325,-0.44900897
107,1747533048350,1.56660355,-0.23661351,-0.79013535,0.33795515,-1.31320475,-0.80986732
108,1747533048360,1.5707525,-0.22160399,-0.7814713,-0.111320135,-0.9187906,-0.79708415
109,1747533048370,1.4374971,-0.2933568,-0.6160005,-0.38935417,-0.628506,-0.716923
110,1747533048380,1.3181533,-0.38585448,-0.5254553,-0.54275227,-0.37071204,-0.47351006
111,1747533048390,1.1881928,-0.4887246199999999,-0.3465612799999999,-0.53795855,0.0567253315,-0.0023968424999999
112,1747533048400,1.1597601,-0.51496077,-0.2706595,-0.4926848,0.15393071,0.11611383
113,1747533048410,1.1662276,-0.53009235,-0.1773075949999999,-0.16618125175,0.400006815,0.2628540099999999
114,1747533048420,1.18501995,-0.514838775,-0.21513647,0.0002663162499999,0.553671225,0.20719394
115,1747533048430,1.1889248,-0.4909211649999999,-0.2848148199999999,-0.02050634,0.628239735,0.0796285215
116,1747533048440,1.17684405,-0.46236646,-0.3424123249999999,-0.120907513,0.721982985,-0.0575242814999999
117,1747533048450,1.14731315,-0.434299855,-0.3564456099999999,-0.266316105,0.84422207,-0.171773893
118,1747533048460,1.04407695,-0.4272222049999999,-0.33997175,-0.518251165,1.04129602,-0.206394985
119,1747533048470,0.9132623,-0.455898955,-0.3089764849999999,-0.73982618,1.1848404,-0.135821215
120,1747533048480,0.8216187749999999,-0.503368085,-0.259920975,-0.80107885,1.1885688,-0.0074568499999999
121,1747533048490,0.753648825,-0.5454679499999999,-0.19085277,-0.7920241,1.16806245,0.12596752
122,1747533048500,0.72155527,-0.57487685,-0.102137964,-0.7273093,1.1209245,0.2199770999999999
123,1747533048510,0.71264714,-0.5869577,-0.053692598,-0.6844324,1.0892329,0.25246766
124,1747533048520,0.72216535,-0.6211257,0.08078295,-0.47404268,0.9257148,0.25726137
125,1747533048530,0.72924307,-0.6312541,0.0685800885,-0.364853085,0.83836312,0.193878135
126,1747533048540,0.7333920199999999,-0.62820337,0.057109397,-0.33156356,0.77817567,0.1304949
127,1747533048550,0.744862725,-0.6316201699999999,0.0884707535,-0.3169161649999999,0.70706925,0.066845346
128,1747533048560,0.7598722600000001,-0.63662335,0.13252309,-0.25965821,0.6444849500000001,-0.004527374
129,1747533048570,0.7907454700000001,-0.637843635,0.134597575,-0.17310548,0.6117281,-0.079894835
130,1747533048580,0.831625085,-0.63967407,0.0957924699999999,-0.1137169825,0.6639260650000001,-0.1451422849999999
131,1747533048590,0.8455363499999999,-0.62734917,0.0566212835,-0.0910801105,0.787496745,-0.215716055
132,1747533048600,0.7761020249999999,-0.6064822700000001,0.1262996235,-0.1315601579999999,0.85567368,-0.31345406
133,1747533048610,0.6705473049999999,-0.599038515,0.23417292,-0.1898833899999999,0.80720415,-0.394414155
134,1747533048620,0.60111303,-0.60257733,0.292746665,-0.20399815,0.6902914,-0.4181163
135,1747533048630,0.57011772,-0.6130718,0.354981255,-0.15872441,0.54541543,-0.419181565
136,1747533048640,0.599648655,-0.6257628,0.404768915,0.0013315774999999,0.40187103,-0.38855521
137,1747533048650,0.653219255,-0.62478655,0.411968625,0.1640507275,0.32703619,-0.348607795
138,1747533048660,0.68580087,-0.6085567350000001,0.37523802,0.22929817,0.32597092,-0.32330777
139,1747533048670,0.6927565,-0.584395085,0.333382205,0.2561961,0.32144356,-0.302002475
140,1747533048680,0.6812857999999999,-0.559867325,0.304949535,0.250070835,0.302268805,-0.274838225
141,1747533048690,0.671523475,-0.53643781,0.2993362,0.207992885,0.2956108899999999,-0.196541295
142,1747533048700,0.69849184,-0.5283839349999999,0.3222776,0.18881813,0.297741415,-0.114249615
143,1747533048710,0.755845315,-0.5336312,0.348147675,0.22770028,0.267115065,-0.105993815
144,1747533048720,0.79611475,-0.5310686,0.358031975,0.2777677,0.2231729,-0.153664395
145,1747533048730,0.7953825999999999,-0.5183776,0.364865575,0.31292143,0.1901497,-0.22104237
146,1747533048740,0.73119555,-0.4705423749999999,0.365231665,0.323840395,0.091612739,-0.295344575
147,1747533048750,0.66908295,-0.4072095249999999,0.34619519,0.303334065,-0.032224251,-0.3307646199999999
148,1747533048760,0.67579452,-0.3657197749999999,0.32752481,0.261522435,-0.093743273,-0.30945933
149,1747533048770,0.72765669,-0.355469375,0.31739645,0.225037115,-0.112651718,-0.2777677
150,1747533048780,0.78098317,-0.39464058,0.31166109,0.1989381399999999,-0.0729706165,-0.22956448
151,1747533048790,0.78427795,-0.43832682,0.32313178,0.15819178,-0.0042610564999999,-0.1257012075
152,1747533048800,0.75316067,-0.453214305,0.34607318,0.12436963,0.005592639,-0.0245010825
153,1747533048810,0.73729694,-0.45711923,0.3568117,0.1190433025,-0.054861118,0.0271642439999999
154,1747533048820,0.7382732,-0.4458926,0.365597775,0.1155811925,-0.144343332,0.060720074
155,1747533048830,0.791477685,-0.4620003849999999,0.41123647,0.143544385,-0.22556975,0.05885586
156,1747533048840,0.8356520350000001,-0.48518582,0.467857745,0.203731825,-0.256995055,0.0327568815
157,1747533048850,0.8351639,-0.484575675,0.469444125,0.24687504,-0.27457191,-0.0007989485
158,1747533048860,0.8371163500000001,-0.467857745,0.435642185,0.244478195,-0.34221619,-0.065513765
159,1747533048870,0.83845865,-0.450895755,0.39525071,0.195476025,-0.4242415499999999,-0.139017015
160,1747533048880,0.8366282,-0.44540447,0.37877685,0.16298546,-0.4564658,-0.16831179
161,1747533048890,0.80355847,-0.464685005,0.38670872,0.07190535,-0.460460555,-0.18269286
162,1747533048900,0.7621908,-0.4981208649999999,0.418192105,0.075900095,-0.465520565,-0.161653885
163,1747533048910,0.730097275,-0.52094022,0.4373506,0.134223325,-0.50813115,-0.13954965
164,1747533048920,0.7277787250000001,-0.5453459199999999,0.449797515,0.21411816,-0.5555354,-0.130761215
165,1747533048930,0.7490117000000001,-0.5749988749999999,0.454312565,0.306263535,-0.5848301499999999,-0.1302285799999999
166,1747533048940,0.766949875,-0.6160005049999999,0.4538244449999999,0.412257345,-0.6564692,-0.1560612499999999
167,1747533048950,0.771220875,-0.64370098,0.45528878,0.47137952,-0.7222493,-0.17896444
168,1747533048960,0.7700006,-0.6455314,0.4554108,0.4990764,-0.82824314,-0.19920446
169,1747533048970,0.760726435,-0.621735835,0.4540685,0.50120692,-0.9105348,-0.20133498
170,1747533048980,0.8244253850000001,-0.591106655,0.45882762,0.52597432,-1.03117598,-0.27297402
171,1747533048990,0.92095,-0.583418845,0.455166755,0.539822775,-1.07059075,-0.41225736
172,1747533049000,0.94865053,-0.5828087,0.43698451,0.50173956,-1.0628676,-0.55660069
173,1747533049010,0.93693578,-0.588177975,0.441499575,0.441818435,-1.05541075,-0.69481875
174,1747533049020,0.886171875,-0.6026993650000001,0.493117675,0.419980515,-1.07831395,-0.7973504499999999
175,1747533049030,0.795016525,-0.61575639,0.6323523550000001,0.613592315,-1.0958907999999998,-0.8002799
176,1747533049040,0.7308294,-0.5985503750000001,0.73327003,0.8982842499999999,-1.08577075,-0.7209177
177,1747533049050,0.7231415649999999,-0.5552302499999999,0.7008103800000001,1.0490192,-1.0641992,-0.63037025
178,1747533049060,0.730707365,-0.51471675,0.633572605,1.08497185,-1.0394318,-0.5443501500000001
179,1747533049070,0.7353445000000001,-0.4823791349999999,0.60709241,0.92837795,-1.011202265,-0.443416335
180,1747533049080,0.72936512,-0.465661215,0.655537785,0.732103,-0.96113485,-0.351803585
181,1747533049090,0.73290392,-0.46078008,0.73290393,0.647947115,-0.897751635,-0.2945456199999999
182,1747533049100,0.75108617,-0.458705585,0.79831123,0.615722865,-0.8476842,-0.25326662
183,1747533049110,0.77085482,-0.461512235,0.86164405,0.6183860299999999,-0.8002799,-0.23622239
184,1747533049120,0.771953065,-0.45955978,0.9098454,0.6226470799999999,-0.7084008500000001,-0.22690133
185,1747533049130,0.751696315,-0.44650273,0.93156653,0.61252705,-0.59867863,-0.2047970949999999
186,1747533049140,0.7315616,-0.43332365,0.95694846,0.59441755,-0.50040798,-0.16511599
187,1747533049150,0.72338565,-0.42539178,0.98977413,0.5808354499999999,-0.383761525,-0.1129180324999999
188,1747533049160,0.7181384,-0.40110808,1.0240642,0.5643238500000001,-0.1587244089,-0.0077231674999999
189,1747533049170,0.71789435,-0.368038335,1.03736535,0.5390238,0.1051948611,0.108390665
190,1747533049180,0.7252160999999999,-0.348025635,1.01759665,0.49960903,0.271109795,0.170442315
191,1747533049190,0.7285109,-0.3402158,1.0030752,0.47351006,0.3323625,0.19281286
192,1747533049200,0.72021294,-0.3385074,0.97037166,0.38615838,0.4426174,0.22690132
193,1747533049210,0.7094744,-0.3372871,0.92180425,0.27004454,0.5629923,0.25406557
194,1747533049220,0.7382732,-0.33069757,0.86249834,0.0010652645,0.777643,0.2775014
195,1747533049230,0.761336575,-0.35827604,0.8512716499999999,-0.201867615,0.92172007,0.23196134
196,1747533049240,0.765485525,-0.3797530799999999,0.84700065,-0.332096205,1.00880545,0.181893905
197,1747533049250,0.7640212,-0.4172158649999999,0.82186275,-0.518783815,1.13637085,0.1171790875
198,1747533049260,0.7609705,-0.44394013,0.8007518,-0.6423545,1.2282499,0.080960095
199,1747533049270,0.7726852,-0.4595598,0.81319875,-0.72038512,1.3081447,0.15233282
200,1747533049280,0.78073912,-0.4772539449999999,0.821374685,-0.73396723,1.36993005,0.264984535
201,1747533049290,0.789281125,-0.47322701,0.8099039699999999,-0.73343456,1.44503125,0.41571945
202,1747533049300,0.815029175,-0.45699719,0.7508420849999999,-0.7757788299999999,1.5070829,0.620782855
203,1747533049310,0.8404111000000001,-0.45345836,0.671645535,-0.87378317,1.530785,0.766191455
204,1747533049320,0.8555426349999999,-0.4721287349999999,0.62100367,-1.00054962,1.53131765,0.788828315
205,1747533049330,0.862132235,-0.5005614,0.59269302,-1.15155085,1.5350461,0.7582019600000001
206,1747533049340,0.826865985,-0.551691425,0.58512725,-1.28311105,1.5251924,0.679106075
207,1747533049350,0.752916605,-0.6064822999999999,0.59879445,-1.38297955,1.4506239,0.549942765
208,1747533049360,0.67835712,-0.641260435,0.64101633,-1.40641535,1.3590111,0.445014225
209,1747533049370,0.6211257,-0.666886435,0.69800371,-1.3203953,1.2871057,0.405599445
210,1747533049380,0.5789037699999999,-0.6744522,0.730707405,-1.2591426,1.2442288,0.38935417
211,1747533049390,0.5575487699999999,-0.64662965,0.700444275,-1.0029465,1.10388025,0.351004635
212,1747533049400,0.5758531,-0.5981843,0.6272271,-0.81039995,0.959004285,0.28362666
213,1747533049410,0.62503062,-0.55315577,0.54253926,-0.7273093150000001,0.811465205,0.167512835
214,1747533049420,0.6812857999999999,-0.50971357,0.45431256,-0.813063085,0.73316827,0.0348874115
215,1747533049430,0.7257042300000001,-0.48250119,0.402694465,-0.95341167,0.6727145,-0.1118527685
216,1747533049440,0.73021928,-0.51142199,0.429174665,-1.12145715,0.53449645,-0.31425301
217,1747533049450,0.68872955,-0.55315575,0.49958517,-1.1976236,0.37204363,-0.4487426399999999
218,1747533049460,0.63149812,-0.565114515,0.55840299,-1.13077825,0.25326663,-0.42850262
219,1747533049470,0.57316845,-0.5614536649999999,0.5857374200000001,-1.004544375,0.1443433325,-0.32756882
220,1747533049480,0.54119697,-0.533997235,0.5751208999999999,-0.784567275,0.0292947725,-0.055660065
221,1747533049490,0.560721545,-0.502147785,0.52972623,-0.5781723000000001,-0.0561927,0.269778235
222,1747533049500,0.617586875,-0.48079278,0.46956613,-0.51159325,-0.09054748,0.4724448
223,1747533049510,0.6904379650000001,-0.473471045,0.42612394,-0.519849035,-0.11584751,0.59361865
224,1747533049520,0.7607264650000001,-0.490066945,0.40074199,-0.53529537,-0.12463594,0.6354303
225,1747533049530,0.7936742,-0.50544256,0.3909797,-0.608266,-0.12197278,0.62264705
226,1747533049540,0.849685335,-0.614048025,0.41196863,-0.7901599,-0.238086605,0.428236305
227,1747533049550,0.79867735,-0.686533025,0.46309863,-0.87245157,-0.300937215,0.347542535
228,1747533049560,0.7575537,-0.7038611,0.4932397,-0.87032104,-0.2972088,0.3552657
229,1747533049570,0.59501155,-0.73900537,0.5291161,-0.700145075,-0.423975245,0.53929013
230,1747533049580,0.4569972,-0.770854815,0.506784865,-0.427437355,-0.569916485,0.8799084500000001
231,1747533049590,0.388295085,-0.788793015,0.494215935,-0.132092789,-0.669252395,1.19655835
232,1747533049600,0.473959185,-0.7955046,0.506906895,0.109455921,-0.682035575,1.2482237
233,1747533049610,0.5503491,-0.8027043,0.51569295,0.24234766,-0.6689861,1.2218584
234,1747533049620,0.9846489,-0.797579085,0.4147752799999999,0.680171335,-0.574443875,0.620782875
235,1747533049630,1.1842877,-0.697149515,0.190730725,0.8069378,-0.53103435,0.34940675
236,1747533049640,1.15390265,-0.57451075,0.0031727449999999,0.7741809500000001,-0.426904735,-0.7472830349999999
237,1747533049650,0.93449522,-0.47395917,-0.060648223,0.475640585,-0.439687905,-1.3432985
238,1747533049660,0.66676442,-0.37584814,-0.067725883,0.20133499,-0.520914315,-1.3978933
239,1747533049670,0.429296715,-0.31446776,-0.0175721205,0.04793690335,-0.6468818350000001,-1.19815625
240,1747533049680,0.1990286799999999,-0.32471816,0.0772441195,0.08149272835,-0.826911525,-0.579237585
241,1747533049690,0.07028849,-0.393542315,0.1441158049999999,0.262055055,-0.976048525,0.159789665
242,1747533049700,0.1127544499999999,-0.454190565,0.122028625,0.47164585,-1.0516823,0.66898608
243,1747533049710,0.15326795,-0.47639978,0.0924977,0.58056915,-1.0828413,0.90973586
244,1747533049720,0.33313814,-0.4829893,-0.018792408,0.793622,-1.1041466,1.242631
245,1747533049730,0.7958707,-0.43881494,-0.377678595,1.053280265,-1.10467925,1.294829
246,1747533049740,1.1190025,-0.3819496049999999,-0.67310989,0.977912785,-1.25594675,0.74834831
247,1747533049750,1.236272,-0.350100125,-0.7843999850000001,0.715325085,-1.4612764500000002,-0.0338221499999999
248,1747533049760,1.2931373,-0.32300975,-0.8057549900000001,0.4807006,-1.5936356,-0.59068914
249,1747533049770,1.31559055,-0.31458978,-0.7409578,0.325970925,-1.6146746,-1.14436038
250,1747533049780,1.3031437,-0.321423395,-0.654439525,0.30493194,-1.5150724,-1.45222185
251,1747533049790,1.27007395,-0.322277605,-0.586469575,0.38242993,-1.38883855,-1.4434333499999998
252,1747533049800,1.2520137,-0.310196775,-0.513984575,0.484162715,-1.21919515,-1.34915735
253,1747533049810,1.2505494,-0.29994637,-0.4790844,0.5363607,-1.1190603,-1.2825783
254,1747533049820,1.3734322,-0.24881636,-0.378654805,0.56219332,-0.5387574900000001,-1.00134862
255,1747533049830,1.37038145,-0.224654695,-0.34155811,0.47191216,-0.162719145,-0.88816425
256,1747533049840,1.32437665,-0.201835335,-0.313979655,0.35020569,0.03941479,-0.825313655
257,1747533049850,1.2910628,-0.191829,-0.30409533,0.2806972,0.13422333,-0.79042625
258,1747533049860,1.23065865,-0.209889235,-0.3408259449999999,0.0897485369999999,0.29880669,-0.6961503250000001
259,1747533049870,1.1092402,-0.269805285,-0.32947728,-0.285224553,0.576574375,-0.49508165
260,1747533049880,1.0172306,-0.33740914,-0.2400302999999999,-0.50946274,0.731037725,-0.341949885
261,1747533049890,0.95487395,-0.384024065,-0.16461661,-0.55713333,0.809601005,-0.24208134
262,1747533049900,0.89874078,-0.421974975,-0.111168075,-0.55526908,0.871386345,-0.1427454375
263,1747533049910,0.837848515,-0.4638308,-0.105066645,-0.5555354,0.914795865,0.0135821224999999
264,1747533049920,0.7829356350000001,-0.50410025,-0.127275855,-0.5954828350000001,0.93104115,0.18961707
265,1747533049930,0.75157425,-0.5379021799999999,-0.11287648,-0.6503439550000001,0.91985587,0.31611723
266,1747533049940,0.73949345,-0.57646323,-0.04783522065,-0.66818714,0.89375687,0.42104578
267,1747533049950,0.7612146,-0.6245425,0.04576073435,-0.61545655,0.85753787,0.484961615
268,1747533049960,0.8538342999999999,-0.6532192,0.09518233,-0.4293015799999999,0.85460839,0.44954157
269,1747533049970,0.925221,-0.6540734,0.09274176,-0.2892193,0.87032104,0.39414784
270,1747533049980,0.94682013,-0.64638561,0.0601601115,-0.169377045,0.8596684299999999,0.12942963
271,1747533049990,0.931200435,-0.63418278,0.05051985,-0.15313176,0.8226505,-0.0380832024999999
272,1747533050000,0.932420735,-0.6000147499999999,0.0558891085,-0.125701205,0.81732417,-0.2340918575
273,1747533050010,0.9526775,-0.555596325,0.06723777,-0.086020105,0.8447547200000001,-0.3952131
274,1747533050020,0.9620737,-0.53765815,0.0741934,-0.06977482,0.8591358,-0.44315
275,1747533050030,0.9581688,-0.5132524,0.0690682,-0.07190535,0.8516789,-0.5267733
276,1747533050040,0.8635965800000001,-0.4844536499999999,0.0530824535,-0.18642128,0.805073615,-0.5877596700000001
277,1747533050050,0.7117929700000001,-0.46797977,0.1073851935,-0.316383545,0.715325085,-0.43409527
278,1747533050060,0.570117745,-0.44784504,0.189754515,-0.3901531099999999,0.63037027,-0.1640507315
279,1747533050070,0.546078075,-0.44345202,0.25333142,-0.34887411,0.6218481499999999,0.0604537635
280,1747533050080,0.58280865,-0.467247605,0.29909215,-0.26338664,0.6165218,0.259924535
281,1747533050090,0.6133158,-0.48787045,0.3133695,-0.21358553,0.6066681,0.34993938
282,1747533050100,0.824059265,-0.554864165,0.29482114,-0.0175768629999999,0.5885586,0.38589204
283,1747533050110,0.970493665,-0.580368165,0.271269615,0.127565422,0.5848302000000001,0.240217135
284,1747533050120,1.02528455,-0.5696296000000001,0.24417926,0.19734024,0.579503875,0.044208475
285,1747533050130,1.04127025,-0.54595603,0.209889225,0.204797085,0.566720695,-0.193345495
286,1747533050140,0.93388505,-0.47639973,0.188900305,0.06418218,0.5334311700000001,-0.431964725
287,1747533050150,0.786596525,-0.4029385,0.2130619799999999,-0.12996226,0.48203215,-0.5387575
288,1747533050160,0.719480775,-0.37621425,0.261141255,-0.2545982049999999,0.4258394749999999,-0.511859575
289,1747533050170,0.67811305,-0.375115985,0.300922585,-0.350472,0.3832289,-0.436225785
290,1747533050180,0.6394299750000001,-0.404768935,0.34997809,-0.41651839,0.340085685,-0.311057215
291,1747533050190,0.5902524250000001,-0.4717626649999999,0.41916831,-0.420779455,0.28948562,-0.0391484699999999
292,1747533050200,0.58317475,-0.529116115,0.47444728,-0.3451456899999999,0.244211875,0.27643612
293,1747533050210,0.64443313,-0.55828095,0.485185815,-0.234091875,0.2000034,0.464721605
294,1747533050220,0.71716223,-0.58390695,0.456631125,-0.129163315,0.188285495,0.57071542
295,1747533050230,0.78574235,-0.59708603,0.4167277499999999,-0.046605318,0.2151834249999999,0.6029397000000001
296,1747533050240,0.89105302,-0.58659158,0.36474354,-0.002396845,0.259125575,0.4639226899999999
297,1747533050250,0.97281215,-0.557060665,0.31593209,-0.017843179,0.28762139,0.213319203
298,1747533050260,0.99416713,-0.542539265,0.29897013,-0.0814927295,0.27989823,-0.040746367
299,1747533050270,0.9994144,-0.55095923,0.3032411299999999,-0.1549959725,0.248472935,-0.323307765
300,1747533050280,0.9285158,-0.56767718,0.3150779,-0.232493955,0.1944107649999999,-0.582433355
301,1747533050290,0.7990434200000001,-0.572802375,0.332772065,-0.34727621,0.11984225,-0.681502935
302,1747533050300,0.66981512,-0.562185855,0.37121108,-0.426904735,0.06231797,-0.5446164450000001
303,1747533050310,0.5431494,-0.55022708,0.424781635,-0.413855235,0.02450108225,-0.263919272
304,1747533050320,0.46078009,-0.54497985,0.471640635,-0.353401485,-0.02476739925,0.0615190179999999
305,1747533050330,0.45919374,-0.55486415,0.4937278149999999,-0.25832664,-0.0729706165,0.36112465
306,1747533050340,0.561941825,-0.6006249,0.47261686,-0.129962265,-0.135288585,0.6026733900000001
307,1747533050350,0.679821475,-0.65504965,0.45187201,-0.0284958233499999,-0.192812865,0.6862966500000001
308,1747533050360,0.74791345,-0.68104175,0.4654172,0.03195793665,-0.22210764,0.5949502
309,1747533050370,0.8094158499999999,-0.683116265,0.4805487499999999,0.111586455,-0.249804525,0.4058657599999999
310,1747533050380,0.884341435,-0.666276265,0.46736964,0.211455,-0.29348037,0.063915875
311,1747533050390,0.928759835,-0.64662965,0.43112712,0.250869785,-0.3352919949999999,-0.25086977
312,1747533050400,0.9030118,-0.63113205,0.413188905,0.203998145,-0.35420044,-0.41412155
313,1747533050410,0.838214615,-0.6164886199999999,0.4358862249999999,0.150734925,-0.36112465,-0.517452215
314,1747533050420,0.767682065,-0.6036756050000001,0.48579595,0.1334243749999999,-0.374440445,-0.55633435
315,1747533050430,0.69605125,-0.585371285,0.535339575,0.19734024,-0.443416325,-0.49241848
316,1747533050440,0.63381665,-0.564382375,0.560355425,0.297741415,-0.524642735,-0.337955145
317,1747533050450,0.60904485,-0.546078125,0.5614536699999999,0.372576235,-0.56112805,-0.18455706
318,1747533050460,0.6262509,-0.53082455,0.55376587,0.4428836849999999,-0.600809155,-0.066046396
319,1747533050470,0.6469958,-0.5259434,0.5474204,0.47830373,-0.62744075,-0.014913702
320,1747533050480,0.74803546,-0.519475825,0.5191097499999999,0.5797701749999999,-0.6788397850000001,0.029294773
321,1747533050490,0.8116123799999999,-0.5209402,0.5066628,0.6293049749999999,-0.7121293,-0.0178431805
322,1747533050500,0.831625085,-0.521672375,0.48530781,0.6431534,-0.73955985,-0.0769653565
323,1747533050510,0.83491987,-0.52374685,0.46785772,0.64555025,-0.7504788,-0.10333065
324,1747533050520,0.827720165,-0.542295175,0.4451603899999999,0.62158179,-0.777110425,-0.10626013
325,1747533050530,0.77280728,-0.5872017,0.479450465,0.626908115,-0.8306399600000001,-0.07004114
326,1747533050540,0.72448395,-0.61124137,0.5547421349999999,0.7044061,-0.889762135,-0.01624528335
327,1747533050550,0.73522245,-0.5922049199999999,0.56255195,0.80480727,-0.929975865,0.00958737965
328,1747533050560,0.79879935,-0.55779285,0.52801785,0.8916263200000001,-0.927845315,0.025832663
329,1747533050570,0.8743350750000001,-0.54168505,0.509591525,0.96672745,-0.89189265,-0.0247674
330,1747533050580,0.89764255,-0.5432714,0.51520485,1.0072075,-0.86606,-0.08042747
331,1747533050590,0.92070595,-0.51483875,0.508737325,1.0093381300000002,-0.81066623,-0.25060346
332,1747533050600,0.9047202,-0.49067708,0.50104952,0.95314538,-0.75660408,-0.3800330899999999
333,1747533050610,0.8563968799999999,-0.47286092,0.5490067700000001,0.8426241800000001,-0.727043,-0.56006278
334,1747533050620,0.7846440299999999,-0.47066441,0.6313761,0.76699043,-0.7302388,-0.6876282
335,1747533050630,0.70923033,-0.477131945,0.703983135,0.77604518,-0.7187872,-0.6937534999999999
336,1747533050640,0.64284678,-0.47884035,0.7824475200000001,0.83889578,-0.6921555500000001,-0.6386260500000001
337,1747533050650,0.6074584999999999,-0.468589925,0.846634585,0.9480854,-0.653806015,-0.53556169
338,1747533050660,0.6024552999999999,-0.439303035,0.84968533,1.0855045,-0.557399615,-0.336889885
339,1747533050670,0.61417005,-0.411358485,0.81197846,1.1459582,-0.4306331599999999,-0.149137025
340,1747533050680,0.63967405,-0.396471,0.79001331,1.0753844,-0.32517198,-0.068176925
341,1747533050690,0.6717675700000001,-0.38695277,0.784522055,0.9592706,-0.222373965,-0.0322242509999999
342,1747533050700,0.7088642700000001,-0.37865482,0.82039845,0.7893609500000001,-0.0399474225,-0.0474042685
343,1747533050710,0.7336361,-0.37121108,0.871284325,0.63223445,0.1611212475,-0.0796285195
344,1747533050720,0.7365648,-0.36852646,0.8866599,0.5853628,0.23222765,-0.091080114
345,1747533050730,0.726802485,-0.34778158,0.86713537,0.399474175,0.41545314,-0.103863285
346,1747533050740,0.704471235,-0.341680155,0.843217785,0.23036344,0.5275722300000001,-0.08894958
347,1747533050750,0.6588325500000001,-0.363401235,0.849563285,-0.031425305,0.694286115,0.0154463349999999
348,1747533050760,0.6135599300000001,-0.39927764,0.876531615,-0.26525085,0.846352615,0.17816548
349,1747533050770,0.6007469000000001,-0.4246596099999999,0.893127515,-0.364586755,0.933171665,0.308660375
350,1747533050780,0.61148542,-0.44955346,0.8983747,-0.422111045,1.0080065,0.41438787
351,1747533050790,0.6377215700000001,-0.47700989,0.8942257,-0.46232478,1.0772487,0.502272185
352,1747533050800,0.69190227,-0.484087555,0.861278,-0.52757222,1.1789814,0.59921125
353,1747533050810,0.7299752,-0.47859627,0.8334555,-0.5752428,1.2442288,0.6562029
354,1747533050820,0.78293565,-0.44930939,0.778176525,-0.6745787299999999,1.33317845,0.669252395
355,1747533050830,0.7974570299999999,-0.439059,0.7321717249999999,-0.7619304,1.3907026999999998,0.65061028
356,1747533050840,0.78269155,-0.45943778,0.68067565,-0.96246645,1.433047,0.553937535
357,1747533050850,0.737907075,-0.50043937,0.656880065,-1.17099195,1.4407702,0.433296305
358,1747533050860,0.676648725,-0.5363157700000001,0.674940315,-1.2650015,1.41200805,0.37151098
359,1747533050870,0.59916055,-0.57146005,0.703617035,-1.31134055,1.3518206,0.34221621
360,1747533050880,0.50495445,-0.59879447,0.735588535,-1.30468265,1.2775184,0.34221621
361,1747533050890,0.4549227,-0.60941094,0.7524285,-1.2879047,1.2410331,0.34887412
362,1747533050900,0.359496315,-0.653219225,0.8213746550000001,-1.00614225,0.9784454,0.483896375
363,1747533050910,0.382803785,-0.6478499799999999,0.82198482,-0.849015775,0.91586113,0.5238438000000001
364,1747533050920,0.446746795,-0.63528103,0.81710368,-0.6745787249999999,0.84688523,0.49881009
365,1747533050930,0.52765176,-0.6185631,0.77903073,-0.5347627500000001,0.756870385,0.3981425899999999
366,1747533050940,0.6293016,-0.5760971500000001,0.6838484,-0.49241848,0.62344602,0.1286306775
367,1747533050950,0.7106947,-0.5376581300000001,0.59879445,-0.54035538,0.489222685,-0.1901496975
368,1747533050960,0.7392494000000001,-0.532044795,0.563040065,-0.6415555,0.40400154,-0.412789975
369,1747533050970,0.74242215,-0.532166835,0.5571827,-0.74355458,0.32703619,-0.614391275
370,1747533050980,0.72326365,-0.52789582,0.584761185,-0.80347571,0.238885555,-0.784567275
371,1747533050990,0.645165335,-0.50641878,0.6091669,-0.79708413,0.0439421599999999,-0.90813795
372,1747533051000,0.522038445,-0.47578961,0.601601125,-0.75740302,-0.166713885,-0.85380945
373,1747533051010,0.4238054,-0.45394649,0.585005255,-0.71852085,-0.271109805,-0.59228704
374,1747533051020,0.36999078,-0.44345203,0.5774394549999999,-0.66099658,-0.3360909399999999,-0.233026605
375,1747533051030,0.36181487,-0.45919372,0.542539225,-0.5866944000000001,-0.39068574,0.1704423149999999
376,1747533051040,0.397447245,-0.50410025,0.4849417099999999,-0.51505536,-0.489755315,0.6817692799999999
377,1747533051050,0.477253965,-0.548396635,0.455044735,-0.473243725,-0.57497647,1.0519487
378,1747533051060,0.5281399,-0.56474847,0.45077375,-0.46498793,-0.58909124,1.1147993
379,1747533051070,0.82942855,-0.650046495,0.47798611,-0.314253005,-0.5896238650000001,0.95021585
380,1747533051080,1.0384636,-0.70264082,0.415141385,-0.1419464885,-0.5896238650000001,0.57977017
381,1747533051090,1.0842243,-0.7063016799999999,0.30616982,-0.02636529465,-0.6415555150000001,-0.07456853
382,1747533051100,0.9602432,-0.65419546,0.2500366499999999,-0.03435478115,-0.68975875,-0.59095545
383,1747533051110,0.8856837,-0.61722076,0.23649146,-0.06338324,-0.6940198,-0.7030745
384,1747533051120,0.6422366749999999,-0.5405868,0.246009705,-0.1190433,-0.8442221,-0.6953513849999999
385,1747533051130,0.393420295,-0.5172793499999999,0.2796896,-0.10759171,-0.9004148000000001,-0.4721784799999999
386,1747533051140,0.2289256949999999,-0.52130632,0.33326016,0.077764305,-0.9254485,0.1115864499999999
387,1747533051150,0.30470546,-0.5501050350000001,0.35790994,0.39441415,-0.95740643,0.68150293
388,1747533051160,0.38194957,-0.56987363,0.3607166,0.545948,-0.97471696,0.8250473
389,1747533051170,0.8932495300000001,-0.6068483499999999,0.214526325,1.067128675,-0.946487455,0.66419238
390,1747533051180,1.29740835,-0.56291805,0.002806665,1.2911005,-0.824781,-0.097738025
391,1747533051190,1.5037587499999998,-0.44882129,-0.241616665,1.2713931,-0.7366303750000001,-0.994956975
392,1747533051200,1.3853909999999998,-0.328012955,-0.404890985,0.96433065,-0.7803062000000001,-1.4993597
393,1747533051210,1.2808125,-0.26821893,-0.48006064,0.7653925,-0.8367652,-1.7086842
394,1747533051220,1.0040516,-0.21550256,-0.5193538,0.139549636,-0.983771715,-1.7480989999999998
395,1747533051230,0.681773905,-0.21171967,-0.373651635,-0.1059938139999999,-1.0527476,-1.4514228500000002
396,1747533051240,0.513130385,-0.27749309,-0.211231535,0.01438107,-1.1403656,-0.5981459840000001
397,1747533051250,0.489212765,-0.35376097,-0.133743365,0.356863595,-1.20641205,0.295078241
398,1747533051260,0.7819594000000001,-0.413554995,-0.26553428,0.6913566250000001,-1.1515509000000002,0.738760875
399,1747533051270,1.0199152,-0.45174995,-0.37999713,0.8745821,-1.081776,0.9358348
400,1747533051280,1.33474915,-0.424293525,-0.4519940249999999,0.9126653,-0.99948435,0.6892261
401,1747533051290,1.5112025,-0.368282385,-0.48811448,0.932106375,-0.952346415,0.1981391975
402,1747533051300,1.62822795,-0.2960414449999999,-0.499463155,0.873516825,-1.013332815,-0.3219761675
403,1747533051310,1.6698397,-0.25796852,-0.49250755,0.8335694,-1.0391655,-0.59761333
404,1747533051320,1.58515185,-0.17694151,-0.461268225,0.551008025,-0.8402273499999999,-0.950748515
405,1747533051330,1.500464,-0.0959145,-0.4300289,0.26844665,-0.6412892,-1.3038837
406,1747533051340,1.36940515,-0.14179726,-0.3336262749999999,-0.0527305935,-0.3520699,-1.0474213
407,1747533051350,1.2887443,-0.200004915,-0.255039825,-0.188285495,-0.130494888,-0.80267678
408,1747533051360,1.2012498,-0.259554895,-0.088958862,-0.145408598,0.2024002419999999,-0.49614693
409,1747533051370,1.1313274,-0.29384494,0.0217210945,-0.0071905349999999,0.4862932,-0.3009372
410,1747533051380,1.0889835,-0.29945825,-0.015253577,0.0516653265,0.6021407,-0.296143515
411,1747533051390,1.03040975,-0.29311277,-0.0718748585,-0.0079894864999999,0.6580671,-0.3294330399999999
412,1747533051400,0.9957536,-0.28749946,-0.0993313,-0.07243799,0.6711166,-0.34940675
413,1747533051410,0.852492,-0.26236153,-0.17279254,-0.45593318,0.64395237,-0.26897928
414,1747533051420,0.77207512,-0.28640118,-0.10409042,-0.6956176700000001,0.56299225,-0.066312713
415,1747533051430,0.7291210349999999,-0.329233215,-0.048811451,-0.7901599,0.517718525,0.118776987
416,1747533051440,0.687509235,-0.391223775,-0.006101431,-0.8343683749999999,0.4636563649999999,0.328900395
417,1747533051450,0.6889735699999999,-0.47835222,0.0533265099999999,-0.792823045,0.425573155,0.62104919
418,1747533051460,0.75450295,-0.54595603,0.139356695,-0.6575344700000001,0.446878435,0.86153265
419,1747533051470,0.8451702299999999,-0.56487045,0.20598432,-0.45300371,0.508397445,0.92598115
420,1747533051480,0.9399865,-0.5681652500000001,0.2097672,-0.25220136,0.564856475,0.8839032
421,1747533051490,1.01747465,-0.56206383,0.158027065,-0.1251685699999999,0.60214073,0.7470167
422,1747533051500,1.0667742,-0.54583403,0.06845805725,-0.07376956,0.60799968,0.406664705
423,1747533051510,1.06982495,-0.5318007499999999,0.00695563155,-0.102798015,0.5885586,0.0306263499999999
424,1747533051520,1.021745685,-0.5197199,0.0162298068,-0.164050725,0.55287223,-0.191747605
425,1747533051530,0.948040435,-0.503490085,0.0571093975,-0.20080235,0.49002165,-0.35313517
426,1747533051540,0.8670134,-0.487992485,0.11263242,-0.193079185,0.4024036549999999,-0.43755737
427,1747533051550,0.785132165,-0.47176268,0.155586495,-0.1134506664999999,0.295078255,-0.356863585
428,1747533051560,0.740835785,-0.446258695,0.16046764,-0.0202400235,0.27457192,-0.165914935
429,1747533051570,0.73729694,-0.42929673,0.14960709,0.008522116,0.3121225,-0.0777643
430,1747533051580,0.841753455,-0.36986874,0.13435351,0.09028116,0.5067995750000001,0.16431704
431,1747533051590,0.8901988599999999,-0.34045985,0.0933518965,0.038615835,0.65167555,0.2876214
432,1747533051600,0.890808985,-0.3355787,0.0506418795,-0.10439591,0.7555388249999999,0.339020415
433,1747533051610,0.86481683,-0.3632792,0.061746483,-0.25646241,0.714792475,0.312921435
434,1747533051620,0.8376044300000001,-0.39988778,0.09396204,-0.39627837,0.6061354999999999,0.27537086
435,1747533051630,0.8211306,-0.42929668,0.159979525,-0.477771105,0.50120692,0.2412824
436,1747533051640,0.808561685,-0.46383081,0.27285601,-0.413855235,0.340351985,0.21864553
437,1747533051650,0.800385735,-0.49458201,0.34595116,-0.273506645,0.18828549,0.22663501
438,1747533051660,0.8195442,-0.4983648899999999,0.34009378,-0.165914943,0.14247912,0.26312033
439,1747533051670,0.8851956000000001,-0.48726031,0.30787821,-0.0655137635,0.160588615,0.297741435
440,1747533051680,0.98367275,-0.47225077,0.25101287,0.0189084445,0.26951191,0.30759512
441,1747533051690,1.05933055,-0.446014625,0.18597162,0.0426105784999999,0.50200589,0.221575005
442,1747533051700,1.0821499,-0.42807645,0.15546446,0.030360037,0.6540724,0.13954964
443,1747533051710,1.00307528,-0.43417786,0.14362769,-0.14594123,0.7089335,-0.0434095255
444,1747533051720,0.94010853,-0.43539814,0.16656908,-0.273772965,0.6878945350000001,-0.1579254575
445,1747533051730,0.8581053000000001,-0.434543935,0.236247425,-0.3448793599999999,0.597613365,-0.231695025
446,1747533051740,0.7808611750000001,-0.4334456949999999,0.310318785,-0.341949885,0.514789045,-0.23249397
447,1747533051750,0.734124225,-0.42575787,0.34375462,-0.30280142,0.46845004,-0.154463345
448,1747533051760,0.7025188,-0.42697814,0.355469375,-0.264185585,0.39974049,-0.035420042
449,1747533051770,0.6884855,-0.43552017,0.35595749,-0.21278658,0.317715125,0.098803283
450,1747533051780,0.6944649199999999,-0.429662775,0.3444868,-0.1552623,0.23995081,0.229298185
451,1747533051790,0.7387613049999999,-0.4195343849999999,0.269439195,-0.128897005,0.2825614,0.416518405
452,1747533051800,0.815517305,-0.4214868699999999,0.19866259,-0.15419704,0.41944789,0.541154355
453,1747533051810,0.85444444,-0.42514774,0.19256116,-0.17896444,0.47723848,0.54275227
454,1747533051820,0.8872700950000001,-0.477253935,0.235149145,-0.261256115,0.48842375,0.37923415
455,1747533051830,0.91997372,-0.53411927,0.30263099,-0.236488715,0.46125952,0.0695085099999999
456,1747533051840,0.93669165,-0.570239755,0.35693374,-0.153131765,0.42211105,-0.2727077
457,1747533051850,0.898130675,-0.56511456,0.3682823899999999,-0.0743021965,0.39574575,-0.46845004
458,1747533051860,0.819788305,-0.5379021749999999,0.36864847,-0.0205063414999999,0.37550573,-0.60214072
459,1747533051870,0.72045696,-0.50495444,0.37291947,-0.0005326322,0.31318776,-0.6580671
460,1747533051880,0.61075323,-0.46602732,0.404890965,0.0359526753,0.17736654,-0.5837649
461,1747533051890,0.5440036,-0.43576424,0.432347415,0.0881506354999999,0.0466053228,-0.440220525
462,1747533051900,0.55047113,-0.4345439599999999,0.431371195,0.125168578,-0.0282295072,-0.320378285
463,1747533051910,0.59488955,-0.45321431,0.432713515,0.1645833649999999,-0.08229168,-0.224504485
464,1747533051920,0.6461415699999999,-0.48164697,0.44174362,0.211188685,-0.125434895,-0.16990968
465,1747533051930,0.674452225,-0.49873101,0.45174997,0.261788745,-0.213585535,-0.155528605
466,1747533051940,0.6879974,-0.5016597,0.4576073499999999,0.2876214099999999,-0.32570462,-0.163784405
467,1747533051950,0.695441125,-0.5065408,0.46444093,0.28282772,-0.423176305,-0.173638105
468,1747533051960,0.6970275,-0.511788,0.46932206,0.27856666,-0.47564057,-0.1768339
469,1747533051970,0.673475985,-0.5363158,0.506784875,0.28522457,-0.5965480750000001,-0.15579493
470,1747533051980,0.66542205,-0.55132529,0.541196945,0.333427785,-0.683100825,-0.151800185
471,1747533051990,0.673109885,-0.57377857,0.56450442,0.399474165,-0.77631145,-0.184823385
472,1747533052000,0.6879974,-0.6014790999999999,0.58891015,0.455134235,-0.861532615,-0.2553971499999999
473,1747533052010,0.69458693,-0.6155124,0.6074585,0.48522797,-0.90920323,-0.2977414
474,1747533052020,0.74352041,-0.63552505,0.608434715,0.6378270699999999,-1.020257,-0.43862263
475,1747533052030,0.75828585,-0.6454093999999999,0.610997325,0.6743123799999999,-1.0293118,-0.427969985
476,1747533052040,0.7648753800000001,-0.66176123,0.632108275,0.69215558,-1.04156235,-0.393082575
477,1747533052050,0.7512081850000001,-0.66200528,0.662981515,0.690824,-1.0407634,-0.33635725
478,1747533052060,0.70874227,-0.6496804,0.7202129349999999,0.70147665,-1.03517075,-0.216781325
479,1747533052070,0.6796995,-0.6433349,0.76243484,0.716923,-1.031176,-0.13422333
480,1747533052080,0.6892176999999999,-0.647971975,0.81368687,0.8032094249999999,-1.031176,-0.106792765
481,1747533052090,0.7335140499999999,-0.65297514,0.8798264,0.94435695,-1.0162623000000002,-0.117711725
482,1747533052100,0.84187547,-0.640040115,0.89874085,1.054345525,-0.97285275,-0.23036344
483,1747533052110,0.93217662,-0.61282775,0.89642228,1.16912775,-0.84342312,-0.50653324
484,1747533052120,0.9437693,-0.5806122,0.8926393800000001,1.23091305,-0.65380607,-0.769120925
485,1747533052130,0.913750315,-0.534485375,0.90142545,1.2253204,-0.46978163,-0.8607336800000001
486,1747533052140,0.84724474,-0.479938585,0.9127741,1.1986888,-0.31664987,-0.88177268
487,1747533052150,0.80563295,-0.45321432,0.9178993,1.1797804,-0.25885928,-0.871919
488,1747533052160,0.58817795,-0.345341,0.96109745,1.0285128,-0.0865527344999999,-0.5773733299999999
489,1747533052170,0.55278965,-0.32117933,0.979035645,0.91186637,0.047404268,-0.28469193
490,1747533052180,0.546200115,-0.30263099,0.97085973,0.8298410199999999,0.1531317625,-0.0772316724999999
491,1747533052190,0.564626465,-0.2916484099999999,0.94620993,0.7126619249999999,0.28549088,0.1233043624999999
492,1747533052200,0.61050923,-0.3020208399999999,0.90508628,0.479901625,0.4593953,0.299073
493,1747533052210,0.6517548799999999,-0.32801294,0.873114825,0.23116238,0.6066681,0.37390783
494,1747533052220,0.6677405999999999,-0.35461518,0.8682336749999999,0.058323224,0.69854718,0.363255185
495,1747533052230,0.677746975,-0.38439016,0.8617661249999999,-0.108124341,0.7850999299999999,0.332895145
496,1747533052240,0.674940325,-0.4233173,0.853712225,-0.261788735,0.86952213,0.286822455
497,1747533052250,0.6490702500000001,-0.450773745,0.85236993,-0.4466120999999999,0.95314538,0.22770028
498,1747533052260,0.61831905,-0.462000355,0.8661592,-0.5592638,0.9965549,0.1949434
499,1747533052270,0.6034315299999999,-0.473471065,0.89117509,-0.6380934,0.9922938,0.2271676349999999
500,1747533052280,0.6008689300000001,-0.468589935,0.89959502,-0.6548712999999999,0.9720538,0.28256139
501,1747533052290,0.601113,-0.4595598,0.8959341,-0.6583334,0.9683254,0.31265512
502,1747533052300,0.6715235500000001,-0.411724595,0.80123995,-0.72784193,1.0905645000000002,0.485494265
503,1747533052310,0.7199689,-0.3980573699999999,0.71459962,-0.8479505,1.17924775,0.5952165
504,1747533052320,0.7158199000000001,-0.4246596099999999,0.684214505,-0.98030965,1.20827615,0.63622918
505,1747533052330,0.707766,-0.44467232,0.68140787,-1.0498182,1.220793,0.65247446
506,1747533052340,0.60733647,-0.547176345,0.729975235,-1.1928299,1.08550452,0.7155914
507,1747533052350,0.53082452,-0.6296676649999999,0.78086117,-1.190433,0.92251902,0.797883075
508,1747533052360,0.5110559,-0.6562699,0.80172807,-1.1558119,0.8612663,0.8330368
509,1747533052370,0.50763905,-0.6770148,0.82491344,-0.9768475,0.737695635,0.925448505
510,1747533052380,0.5630400849999999,-0.657734275,0.81478513,-0.84448842,0.6820355499999999,0.937965365
511,1747533052390,0.665300035,-0.6253967,0.744618655,-0.700677695,0.5834985850000001,0.800279915
512,1747533052400,0.7742716000000001,-0.593059125,0.664201795,-0.6122607250000001,0.499875335,0.562193305
513,1747533052410,0.8417534499999999,-0.570849895,0.6294236449999999,-0.60214072,0.48336375,0.326503555
514,1747533052420,0.89971705,-0.554253995,0.605994125,-0.615722835,0.47510795,0.0500674325
515,1747533052430,0.9242448,-0.54937285,0.5957437,-0.62903863,0.4660532,-0.099069595
516,1747533052440,0.830526825,-0.5641383,0.571826125,-0.70547138,0.29188247,-0.63702815
517,1747533052450,0.7643873,-0.5637722,0.5862255,-0.7222493,0.19068234,-0.7882957
518,1747533052460,0.609655,-0.507395,0.6125837,-0.6812366,0.05912218,-0.6854977
519,1747533052470,0.47664383,-0.43881494,0.62063754,-0.61572284,-0.12037488,-0.42876893
520,1747533052480,0.3787768649999999,-0.3444868199999999,0.6079466,-0.48762481,-0.31638354,0.119575935
521,1747533052490,0.45236013,-0.352052585,0.583418845,-0.3568636,-0.425040515,0.656469215
522,1747533052500,0.6178309500000001,-0.41587356,0.54253924,-0.22077606,-0.489222705,1.074319225
523,1747533052510,0.7796409,-0.472738885,0.46846786,-0.164317045,-0.49801114,1.12358775
524,1747533052520,0.9427932,-0.5525456,0.38866116,-0.1619202,-0.47191216,1.0191918
525,1747533052530,1.03040975,-0.60648227,0.348513755,-0.2340918649999999,-0.47137952,0.65327342
526,1747533052540,0.99685185,-0.63564709,0.335456685,-0.33529198,-0.54461646,0.237021343
527,1747533052550,0.87958235,-0.68055362,0.3662079,-0.35846148,-0.59228706,0.032490568
528,1747533052560,0.7464491200000001,-0.6977596500000001,0.44967549,-0.283360345,-0.614391295,-0.0774979875
529,1747533052570,0.6512667700000001,-0.6986138500000001,0.511299925,-0.1190433035,-0.691356615,-0.1110538175
530,1747533052580,0.551569375,-0.6883634700000001,0.4507737149999999,0.1414138515,-0.77844198,0.0071905349999999
531,1747533052590,0.48445365,-0.69007187,0.372675415,0.37444046,-0.80374205,0.20639499
532,1747533052600,0.497022575,-0.6862889750000001,0.3854884349999999,0.553404885,-0.75101147,0.323840395
533,1747533052610,0.58610345,-0.63784361,0.4106263249999999,0.7763114600000001,-0.7038735,0.324373025
534,1747533052620,0.76414325,-0.595133605,0.378410775,0.993891735,-0.7286409,0.1560612425
535,1747533052630,0.98733365,-0.5623079200000001,0.26480212,1.1464909,-0.770186225,-0.1944107675
536,1747533052640,1.13303585,-0.45052969,0.0353882925,1.05754132,-0.836498925,-0.84608626
537,1747533052650,1.09301045,-0.3145898,-0.1604676425,0.766457795,-0.913197975,-1.38297955
538,1747533052660,1.0204034,-0.26943922,-0.20134723,0.61678815,-0.93903065,-1.4855113
539,1747533052670,0.8171036,-0.22672918,-0.17376876,0.37444046,-1.0162623,-1.4152038
540,1747533052680,0.44747896,-0.172060355,-0.073461232,0.1818939,-1.17764985,-0.75900093
541,1747533052690,0.327158735,-0.18682582,-0.048933478,0.25326663,-1.3006879,-0.0189084399999999
542,1747533052700,0.39049159,-0.227949465,-0.086152206,0.409327865,-1.3723269500000002,0.64927869
543,1747533052710,0.561941835,-0.294333035,-0.1849953899999999,0.510527985,-1.3883059,0.893756885
544,1747533052720,0.91228602,-0.394884625,-0.32423006,0.62078287,-1.35048905,0.806937815
545,1747533052730,1.2435937,-0.45553285,-0.4327135,0.75287567,-1.29030165,0.468716355
546,1747533052740,1.40149875,-0.4252697549999999,-0.50873733,0.8799084500000001,-1.2420984,0.0165116049999999
547,1747533052750,1.4958269,-0.3398497299999999,-0.593791305,0.949150615,-1.2255868,-0.48762482
548,1747533052760,1.52670015,-0.258456635,-0.678113075,0.8870989650000001,-1.24635945,-0.90920325
549,1747533052770,1.5016842499999998,-0.19414754,-0.67640465,0.61732076,-1.08843395,-1.2040152
550,1747533052780,1.4461612499999998,-0.156440695,-0.5862255000000001,0.33609094,-0.79575255,-1.23863625
551,1747533052790,1.3781913499999998,-0.149973185,-0.48396553,0.218379215,-0.53449645,-1.06073707
552,1747533052800,1.31925145,-0.14521407,-0.391589865,0.15899072,-0.2876214,-0.8388957699999999
553,1747533052810,1.2983845,-0.14301755,-0.35071027,0.14168017,-0.175236,-0.7254451
554,1747533052820,1.2257775999999998,-0.147044495,-0.298848105,0.0010652669999999,0.3486078,-0.29161614
555,1747533052830,1.1730611999999998,-0.143505665,-0.294821155,-0.156061243,0.55074175,-0.170708625
556,1747533052840,1.10057615,-0.14814274,-0.2917704399999999,-0.342748835,0.6639261000000001,-0.097471695
557,1747533052850,1.01710862,-0.1725484649999999,-0.275784685,-0.5435511900000001,0.73157035,-0.04447479
558,1747533052860,0.97330034,-0.19158493,-0.25870067,-0.64341974,0.7526093,-0.02130529
559,1747533052870,0.8246695,-0.32850105,-0.082003236,-0.90281165,0.7275756,0.12516858
560,1747533052880,0.780495115,-0.41038226,-0.0068336029999999,-0.907605325,0.70840085,0.22663502
561,1747533052890,0.735832615,-0.526553485,0.0959145,-0.8727179,0.6926882,0.38056573
562,1747533052900,0.74315433,-0.600868925,0.135573805,-0.6974819,0.69188925,0.4924185
563,1747533052910,0.768170205,-0.6446772249999999,0.1538781,-0.5028048199999999,0.6799050200000001,0.5387575
564,1747533052920,0.802704305,-0.64650765,0.16608096,-0.39547942,0.66206184,0.49002165
565,1747533052930,0.83528593,-0.63930797,0.17218239,-0.31158985,0.6570018550000001,0.4063984
566,1747533052940,0.8653049749999999,-0.6269830700000001,0.175599185,-0.24234767,0.6684534550000001,0.3046656399999999
567,1747533052950,0.906062545,-0.5819545,0.1834090199999999,-0.13315806,0.6559366,0.1432780699999999
568,1747533052960,0.93205464,-0.5440036,0.18792409,-0.05752428,0.63702816,0.03568636
569,1747533052970,0.976473005,-0.46248849,0.132157,0.0021305289,0.593086005,-0.128098055
570,1747533052980,0.97330028,-0.4205106349999999,0.05186216475,-0.0700411389,0.5531385799999999,-0.218112905
571,1747533052990,0.92705145,-0.39476259,-0.01818226325,-0.23196133,0.5238438000000001,-0.2354234499999999
572,1747533053000,0.84846502,-0.389881445,0.0145214069999999,-0.418382625,0.48735849,-0.090813795
573,1747533053010,0.80368054,-0.39464056,0.0707766,-0.5134575,0.45912898,0.03568636
574,1747533053020,0.82564567,-0.43503203,0.133499315,-0.43356264,0.45327003,0.244478195
575,1747533053030,0.85407835,-0.47676583,0.15888127,-0.342216215,0.472444785,0.351004645
576,1747533053040,0.87079626,-0.4983649,0.17132819,-0.29134983,0.48682585,0.39521313
577,1747533053050,0.9115538,-0.51532685,0.17511108,-0.15899072,0.49268481,0.36884782
578,1747533053060,0.9232686,-0.49445996,0.14716652,-0.13448964,0.51532166,0.273506645
579,1747533053070,0.91362832,-0.46468501,0.146678405,-0.16698021,0.5725796,0.20373182
580,1747533053080,0.86591509,-0.451383875,0.1531459299999999,-0.204530775,0.5970807,0.163784405
581,1747533053090,0.800019655,-0.453458355,0.14399378,-0.276169805,0.5930859799999999,0.20106866
582,1747533053100,0.7670719349999999,-0.454556615,0.1486308599999999,-0.3462109399999999,0.55660068,0.29348035
583,1747533053110,0.75694355,-0.455654875,0.1666910999999999,-0.3664509649999999,0.489755335,0.36218992
584,1747533053120,0.7515743,-0.46029197,0.1889003149999999,-0.3584614849999999,0.402137335,0.409594195
585,1747533053130,0.7473033,-0.46322066,0.20183535,-0.34780884,0.3552657,0.42983422
586,1747533053140,0.757797735,-0.46749165,0.23453902,-0.262853995,0.238352925,0.499076395
587,1747533053150,0.77659015,-0.45101779,0.25821258,-0.186421275,0.1866875949999999,0.534762765
588,1747533053160,0.78464405,-0.4325914899999999,0.2766388899999999,-0.14407702,0.16511599,0.531566975
589,1747533053170,0.8061210649999999,-0.4241715,0.274808465,-0.11744541,0.1589907199999999,0.504402725
590,1747533053180,0.855542665,-0.43173726,0.23832191,-0.124902255,0.1427454349999999,0.3949468
591,1747533053190,0.8794603,-0.441377535,0.192805225,-0.225569735,0.14434333,0.274571915
592,1747533053200,0.8596916649999999,-0.447845045,0.16693516,-0.3720436,0.20612867,0.23089607
593,1747533053210,0.817835835,-0.46016993,0.15790504,-0.49827745,0.287088765,0.22903186
594,1747533053220,0.75450297,-0.4706643849999999,0.17376876,-0.6266418,0.3281014399999999,0.272175075
595,1747533053230,0.720212925,-0.5100796249999999,0.2438131899999999,-0.6583334,0.274305595,0.330498295
596,1747533053240,0.736320705,-0.563894275,0.3099526999999999,-0.5645901499999999,0.189617075,0.3339604
597,1747533053250,0.7703667000000001,-0.599282575,0.321057315,-0.4346278999999999,0.15286545,0.269778225
598,1747533053260,0.79965357,-0.6317422,0.314467775,-0.31292144,0.125434893,0.15978967
599,1747533053270,0.81820195,-0.6602969000000001,0.30287504,-0.22397186,0.080427468,0.0034621099999999
600,1747533053280,0.8107582,-0.6600528,0.322399615,-0.146473862,-0.0178431799999999,-0.28043086
601,1747533053290,0.797335,-0.6460195,0.34778157,-0.103863284,-0.08841695,-0.4745753
602,1747533053300,0.75523515,-0.59000838,0.3538829999999999,-0.051132695,-0.139283335,-0.669252395
603,1747533053310,0.73668685,-0.56072152,0.35839805,-0.0165115995,-0.15393072,-0.74488617
604,1747533053320,0.72167732,-0.5486407,0.35595748,0.0037284255,-0.15819177,-0.76246305
605,1747533053330,0.671401505,-0.54424768,0.36254704,0.00426105775,-0.162452825,-0.7302388
606,1747533053340,0.611729505,-0.53216683,0.384390175,-0.00213052895,-0.207193935,-0.564057525
607,1747533053350,0.5908625999999999,-0.51849961,0.414775315,0.0215716058,-0.28122981,-0.3304983
608,1747533053360,0.58939826,-0.51398456,0.43442193,0.046339005,-0.3158509,-0.23382555
609,1747533053370,0.6602969000000001,-0.50715095,0.486528135,0.206394995,-0.42823631,-0.01358212
610,1747533053380,0.762922985,-0.5256993,0.457607325,0.32437303,-0.482831125,0.06711166
611,1747533053390,0.860423835,-0.5374140700000001,0.425391775,0.39201732,-0.488690075,0.0418116284999999
612,1747533053400,0.9030118,-0.53253292,0.426246,0.397609965,-0.4990764,-0.0956074815
613,1747533053410,0.9319326,-0.523258735,0.4247816399999999,0.4013383849999999,-0.5360943499999999,-0.29907299
614,1747533053420,0.94682015,-0.5053205199999999,0.422829165,0.401604695,-0.588824935,-0.5376922500000001
615,1747533053430,0.89727653,-0.485673935,0.429418725,0.385892045,-0.653007135,-0.8103999500000001
616,1747533053440,0.81881208,-0.46627139,0.45431256,0.37630467,-0.70600405,-0.97791278
617,1747533053450,0.76548555,-0.4569972049999999,0.48933476,0.40293628,-0.7464840850000001,-0.97604856
618,1747533053460,0.7380291,-0.45711923,0.507395,0.42557314,-0.76592517,-0.95660746
619,1747533053470,0.66102905,-0.456265015,0.5400987,0.6434197500000001,-0.8423578700000001,-0.641289205
620,1747533053480,0.6552937,-0.46029195,0.5342413,0.6849651,-0.86179894,-0.56459016
621,1747533053490,0.648582115,-0.4710304899999999,0.497998825,0.7265103500000001,-0.9598033,-0.308926685
622,1747533053500,0.686899115,-0.495924325,0.485307865,0.7366304,-1.0298444,-0.161920198
623,1747533053510,0.7124031,-0.507395,0.48176903,0.7414241,-1.0567423,-0.098004326
624,1747533053520,0.8095379,-0.54034275,0.45589894,0.7323693,-1.063134,0.016511599
625,1747533053530,0.877996,-0.5725583,0.474447295,0.71266192,-1.02425175,-0.07137272
626,1747533053540,0.9305903,-0.59867245,0.5083712650000001,0.708933475,-1.03037705,-0.2583266349999999
627,1747533053550,0.97818143,-0.626494975,0.5369259500000001,0.704672425,-1.03996445,-0.522778535
628,1747533053560,0.9984382,-0.64040625,0.5474204,0.700944,-1.0396981,-0.65726817
629,1747533053570,0.978791595,-0.6406503,0.651266775,0.64901235,-0.941693775,-1.1683288
630,1747533053580,0.935105375,-0.610387215,0.739859575,0.65993133,-0.898284255,-1.2290489
631,1747533053590,0.87787392,-0.567189065,0.807463425,0.6974819,-0.8367652299999999,-1.19069935
632,1747533053600,0.83321145,-0.513984575,0.8478548699999999,0.76725672,-0.668453425,-0.974983275
633,1747533053610,0.815517305,-0.4807927899999999,0.86969802,0.8127968,-0.54168695,-0.80374205
634,1747533053620,0.812466575,-0.4771319499999999,0.8748232,0.8005462299999999,-0.315318285,-0.463123725
635,1747533053630,0.804778765,-0.482989315,0.87299275,0.750745115,-0.213319215,-0.27670245
636,1747533053640,0.790135315,-0.4917753649999999,0.8805585300000001,0.689492415,-0.11105382,-0.0969390664999999
637,1747533053650,0.77622407,-0.492385505,0.916923045,0.64501765,-0.0133158049999999,0.0737695585
638,1747533053660,0.77500379,-0.47993857,0.989530065,0.6306366,0.03089267,0.1555286
639,1747533053670,0.79428432,-0.47042032,1.0385856,0.727309285,0.294811945,0.4101268
640,1747533053680,0.82186275,-0.4632206399999999,1.023088,0.76619145,0.42211105,0.44288368
641,1747533053690,0.841387315,-0.445038395,0.97256813,0.75314198,0.5368932900000001,0.4298342
642,1747533053700,0.849197215,-0.4024504,0.866281215,0.58696073,0.7507451199999999,0.33822146
643,1747533053710,0.84333985,-0.355469375,0.7670719349999999,0.34940675,0.9952233,0.2474076699999999
644,1747533053720,0.8193002,-0.33033149,0.7298531850000001,0.15792546,1.1584751,0.229298175
645,1747533053730,0.7787866750000001,-0.31703037,0.7106947,-0.040480045,1.2956279,0.2295644849999999
646,1747533053740,0.717894375,-0.3381413199999999,0.699590115,-0.234091865,1.39922485,0.2354234399999999
647,1747533053750,0.6733539500000001,-0.38268177,0.7072779,-0.47617323,1.4911039,0.267914015
648,1747533053760,0.66224935,-0.42368339,0.7344902799999999,-0.66472505,1.5441007999999998,0.31851408
649,1747533053770,0.6561479,-0.45748531,0.7621907800000001,-0.728108265,1.54782925,0.380033095
650,1747533053780,0.6582223700000001,-0.48384348,0.7883049,-0.746484065,1.5419703,0.45540056
651,1747533053790,0.68994982,-0.49018898,0.81112425,-0.71639035,1.51800185,0.51905011
652,1747533053800,0.7383952,-0.46553921,0.792331815,-0.651409225,1.4777881,0.591488095
653,1747533053810,0.78720665,-0.42966279,0.728022765,-0.626641825,1.4756576,0.630902885
654,1747533053820,0.8343096999999999,-0.39012551,0.640650285,-0.695884,1.5078819,0.59787967
655,1747533053830,0.8516378,-0.36254704,0.5457119850000001,-0.8434231249999999,1.5193335,0.5225122
656,1747533053840,0.80038578,-0.38402407,0.479084365,-1.173388825,1.4652713,0.3600593749999999
657,1747533053850,0.716552105,-0.445404485,0.4800606149999999,-1.5217303,1.35395115,0.190416015
658,1747533053860,0.64858216,-0.52374685,0.55010505,-1.6636768,1.24502785,0.111586447
659,1747533053870,0.580856265,-0.6067262899999999,0.64846013,-1.6647421,1.13876765,0.082291677
660,1747533053880,0.482135105,-0.66969308,0.760604415,-1.5499598,1.026648565,0.08309063
661,1747533053890,0.411846595,-0.68213999,0.7996535600000001,-1.2394352,0.8713863150000001,0.1347559549999999
662,1747533053900,0.420266585,-0.649558375,0.7535267750000001,-0.91905693,0.7416904,0.20106866
663,1747533053910,0.43442193,-0.6294237,0.7292431,-0.82398206,0.7099988,0.22210763
664,1747533053920,0.544369685,-0.58256465,0.6446772000000001,-0.6434197150000001,0.6705839650000001,0.19973708
665,1747533053930,0.6800655,-0.559867325,0.58903215,-0.5957491500000001,0.6293049799999999,0.075900088
666,1747533053940,0.79147765,-0.545467945,0.541929135,-0.64262078,0.549676465,-0.247407672
667,1747533053950,0.8249135000000001,-0.5282619,0.514350685,-0.7544735300000001,0.44900897,-0.604271265
668,1747533053960,0.8334555,-0.51447266,0.5008055,-0.8117315,0.39947417,-0.73130405
669,1747533053970,0.7789087,-0.513740475,0.5000733,-1.00188125,0.20612868,-0.9803096
670,1747533053980,0.6972715549999999,-0.54083085,0.588788085,-0.99815282,0.027430563,-0.97871172
671,1747533053990,0.6163665949999999,-0.5592571799999999,0.67664871,-0.8604673700000001,-0.1315601619999999,-0.84315682
672,1747533054000,0.59013045,-0.54095288,0.7026408049999999,-0.659665,-0.168844415,-0.64049027
673,1747533054010,0.58842206,-0.5256993,0.71191496,-0.545948,-0.16937704,-0.52411014
674,1747533054020,0.61941725,-0.444184165,0.59830633,-0.297208775,-0.2596582,0.00612527
675,1747533054030,0.58805592,-0.38731885,0.429662785,-0.390685725,-0.369646755,0.52038167
676,1747533054040,0.5460781,-0.36462154,0.3106848749999999,-0.59255335,-0.48283113,1.01519705
677,1747533054050,0.5308245149999999,-0.40391475,0.28579104,-0.75287567,-0.600010225,1.2756542
678,1747533054060,0.528261915,-0.488846675,0.2971397,-0.8751147699999999,-0.7451525,1.47565755
679,1747533054070,0.5315567,-0.54107493,0.3133695,-0.9219864,-0.82185155,1.5606124
680,1747533054080,0.65321925,-0.6939767649999999,0.44833317,-0.70680298,-0.879375825,1.5092134499999998
681,1747533054090,0.96329395,-0.8787281250000001,0.6552937350000001,-0.167512845,-0.852211575,1.13903405
682,1747533054100,1.30717055,-0.908747195,0.730097295,0.44634581,-0.712928225,0.4287689275
683,1747533054110,1.543418,-0.85444442,0.64431116,0.942492775,-0.59894492,-0.3989415475
684,1747533054120,1.6065068500000002,-0.7208230849999999,0.420022515,1.21546675,-0.460460555,-1.233576275
685,1747533054130,1.3325526,-0.421364845,0.1297164155,1.0306433350000002,-0.3779025649999999,-2.08339095
686,1747533054140,0.9161909,-0.1225167325,-0.033435842,0.560595425,-0.4269047299999999,-2.50923035
687,1747533054150,0.618929165,-0.0070776595,-0.01317909075,0.1422128,-0.54008908,-2.3020365
688,1747533054160,0.371455135,0.0226973239999999,0.06052619675,-0.2055960399999999,-0.6809703149999999,-1.82985805
689,1747533054170,0.155586488,-0.092497699,0.195245795,-0.427437365,-0.841558935,-1.09136342
690,1747533054180,0.058573743,-0.26480211,0.29323478,-0.35872781,-1.0396980999999998,0.02982738
691,1747533054190,0.120930375,-0.3870748,0.27468643,-0.0559263849999999,-1.2279836,0.94222635
692,1747533054200,0.2413726199999999,-0.49726665,0.1974423149999999,0.291349825,-1.35421745,1.34249945
693,1747533054210,0.30800024,-0.5474204,0.14692247,0.47830373,-1.4098775,1.5036207
694,1747533054220,0.37267542,-0.5519354750000001,0.0772441225,0.65007764,-1.4309164499999998,1.5752598
695,1747533054230,0.9823304,-0.368892515,-0.600136775,1.04555705,-1.7038905,1.1022824
696,1747533054240,1.1630548,-0.3058037449999999,-0.8472447000000001,0.864994725,-1.8367822,0.5978796749999999
697,1747533054250,1.28618175,-0.2866452499999999,-0.953775725,0.5978796749999999,-2.0237361,-0.055660075
698,1747533054260,1.40418345,-0.25613808,-0.812954725,0.49827745,-2.10416365,-0.74461985
699,1747533054270,1.48740695,-0.18682582,-0.63027785,0.6514092,-1.9675435,-1.1025486999999998
700,1747533054280,1.5202326,-0.11787965,-0.5929371,0.8327705000000001,-1.69510205,-1.13477295
701,1747533054290,1.55183805,-0.07187486,-0.589764365,0.908138,-1.5291871,-1.1291803
702,1747533054300,1.5648952,-0.05515694,-0.59086263,0.9187906,-1.1851068,-1.0727214
703,1747533054310,1.4590963,-0.0750476029999999,-0.451994,0.69162295,-0.6279734,-0.92278533
704,1747533054320,1.35781255,-0.095182328,-0.31947093,0.445813185,-0.17310548,-0.7339672150000001
705,1747533054330,1.2426175000000002,-0.13118077,-0.21159762,0.251402415,0.164317045,-0.555269085
706,1747533054340,1.1856301,-0.15400012,-0.16791138,0.20932446,0.23542345,-0.5028048
707,1747533054350,1.06762845,-0.20561824,-0.2109875,0.0484695334999999,0.37097834,-0.37763623
708,1747533054360,1.0255286,-0.21477039,-0.23746772,-0.019707393,0.40586576,-0.3392867
709,1747533054370,0.7844,-0.22831556,-0.1406989975,-0.43755738,0.406132075,-0.1523328199999999
710,1747533054380,0.7285109,-0.24112856,-0.102504045,-0.5139901,0.38083205,-0.10652645
711,1747533054390,0.64992446,-0.28725538,-0.04490653,-0.64075655,0.304133,0.017576864
712,1747533054400,0.595377665,-0.446136665,0.0562551975,-0.7187872,0.2695119099999999,0.360592015
713,1747533054410,0.5876899,-0.5379022,0.122272685,-0.7137272,0.22956449,0.5454154
714,1747533054420,0.62039352,-0.6423586750000001,0.1707180449999999,-0.52650696,0.201601295,0.7427556500000001
715,1747533054430,0.6728658350000001,-0.674208175,0.19915072,-0.360592005,0.17816548,0.817324165
716,1747533054440,0.783301765,-0.657978355,0.16900965,-0.200536025,0.166713885,0.8447547150000001
717,1747533054450,0.9013034,-0.61783093,0.087494523,-0.06444849835,0.1704423099999999,0.7725830300000001
718,1747533054460,0.954995985,-0.5941574000000001,0.0192805225,-0.0189084448499999,0.16458336,0.61146178
719,1747533054470,0.976229015,-0.5825647,-0.022331238,-0.0766990415,0.14141386,0.43116579
720,1747533054480,0.98233043,-0.5749989,-0.0195245795,-0.16458336,0.10146644,0.220243432
721,1747533054490,0.99917035,-0.55925718,0.035876413,-0.178698115,0.055660067,-0.0338221479999999
722,1747533054500,1.018817,-0.54314941,0.083589605,-0.091612745,0.0308926689999999,-0.217580265
723,1747533054510,1.022844,-0.53863436,0.08956901,-0.03781689,0.025033714,-0.26365295
724,1747533054520,1.0204034,-0.52960426,0.08566409,0.07563378,0.027164243,-0.31372038
725,1747533054530,0.978669535,-0.480792765,0.1004295575,0.2199770999999999,0.074302195,-0.26844664
726,1747533054540,0.98818785,-0.380973365,0.0325816415,0.29028455,0.2498044999999999,-0.103330649
727,1747533054550,1.01979325,-0.29604144,-0.061990541,0.288154035,0.437024735,0.072171666
728,1747533054560,1.0284572,-0.28213018,-0.09493827,0.25726137,0.48522797,0.11984225
729,1747533054570,1.0216237,-0.297383745,-0.180724385,0.0007989499999999,0.5667207000000001,0.245010825
730,1747533054580,1.0150341,-0.30970863,-0.20671648,-0.08468852,0.5683186,0.27324033
731,1747533054590,0.97500868,-0.347903595,-0.0961585559,-0.2380865999999999,0.50466902,0.301736145
732,1747533054600,0.95719251,-0.388051015,0.0205008091,-0.200536035,0.48869006,0.279099285
733,1747533054610,0.95560616,-0.423927435,0.0590618549999999,-0.0966727515,0.50733221,0.206661305
734,1747533054620,0.938278105,-0.45028561,0.08810467,-0.0039947414999999,0.521180635,0.0838895735
735,1747533054630,0.8695759750000001,-0.449553445,0.104212445,0.0500674299999999,0.48070057,-0.0383495185
736,1747533054640,0.8178358649999999,-0.42136484,0.077244115,0.1027980249999999,0.48762481,-0.030626351
737,1747533054650,0.816005435,-0.37511599,0.0506418765,0.14993598,0.585629125,0.131826476
738,1747533054660,0.80441269,-0.316420215,0.0351442425,0.15792546,0.694818725,0.361124655
739,1747533054670,0.8351639200000001,-0.26114124,-0.01879241,0.131560163,0.77737674,0.578438585
740,1747533054680,0.908869175,-0.26797485,-0.0665056035,-0.015978962,0.760332495,0.6820355499999999
741,1747533054690,0.950847025,-0.33484654,-0.0562551975,-0.220509735,0.720917705,0.618386025
742,1747533054700,0.9532876,-0.40037592,0.01915849,-0.36804886,0.72970614,0.439954225
743,1747533054710,0.929614,-0.457973435,0.1392346549999999,-0.4631237099999999,0.72304824,0.224238167
744,1747533054720,0.8804365000000001,-0.4992191149999999,0.239786245,-0.47750479,0.7012103249999999,0.00905475
745,1747533054730,0.7873286500000001,-0.50373417,0.28847566,-0.40506682,0.6463492,-0.130494892
746,1747533054740,0.7031289000000001,-0.49262956,0.29067217,-0.32037829,0.5518069999999999,-0.139283325
747,1747533054750,0.66615427,-0.50104954,0.2938449199999999,-0.25965821,0.46631954,-0.062850603
748,1747533054760,0.660052835,-0.5217944,0.3202030999999999,-0.2247708,0.43249738,-0.013315806
749,1747533054770,0.752550515,-0.5380242,0.34045985,-0.075101147,0.4428837,0.142212805
750,1747533054780,0.85737312,-0.5338752250000001,0.34021579,0.048203218,0.486026885,0.15845809
751,1747533054790,0.87909424,-0.52374685,0.33509058,0.11664646,0.509729,0.13582122
752,1747533054800,0.87226063,-0.503002,0.29067218,0.07350325,0.4910869,0.08575379
753,1747533054810,0.8468786500000001,-0.46175628,0.27017138,-0.0724379835,0.4735100399999999,0.025566347
754,1747533054820,0.838336575,-0.44857721,0.27529657,-0.149669655,0.466319515,-0.007989484
755,1747533054830,0.8368722500000001,-0.49079913,0.28371656,-0.205063405,0.4468784449999999,-0.056459015
756,1747533054840,0.84211953,-0.5493728499999999,0.3065359199999999,-0.2061286749999999,0.4287689449999999,-0.1073253899999999
757,1747533054850,0.85175978,-0.5824426,0.33094164,-0.1515338749999999,0.418648925,-0.161121245
758,1747533054860,0.8588374,-0.601113,0.33753118,-0.11611383,0.4101268,-0.19441076
759,1747533054870,0.88421935,-0.6213697,0.33704305,-0.016511599,0.4111921,-0.28442562
760,1747533054880,0.8389468,-0.575609,0.289573925,0.058589546,0.369646765,-0.40400155
761,1747533054890,0.75718765,-0.5123982,0.25272128,0.014114754,0.306263515,-0.40426786
762,1747533054900,0.7143556,-0.4766438149999999,0.25979894,-0.038615836,0.26418558,-0.300138265
763,1747533054910,0.6914142,-0.450773745,0.293234785,-0.059388492,0.246342405,-0.1486044
764,1747533054920,0.6850687,-0.43954712,0.3162982,-0.06018744,0.24394555,-0.06551377
765,1747533054930,0.76292293,-0.44064537,0.30092259,-0.0572579649999999,0.168844415,0.1667138875
766,1747533054940,0.795992705,-0.43393379,0.26675457,-0.1150485649999999,0.164583355,0.2870887749999999
767,1747533054950,0.80514485,-0.4275883,0.25430766,-0.15446335,0.19068234,0.31798145
768,1747533054960,0.76292294,-0.42587993,0.26943922,-0.2727077,0.19707392,0.39095205
769,1747533054970,0.662249325,-0.49824285,0.36303514,-0.43436157,0.108390655,0.5504753849999999
770,1747533054980,0.6216138,-0.55693865,0.428442495,-0.4282363,0.0079894824999999,0.64182183
771,1747533054990,0.6450432850000001,-0.6116075,0.4418656549999999,-0.3619235899999999,-0.1004011725,0.66019765
772,1747533055000,0.715941905,-0.669815125,0.4512618499999999,-0.27137611,-0.152599135,0.56938382
773,1747533055010,0.833943605,-0.716552075,0.4467468,-0.1376854284999999,-0.160854935,0.2908171699999999
774,1747533055020,0.913018135,-0.73583263,0.4375946699999999,-0.031691618,-0.140614905,-0.0295610899999999
775,1747533055030,0.9108216,-0.71520978,0.444062175,0.0066579025,-0.1283643649999999,-0.240483445
776,1747533055040,0.87348085,-0.68531275,0.456997185,0.024767398,-0.143544385,-0.398941535
777,1747533055050,0.82088653,-0.6688389,0.47310496,0.040213733,-0.1520665,-0.473243735
778,1747533055060,0.79538256,-0.6645679,0.4834774,0.051132694,-0.14913702,-0.49375007
779,1747533055070,0.6796994,-0.6565139799999999,0.553643865,0.1411475449999999,-0.228499235,-0.450606865
780,1747533055080,0.64955835,-0.65639195,0.5734125,0.1944107649999999,-0.292681415,-0.41412155
781,1747533055090,0.6205155499999999,-0.6504125700000001,0.58646957,0.24714135,-0.368315175,-0.37044571
782,1747533055100,0.61136338,-0.63284045,0.60489589,0.334493035,-0.4665858,-0.29321404
783,1747533055110,0.61770886,-0.6186851,0.61746484,0.396811,-0.5230448,-0.2396845
784,1747533055120,0.6455314,-0.6079466,0.6379657,0.5139901,-0.5800365,-0.1933455
785,1747533055130,0.63406075,-0.636013165,0.62344422,0.65194188,-0.6002765,-0.14620755
786,1747533055140,0.6365013,-0.647239815,0.58402899,0.680704,-0.5819007199999999,-0.114515935
787,1747533055150,0.637477535,-0.6484601000000001,0.56035542,0.6431534,-0.55873122,-0.09054748
788,1747533055160,0.61111936,-0.6280813199999999,0.559135135,0.500407975,-0.52357747,-0.0572579634999999
789,1747533055170,0.59061855,-0.60892284,0.56474847,0.39095205,-0.50333744,-0.033023197
790,1747533055180,0.567189025,-0.6051399399999999,0.577073365,0.335558295,-0.5571333199999999,-0.031691617
791,1747533055190,0.45772939,-0.650656625,0.733392,0.24474451,-0.92145375,-0.0055926385
792,1747533055200,0.457485325,-0.646141575,0.82357115,0.332895145,-1.0434264999999998,0.0436758425
793,1747533055210,0.47591165,-0.63186425,0.8305268,0.38722363,-1.0285128,0.068176925
794,1747533055220,0.530458425,-0.592937125,0.8103921000000001,0.469781615,-0.94435693,0.0692421905
795,1747533055230,0.62197988,-0.5464442199999999,0.777444365,0.552872235,-0.83703153,0.0149137045
796,1747533055240,0.70630166,-0.54961692,0.779030715,0.512125885,-0.7515440499999999,-0.2146507735
797,1747533055250,0.752672555,-0.5662128,0.812222515,0.4609932,-0.6436860499999999,-0.468982675
798,1747533055260,0.75169635,-0.5720702,0.83101493,0.4511395,-0.598146,-0.54914385
799,1747533055270,0.746205075,-0.55120327,0.834675785,0.43436158,-0.508131165,-0.74888093
800,1747533055280,0.7407138,-0.5422952,0.81832397,0.41545314,-0.48629323,-0.81066626
801,1747533055290,0.705203415,-0.5503490799999999,0.7571876,0.215716055,-0.27989823,-0.7840346499999999
802,1747533055300,0.709108335,-0.5752429299999999,0.7818374,0.076432725,-0.08815063,-0.67351345
803,1747533055310,0.71557585,-0.60355358,0.8252796250000001,0.04261058,-0.02876214,-0.6194513
804,1747533055320,0.716308,-0.62905755,0.879704425,0.0327568825,0.1861549699999999,-0.446345805
805,1747533055330,0.7405917,-0.6582224000000001,0.890076825,0.0660464,0.36938046,-0.310524585
806,1747533055340,0.77073278,-0.67506235,0.833577545,0.0575242835,0.52038169,-0.18775286
807,1747533055350,0.79477243,-0.6696931,0.76731602,-0.0591221765,0.6226470799999999,-0.0929443235
808,1747533055360,0.82796423,-0.66395775,0.7315616,-0.1438107,0.680704,-0.039947417
809,1747533055370,0.8650609300000001,-0.654683585,0.7242398800000001,-0.36032571,0.8143947,0.078030625
810,1747533055380,0.90032718,-0.648094035,0.71838251,-0.4799016299999999,0.92917695,0.168311785
811,1747533055390,0.90020513,-0.6527311,0.71581988,-0.62104917,1.10174975,0.340085675
812,1747533055400,0.87116235,-0.6600528,0.7309514500000001,-0.73343459,1.26979525,0.52810487
813,1747533055410,0.8571291,-0.6631035,0.7421781,-0.76059884,1.3225259,0.5944176
814,1747533055420,0.813930915,-0.70227472,0.7773223499999999,-0.7725830499999999,1.41200805,0.748348265
815,1747533055430,0.76804815,-0.74876765,0.7913556399999999,-0.712928225,1.43011745,0.788295685
816,1747533055440,0.72704655,-0.7822035,0.7790307249999999,-0.6418218250000001,1.42479115,0.75846827
817,1747533055450,0.6988579500000001,-0.781105225,0.7392494000000001,-0.61572285,1.4199975500000002,0.69135663
818,1747533055460,0.6828722,-0.77781045,0.7170402,-0.6066681,1.4215955,0.65513766
819,1747533055470,0.6160005,-0.7304633549999999,0.651998935,-0.6455502500000001,1.3547501,0.5584648999999999
820,1747533055480,0.56340615,-0.6906819799999999,0.623932365,-0.6910903150000001,1.3166669,0.54781225
821,1747533055490,0.516425125,-0.671035365,0.6203935300000001,-0.70813455,1.2594089,0.5949501850000001
822,1747533055500,0.476521775,-0.659808765,0.6229561,-0.6993461,1.2202604,0.62584287
823,1747533055510,0.4544346,-0.6496804,0.6218578,-0.6940198,1.1041466,0.70200926
824,1747533055520,0.43930307,-0.63186425,0.62356627,-0.69295454,0.90920323,0.7882957
825,1747533055530,0.548518665,-0.60355357,0.60855677,-0.70254192,0.61598917,0.79095885
826,1747533055540,0.622346,-0.5891542,0.59183884,-0.733434585,0.485227955,0.686562935
827,1747533055550,0.80709728,-0.57865975,0.54912885,-0.777110415,0.462857395,0.51905011
828,1747533055560,0.90947935,-0.58256465,0.55010505,-0.8066715,0.444481595,0.288686675
829,1747533055570,0.96988355,-0.59501155,0.56133167,-0.800279925,0.428502635,0.026897925
830,1747533055580,0.94413545,-0.6256407500000001,0.5900083700000001,-0.65913239,0.34940675,-0.321443575
831,1747533055590,0.82381525,-0.6241764000000001,0.6063601999999999,-0.456465825,0.227700285,-0.5454154
832,1747533055600,0.6931226,-0.564992535,0.5720702,-0.323840395,0.120907515,-0.495081635
833,1747533055610,0.6002588,-0.48274526,0.50776111,-0.24234766,0.024501079,-0.31984566
834,1747533055620,0.55486415,-0.32850106,0.368038325,-0.249804515,-0.026365296,-0.0431432149999999
835,1747533055630,0.55669457,-0.21269589,0.2178211,-0.49428271,-0.124369625,0.424507885
836,1747533055640,0.57329047,-0.23234249,0.1408210375,-0.85034734,-0.277767705,0.847684205
837,1747533055650,0.58207655,-0.317518475,0.1216625375,-1.11506557,-0.388821525,1.07458558
838,1747533055660,0.5627960249999999,-0.4827452399999999,0.254551715,-1.2855079,-0.44980792,1.2820458
839,1747533055670,0.536071745,-0.65126675,0.4122127,-1.1318435,-0.565921735,1.49296815
840,1747533055680,0.55132532,-0.74449663,0.453214305,-0.7518104000000001,-0.678307145,1.6042883
841,1747533055690,0.571338,-0.77561396,0.45907167,-0.5752428,-0.69135666,1.6016251
842,1747533055700,0.88019245,-0.835530045,0.50410026,0.0921453749999999,-0.5691175500000001,1.26739845
843,1747533055710,1.13364595,-0.855054575,0.468101815,0.33129725,-0.5209143,1.0769824
844,1747533055720,1.3601310999999998,-0.80001965,0.254307648,0.86872315,-0.428236325,0.1225054199999999
845,1747533055730,1.40186485,-0.690682035,0.0384390171,0.948351675,-0.40187103,-0.94062848
846,1747533055740,1.22272685,-0.5760971349999999,-0.0284326709,0.90281165,-0.41065946,-1.6405072
847,1747533055750,0.959877175,-0.44418419,-0.03123932975,0.4367584399999999,-0.43569316,-2.07433615
848,1747533055760,0.576219155,-0.34680535,0.06430908025,0.112385401,-0.52197957,-1.7558221
849,1747533055770,0.25711432,-0.3314297499999999,0.18865624,0.021571606,-0.6165218,-1.09189608
850,1747533055780,0.14033292,-0.36181487,0.285668985,0.14807176,-0.67138295,-0.467118465
851,1747533055790,0.11787965,-0.40074198,0.33923956,0.33795514,-0.74275565,0.13315805
852,1747533055800,0.238687985,-0.45699719,0.203665773,0.5153216700000001,-0.8122641349999999,0.619983885
853,1747533055810,0.34631723,-0.49055508,0.064919226,0.58909124,-0.84422207,0.8271778
854,1747533055820,0.58610348,-0.5181335300000001,-0.068580088,0.57284595,-0.845021035,1.08497185
855,1747533055830,0.7318056500000001,-0.5154489,-0.123126878,0.5608617499999999,-0.867125285,0.9017464
856,1747533055840,0.8168596,-0.5143506499999999,-0.237223645,0.5613944,-0.9187906,0.7765778
857,1747533055850,0.83760446,-0.5195979,-0.32166746,0.4990764,-1.1899004,0.41385525
858,1747533055860,0.8027043,-0.56523657,-0.4927516,0.2428803,-1.8322549,-0.34408042
859,1747533055870,0.813686845,-0.539366485,-0.397203165,0.271109805,-1.978995,-0.5528722500000001
860,1747533055880,0.82906246,-0.52399087,-0.37145513,0.41092576,-1.95316235,-0.5550028
861,1747533055890,0.8361401,-0.4502856,-0.36730617,0.4958806,-1.9094865,-0.531567
862,1747533055900,0.95499605,-0.3231317999999999,-0.4792064,0.649012365,-1.75076215,-0.3635215
863,1747533055910,1.0506665,-0.2689511,-0.55864704,0.6689861,-1.6927053,-0.29028457
864,1747533055920,1.2435937,-0.25784649,-0.5922049,0.564856475,-1.5470303,-0.2988066849999999
865,1747533055930,1.33999635,-0.28225221,-0.5592571749999999,0.471645815,-1.3885722500000002,-0.33422673
866,1747533055940,1.4298094,-0.32752481,-0.410016175,0.3709783399999999,-1.1941615,-0.4071973399999999
867,1747533055950,1.4763023,-0.35925224,-0.2882316,0.3222425,-1.0924287,-0.45220476
868,1747533055960,1.4977793,-0.3863426,-0.18645974,0.2860235,-0.5917544,-0.6535397
869,1747533055970,1.4588522,-0.377068445,-0.14972912,0.319579335,-0.3488741075,-0.7888283
870,1747533055980,1.3881976,-0.35437113,-0.18975451,0.320111975,0.002929475,-0.978978
871,1747533055990,1.189657,-0.3248402,-0.1941475449999999,0.1153148815,0.2857571825,-1.0815097
872,1747533056000,0.93168853,-0.30604778,-0.1426514625,-0.1400822735,0.5025385,-1.07804765
873,1747533056010,0.74986588,-0.30372923,-0.0721189174999999,-0.28415929,0.57124805,-0.91772535
874,1747533056020,0.61917322,-0.31263732,0.0107385179999999,-0.3805657249999999,0.5890912500000001,-0.659398675
875,1747533056030,0.54400362,-0.3640113699999999,0.0586957679999999,-0.4364921,0.56379123,-0.335824605
876,1747533056040,0.5368039,-0.4386928799999999,0.0650412549999999,-0.47217845,0.4974784999999999,0.1475391199999999
877,1747533056050,0.57194813,-0.5030019800000001,0.07687803,-0.4777711,0.4181163,0.55260595
878,1747533056060,0.59159476,-0.5366819,0.08932495,-0.42690474,0.343281465,0.70653665
879,1747533056070,0.6734759699999999,-0.62271205,0.168399505,-0.32703619,0.270044535,0.74328825
880,1747533056080,0.7917217,-0.6879973500000001,0.215868635,-0.202932875,0.20506341,0.64341973
881,1747533056090,0.9032559,-0.72460597,0.21965152,-0.03435478,0.1059938149999999,0.330498295
882,1747533056100,0.96341602,-0.714111535,0.1961,0.114782245,0.0410126799999999,-0.0101200149999999
883,1747533056110,0.99087244,-0.70264083,0.18645974,0.1603223,0.03888215,-0.11664646
884,1747533056120,1.03797545,-0.63686738,0.17242644,0.29241509,0.094275905,-0.348874105
885,1747533056130,1.0545713,-0.54693228,0.11629328,0.364320435,0.20106867,-0.4713795199999999
886,1747533056140,1.07067905,-0.462244435,0.0390491605,0.364320435,0.33609094,-0.52331118
887,1747533056150,1.07165535,-0.428564515,0.0009762295,0.29028456,0.4372910599999999,-0.48869009
888,1747533056160,1.06762845,-0.4084297799999999,-0.012690976,0.20666131,0.5305017,-0.41385524
889,1747533056170,1.06506585,-0.38683073,-0.007443745515,0.1398159669999999,0.62664183,-0.314253015
890,1747533056180,1.0609169,-0.361082705,-0.002196515265,0.089482214,0.73290196,-0.18429075
891,1747533056190,1.0504224,-0.349978105,-0.01488749225,0.0418116289999999,0.79229045,-0.103330648
892,1747533056200,1.0240642,-0.35229663,-0.025259925,-0.0205063399999999,0.79255677,-0.0940095854999999
893,1747533056210,0.98965217,-0.345707085,-0.0169619784,-0.099335907,0.807470475,-0.0830906255
894,1747533056220,0.93205467,-0.337165085,0.0031727441,-0.189883385,0.83836314,-0.046871635
895,1747533056230,0.873358875,-0.3470494,0.0220871815,-0.3222425,0.836498915,0.072970618
896,1747533056240,0.842973725,-0.3737736849999999,0.0451505915,-0.42903526,0.792823075,0.23329292
897,1747533056250,0.8266219,-0.401230115,0.075535718,-0.44980791,0.751011475,0.3813646699999999
898,1747533056260,0.83662825,-0.421364845,0.089691038,-0.4463458,0.7344999,0.4596616
899,1747533056270,0.8727487,-0.439791165,0.07895252,-0.368581505,0.739293525,0.6500776500000001
900,1747533056280,0.930834325,-0.463098625,0.042221905,-0.313187745,0.801078855,0.7166566999999999
901,1747533056290,0.9750087,-0.4804267,0.004026945,-0.29374666,0.88949583,0.70121035
902,1747533056300,0.960975375,-0.489090725,-0.010372433,-0.34328146,0.96406435,0.6048039000000001
903,1747533056310,0.9386441,-0.4932397,-0.013667206,-0.38562572,1.0045444,0.5422196
904,1747533056320,0.8439499,-0.4966565,0.049543623,-0.46924898,1.0407634,0.4415521
905,1747533056330,0.721555225,-0.504588355,0.157783005,-0.576574385,0.9092032,0.3179814549999999
906,1747533056340,0.6584664200000001,-0.528505955,0.197198255,-0.615989165,0.75926725,0.272974025
907,1747533056350,0.6258848,-0.55864704,0.23990828,-0.5872269999999999,0.6588660749999999,0.30200247
908,1747533056360,0.59903851,-0.58817797,0.27322209,-0.50893007,0.569916475,0.379234135
909,1747533056370,0.6055060299999999,-0.6002588,0.253209395,-0.33875409,0.48576057,0.546480665
910,1747533056380,0.6612731199999999,-0.5929371,0.201957365,-0.1808286399999999,0.45699845,0.715857725
911,1747533056390,0.72826682,-0.580124085,0.15729489,-0.14407702,0.5030711299999999,0.790692525
912,1747533056400,0.75657745,-0.564260335,0.12800803,-0.17789917,0.5701828,0.82424835
913,1747533056410,0.7575537,-0.5547421,0.1210524,-0.20879184,0.6045376,0.8346347
914,1747533056420,0.729853185,-0.592937085,0.2124518349999999,-0.3701794,0.694019795,0.8045409649999999
915,1747533056430,0.7602383349999999,-0.65236505,0.32935525,-0.40400155,0.633033395,0.5483448799999999
916,1747533056440,0.76975657,-0.6958072,0.366696015,-0.36085833,0.51372379,0.19441077
917,1747533056450,0.74107982,-0.7198468,0.386464665,-0.31052459,0.466319515,-0.05566007
918,1747533056460,0.7197248,-0.7241178,0.3968371,-0.28708878,0.45593318,-0.17310548
919,1747533056470,0.501171565,-0.64553142,0.374383825,-0.207193935,0.306529855,-0.284159295
920,1747533056480,0.427222215,-0.6095329700000001,0.38390206,-0.173105475,0.20612867,-0.1419464915
921,1747533056490,0.40940603,-0.58427305,0.3981793999999999,-0.132625423,0.15739282,0.0492684785
922,1747533056500,0.4629765799999999,-0.5853713,0.3774345249999999,-0.0617853369999999,0.140082275,0.28256139
923,1747533056510,0.52423497,-0.6013570349999999,0.3432665,-0.018642128,0.13954964,0.41598576
924,1747533056520,0.53887844,-0.60697037,0.33265,-0.02609898,0.12410331,0.4628574
925,1747533056530,0.57487685,-0.6147802,0.315566015,-0.0790958865,-0.0047936904999999,0.3965446999999999
926,1747533056540,0.5734125000000001,-0.6131938,0.3162982,-0.125434895,-0.1206411964999999,0.3001382649999999
927,1747533056550,0.5892762,-0.6228340800000001,0.3365549599999999,-0.14913703,-0.3046656399999999,0.11371698
928,1747533056560,0.6202715,-0.6491922800000001,0.35193056,-0.15233282,-0.476173225,-0.076965355
929,1747533056570,0.650778635,-0.683726375,0.3721873,-0.1424791249999999,-0.540089075,-0.188551805
930,1747533056580,0.677868985,-0.710450625,0.417948035,-0.09773802,-0.54168695,-0.269245585
931,1747533056590,0.682018,-0.7243619,0.46846789,-0.0175768665,-0.518783775,-0.320910915
932,1747533056600,0.6710354000000001,-0.7192367,0.4870162449999999,0.1057274985,-0.52544171,-0.392283635
933,1747533056610,0.663103515,-0.7016645699999999,0.46822384,0.18642128,-0.584830185,-0.471113205
934,1747533056620,0.643945065,-0.688851595,0.442841885,0.16165388,-0.67750815,-0.506799565
935,1747533056630,0.6253967,-0.68201801,0.45004156,0.11930962,-0.75527245,-0.506266935
936,1747533056640,0.6501685,-0.6833603100000001,0.506296725,0.1379517499999999,-0.80320938,-0.49188587
937,1747533056650,0.7255822300000001,-0.6944648950000001,0.56950755,0.28282771,-0.85647261,-0.495880615
938,1747533056660,0.80819558,-0.699101985,0.58317475,0.43356263,-0.8910937,-0.511326935
939,1747533056670,0.8582273,-0.679577415,0.54937285,0.47990164,-0.8791095,-0.51825115
940,1747533056680,0.8751893,-0.6645679,0.5276518,0.48948902,-0.86499476,-0.51931643
941,1747533056690,0.83272329,-0.62136977,0.4978768,0.356330965,-0.9169264,-0.512658535
942,1747533056700,0.7043492250000001,-0.60855675,0.505564575,0.201334985,-1.0567423,-0.44101949
943,1747533056710,0.580856265,-0.606970385,0.547298375,0.12996226,-1.1763182,-0.277235075
944,1747533056720,0.509469505,-0.6063602349999999,0.623200185,0.152332815,-1.24982145,-0.0601874374999999
945,1747533056730,0.51679122,-0.6084347,0.6987358850000001,0.286023505,-1.2556804,0.1464738625
946,1747533056740,0.6366233299999999,-0.65517168,0.6428467849999999,0.48975534,-1.24316355,0.315318275
947,1747533056750,0.7570656,-0.72887698,0.528505955,0.57071545,-1.2274509500000002,0.3829625749999999
948,1747533056760,0.7941623,-0.7769562299999999,0.5021477700000001,0.4929511399999999,-1.1832425,0.35100465
949,1747533056770,0.7987994,-0.79904343,0.52069615,0.404534175,-1.1400993,0.3012035349999999
950,1747533056780,0.7897693,-0.8022162,0.5374141,0.36325517,-1.1265172,0.27537087
951,1747533056790,0.6954411199999999,-0.758285875,0.5850052299999999,0.264185575,-1.1321098,0.23062976
952,1747533056800,0.69959009,-0.7566995000000001,0.6014790999999999,0.22583606,-1.1342403,0.160322302
953,1747533056810,0.70984052,-0.7652415,0.6205155499999999,0.2066613,-1.1198592500000002,0.063649551
954,1747533056820,0.739737525,-0.77353945,0.6570020999999999,0.22583606,-1.05860655,-0.023702131
955,1747533056830,0.790745475,-0.785986375,0.71179297,0.2908172,-0.96752645,-0.126500155
956,1747533056840,0.819788285,-0.78671855,0.7383952199999999,0.42663841,-0.7568703999999999,-0.304931955
957,1747533056850,0.8150291350000001,-0.7638992,0.71850455,0.53209957,-0.514522715,-0.4969458599999999
958,1747533056860,0.7922098,-0.73290393,0.68885155,0.5475459,-0.43196473,-0.56618804
959,1747533056870,0.74510675,-0.709352405,0.6591986,0.492684825,-0.24580977,-0.746217715
960,1747533056880,0.6544395000000001,-0.695929275,0.6761606,0.419181575,-0.103596966,-0.76246302
961,1747533056890,0.568043265,-0.69165827,0.721067125,0.376038365,0.0266316139999999,-0.70147667
962,1747533056900,0.514594715,-0.6884855000000001,0.7274126249999999,0.36804888,0.090281165,-0.5882923
963,1747533056910,0.4876264,-0.68409246,0.7192367,0.35899413,0.11717909,-0.5209143
964,1747533056920,0.450651705,-0.66310355,0.7137454,0.28975193,0.229298165,-0.296942465
965,1747533056930,0.4693221,-0.653585315,0.714233525,0.22716764,0.357396215,-0.1107875022
966,1747533056940,0.5100796750000001,-0.64809403,0.692756505,0.15606124,0.49082058,0.0442084728
967,1747533056950,0.54144103,-0.6462635999999999,0.6585885,0.075633776,0.57284595,0.1177117199999999
968,1747533056960,0.56499253,-0.6493143,0.630277845,0.026631612,0.6114618,0.15073492
969,1747533056970,0.5826866749999999,-0.651998925,0.609532955,-0.159523352,0.70307455,0.216248685
970,1747533056980,0.61282775,-0.650412575,0.58598143,-0.3422161999999999,0.76059885,0.280963495
971,1747533056990,0.6483380750000001,-0.6556598,0.57329045,-0.505734295,0.802676775,0.36139096
972,1747533057000,0.66993715,-0.67298787,0.5760971500000001,-0.5864280799999999,0.8343683749999999,0.436225785
973,1747533057010,0.6782351,-0.68336034,0.5774395,-0.6215818,0.8543421,0.47564057
974,1747533057020,0.69287854,-0.7136234,0.58085626,-0.6759103,0.9108011,0.545948
975,1747533057030,0.69800371,-0.8008738799999999,0.6122176,-0.7004114,1.023719115,0.576574375
976,1747533057040,0.6912921750000001,-0.81197846,0.59147275,-0.7009440499999999,1.0684602,0.5422195999999999
977,1747533057050,0.683116265,-0.80246023,0.57011775,-0.71186298,1.0841729,0.5017395499999999
978,1747533057060,0.66871685,-0.7797629,0.5521795199999999,-0.7337009,1.0761834499999998,0.4546016
979,1747533057070,0.652853135,-0.7614586000000001,0.533265055,-0.76539252,1.05114975,0.40080574
980,1747533057080,0.635159,-0.75950615,0.523258715,-0.8213189000000001,1.0239855,0.32650354
981,1747533057090,0.6245425,-0.763167,0.52252656,-0.8591358,1.0114686,0.2796319
982,1747533057100,0.6245425,-0.763167,0.52252656,-0.8591358,1.0114686,0.2796319
983,1747533057110,0.59537765,-0.77781045,0.5368039,-0.8865663500000001,0.93157375,0.2434129199999999
984,1747533057120,0.509103415,-0.80807352,0.6253967,-0.81039995,0.7467504,0.293214035
985,1747533057130,0.56181975,-0.7718310349999999,0.6379656499999999,-0.60027653,0.670051365,0.3810983599999999
986,1747533057140,0.6829941749999999,-0.734124215,0.58720175,-0.41545313,0.606135485,0.4066647
987,1747533057150,0.786230425,-0.72948713,0.519231815,-0.39734365,0.565389095,0.31451933
988,1747533057160,0.856885,-0.72680248,0.478230175,-0.48948905,0.51825115,0.05219796
989,1747533057170,0.8696980000000001,-0.7099625300000001,0.4583395099999999,-0.61891867,0.4522047649999999,-0.23409187
990,1747533057180,0.8539563,-0.6999562,0.4458926,-0.67005134,0.40959418,-0.3254383
991,1747533057190,0.67896725,-0.6400401,0.43210335,-0.8130630999999999,0.307595105,-0.275903495
992,1747533057200,0.5627960000000001,-0.5915947500000001,0.450041565,-0.8942895200000001,0.2018676099999999,-0.102265392
993,1747533057210,0.514960775,-0.58854403,0.541074885,-0.82158522,0.1001348599999999,0.302535103
994,1747533057220,0.52472305,-0.60916686,0.6230781,-0.7137272,0.06711166,0.5917544
995,1747533057230,0.91814335,-0.688851565,0.689705785,-0.1978728699999999,0.1784318,0.60187442
996,1747533057240,1.1114367,-0.7299752150000001,0.567799215,0.03621899,0.2612561049999999,0.388821525
997,1747533057250,1.1951483,-0.7487676,0.49641246,0.11717909,0.32011196,0.23808661
998,1747533057260,1.2675113,-0.6498024,0.28652321,-0.014381075,0.43116578,-0.66365975
999,1747533057270,1.2229708,-0.6128277,0.25333142,-0.13422333,0.4282363,-1.0476876
1000,1747533057280,1.063845525,-0.54778648,0.2294138049999999,-0.308926695,0.38775625,-1.15394775
1001,1747533057290,0.8097819749999999,-0.484697715,0.21586863,-0.55154068,0.302268785,-1.1848404499999998
