timestamp,acc_x,acc_y,acc_z,gyro_x,gyro_y,gyro_z,id
1747533236610,0.454312575,0.349612015,0.7585299000000001,0.45859634,-0.52650697,0.0098536958,1
1747533236620,0.43173727,0.30409533,0.9200958,0.80800307,-1.1052119,-0.0031957934,2
1747533236630,0.393298255,0.33643292,0.91716712,0.996554915,-0.837564175,-0.385093105,3
1747533236640,0.3360668249999999,0.3576658849999999,0.91155382,1.10201605,-0.790159915,-0.47004795,4
1747533236650,0.3056816999999999,0.354493135,0.88470753,1.07911285,-0.8399610150000001,-0.381364675,5
1747533236660,0.2933568,0.3526627,0.87030816,1.051416,-0.8745821,-0.32384038,6
1747533236670,0.28383857,0.35656762,0.85566473,0.95447695,-0.984837,-0.18588865,7
1747533236680,0.31166111,0.335822775,0.823693215,0.766191455,-1.1267834,-0.0002663154999999,8
1747533236690,0.3397277,0.32410803,0.81441903,0.68656296,-1.158475,0.058056913,9
1747533236700,0.36669602,0.29201449,0.77842055,0.616788125,-0.9962886,-0.0082558,10
1747533236710,0.3585201,0.2796896,0.7663397,0.59867865,-0.9406285,-0.041012682,11
1747533236720,0.31947094,0.28701133,0.78684056,0.62317973,-0.9576728,-0.08628642,12
1747533236730,0.30092257,0.32728076,0.81368685,0.72304825,-1.2341089,-0.0055926365,13
1747533236740,0.31703037,0.35949633,0.8334555,0.7590009,-1.3358417,0.03781689,14
1747533236750,0.42185296,0.4323474,0.82601172,0.7129282299999999,-1.56407455,0.23622239,15
1747533236760,0.47334906,0.45211604,0.857006995,0.671649245,-1.56753665,0.2775013899999999,16
1747533236770,0.5020258,0.45638704,0.87299275,0.64235449,-1.48524495,0.290284575,17
1747533236780,0.5599893499999999,0.42746627,0.8966663500000001,0.650610275,-1.23384255,0.2282329249999999,18
1747533236790,0.5595012500000001,0.42429353,0.90850312,0.7086671499999999,-0.97897803,0.1182443599999999,19
1747533236800,0.51996397,0.45358039,0.8997170649999999,0.7491472,-0.903610555,0.0498011125,20
1747533236810,0.49763274,0.47127452,0.88934463,0.7520767,-0.90014845,0.029827405,21
1747533236820,0.4807928,0.4756676,0.8756774,0.6849651,-0.9709886,0.007456851,22
1747533236830,0.5238689,0.4828672699999999,0.962683775,0.5965481,-1.0418286,0.0058589545,23
1747533236840,0.5725583,0.48738232,1.0411482,0.62531024,-1.0258497,0.01438107,24
1747533236850,0.605506,0.47810817,1.0736078,0.72491246,-0.87564737,0.00479369,25
1747533236860,0.626495,0.50031734,1.0794652,0.78776306,-0.644485,-0.015446335,26
1747533236870,0.63284045,0.545712,1.0948408,0.7526093,-0.44581318,-0.03834952,27
1747533236880,0.6067263,0.5767073,1.1153417,0.60560286,-0.34621096,-0.051132694,28
1747533236890,0.615512385,0.778542565,1.24652245,0.38296258,-0.3254383,-0.03781689,29
1747533236900,0.6072144349999999,0.86676927,1.61883175,-1.07644972,-0.42477420385,0.151533865,30
1747533236910,0.56474847,0.78806084,1.9326893,-0.98856544,-0.85487473,0.19600865,31
1747533236920,0.48909074,0.5261874,1.3928347,-0.62584287,-0.7797736,0.28122982,32
1747533236930,0.6548056,0.3184947,1.3039979,-0.27856666,-0.26684874,0.099069595,33
1747533236940,0.6660322,0.42075467,1.1580516,0.0053263223,0.027696876,-0.20240025,34
1747533236950,0.61087532,0.426978175,1.0593305,0.01997371,0.6183860299999999,-0.52144695,35
1747533236960,0.5767073,0.449919535,1.0585983,-0.05352954,0.6178534,-0.39574575,36
1747533236970,0.5747548,0.47078642,1.0736078,-0.06870956,0.5816344,-0.2711098,37
1747533236980,0.5935472,0.5264315,1.039928,-0.14753912,0.63702816,-0.14327806,38
1747533236990,0.6240544,0.5588911,0.9869675,-0.3552657,0.7121293,-0.08362326,39
1747533237000,0.618319025,0.59842835,0.93425115,-0.806138885,0.7587346150000001,-0.100667493,40
1747533237010,0.6042857,0.6033095,0.9237567,-0.9683254,0.75154406,-0.10918961,41
1747533237020,0.53082454,0.55815893,1.0577441,-1.401888,0.44368264,0.03089267,42
1747533237030,0.5797579900000001,0.50080547,1.11985675,-1.35182055,0.30120352,0.19361181,43
1747533237040,0.60038084,0.48006064,1.1243718,-1.303351,0.304133,0.24554345,44
1747533237050,0.6560259,0.4556549,1.1324255,-1.1952267,0.42024684,0.26631612,45
1747533237060,0.68140787,0.43637437,1.1150976,-1.0125339,0.74941355,0.17789917,46
1747533237070,0.68604493,0.43295756,1.1033828,-0.95447695,0.9241169,0.118776985,47
1747533237080,0.69239044,0.41636166,1.1063116,-0.8878979,1.1211908,0.049002163,48
1747533237090,0.64638565,0.4041588,1.07141135,-0.8005462,1.3443637,-0.036751624,49
1747533237100,0.5474204149999999,0.414653275,1.0379755,-0.7520767,1.5893745,-0.12357068,50
1747533237110,0.45602098,0.434910025,1.01954915,-0.8093346699999999,1.46500495,-0.0162452825,51
1747533237120,0.41733789,0.44015726,0.9967298,-0.908404265,1.3382385,0.1078580225,52
1747533237130,0.404768925,0.4444282499999999,0.992824885,-1.030643315,1.2029499,0.22716764,53
1747533237140,0.419534415,0.4482111399999999,1.013325685,-1.1366371,1.0817760500000002,0.32330777,54
1747533237150,0.488114515,0.425513825,1.0417583499999998,-1.2170646,1.0905645000000002,0.33475936,55
1747533237160,0.5418071,0.40391475,1.0565238,-1.252751,1.149953,0.30786142,56
1747533237170,0.6037976,0.3824377,1.1067996,-1.1696603,1.3145363,0.16618125,57
1747533237180,0.602577335,0.35107635,1.09959995,-0.964596965,1.7390442,-0.0394147855,58
1747533237190,0.5316786849999999,0.35290679,1.05127655,-0.89588743,1.8903117,-0.101200126,59
1747533237200,0.44430619,0.36889253,0.9959976,-0.8213189000000001,2.1393174000000004,-0.19307918,60
1747533237210,0.41562948,0.3743838,0.9781815,-0.8516789,2.1528995,-0.18801917,61
1747533237220,0.37194324,0.37828872,0.9752528,-0.92038846,2.0618193,-0.1257012,62
1747533237230,0.35461518,0.36974674,0.9711038,-0.9890981,1.969674,-0.05219796,63
1747533237240,0.358520105,0.361936895,0.96573452,-1.02185495,1.95422765,-0.0162452835,64
1747533237250,0.361326775,0.35290678,0.94816241,-1.1020161,1.9648803,0.07190535,65
1747533237260,0.328256995,0.364865585,0.92021783,-1.2713931,1.9534287,0.10626013,66
1747533237270,0.30141069,0.353638965,0.907404825,-1.41014385,1.91001915,0.13901701,67
1747533237280,0.2923805849999999,0.32984339,0.921194105,-1.51294185,1.9038939,0.161387565,68
1747533237290,0.30726808,0.29787187,0.96439223,-1.4982944,1.9917782,0.1414138575,69
1747533237300,0.3376532049999999,0.27407628,1.00990885,-1.39576275,2.14091515,0.0844222075,70
1747533237310,0.35119838,0.2677308,1.019183,-1.3358417,2.2178805,0.05006743,71
1747533237320,0.29140437,0.25211114,1.0069802,-1.1416972,2.5036378,-0.046871636,72
1747533237330,0.31434575,0.22672918,0.98111016,-1.05940555,2.57128215,-0.10705908,73
1747533237340,0.144359865,0.235759305,0.90691675,-1.0687266,2.5190842,-0.06258428885,74
1747533237350,0.137282205,0.245399565,0.92607525,-1.1094729,2.4394556,0.03089266965,75
1747533237360,0.13349932,0.24991462,0.9408407,-1.117995,2.4090955,0.056459017,76
1747533237370,0.14277348,0.260165,0.9545079,-1.1132014,2.3883228,0.05539375,77
1747533237380,0.17059602,0.26480213,0.93986446,-1.1068097,2.418683,-0.020772656,78
1747533237390,0.069800372,0.15924735,0.75401487,-1.25860995,2.5640916,-0.211987625,79
1747533237400,0.018060237,0.109825762,0.727778725,-1.3515543,2.63280105,-0.2037318249999999,80
1747533237410,-0.020744866,0.088348724,0.72655845,-1.397627,2.6573021,-0.18908444,81
1747533237420,-0.102504045,0.06711575,0.7294871,-1.4668691,2.6477149,-0.11451593,82
1747533237430,-0.1212964525,0.0684580575,0.78208142,-1.4756576,2.52441045,0.028229508,83
1747533237440,-0.1027480995,0.0793186055,0.86530497,-1.3451627,2.4463799,0.090813793,84
1747533237450,-0.082735404,0.090789296,0.92082804,-1.2373047,2.4208136,0.104928546,85
1747533237460,-0.02391761,0.102992155,0.94913864,-1.0950918,2.4905882,-0.009054748,86
1747533237470,-0.014399378,0.10860548,0.9113098,-0.984837,2.6146915,-0.17310548,87
1747533237480,-0.1003075294999999,0.073461231,0.789769225,-0.93796533,2.7569044,-0.3334278,88
1747533237490,-0.22685121,0.0422219035,0.68384837,-1.0708571,2.86715935,-0.5243764,89
1747533237500,-0.319592965,0.0181822645,0.60221122,-1.2085425,2.77607915,-0.4908206,90
1747533237510,-0.3568117,0.003172744,0.5613316,-1.2895026,2.7126958,-0.4607269,91
1747533237520,-0.42636803,-0.01513155,0.51520485,-1.5297197,2.4570324,-0.29933932,92
1747533237530,-0.455166775,-0.0213550095,0.6552937050000001,-1.79949795,2.1185447,0.1163801425,93
1747533237540,-0.38524435,-0.0345340995,0.755357185,-1.87140335,1.9358518,0.35127094,94
1747533237550,-0.3210573,-0.0521062215,0.7552351749999999,-1.8093517,1.9105518,0.37071202,95
1747533237560,-0.2894519,-0.06296677,0.75169635,-1.7614148,1.9313245,0.35260254,96
1747533237570,-0.22892569,-0.09786696,0.74461865,-1.6170714,2.0905814,0.18748654,97
1747533237580,-0.21989559,-0.10714114,0.7082541,-1.4562165,2.2876554,-0.034088463,98
1747533237590,-0.302875035,-0.105188675,0.6617611999999999,-1.31373735,2.4964472,-0.2292981815,99
1747533237600,-0.42319524,-0.101283755,0.58293072,-1.1712582,2.705239,-0.4245079,100
1747533237610,-0.460536,-0.0993313,0.55059314,-1.2277173,2.610963,-0.40373522,101
1747533237620,-0.5383903,-0.12398108,0.44882128,-1.4506239,2.41335665,-0.284958255,102
1747533237630,-0.58768985,-0.21769907,0.29774983,-1.6413062,2.2801986,-0.189883385,103
1747533237640,-0.5959878,-0.24991462,0.260165,-1.7406421,2.2077606,-0.14327806,104
1747533237650,-0.6529751850000001,-0.360106455,0.1477766549999999,-2.06634675,1.96061925,0.09081379,105
1747533237660,-0.6657882,-0.38512233,0.12739788,-2.1033647,1.8993665,0.13848437,106
1747533237670,-0.7081321300000001,-0.468589915,0.043198131,-1.96647825,1.8346517,0.203998135,107
1747533237680,-0.75047606,-0.5520575,-0.041001618,-1.8295918,1.7699369,0.2695119,108
1747533237690,-0.7580418,-0.6382096850000001,-0.078708465,-1.3901701000000002,1.73664735,0.07376956165,109
1747533237700,-0.7678041,-0.65993077,-0.09322987,-1.2181299,1.7337179,-0.0063915867,110
1747533237710,-0.81149036,-0.69165826,-0.15155955,-0.509729,1.5313177,-0.2657835,111
1747533237720,-1.0636015,-0.68653303,-0.32069123,-0.21518342,1.3827133,-0.24181503,112
1747533237730,-1.1327917,-0.6850687,-0.303241145,0.020772656,1.1531488,-0.1486044,113
1747533237740,-1.12644625,-0.6688389,-0.296407535,0.272974,0.68416612,-0.01304949,114
1747533237750,-1.10618945,-0.6450433200000001,-0.311172995,0.3392867,0.53742594,0.020772656,115
1747533237760,-1.0972813,-0.63308454,-0.32215557,0.43196473,0.20932446,0.06498113,116
1747533237770,-1.0716554,-0.63381666,-0.28627914,0.50813115,-0.30626354,0.13315806,117
1747533237780,-1.0545714,-0.6145361,-0.18914436,0.57098174,-0.53742594,0.15925704,118
1747533237790,-0.97000555,-0.57353453,-0.013545178,0.770186185,-0.855939975,0.144609655,119
1747533237800,-0.859691675,-0.543149415,0.122272682,1.10121717,-1.060737125,0.0524642779999999,120
1747533237810,-0.78586435,-0.52789587,0.19793043,1.3454291,-1.171791,-0.025033714,121
1747533237820,-0.7563334,-0.4966565,0.22306833,1.6042882,-1.2096078,-0.11824436,122
1747533237830,-0.7429102750000001,-0.462976585,0.24210479,1.9156118,-1.26020785,-0.207726565,123
1747533237840,-0.73607665,-0.45394647,0.24552159,1.9712719,-1.28897,-0.22370553,124
1747533237850,-0.74242216,-0.45760733,0.23966423,1.9995013,-1.4056164,-0.21358553,125
1747533237860,-0.8122225,-0.47762007,0.20647243,1.903095,-1.7214674,0.017044231,126
1747533237870,-0.81173441,-0.47273889,0.22526484,1.7981664,-2.01468145,0.344080415,127
1747533237880,-0.80563295,-0.469078,0.23527117,1.76248,-2.1198764,0.4660532,128
1747533237890,-0.79538256,-0.50617474,0.26504618,1.7012273,-2.326005,0.7302388,129
1747533237900,-0.6701812199999999,-0.5270416149999999,0.35839806,1.6873789,-2.492719,1.0066749,130
1747533237910,-0.5623079,-0.51496077,0.4217309,1.9659456,-2.415487,1.3347764,131
1747533237920,-0.37828872,-0.4300289,0.5645044,2.25623,-2.233327,1.2186625,132
1747533237930,-0.266998635,-0.249304495,0.713379355,2.8192223,-1.90149705,0.861532615,133
1747533237940,-0.2923805849999999,-0.139966835,0.751574285,3.18087955,-1.71134735,0.602140725,134
1747533237950,-0.3184947,-0.09640261,0.7512082,3.349724,-1.6165388,0.47137952,135
1747533237960,-0.528384,-0.034168016,0.5933032,3.6336172,-1.5403724,0.27856666,136
1747533237970,-0.6731099,-0.021721095,0.554254,3.5718317,-1.7337179,0.48363006,137
1747533237980,-0.7297312,-0.053204484,0.54790854,3.4376085,-1.9393139,0.8580705,138
1747533237990,-0.65151083,0.0035388329999999,0.72350773,3.3398703000000003,-2.4005735,1.67592725,139
1747533238000,-0.536925935,0.082003235,0.889588665,3.5646411,-2.7686224,2.3268039,140
1747533238010,-0.49568027,0.08566409,0.9235126,3.7758298,-2.9427931,2.6429212,141
1747533238020,-0.459559785,0.109581705,0.91753323,3.9044604,-2.9350699,2.692456,142
1747533238030,-0.37316352,0.19793043,0.861278,4.231763,-2.8889973,2.748915,143
1747533238040,-0.136916115,0.24869434,0.48774843,4.15959135,-2.67727585,2.25729535,144
1747533238050,-0.069800374,0.27907947,0.356567655,3.83149005,-2.3805997000000003,1.8232001,145
1747533238060,-0.032703668,0.2809099,0.32044718,3.6607814,-2.2466428,1.6911073,146
1747533238070,0.010738519,0.26577836,0.29726174,3.1622376,-1.8865833,1.3539511,147
1747533238080,-0.011714748,0.37804466,0.3904916,2.8538435,-1.8658108,1.1755193,148
1747533238090,-0.32947728,0.59464547,0.666398335,2.6762105,-2.11028895,1.37179425,149
1747533238100,-0.402206345,0.6382097,0.6988579349999999,2.6567695,-2.44158615,1.7334516,150
1747533238110,-0.40147418,0.6467517,0.707766,2.650378,-2.5305357,1.8817897,151
1747533238120,-0.35681169,0.6606629500000001,0.6910480999999999,2.63439905,-2.63626325,2.046373,152
1747533238130,-0.0899351049999999,0.591350665,0.5983063200000001,2.37340915,-2.6959181,2.6708842,153
1747533238140,0.1625421249999999,0.523258725,0.59135072,2.25729535,-2.55370525,2.7087011,154
1747533238150,0.31532197,0.454678675,0.66188325,2.391785,-2.3856597500000003,2.3896545,155
1747533238160,0.4002539,0.4253918,0.7243619,2.509763,-2.340386,2.1736722,156
1747533238170,0.4424758,0.4527262,0.7197248,2.7846012,-2.1683457,1.6245283,157
1747533238180,0.38878322,0.47493544,0.68482465,3.0748858,-2.1528995,1.1100056,158
1747533238190,0.04368624775,0.5920828499999999,0.5544981,3.53108535,-2.21575015,0.5542038300000001,159
1747533238200,-0.03441207125,0.6893396700000001,0.50092751,3.58647905,-2.28499225,0.622380765,160
1747533238210,-0.058573738,0.75438094,0.46785772,3.5952675,-2.3414512,0.69348717,161
1747533238220,-0.087616555,0.89007676,0.39537275,3.5185685,-2.4905882,0.94329166,162
1747533238230,0.0955484085,0.90288977,0.33618885,3.0690269,-2.61495795,1.5907061,163
1747533238240,0.308610385,0.8865379499999999,0.3222776,2.6956517,-2.5244105,2.02799715,164
1747533238250,0.432347425,0.8765316,0.3730415,2.6019084,-2.4564998,2.1161478,165
1747533238260,0.4825012,0.8617661,0.4127008,2.4991105,-2.2434468,2.1038973,166
1747533238270,0.47762007,0.84663457,0.46444094,2.4948494,-2.091114,1.9707392,167
1747533238280,0.47762007,0.84663457,0.46444094,2.4948494,-2.091114,1.9707392,168
1747533238290,0.401718245,0.82418132,0.48274522,2.6639601,-2.184591,1.78937795,169
1747533238300,0.3521746,0.7809832,0.44271985,3.448261,-2.4799356,1.2548815,170
1747533238310,0.42270714,0.8712844,0.3184947,3.7199035,-2.470881,1.170193,171
1747533238320,0.491043165,1.022843915,0.2020794,3.9808933,-2.4868599,1.25994155,172
1747533238330,0.534851435,1.08019735,0.1248352829999999,3.965447,-2.48579465,1.427987,173
1747533238340,0.5547421,1.074584,0.111046046,3.87223625,-2.4727452,1.5933693,174
1747533238350,0.60770255,1.04188035,0.0508859365,3.80059725,-2.45889675,1.665541,175
1747533238360,0.6233222,1.0306537,0.057109397,3.774232,-2.4431841,1.6873789,176
1747533238370,0.575487,0.9989263,0.07590181,3.7752972,-2.535862,1.6745957,177
1747533238380,0.50788313,0.8848295500000001,0.0557670814999999,4.1260355,-2.8567729,1.4876418,178
1747533238390,0.5474204149999999,0.8437059250000001,0.03636453,4.59954565,-3.0959249,1.2879047,179
1747533238400,0.5869577,0.8561529,0.018304294,4.9468219,-3.105246,1.09029815,180
1747533238410,0.6339387000000001,0.891175075,-0.12751991,5.16360305,-3.0764837500000004,0.7475493,181
1747533238420,0.5603554500000001,0.84358387,-0.255161845,5.1936968,-3.0687605,0.447943675,182
1747533238430,0.45931574,0.784155935,-0.333992335,5.1042147,-3.0325415,0.33422671,183
1747533238440,0.40147418,0.75291663,-0.36218095,4.9678609,-3.0288131,0.2958772,184
1747533238450,0.2934788299999999,0.6637136800000001,-0.4590716649999999,4.8243165,-3.04692265,0.313187765,185
1747533238460,0.28554696,0.6433349,-0.50641876,4.7553406,-3.0477216,0.330232,186
1747533238470,0.36096066,0.7568215,-0.6867771,4.352138,-3.0045784,0.35739622,187
1747533238480,0.36510964,0.794894465,-0.77683422,4.065582,-3.0029805,0.36591834,188
1747533238490,0.3865866799999999,0.759018075,-0.8013619700000001,3.71537605,-2.948652,0.3845604649999999,189
1747533238500,0.400864035,0.674940325,-0.7607264499999999,3.5718317,-2.69911385,0.4759069099999999,190
1747533238510,0.40123013,0.6152683,-0.7148437,3.5132422,-2.5092304,0.55553544,191
1747533238520,0.4036707,0.56474847,-0.7299752,3.4716969,-2.1523669,0.6791061,192
1747533238530,0.386830745,0.49629042,-0.693244585,3.4370759,-1.7539579,0.84209156,193
1747533238540,0.38780697,0.5258213700000001,-0.708742235,3.45838105,-1.4636734,1.1800467,194
1747533238550,0.406233285,0.618441075,-0.793430125,3.44852735,-1.3587448,1.345429,195
1747533238560,0.41172457,0.66066295,-0.83833665,3.4226947,-1.3166668,1.4066817,196
1747533238570,0.47737598,0.5781716,-1.0011228,3.3044503,-1.4093449,1.3475596,197
1747533238580,0.5972081,0.5347294,-1.1905112,2.94226035,-1.3630059,1.08896657,198
1747533238590,0.7084982,0.5503491,-1.2127205,2.786199,-1.3534185,0.98377174,199
1747533238600,0.52033,0.60819066,-0.97427654,2.5379925,-1.3273195,0.8772453,200
1747533238610,0.41001618,0.6360132,-0.85956967,2.6786075,-0.8580705,1.2953615,201
1747533238620,0.410382255,0.623200175,-0.845780435,2.7912592,-0.67191555,1.5012239,202
1747533238630,0.636135225,0.5321668049999999,-1.02076945,3.0684943,-0.113983296,2.060754,203
1747533238640,0.829306545,0.514594675,-1.142432,3.0493195,0.23222765,2.058091,204
1747533238650,0.90801502,0.5180114849999999,-1.17086465,2.5973811,0.204264453,1.4924355,205
1747533238660,0.8657931,0.49421591,-1.1363305499999998,2.191249,-0.113716982,0.9816412,206
1747533238670,0.8656710249999999,0.450407655,-1.1362085,1.9608855,-0.397609975,0.6692524,207
1747533238680,0.928271725,0.40452489,-1.2038123,1.65195885,-0.492951135,0.170708635,208
1747533238690,0.9723241,0.38170552,-1.2461562,1.4460965,-0.47244477,-0.17417073,209
1747533238700,0.9178993,0.45370242,-1.2986286,1.171791,-0.39254996,-0.4250405,210
1747533238710,0.83833665,0.48518583,-1.325475,0.7653925,-0.20293288,-0.60293967,211
1747533238720,0.74876763,0.4953142,-1.37208985,0.183491807,0.142212809,-0.67910612,212
1747533238730,0.73973751,0.473104985,-1.35805655,-0.194144443,0.36378782,-0.73157037,213
1747533238740,0.7116709299999999,0.453336345,-1.31315005,-0.37230992,0.46658584,-0.7653925,214
1747533238750,0.6782351,0.44442827,-1.2856936,-1.0167949,0.66845345,-0.9667275,215
1747533238760,0.5623079,0.45248213,-1.1841658,-1.222391,0.50600064,-0.984837,216
1747533238770,0.47127452,0.45077375,-1.0618931,-1.2655342,0.27696875,-0.9214538,217
1747533238780,0.485307825,0.460902115,-1.0390737,-1.1784488,-0.06524745,-0.75420723,218
1747533238790,0.563284125,0.4844536149999999,-1.19673465,-1.25328365,-0.0130494899999999,-0.69135663,219
1747533238800,0.61624455,0.5027579,-1.3306,-1.3571469,0.13315806,-0.680704,220
1747533238810,0.63918597,0.46810177,-1.411139,-1.6016251,0.42237735,-0.74941355,221
1747533238820,0.60989904,0.47127452,-1.3647681,-1.8594191,0.6194513,-0.8048073,222
1747533238830,0.5491288000000001,0.4745693199999999,-1.2540882,-2.17686795,0.7898936,-0.883104225,223
1747533238840,0.543027385,0.48054871,-1.20344625,-2.2748723,0.81705785,-0.91346425,224
1747533238850,0.5487627100000001,0.50202575,-1.18355555,-2.6434537,0.42211105,-1.195493,225
1747533238860,0.54888475,0.5108118,-1.168302,-2.7047064,0.314253,-1.2692626,226
1747533238870,0.50617474,0.48152497,-1.1199788,-2.7499802,0.070307456,-1.4093449,227
1747533238880,0.47005424,0.4834774,-1.0174747,-2.68926,-0.041012682,-1.4876418,228
1747533238890,0.48274526,0.5435155,-0.9396204,-2.449043,-0.096406433,-1.5912388,229
1747533238900,0.49494812,0.72485003,-0.98342865,-2.3076291,0.0063915849999999,-1.62612625,230
1747533238910,0.48909074,0.7485236,-1.0079564,-2.30656385,0.150734918,-1.6058862,231
1747533238920,0.46248847,0.7660957,-1.103871,-2.3281355,0.21837921,-1.5899072,232
1747533238930,0.36364532,0.6977597,-1.2647047,-2.4873924,0.30306774,-1.5707325,233
1747533238940,0.3499781,0.6770148,-1.2488409,-3.103648,0.2396845,-1.4871092,234
1747533238950,0.384268125,0.7025188,-1.1868504,-3.3952642,0.25912558,-1.51746925,235
1747533238960,0.439913175,0.737419,-1.0886173499999998,-3.7545246,0.29640983,-1.59390195,236
1747533238970,0.4612682,0.7468152,-1.0523748,-3.87436675,0.3406183,-1.69776525,237
1747533238980,0.495924325,0.76694993,-1.0013669,-4.00566055,0.33742251,-1.8168086,238
1747533238990,0.448943315,0.78915913,-0.94791835,-4.1153829,0.34221621,-1.903095,239
1747533239000,0.37023485,0.8135648200000001,-0.8947138699999999,-4.180097699999999,0.37444046,-1.93238975,240
1747533239010,0.33045352,0.82393724,-0.86103404,-4.214186,0.37230992,-1.9366508,241
1747533239020,0.28042176,0.827354,-0.86615914,-4.283428,0.33129725,-1.8887138,242
1747533239030,0.28335047,0.8417535,-0.8988628,-4.391553,0.257794,-1.8173412,243
1747533239040,0.28090988,0.85261395,-0.829794645,-4.633900499999999,0.0098536929999999,-1.45461855,244
1747533239050,0.292502595,0.890442835,-0.7830576650000001,-4.59448565,0.280164553,-1.36886485,245
1747533239060,0.30946457,0.90496427,-0.7592621,-4.5587993,0.45540056,-1.3454291,246
1747533239070,0.39830142,0.93522733,-0.6875093,-4.4922204,0.6945524,-1.3763217,247
1747533239080,0.456509085,0.8880023,-0.815761325,-4.561995,0.8117315,-1.4839134,248
1747533239090,0.429418725,0.6998341699999999,-0.8535902,-5.38650965,1.00827285,-2.2066953,249
1747533239100,0.3989115749999999,0.58744577,-0.7296091499999999,-5.72100265,0.9217201,-2.58486425,250
1747533239110,0.4075756,0.5649925,-0.6313761,-5.866944,0.8543421,-2.7920582,251
1747533239120,0.39146784,0.673598,-0.05515694,-5.4014235,0.21678132,-3.2298818,252
1747533239130,0.114218795,0.71276917,0.125689485,-4.6070025,0.0271642455,-2.92867825,253
1747533239140,-0.0030507169999999,0.813564835,0.169131675,-4.075435499999999,-0.030626353,-2.5547705,254
1747533239150,-0.061502425,0.897276465,0.08066092025,-3.67622765,-0.0162452823999999,-2.1521005,255
1747533239160,-0.0550349079999999,0.911431765,-0.15290186475,-3.54227065,0.1315601661,-1.65302405,256
1747533239170,-0.02757847,0.89300543,-0.30043447,-3.562777,0.2625877,-1.3560816,257
1747533239180,0.0491775345,0.87543335,-0.39781332,-3.93215755,0.620516555,-1.2695289,258
1747533239190,0.0113486615,0.8051448699999999,-0.36401139,-4.24241565,0.76059884,-1.29935625,259
1747533239200,-0.027334413,0.74486274,-0.3265486,-4.387824,0.77391464,-1.3182647,260
1747533239210,-0.06931226,0.4656612,-0.067847915,-4.656271,0.41705105,-1.2634037,261
1747533239220,-0.0134231495,0.53863436,0.17913802,-4.4309673,0.31957933,-1.1867046,262
1747533239230,-0.028798756,0.6931225999999999,0.370967015,-3.8898131,0.30173616,-1.00933805,263
1747533239240,-0.0429540765,0.69373275,0.299092165,-3.59553385,0.26205505,-0.80693785,264
1747533239250,-0.040269446,0.6796995,0.2135501,-3.5491948,0.239151865,-0.652474485,265
1747533239260,-0.019280521,0.6355251,0.042221904,-3.6218991,0.22264028,-0.62584287,266
1747533239270,0.042832046,0.55278964,-0.2499146099999999,-4.0799627,0.267914,-0.67537767,267
1747533239280,0.06809197,0.48738232,-0.3863426,-4.5066013,0.86392945,-0.8863,268
1747533239290,0.038561042,0.2638259,-0.1461903,-4.8394966,1.0945592,-1.1691277,269
1747533239300,-0.05771954,0.0811490365,0.46834585,-4.9204564,0.80587256,-1.4162691,270
1747533239310,-0.03099527,0.061014313,0.50690687,-4.4741106,0.8266452,-1.9393139,271
1747533239320,-0.054912884,0.07199689,0.605506,-4.2626557,0.8905611,-2.0714068,272
1747533239330,-0.088348724,0.19426957,0.5171573,-4.204599,0.9395633,-2.137453,273
1747533239340,-0.12398108,0.29042813,0.3248402,-4.303136,1.0615361,-2.1672804,274
1747533239350,-0.18060236,0.22209209,0.25308737,-4.5396247,1.1233214,-2.117213,275
1747533239360,-0.18963248,0.17498904,0.31825066,-4.830974,1.1419635,-2.141714,276
1747533239370,-0.28505887,0.0019524604999999,0.5383902700000001,-4.74921515,0.86259785,-2.19204795,277
1747533239380,-0.3593743,-0.100795643,0.6659102,-4.53483085,0.44501422,-2.18858585,278
1747533239390,-0.4950701199999999,-0.232220465,0.88129075,-3.98542075,0.107591708,-1.99417505,279
1747533239400,-0.631254065,-0.291526375,1.05908645,-3.38967145,-0.001597897,-1.6474315000000002,280
1747533239410,-0.674574265,-0.246619855,0.9895301,-3.2043154,-0.03089267,-1.4817829,281
1747533239420,-0.660052875,-0.17096211,0.76365515,-2.9648973,-0.013848439,-0.95980325,282
1747533239430,-0.610387205,-0.148874925,0.54705435,-3.0708912,-0.07696536,-0.66978505,283
1747533239440,-0.58036816,-0.17059602,0.4651731,-3.171825,-0.11132014,-0.5629923,284
1747533239450,-0.37755656,-0.2523552,0.5662128,-3.510579,-0.08628642,-0.5454154,285
1747533239460,-0.2975058,-0.30555966,0.7353445,-3.4844801,-0.3073288,-0.73290193,286
1747533239470,-0.31361356,-0.39464056,0.8947139,-3.2410672,-0.5411543,-0.9038769,287
1747533239480,-0.35022214,-0.42197496,0.9896521,-2.8932583,-0.5161206,-0.99762017,288
1747533239490,-0.39268813,-0.5645044,0.96304995,-2.6003106,-0.4564658,-0.984837,289
1747533239500,-0.49982923,-0.6628595,0.95011485,-2.1624868,0.022903185,-0.72917354,290
1747533239510,-0.49006698,-0.7390053,1.155123,-1.897236,0.053263225,-0.6317018,291
1747533239520,-0.486528125,-0.77000061,1.1408456,-1.3499564,0.095074851,-0.5347627749999999,292
1747533239530,-0.48787044,-0.814663115,1.0610389,-0.8322378800000001,0.1406149079999999,-0.381364675,293
1747533239540,-0.5095915200000001,-0.8710403449999999,0.99001825,-0.348607795,0.17630127,-0.2018676099999999,294
1747533239550,-0.536681875,-0.922780485,0.92888185,-0.0426105799999999,0.15126756,-0.0625842875,295
1747533239560,-0.5525456049999999,-1.00246517,0.8950799,0.11025487,0.13901702,0.010652645,296
1747533239570,-0.55620646,-1.048714,0.9010593,0.61252705,0.07536746,0.184024435,297
1747533239580,-0.5358277,-1.10887415,0.9988043,1.25381625,0.02769687615,0.339286725,298
1747533239590,-0.5530337,-1.09691535,1.0478598,1.91880765,-0.0069242188499999,0.5052016500000001,299
1747533239600,-0.5646264249999999,-1.028457265,1.031508,2.31801545,-0.033023198,0.62397863,300
1747533239610,-0.56645685,-0.98403883,1.0130817,2.6815369,-0.040213733,0.7456851,301
1747533239620,-0.54717635,-0.8078295,0.912163935,2.9971216,-0.08016115,0.86925577,302
1747533239630,-0.5383903,-0.7412019,0.88031447,3.141465,-0.12676647,0.9310411,303
1747533239640,-0.43576419,-0.3350905899999999,0.6263729499999999,3.5262916,-0.31052458,1.17152455,304
1747533239650,-0.388051015,-0.182676855,0.510323715,3.5092474,-0.364853085,1.24316365,305
1747533239660,-0.36510965,-0.10982577,0.44857723,3.4669032,-0.39521313,1.274589,306
1747533239670,-0.30165476,0.013667206,0.32044718,3.0879353,-0.48070061,1.2500878000000002,307
1747533239680,-0.24796216,0.021965152,0.33265,2.88473615,-0.53902383,1.1688614,308
1747533239690,-0.21208574,0.0046370877,0.464685,2.8005803,-0.56459016,1.1185277,309
1747533239700,-0.29933621,0.056499255,0.8214967,2.96036995,-0.5912218,0.96939067,310
1747533239710,-0.31727442,0.07590181,0.8766537,3.0637007,-0.5992113,0.9779128,311
1747533239720,-0.31727442,0.10958171,0.9266854,3.3502567,-0.5289038,1.0189254,312
1747533239730,-0.215502565,0.329721335,0.72167725,3.6493298,-0.45433529,0.9353022,313
1747533239740,-0.1394787175,0.49775477,0.48469765,3.600594,-0.473776375,0.7898936000000001,314
1747533239750,-0.111290105,0.53643787,0.4080637,3.518036,-0.47670585,0.737163,315
1747533239760,-0.13764828,0.61941725,0.3219115,3.2591765,-0.4250405,0.7073356,316
1747533239770,-0.19793043,0.6379657,0.32093528,2.7726171,-0.44448159,0.8111988800000001,317
1747533239780,-0.2806658,0.58891016,0.3321619,2.43572715,-0.4988101,1.02638233,318
1747533239790,-0.3826817799999999,0.329843375,0.73302595,2.33186385,-0.569650185,1.2868395,319
1747533239800,-0.348757825,0.258334595,0.9216822,2.5614284,-0.569383835,1.47139655,320
1747533239810,-0.33142975,0.22965786,1.0038075,2.7260118,-0.535828,1.556884,321
1747533239820,-0.21257387,0.24088451,1.0545714,3.145726,-0.46711847,1.6437031,322
1747533239830,-0.10592085,0.5774394350000001,0.56279605,3.47755575,-0.51026166,1.5219966,323
1747533239840,-0.06296677,0.776590135,0.24698594,3.305782,-0.58775965,1.31427,324
1747533239850,-0.023551523,0.8273540349999999,0.096890728,2.9510488500000003,-0.6945524249999999,1.097755,325
1747533239860,-0.008297946,0.8412653,0.042954076,2.7377295,-0.74941355,0.9784454,326
1747533239870,0.0517401329999999,0.7154538500000001,0.4290526249999999,2.0780647,-0.851412595,0.409594165,327
1747533239880,0.0492995605,0.666642375,0.6213697499999999,2.2157501,-0.703074525,0.266049805,328
1747533239890,-0.0019524575,0.636745325,0.7208231,2.5289378,-0.5089300999999999,0.25326664,329
1747533239900,-0.114096765,0.6910480750000001,0.65626995,2.96809315,-0.33928673,0.4383563499999999,330
1747533239910,-0.19109683,0.76072645,0.5618198,3.2692966,-0.27057716,0.6889597999999999,331
1747533239920,-0.18877828,0.8428517,0.4041588,3.3358756,-0.2833603449999999,0.864994725,332
1747533239930,-0.17157225,0.8700641,0.34582913,3.3438652,-0.29614353,0.94488955,333
1747533239940,-0.11202228,0.90374404,0.25040275,3.2770197,-0.405066805,1.0450243499999998,334
1747533239950,0.0482013055149999,0.90520833,0.218675305,3.24692605,-0.47537425,0.9875001,335
1747533239960,0.108605475,0.95475198,0.1807244,3.2069787,-0.47990162,0.76912092,336
1747533239970,0.101283757,0.992946895,0.1065309899999999,3.08234275,-0.47430899,0.5166532699999999,337
1747533239980,0.067481827,0.973056195,0.0534485365,2.9885995,-0.49215218,0.4261058,338
1747533239990,0.0200126934999999,0.94926063,0.035998443,2.7401265,-0.51905009,0.267914005,339
1747533240000,-0.0574754794999999,0.89263938,0.1594914164999999,2.68206955,-0.460460545,0.27457192,340
1747533240010,-0.111900248,0.83040478,0.341314065,2.8085698,-0.3571299049999999,0.36964678,341
1747533240020,-0.118611825,0.83235722,0.371821225,3.02694905,-0.247940305,0.48975535,342
1747533240030,-0.11617125,0.84858704,0.34045988,3.1366713,-0.18588865,0.5550028,343
1747533240040,-0.108117364,0.8851956,0.19671014,3.3039177,-0.09347696,0.7909589,344
1747533240050,-0.0460047905,0.8128326800000001,0.135939885,3.4357442,0.006391585,0.9475528,345
1747533240060,-0.0257480395,0.753770815,0.198174485,3.6594497,0.086286425,0.994690735,346
1747533240070,-0.0247718104999999,0.7176503000000001,0.187924085,3.9025962,0.0553937539999999,0.926247435,347
1747533240080,-0.0106164902499999,0.72765665,0.0850539555,4.02883,0.023435818,0.8863,348
1747533240090,0.01879240775,0.81429702,-0.1908527795,4.1561295000000005,-0.1792307475,0.68283452,349
1747533240100,0.0247718104999999,0.92851582,-0.486894225,3.9689091,-0.29401299,0.52677329,350
1747533240110,0.014399378,0.9784255,-0.5789038,3.8301582,-0.32863408,0.47723848,351
1747533240120,-0.0036608591,1.0139358,-0.65504965,3.2344092,-0.442351065,0.47058058,352
1747533240130,0.0026846298,1.0201592,-0.65675807,3.0290794,-0.4841627,0.4857606,353
1747533240140,-0.0103724325,0.9286378,-0.43246943,2.5462485,-0.444481595,0.666855545,354
1747533240150,-0.006833603,0.80941587,-0.19548986,2.6128275,-0.362722545,0.846885235,355
1747533240160,0.014643434,0.77805454,-0.14497001,2.728675,-0.31318775,0.90654004,356
1747533240170,0.035876416,0.76975656,-0.13716017,3.0290794,-0.24820662,1.0135992,357
1747533240180,0.067847915,0.77659017,-0.21843125,3.3321471,-0.20879184,1.0950918,358
1747533240190,0.226241065,0.869698,-0.4069654649999999,3.77529725,-0.246608715,0.974717,359
1747533240200,0.309220535,0.96109742,-0.5856153799999999,3.93535315,-0.280963495,0.7076019,360
1747533240210,0.2965295599999999,1.00746827,-0.7121590499999999,3.8040593,-0.35499938,0.40266995,361
1747533240220,0.22233615,1.0407821,-0.86835565,3.48448,-0.49801114,0.12623384,362
1747533240230,0.123492965,0.961707585,-1.0036854,3.053048,-0.64182183,-0.023435817,363
1747533240240,0.07919658,0.852613985,-0.971591885,2.5491779,-0.767789335,-0.0106526445,364
1747533240250,0.06321083,0.8190561199999999,-0.745472835,2.3262713,-0.811997835,0.1443433325,365
1747533240260,0.0423439335,0.8092938350000001,-0.5239909,2.5228126,-0.73476615,0.350205695,366
1747533240270,0.0462488484999999,0.807463415,-0.3947625999999999,2.88420355,-0.60640175,0.572047025,367
1747533240280,0.06284474,0.82186275,-0.479328435,3.2642367,-0.488423735,0.7648599,368
1747533240290,0.151071435,0.849197135,-0.70605761,3.47569165,-0.463390035,0.92118745,369
1747533240300,0.2306341,0.86371857,-0.80563295,3.5169706,-0.4910869,0.9933591,370
1747533240310,0.33533466,0.9386441,-0.95572823,3.2836776,-0.5139901,0.81705785,371
1747533240320,0.3349685799999999,0.937301875,-1.01112915,2.74678445,-0.5539375200000001,0.46285741,372
1747533240330,0.32410803,0.91375035,-1.0162543,2.5662222,-0.5683186,0.34887412,373
1747533240340,0.0879826324999999,0.7474253200000001,-0.8557867800000001,2.1571605,-0.67644295,0.278832965,374
1747533240350,0.071020655,0.7153318,-0.8246695,2.1497037,-0.67324716,0.32011196,375
1747533240360,0.0471030495,0.6490702500000001,-0.79489447,2.31215645,-0.6045375850000001,0.555801725,376
1747533240370,0.051618108,0.63418277,-0.82918455,2.41708505,-0.5350291,0.700145075,377
1747533240380,0.10543273,0.64187059,-0.8899547999999999,2.42267775,-0.47857007,0.76885463,378
1747533240390,0.175721215,0.68677707,-0.94328125,2.344647,-0.45886267,0.7467503799999999,379
1747533240400,0.205008085,0.7684142,-1.0023431,2.188852,-0.4380900199999999,0.64874605,380
1747533240410,0.20647243,0.8139309,-1.0418804,2.086853,-0.41545314,0.5917544,381
1747533240420,0.18560554,0.871772475,-1.15976,1.3022858,-0.283360345,0.389886795,382
1747533240430,0.182798875,0.823327125,-1.1842878,0.6367617999999999,-0.24980451,0.22210764,383
1747533240440,0.196832165,0.7530386499999999,-1.1537807,0.2958772,-0.2820287649999999,0.0362189875,384
1747533240450,0.18414119,0.68336028,-1.0312639,0.188551815,-0.4343615899999999,-0.1219727824999999,385
1747533240460,0.16498269,0.65138876,-0.9449896,0.326769875,-0.6410229000000001,-0.192546555,386
1747533240470,0.1215405075,0.6386978000000001,-0.811978465,0.549410135,-0.7419567,-0.218645535,387
1747533240480,0.0883487225,0.724239865,-0.811978465,0.773115675,-0.594417565,-0.1286306865,388
1747533240490,0.050275791,0.838702735,-0.865671065,0.89695267,-0.286822455,0.0665790235,389
1747533240500,0.005613316,0.91972974,-0.9344952,0.88922952,-0.03355583,0.294012985,390
1747533240510,-0.01513155,0.96036524,-0.9686632,0.83197157,0.12463594,0.511060615,391
1747533240520,0.0336799,1.061649,-1.15134005,0.79202414,0.17949706,0.6034723,392
1747533240530,0.13508569,1.0628693,-1.23078065,0.3203782725,0.117445406,0.6277070499999999,393
1747533240540,0.275296565,0.9812322,-1.2338314,-0.0042610575,0.0037284255,0.483630035,394
1747533240550,0.33265,0.9232686,-1.219066,-0.08362326,-0.017044231,0.39468047,395
1747533240560,0.42905265,0.7898913000000001,-1.20649695,-0.404534175,-0.166713895,-0.27909929,396
1747533240570,0.3840241,0.779640865,-1.1386490500000002,-0.628772345,-0.2844256149999999,-0.48442903,397
1747533240580,0.305437655,0.8152731950000001,-1.0727536,-0.67457872,-0.32490566,-0.5749765,398
1747533240590,0.246131735,0.85078356,-1.05969655,-0.69934612,-0.32117724,-0.572047,399
1747533240600,0.1926832,0.902279645,-1.0665302,-0.71106404,-0.29933932,-0.5523396,400
1747533240610,0.1699858699999999,0.930834315,-1.0831261,-0.96592855,-0.0026631599999999,-0.206927625,401
1747533240620,0.19024262,0.922292315,-1.091424,-1.015197,0.08522116,-0.13635385,402
1747533240630,0.21013329,0.911797865,-1.0881292,-1.1068098,0.23515713,-0.06498113165,403
1747533240640,0.219895585,0.88763623,-1.087275,-1.25301735,0.3965446999999999,-0.00479368965,404
1747533240650,0.22233616,0.86982006,-1.0889834,-1.35741325,0.394414175,-0.057257963,405
1747533240660,0.21672285,0.7914777,-1.1028948,-1.4072144,0.38083205,-0.09853696,406
1747533240670,0.21672285,0.7914777,-1.1028948,-1.4072144,0.38083205,-0.09853696,407
1747533240680,0.21403821,0.78928117,-1.0949629,-1.4820492,0.301736165,-0.24101608,408
1747533240690,0.160711695,0.825279565,-1.0792212,-1.80828635,0.1235706799999999,-0.7123956,409
1747533240700,0.0993313,0.85542065,-1.0814177,-1.865278,0.11664646,-0.7339672,410
1747533240710,0.041489733,0.8972765,-1.0834922,-2.1552963,0.116380143,-0.59468388,411
1747533240720,0.027822526,0.9198518,-1.0838583,-2.214152,0.101200126,-0.5475459,412
1747533240730,0.00353883025,0.9620737,-1.0967933,-2.41335665,0.067377975,-0.42317631,413
1747533240740,0.02452775325,0.94535577,-1.11094865,-2.5249431,0.16165388,-0.38935416,414
1747533240750,0.05051985,0.93205464,-1.0958171,-2.5747442,0.22050974,-0.3850931,415
1747533240760,0.11592719,0.93888825,-1.0182068,-2.7361317,0.22849922,-0.4676511,416
1747533240770,0.141431185,0.9324207,-0.9517012,-2.7454528500000004,0.25672873,-0.6034723200000001,417
1747533240780,0.14741059,0.9371798,-0.9342511,-2.74651815,0.210389725,-0.6828345499999999,418
1747533240790,0.143017545,0.95633835,-0.91802135,-2.75796975,0.15819177,-0.737962,419
1747533240800,0.14008886,0.96256185,-0.91155386,-2.7670245,0.13635385,-0.7595336,420
1747533240810,0.097134784,1.0179628,-0.91497064,-2.8836708,0.16298546,-0.7568704,421
1747533240820,0.044662475,1.065798,-0.8906869,-2.973153,0.20133498,-0.68816084,422
1747533240830,0.025870068,1.08873935,-0.8937376349999999,-3.1691618000000004,0.1893507549999999,-0.54381751,423
1747533240840,0.010372433,1.07019105,-0.939620405,-3.3662357500000004,0.16724652,-0.4434163399999999,424
1747533240850,0.027944555,0.9613415,-0.92278042,-3.63734555,0.13422332,-0.352868855,425
1747533240860,0.05588911,0.8788501,-0.8676235,-3.7907436,0.10279802,-0.31318775,426
1747533240870,0.17901599,0.8882464,-0.768048175,-3.8061899,0.18935075,-0.423975255,427
1747533240880,0.21745501,0.9159469,-0.73510045,-3.7875478,0.24394555,-0.48842376,428
1747533240890,0.1557085275,1.00954277,-0.68982783,-3.7766289,0.395745755,-0.8010788499999999,429
1747533240900,0.110801995,1.0250404,-0.68360436,-3.8136468,0.40533313,-0.948618,430
1747533240910,0.010006347015,0.99184868,-0.77683423,-4.086887,0.222906595,-1.04582335,431
1747533240920,0.002684629515,0.96732088,-0.75840793,-4.339088500000001,0.0881506375,-1.07298765,432
1747533240930,0.006345488,0.9525554,-0.7304634,-4.456534,0.029827405,-1.0769824,433
1747533240940,-0.0407575595,0.850539505,-0.381827575,-4.597415,0.031158986,-0.8450210499999999,434
1747533240950,-0.029286869,0.84150934,-0.31556603,-4.5742455,0.05219796,-0.7866978,435
1747533240960,-0.016107777,0.8607899,-0.24088451,-4.4107275,0.11504856,-0.6801714,436
1747533240970,0.0405135015,0.8427297,-0.246009705,-4.19554435,0.30732879,-0.59095545,437
1747533240980,0.067847915,0.806365175,-0.296041445,-4.142281049999999,0.4679174,-0.6032059750000001,438
1747533240990,0.06504126,0.7808611750000001,-0.337043065,-4.3004727,0.601341785,-0.7102650749999999,439
1747533241000,0.06418706,0.7844,-0.34729347,-4.459197,0.65460503,-0.7978831,440
1747533241010,0.004026945,0.8118564349999999,-0.35717779,-4.6514773,0.63436496,-0.8942895,441
1747533241020,-0.012690976,0.8053889,-0.35095432,-4.836301,0.6641924,-0.98750013,442
1747533241030,0.0319715,0.7470592,-0.18377511,-5.03204295,0.64421868,-1.1299793,443
1747533241040,0.0319715,0.7470592,-0.18377511,-5.0791807,0.61891866,-1.1723236,444
1747533241050,-0.0010982574999999,0.568531365,0.063454885,-4.939098550000001,0.56751962,-1.1358383,445
1747533241060,-0.027822526,0.54912883,0.102504045,-4.7984836,0.56698702,-1.07804765,446
1747533241070,-0.11336459,0.5195979,0.15509838,-4.62164975,0.50307116,-0.94302535,447
1747533241080,-0.13032657,0.5349735,0.15668476,-4.519917,0.44794372,-0.8426242,448
1747533241090,-0.232708575,0.5718261250000001,0.14460392,-4.30553275,0.432763695,-0.7060040249999999,449
1747533241100,-0.20354374,0.5396106,0.14289552,-4.31245675,0.43382895,-0.63250077,450
1747533241110,-0.175965275,0.5405868,0.12849614,-4.3574642,0.46445529,-0.5834986,451
1747533241120,-0.17450093,0.5437595,0.11690342,-4.4277717,0.5520733,-0.55633435,452
1747533241130,-0.172182395,0.4839655399999999,0.26284966,-4.483431700000001,0.53769223,-0.53236589,453
1747533241140,-0.207570695,0.4641968749999999,0.35790995,-4.4376254,0.44315001,-0.524642735,454
1747533241150,-0.2169669,0.46248847,0.41172457,-4.3745084,0.41172472,-0.53263223,455
1747533241160,-0.24027437,0.48738233,0.43613029,-4.150803,0.30679616,-0.6002765,456
1747533241170,-0.3075121349999999,0.37096702,0.45516678,-3.87676375,0.366184665,-0.67511135,457
1747533241180,-0.376824395,0.23100018,0.555962415,-3.68395075,0.34834148,-0.64528395,458
1747533241190,-0.40513504,0.19988288,0.60697037,-3.50711675,0.307328795,-0.53556172,459
1747533241200,-0.43442193,0.18865626,0.72021294,-3.4083135,0.29188246,-0.46658584,460
1747533241210,-0.44442827,0.26065314,0.7385172,-3.1973913,0.2892193,-0.294013,461
1747533241220,-0.435276125,0.32203354,0.656513975,-3.1161648,0.300404585,-0.19281287,462
1747533241230,-0.35693374,0.3339923449999999,0.485795945,-3.0996532,0.3765709849999999,0.195742348,463
1747533241240,-0.249792585,0.266022395,0.38439016,-3.220827,0.43675843,0.29348037,464
1747533241250,-0.21184167,0.24747404,0.37169918,-3.406183,0.4415521,0.26684874,465
1747533241260,-0.15424417,0.18182266,0.33655494,-3.6181707,0.42663842,0.17257284,466
1747533241270,-0.170962105,-0.09457219115,0.4557768849999999,-3.8048583,0.27803402,-0.028229508,467
1747533241280,-0.23295264,-0.351564455,0.6344268049999999,-3.68554865,0.20532972,-0.311589863,468
1747533241290,-0.30324112,-0.60086894,0.76194674,-3.44879365,0.22210763,-0.638093425,469
1747533241300,-0.33460248,-0.69239044,0.77048874,-3.3529198,0.2647182,-0.75420725,470
1747533241310,-0.33460248,-0.69239044,0.77048874,-3.3529198,0.2647182,-0.75420725,471
1747533241320,-0.552179515,-0.8389468,0.9967298,-2.39231765,0.247407675,-0.845553675,472
1747533241330,-0.63076595,-0.8079515349999999,0.93229865,-1.93531925,0.1850897,-0.62850605,473
1747533241340,-0.61441415,-0.801117935,0.822228835,-1.7736653,0.1504686,-0.45966161,474
1747533241350,-0.550837225,-0.8321132,0.755479215,-1.72492945,0.124635935,-0.337688835,475
1747533241360,-0.50715095,-0.8546885,0.74242216,-1.7230653,0.10173275,-0.28975195,476
1747533241370,-0.40830777,-0.91277408,0.866403225,-1.690042,-0.012250541,-0.24554345,477
1747533241380,-0.37536004,-0.9269294,0.9303462,-1.5164039,-0.020772656,-0.25300032,478
1747533241390,-0.31190516,-0.91338427,1.2809344500000002,-0.41758366,0.0306263535,-0.2753708649999999,479
1747533241400,-0.308610385,-0.8803145,1.24713255,0.126500155,0.0652474485,-0.2844256149999999,480
1747533241410,-0.311173,-0.8583493,1.2068632,0.3552657,0.07403588,-0.2908172,481
1747533241420,-0.35583545,-0.7105727,0.994411275,1.1198593,0.055127435,-0.32357408,482
1747533241430,-0.3790209,-0.6811638,0.96353805,1.2357068,0.06498113,-0.3089267,483
1747533241440,-0.4366183999999999,-0.5524236,0.901669515,1.55928085,0.039947416,-0.1802960149999999,484
1747533241450,-0.45724125,-0.44906534,0.76292295,1.71188,-0.050600064,-0.0370179435,485
1747533241460,-0.46224442,-0.38780698,0.6653,1.768339,-0.11611383,0.055926383,486
1747533241470,-0.461268185,-0.367916315,0.64650765,1.7369137,-0.192812865,0.1179780365,487
1747533241480,-0.417703985,-0.3381413,0.68140784,1.62186515,-0.330764605,0.287887725,488
1747533241490,-0.40391475,-0.3441207,0.72118914,1.6058862,-0.33822146,0.31851408,489
1747533241500,-0.39903361,-0.40733153,0.93949837,1.6650083,-0.3568636,0.39361522,490
1747533241510,-0.39781332,-0.42246306,0.9715919,2.020274,-0.3568636,0.598146,491
1747533241520,-0.422219,-0.42636803,1.0413923,2.2817965,-0.32810146,0.73822826,492
1747533241530,-0.4229512,-0.38658667,1.1021625,2.5949843,-0.28549087,0.8926916,493
1747533241540,-0.37169918,-0.240030305,1.045053135,3.0700922,-0.27324035,1.06872655,494
1747533241550,-0.29530926,-0.0357543949999999,0.798555315,3.283944,-0.243412935,1.0516823,495
1747533241560,-0.24649782,0.1164153,0.60916686,3.3561156,-0.22423817,0.9986854,496
1747533241570,-0.21721096,0.24478942,0.42051062,3.0096384,-0.307595115,0.830107325,497
1747533241580,-0.20744865,0.302631,0.28213018,2.8447888,-0.35579833,0.7755125,498
1747533241590,-0.23551524,0.26126329,0.352174595,2.4165523,-0.47723848,0.70467246,499
1747533241600,-0.19854057,0.19695419,0.5937912750000001,1.7475663,-0.5219796,0.5933523,500
1747533241610,-0.18011424,0.16742326,0.7136234,1.7156084,-0.49960902,0.49055427,501
1747533241620,-0.200371,0.110557936,0.9030118,1.8583539,-0.52464277,0.4165184,502
1747533241630,-0.25211114,0.111290105,0.9984382,2.2253375,-0.45859635,0.42237735,503
1747533241640,-0.316786315,0.238199875,0.96231775,2.5971148,-0.35579833,0.5182512,504
1747533241650,-0.346805345,0.37865482,0.72362975,3.1691618,-0.2657835,0.8628642,505
1747533241660,-0.35290676,0.44369608,0.596964,3.1712923,-0.267914,1.0434265,506
1747533241670,-0.29994637,0.55864704,0.42026657,2.999252,-0.34621096,1.1297129,507
1747533241680,-0.16864355,0.596964,0.2762728,2.52201355,-0.5028048,0.98323907,508
1747533241690,-0.030263098,0.5418071,0.27493049,1.9965719,-0.62451125,0.6479471,509
1747533241700,-0.020744866,0.5004394,0.450285615,1.6333166499999998,-0.68709555,0.286289815,510
1747533241710,-0.050031736,0.4888467,0.54815257,1.6048208,-0.6844324,0.17470337,511
1747533241720,-0.13886857,0.48689422,0.72631437,1.7726,-0.6593987,0.13369069,512
1747533241730,-0.28115393,0.54644418,0.863352475,2.2253375,-0.60453757,0.353934115,513
1747533241740,-0.307024,0.5708499,0.88373125,2.6711507,-0.537425905,0.577107025,514
1747533241750,-0.08261338,0.68555683,0.521306275,2.94359205,-0.4948153349999999,0.68656295,515
1747533241760,-0.0605262,0.7297312,0.38975942,2.9390647,-0.4857606,0.6775082,516
1747533241770,0.001586372,0.78525417,0.208546925,2.743056,-0.47617322,0.59867865,517
1747533241780,0.008175918,0.73754098,0.26284966,2.2642196,-0.52517537,0.332895135,518
1747533241790,-0.0185483495,0.70678978,0.417093845,2.13638795,-0.53130062,0.150468602,519
1747533241800,-0.032215554,0.7294871,0.48616204,2.2019017,-0.5230448,0.112918034,520
1747533241810,-0.04637088,0.76267886,0.5793919,2.4511735,-0.4777711,0.05273059,521
1747533241820,-0.05344854,0.7512082,0.5593792,2.7004454,-0.41705105,0.01438107,522
1747533241830,-0.09054524,0.7370529,0.46273252,2.854376,-0.38615838,0.030360037,523
1747533241840,-0.16132185,0.79489446,0.2806658,2.8453214,-0.3584615,0.24714136,524
1747533241850,-0.1683995,0.8820229,0.20476402,2.755839,-0.37923414,0.42077947,525
1747533241860,-0.21574661,0.9437694,0.15839316,2.6274748,-0.41598576,0.62264705,526
1747533241870,-0.19475769,0.9540198,0.14545812,2.4676852,-0.5006743,0.86872315,527
1747533241880,-0.090789296,0.9193637,0.13374338,2.3451798,-0.50120693,0.9816412,528
1747533241890,0.05588911,0.77341745,0.29860404,2.2264028,-0.46871635,1.0231866,529
1747533241900,0.093473926,0.7492558,0.33997175,2.3228092,-0.46179214,0.9438243,530
1747533241910,0.1466784,0.72338563,0.37365165,2.4847293,-0.43409526,0.80374205,531
1747533241920,0.17254847,0.6953191,0.34704942,2.6690202,-0.39787626,0.64395237,532
1747533241930,0.121540515,0.83138102,0.150949408,2.8469193,-0.38775625,0.3944141599999999,533
1747533241940,0.0300190435,0.99514345,-0.0317274419999999,2.8714204,-0.386691,0.29880667,534
1747533241950,-0.012202863,1.0557917,-0.0976229,2.6935213,-0.4213121,0.31158987,535
1747533241960,-0.038439018,1.1054574,-0.154000125,2.39125225,-0.498011135,0.460726865,536
1747533241970,0.0418558165,1.027115,-0.0876165485,2.16994365,-0.50839745,0.54807855,537
1747533241980,0.105676785,0.9513352,-0.024161667,2.0485036,-0.4878911,0.5800365,538
1747533241990,0.148874915,0.843095775,0.13032657,2.1294637,-0.4463458,0.5550028,539
1747533242000,0.14204131,0.8232051,0.17084008,2.352104,-0.39254996,0.50387007,540
1747533242010,0.119099945,0.8305268,0.19304928,2.6636937,-0.3334278,0.4777711,541
1747533242020,0.15082738,0.9027678,0.13911264,2.9976542,-0.31052458,0.45220476,542
1747533242030,0.15619664,1.16134645,-0.2140382015,3.2618399,-0.29561087,0.38775626,543
1747533242040,0.132889175,1.27031805,-0.442597825,2.83227185,-0.354200425,0.1898833899999999,544
1747533242050,0.1210524,1.2671453,-0.4807928,2.6599653,-0.37284255,0.14434333,545
1747533242060,0.0961585525,1.0981356,-0.474447295,2.0559605,-0.50679955,0.0418116265,546
1747533242070,0.044296388,0.946332,-0.272367885,1.81015065,-0.47643952,0.037816888,547
1747533242080,0.002074487,0.8737249,-0.015985748,1.91268235,-0.389087835,0.0948085365,548
1747533242090,-0.0135451769999999,0.93315285,0.066627627,2.2940471,-0.349140415,0.196274985,549
1747533242100,-0.019768637,0.9796458,0.07516963,2.5166874,-0.33768883,0.25885928,550
1747533242110,-0.017328065,1.04078215,0.0143993749999999,2.7622307,-0.296143515,0.34754254,551
1747533242120,0.043442193,1.30619435,-0.42356135,3.1531827,-0.20879184,0.56885123,552
1747533242130,0.1007956469999999,1.3303560499999998,-0.5792699,2.6210831,-0.2428803,0.70041138,553
1747533242140,0.132279027,1.28508345,-0.607824575,2.2770028,-0.3227751399999999,0.65700185,554
1747533242150,0.1415532,1.2515256,-0.61892915,2.0980384,-0.376571,0.62531024,555
1747533242160,0.18743597,1.1097283,-0.49104318,1.5318503,-0.46978164,0.43356264,556
1747533242170,0.20647243,1.074096,-0.32606047,1.4828482,-0.4745753,0.33129725,557
1747533242180,0.15277984,1.02089145,-0.16217604,1.7225326,-0.49348376,0.227433965,558
1747533242190,0.12605557,0.98757765,-0.104212445,2.0133498,-0.49002164,0.181627595,559
1747533242200,0.11055793,1.0049057,-0.13947872,2.27753545,-0.47031425,0.143011755,560
1747533242210,0.09542638,1.0272369,-0.1867038,2.3931167,-0.45327002,0.12357068,561
1747533242220,-0.033435844,1.044321,-0.46736962,2.3222766,-0.5400891,0.07669904,562
1747533242230,-0.0702884875,0.94974878,-0.6092889,1.9382487,-0.6708502999999999,0.09187906,563
1747533242240,-0.070532545,0.91204196,-0.6203935,1.7976338,-0.7121293,0.10918961,564
1747533242250,-0.048567392,0.83174706,-0.5637722,1.6128104,-0.69295454,0.16298546,565
1747533242260,0.017206036,0.792331865,-0.24051842,2.1789984,-0.53662699,0.31878038,566
1747533242270,0.01415532,0.8070973,-0.21330604,2.59338625,-0.44075316,0.3768373,567
1747533242280,0.0551569395,0.86262035,-0.339971755,2.8021781,-0.39414784,0.40213734,568
1747533242290,0.087616555,0.88739216,-0.41538543,3.0919302,-0.34514567,0.37017938,569
1747533242300,0.113486618,1.1154637,-0.98501502,3.1361384,-0.33981937,0.23276028,570
1747533242310,0.099575356,1.1390152,-1.0760484,2.422944,-0.58269966,-0.17204021,571
1747533242320,0.08346757,1.1016744,-1.1124129,1.8626149,-0.7957525,-0.32597092,572
1747533242330,0.09200958,1.0291895,-1.0448091,1.3704628,-0.8580705,-0.47564057,573
1747533242340,0.11373068,0.9366917,-0.86518294,1.0588728,-0.819721,-0.6295713,574
1747533242350,0.12154051,0.8402891,-0.6028214,0.948618,-0.90654004,-0.74941355,575
1747533242360,0.12154051,0.8402891,-0.6028214,0.948618,-0.90654004,-0.74941355,576
1747533242370,-0.0007321725,0.69446487,-0.3282569899999999,2.01521405,-0.61838605,-0.6053365500000001,577
1747533242380,-0.039781332,0.7175283,-0.3526627,2.2343922,-0.5566007,-0.5502091,578
1747533242390,-0.06467517,0.77634615,-0.5864696,2.5710158,-0.43888897,-0.34940675,579
1747533242400,-0.012446919,0.7250941,-0.71874857,2.7675571,-0.42024684,-0.2412824,580
1747533242410,0.102992155,0.7231416,-0.8188121,2.7276096,-0.3323625,-0.17949706,581
1747533242420,0.12910628,0.8593256,-0.94572186,2.39285035,-0.005326325,-0.121706462,582
1747533242430,-0.0252599239999999,0.97879155,-1.048958075,1.8381139,0.11132014,0.124103318,583
1747533242440,-0.090667265,0.962439735,-1.08434635,1.25914265,0.1227717349999999,0.43516055,584
1747533242450,-0.0444184175,0.8898327349999999,-1.0049057,0.97072228,0.0639158685,0.5824333500000001,585
1747533242460,0.033069755,0.79916545,-0.8832432,0.85540736,0.030360037,0.6247776,586
1747533242470,0.071020655,0.7487676,-0.8188121,0.845287355,0.027963191,0.566987,587
1747533242480,0.148020725,0.679211275,-0.69519707,1.019724425,0.0343547785,0.478037425,588
1747533242490,0.18426323,0.67786898,-0.656391975,1.4013554,0.037550573,0.24101608,589
1747533242500,0.17681948,0.67982148,-0.7159419250000001,1.7142768,0.0559263879999999,-0.0071905349999999,590
1747533242510,0.158881265,0.70532547,-0.83199115,1.76248,0.07243799,-0.07403588,591
1747533242520,0.1483868,0.73412424,-0.9003272,1.6426378,0.2031992,-0.1853560149999999,592
1747533242530,0.019036465,0.9430372,-1.15353655,1.23410888,0.317715125,-0.075633778,593
1747533242540,-0.0237955825,1.08385825,-1.2883782,0.91452956,0.38242993,0.044208474,594
1747533242550,-0.025503984,1.13401205,-1.3124178,0.36245622,0.44048685,0.25086978,595
1747533242560,-0.033679903,1.1524384,-1.3100992,0.1768339,0.4282363,0.3073288,596
1747533242570,-0.032215554,1.1529264,-1.2690977,-0.16192019,0.31052458,0.41545314,597
1747533242580,0.09359595795,1.05627975,-1.11021645,-0.4894890199999999,0.1051948685,0.392816265,598
1747533242590,0.2155025549999999,0.9916046,-1.0247964,-0.54568173,0.0511326935,0.21758026,599
1747533242600,0.24771811,0.9823304,-1.0082005,-0.5219796,0.06018744,0.11771172,600
1747533242610,0.25357547,0.99770606,-0.97549677,-0.4825648,0.044208474,-0.1107875,601
1747533242620,0.14960709,1.05322905,-1.004417615,-0.5446164499999999,0.0205063403,-0.383761525,602
1747533242630,0.058573739,1.1105825,-1.0817837,-0.8010789,-0.0223705532,-0.457531095,603
1747533242640,0.0070776605,1.15060795,-1.1569533,-1.0120013,-0.048469532,-0.46711847,604
1747533242650,-0.002928687,1.154879,-1.1751356,-1.2900352,-0.03195793,-0.3898868,605
1747533242660,-0.024161667,1.1343781,-1.1609803,-1.5920377,0.007989483,-0.21411815,606
1747533242670,-0.035022215,1.08617675,-1.07409595,-1.84503805,0.014647386,0.069774825,607
1747533242680,0.014765465,1.0355349500000002,-1.03443665,-1.9473034,0.00479369,0.214384475,608
1747533242690,0.077000065,0.99709593,-1.01051905,-1.9627497,0.0253000309999999,0.218379215,609
1747533242700,0.143261605,0.983184605,-0.960121185,-1.9632823,0.036751624,0.20293288,610
1747533242710,0.17620933,0.98428285,-0.93376297,-1.9265307,0.046339005,0.10972224,611
1747533242720,0.19219508,1.00759035,-0.9259532,-1.850897,0.1041295999999999,-0.0716390325,612
1747533242730,0.1724264449999999,1.04090415,-0.96195165,-1.8285265,0.12250541,-0.12783173,613
1747533242740,0.15839315,1.07714665,-1.01100715,-1.989115,0.13315805,-0.34940675,614
1747533242750,0.15595257,1.1002101,-1.04566325,-2.1694111,0.135022265,-0.41412156,615
1747533242760,0.15595257,1.10802,-1.0577441,-2.2743397,0.13156016,-0.44474792,616
1747533242770,0.14570218,1.0960611,-1.0492021,-2.481001,0.11504856,-0.4958806,617
1747533242780,0.11958805,1.061649,-0.98745565,-2.7233485,0.15845809,-0.561394385,618
1747533242790,0.09859913,1.0467615,-0.9530435,-2.8085697,0.18375812,-0.5800365,619
1747533242800,0.08542004,1.0255286,-0.93010217,-2.8352013,0.23595607,-0.5566007,620
1747533242810,0.043320159,1.0715334,-0.93388508,-2.8453214,0.3121225,-0.5113269,621
1747533242820,0.022209208,1.1065556,-0.9391323,-2.9726205,0.4596616,-0.42184472,622
1747533242830,0.0096402605,1.07800085,-0.92326857,-2.9726205,0.4596616,-0.42184472,623
1747533242840,0.0187924085,1.0498122,-0.8965442699999999,-3.17235755,0.319046715,-0.429834215,624
1747533242850,0.040513504,1.0501783,-0.8856837,-3.2186966,0.2972088,-0.4644553,625
1747533242860,0.0583296819999999,1.0470056,-0.8718945,-3.2775525,0.2793656,-0.51292485,626
1747533242870,0.090789296,1.0330943,-0.84565836,-3.4562504,0.23276028,-0.6492787,627
1747533242880,0.05308245,0.964514255,-0.8050228500000001,-3.7385457,0.26471822,-0.770718835,628
1747533242890,0.0301410705,0.92058393,-0.7844,-3.8775627,0.293480355,-0.77737673,629
1747533242900,0.011470691,0.895446,-0.7695125,-3.949468,0.32277513,-0.77444726,630
1747533242910,-0.05051985,0.8847075,-0.53082454,-3.81631,0.28708878,-0.6679208,631
1747533242920,-0.11543907,0.9264413,-0.47176263,-3.6602488,0.25406557,-0.56245965,632
1747533242930,-0.06040417,0.95438588,-0.456753135,-3.5574505,0.22370553,-0.47351006,633
1747533242940,-0.03294773,0.9513352,-0.47078642,-3.5175033,0.21571605,-0.4213121,634
1747533242950,0.0256260119999999,0.8972764799999999,-0.5163031,-3.71937085,0.16112125,-0.41758367,635
1747533242960,0.07199689,0.88739216,-0.511788,-3.7870152,0.15233281,-0.44474792,636
1747533242970,0.12202862,0.912408025,-0.486894225,-4.0243028,0.203199195,-0.57151435,637
1747533242980,0.1468004299999999,0.90716075,-0.5136185,-4.220844,0.36272254,-0.6729807999999999,638
1747533242990,0.15473229,0.8222288,-0.4665154499999999,-4.316984,0.46924898,-0.7238472,639
1747533243000,0.1415532,0.7577977,-0.4002539,-4.5108624,0.624245,-0.80747044,640
1747533243010,0.004881145,0.70239675,-0.25601605,-4.621117,0.56725335,-0.90920323,641
1747533243020,-0.0383169875,0.6671305000000001,-0.1676673275,-4.52764,0.49801114,-0.927579045,642
1747533243030,-0.05906185,0.65675807,0.036852647,-4.1225734,0.33129725,-0.9832391,643
1747533243040,-0.0172060355,0.80038578,-0.0085420049999999,-3.8019288,0.32117724,-1.0317086,644
1747533243050,-0.029530926,0.8498074,-0.09884319,-3.6213665,0.38456047,-1.0689929,645
1747533243060,-0.083833661,0.77610202,-0.21269589,-3.9244342,0.5083974649999999,-0.8495484,646
1747533243070,-0.105188675,0.76292293,-0.16888762,-4.07783235,0.5994775999999999,-0.73716302,647
1747533243080,-0.107629254,0.76170266,-0.1244692,-4.19474535,0.69641665,-0.656202925,648
1747533243090,-0.0619905419999999,0.7609705,-0.09127741,-4.3505402,0.8330368,-0.634897625,649
1747533243100,-0.051496081,0.7106947,-0.078952515,-4.5047372,0.87511475,-0.65993135,650
1747533243110,-0.053692598,0.6787232,-0.06272271,-4.55081,0.8346347,-0.6775082,651
1747533243120,-0.19671014,0.5462001,0.0741934,-4.5236454,0.6428871,-0.6759103,652
1747533243130,-0.2613853,0.44027928,0.28115395,-4.3324304,0.43249738,-0.6428871,653
1747533243140,-0.254063595,0.48030467,0.467857745,-3.62589385,0.324905665,-0.41012682,654
1747533243150,-0.2630937,0.5515694,0.49568027,-3.329484,0.38935417,-0.25672874,655
1747533243160,-0.2451555,0.56853135,0.4371065349999999,-3.2852756,0.431698425,-0.145142285,656
1747533243170,-0.18231077,0.5950116,0.2518671,-3.277286,0.5901565,0.15286545,657
1747533243180,-0.12764193,0.62063754,0.18157859,-3.3912694,0.6785734,0.2615224,658
1747533243190,0.04295407588,0.56120965,0.1355738,-3.78648245,0.8966863650000001,0.0788295669999999,659
1747533243200,0.08517598,0.5464442,0.1295944,-3.9931438,0.953678,-0.1802960029999999,660
1747533243210,0.1261776,0.48640612,0.11251039,-4.114584,0.9736517,-0.3472762,661
1747533243220,0.06760386,0.35412705,0.191829,-4.2488074,0.8655274,-0.6332997,662
1747533243230,-0.027822526,0.21599068,0.3392396,-4.214186,0.7222493,-0.89109373,663
1747533243240,-0.19085276,0.049299564,0.6240544,-3.56517375,0.5733786000000001,-1.26553415,664
1747533243250,-0.28261828,-0.025137896,0.6552937,-3.4493263,0.5683186,-1.2783173,665
1747533243260,-0.37316352,-0.099087246,0.613804,-3.3364084,0.5837649,-1.1909657,666
1747533243270,-0.47786412,-0.15009521,0.5723142,-3.307646,0.6556703,-0.99069595,667
1747533243280,-0.5405868,-0.14936304,0.5662128,-3.3039176,0.7318367,-0.7190535,668
1747533243290,-0.63198625,-0.3226437,0.6493143299999999,-3.1539818,0.77524625,0.0247674,669
1747533243300,-0.6374775,-0.3682824,0.690438,-3.0903323,0.7414241,0.14594123,670
1747533243310,-0.6145361,-0.39488465,0.7385172,-2.918292,0.6860303,0.3291667,671
1747533243320,-0.5791479,-0.44906533,0.75145227,-2.751578,0.6402239,0.4607269,672
1747533243330,-0.60184515,-0.5544981,0.77805454,-2.583799,0.56885123,0.572047,673
1747533243340,-0.559135135,-0.73949346,0.862254235,-2.05436255,0.50014165,0.619184975,674
1747533243350,-0.54864067,-0.77829856,0.8859278,-1.9355855,0.4926848,0.5901565,675
1747533243360,-0.55108124,-0.8402891,0.9386441,-1.6863136,0.4889564,0.5161206,676
1747533243370,-0.5337532,-0.8817788,0.9828185,-1.4290522,0.4676511,0.43356264,677
1747533243380,-0.465051085,-0.97037158,0.98891993,-1.113734,0.4596616,0.27643612,678
1747533243390,-0.43161525,-0.98477095,0.980011855,-0.480700575,0.324106705,-0.21571605,679
1747533243400,-0.4356422,-0.946454,0.973788445,-0.35952675,0.29561087,-0.32863408,680
1747533243410,-0.4458926,-0.9237567,0.97281224,-0.13475595,0.2428803,-0.52357745,681
1747533243420,-0.4927516,-0.8712844,0.99770606,0.10226539,0.2146508,-0.66365975,682
1747533243430,-0.57402265,-0.7636551,1.0357789,0.38615838,0.12836437,-0.74035877,683
1747533243440,-0.68018752,-0.5712159649999999,1.016864585,0.99868545,-0.1241033129999999,-0.6210492000000001,684
1747533243450,-0.70678975,-0.434177865,0.93388507,1.3712617,-0.26125611,-0.3949468,685
1747533243460,-0.7070338,-0.3912238,0.90447617,1.4455639,-0.2876214,-0.2892193,686
1747533243470,-0.69959008,-0.323619925,0.860423835,1.4924355,-0.307595115,-0.1704423125,687
1747533243480,-0.6426027299999999,-0.17535513,0.78171535,1.6783241,-0.42583947,0.3182477449999999,688
1747533243490,-0.5609656,-0.0737052865,0.7269245,1.75315895,-0.52517538,0.481499535,689
1747533243500,-0.5288721,-0.052716363,0.7067898,1.7656758,-0.5587312,0.50653327,690
1747533243510,-0.47225076,-0.04271002,0.6892177,1.7502295,-0.6375608,0.52837116,691
1747533243520,-0.43124917,-0.061746486,0.6936107,1.716141,-0.70627034,0.53263223,692
1747533243530,-0.41099238,-0.059794027,0.7292431,1.74357165,-0.72784193,0.58296595,693
1747533243540,-0.4864061,-0.0350222135,0.84992937,1.8503644,-0.7443535299999999,0.6977482,694
1747533243550,-0.511544,-0.03441207,0.8593256,1.9068234,-0.7504788,0.757403,695
1747533243560,-0.53033644,-0.018304294,0.85444444,2.0415792,-0.7259777,0.90494215,696
1747533243570,-0.48909074,0.0036608586,0.8747012,2.1965754,-0.7339672,1.0418286,697
1747533243580,-0.3231318,-0.0014643435,0.8993509,2.382464,-0.73343456,1.1068097,698
1747533243590,-0.27834728,-0.004637087,0.826988015,2.77022025,-0.682035595,1.0428939000000002,699
1747533243600,-0.27187976,0.00976229,0.79489446,2.819755,-0.69135666,1.0215886,700
1747533243610,-0.278835415,0.1392346549999999,0.598062275,2.8554413,-0.7462177,0.9709886,701
1747533243620,-0.27444239,0.219529485,0.494215935,2.6530411,-0.7965515000000001,0.7874967500000001,702
1747533243630,-0.26943922,0.23673552,0.48128092,2.5885925,-0.8021441,0.7701862,703
1747533243640,-0.29018407,0.25564997,0.52557728,2.4125576,-0.860467375,0.8109325700000001,704
1747533243650,-0.30336314,0.25211114,0.54717636,2.3643544,-0.86872315,0.84368944,705
1747533243660,-0.30336314,0.21013328,0.74339837,2.58007065,-0.8484831500000001,1.175253,706
1747533243670,-0.29958026,0.186215685,0.85981369,2.8453214,-0.83063995,1.34170055,707
1747533243680,-0.29189247,0.19768637,0.87860614,2.999252,-0.8229168,1.4269217,708
1747533243690,-0.214404285,0.33557871,0.7130132499999999,3.4360106,-0.7307714,1.5952336,709
1747533243700,-0.16815543,0.38975942,0.5749989,3.8051246,-0.7779093749999999,1.61946825,710
1747533243710,-0.087372492,0.6089228200000001,0.2440572449999999,3.8594532,-0.8474179,1.6000272,711
1747533243720,-0.0374627863,0.6772588500000001,0.100673615,3.43441255,-0.96379805,1.5145397,712
1747533243730,-0.0036608586,0.7043492,0.05588911,3.2543828,-1.0231866,1.474326,713
1747533243740,0.0860301775,0.7530386499999999,0.0301410695,2.8666267,-1.0753845,1.3630059,714
1747533243750,0.081637145,0.7510861799999999,0.196710147,2.5321336,-0.9816412,1.2665994,715
1747533243760,0.05906185,0.73436826,0.35559142,2.20563,-0.9038769,1.2330436,716
1747533243770,0.08542004,0.7404697,0.4502856,2.3430493,-0.9038769,1.2229236,717
1747533243780,0.11299851,0.74535084,0.5005614,2.5582325,-0.9438243,1.1877699,718
1747533243790,0.14374973,0.7492558,0.4966565,2.7696877,-0.9821738,1.1297129,719
1747533243800,0.27480847,0.74583894,0.36437747,3.0397322,-1.0365024,0.85061365,720
1747533243810,0.2945771,0.758774,0.28335047,3.05757535,-1.0093381,0.74355459,721
1747533243820,0.29103828,0.767438035,0.285424965,3.09193005,-0.96246642,0.524909065,722
1747533243830,0.26675457,0.8278422,0.2550398,3.158509,-0.9331717,0.2146508,723
1747533243840,0.20061506,0.90081537,0.14985114,3.1925976,-0.88949585,0.11611383,724
1747533243850,0.08127106,1.0731196,-0.07199689,2.9491847,-0.7771104,0.27324033,725
1747533243860,0.039537273,1.1077759,-0.13838045,2.6743464,-0.72970617,0.44048685,726
1747533243870,0.018792408,1.0963051,-0.18133454,2.3494408,-0.6791061,0.6151902,727
1747533243880,0.051862163,1.0193051,-0.0253819549999999,1.9166771,-0.66046397,0.880707385,728
1747533243890,0.1330112,0.95182327,0.154366205,1.8136127,-0.64688185,0.983505435,729
1747533243900,0.208546915,0.87579942,0.264924125,1.92599815,-0.64581658,0.936900115,730
1747533243910,0.22526483,0.8437059,0.3109289,2.0282636,-0.6498113,0.89109373,731
1747533243920,0.23185438,0.7726852,0.31483385,2.278068,-0.66632295,0.74941355,732
1747533243930,0.221726005,0.80502283,0.125201371,2.52734,-0.6583334,0.56725335,733
1747533243940,0.211597625,0.91326223,-0.012813004,2.7382623,-0.562193325,0.38669099,734
1747533243950,0.2208718,0.9642702,-0.05198419,2.8101676,-0.5123922,0.32277513,735
1747533243960,0.19622204,1.0511546,-0.14350566,2.8059065,-0.48469532,0.3153183,736
1747533243970,0.14594623,1.0894716,-0.2443013,2.7233486,-0.4644553,0.35899413,737
1747533243980,0.082735404,1.1133891,-0.30067852,2.57794,-0.4000068,0.46019423,738
1747533243990,-0.06455314,1.03675515,-0.16937574,2.29271545,-0.40373523,1.072188625,739
1747533244000,-0.09200958,0.9942892,-0.14423785,2.2993734,-0.4063984,1.230913,740
1747533244010,-0.121540505,0.95389775,-0.106897085,2.3164176,-0.29188246,1.4761902,741
1747533244020,-0.16888762,0.8607899,-0.031239327,2.338788,-0.020240024,2.189651,742
1747533244030,-0.117879644,0.77805454,-0.13081467,2.3228092,0.29614353,3.0754185,743
1747533244040,-0.014033292,0.8461464249999999,-0.2992141849999999,2.2876554,0.42876893,3.4493263,744
1747533244050,0.020744866,0.8866599,-0.33777523,2.1965754,0.43356264,3.784352,745
1747533244060,0.16254212,0.94279313,-0.3692586,2.0895162,0.35100463,3.9755669,746
1747533244070,0.16254212,0.94279313,-0.3692586,2.0346551,0.27643612,3.94866895,747
1747533244080,0.48835853,0.973178265,-0.569019465,1.8461033,0.05752428,3.6991308,748
1747533244090,0.44040129,0.87701973,-0.58085623,1.1827099,-0.139549647,3.09592485,749
1747533244100,0.41148052,0.82296103,-0.53961056,1.0290455,-0.23542345,3.0381343,750
1747533244110,0.3953727299999999,0.66774063,-0.40208432,0.8271778,-0.43356264,2.9875343,751
1747533244120,0.47786407,0.6613951499999999,-0.260653145,1.00108225,-0.64714815,3.03014465,752
1747533244130,0.566212805,0.7338801500000001,-0.178527875,1.36939745,-0.69508505,3.1550469,753
1747533244140,0.588299985,0.81307672,-0.218187175,1.6548883,-0.6053365150000001,3.3494577,754
1747533244150,0.5952556,0.84907514,-0.25601605,1.7779263,-0.55074173,3.4695663,755
1747533244160,0.63967407,0.8998391,-0.35607952,1.9020296,-0.37603834,3.764112,756
1747533244170,0.9005712,0.878972165,-0.45150592,1.9281287,-0.3318298699999999,4.00326385,757
1747533244180,1.08044145,0.749987915,-0.5226485999999999,1.6349146499999998,-0.51212587,3.66184665,758
1747533244190,1.14011345,0.6091669,-0.55657255,1.23357625,-0.78909465,3.0924628,759
1747533244200,1.1806269,0.51410661,-0.53399725,1.0887003,-0.8836369,2.8479846,760
1747533244210,1.1985651,0.48689422,-0.4971446,0.8681905,-1.0540792,2.3494408,761
1747533244220,1.2338314,0.53387524,-0.299702295,0.91399687,-1.3217269,1.54916085,762
1747533244230,1.2368821,0.5767073,-0.21086545,1.0338391,-1.4567492,1.1994878,763
1747533244240,1.2077173,0.62978975,-0.29103827,1.2934974,-1.4495586,0.7390272,764
1747533244250,1.193928,0.6469958,-0.35559142,1.3576796,-1.4242586,0.5853628,765
1747533244260,1.1653733000000002,0.678601185,-0.4159956,1.2926984,-1.3219932,0.4394216,766
1747533244270,1.0250404,0.7321718,-0.53985465,1.1105382,-1.220793,0.38242993,767
1747533244280,0.774149575,0.66237137,-0.56328413,0.8724516,-1.1334413,0.3930826,768
1747533244290,0.694831,0.6124617,-0.49507013,0.42557314,-1.1909657,0.45087318,769
1747533244300,0.6801876,0.5872018,-0.4600479,0.3920173,-1.222391,0.4644553,770
1747533244310,0.7382732,0.54888475,-0.38658667,0.44581318,-1.3102753,0.45007423,771
1747533244320,0.8107582,0.536926,-0.36218095,0.58056915,-1.4050838,0.35952675,772
1747533244330,0.8639627,0.5768293,-0.45040767,0.8809737,-1.28630685,0.1131843495,773
1747533244340,0.86432875,0.6379656300000001,-0.557914885,0.97897805,-1.17392145,0.015180019,774
1747533244350,0.856885,0.65944266,-0.6125837,0.9715212,-1.1254519,0.002130529,775
1747533244360,0.8501734000000001,0.6906819799999999,-0.67750293,0.8197209999999999,-1.00720753,0.0537958545,776
1747533244370,0.815761325,0.6821399850000001,-0.73815115,0.369913085,-0.7337009,0.18136127,777
1747533244380,0.7994095,0.6174648300000001,-0.7106946999999999,0.20772657,-0.65993133,0.23489082,778
1747533244390,0.80917182,0.55986735,-0.6847026,0.111053823,-0.5954828249999999,0.283626665,779
1747533244400,0.81978834,0.53887844,-0.6731099,0.083090626,-0.56245965,0.30466563,780
1747533244410,0.95218938,0.53436336,-0.5502270499999999,0.35819517,-0.65087658,0.2045307699999999,781
1747533244420,0.976229,0.53814626,-0.5405868,0.43089947,-0.65513766,0.14114754,782
1747533244430,0.9808661,0.5359497,-0.55767083,0.5320996,-0.65513766,-0.02130529,783
1747533244440,0.9679311,0.53887844,-0.5862255,0.5811018,-0.67324716,-0.20240025,784
1747533244450,0.9205839,0.541319,-0.6399181,0.58483016,-0.71532506,-0.3797668,785
1747533244460,0.8366282,0.6047739,-0.74632704,0.4607269,-0.7030745,-0.62744075,786
1747533244470,0.8083176,0.6465077,-0.7809832,0.37230992,-0.66206187,-0.6423545,787
1747533244480,0.8139309,0.6772589,-0.7905014,0.2591255799999999,-0.5653891,-0.588026,788
1747533244490,0.8254016,0.7055695,-0.76926845,0.1794970599999999,-0.502005865,-0.5587312,789
1747533244500,0.8171036,0.69409883,-0.7670719,0.12250541,-0.46818373,-0.5475459,790
1747533244510,0.8096599250000001,0.701908645,-0.798555325,-0.052996905,-0.3707120299999999,-0.5696501700000001,791
1747533244520,0.812710625,0.713135265,-0.79648085,-0.164317045,-0.27004455,-0.5701828,792
1747533244530,0.81478513,0.71838247,-0.781471315,-0.2130529,-0.2146508,-0.56672066,793
1747533244540,0.81917816,0.73180565,-0.801850065,-0.3587278149999999,-0.02396845,-0.5643238500000001,794
1747533244550,0.82100856,0.74193406,-0.8305268,-0.43675843,0.06338324,-0.5704491,795
1747533244560,0.78854897,0.80685328,-0.89202927,-0.58909124,0.17044231,-0.55287224,796
1747533244570,0.767437995,0.8430958,-0.91570279,-0.75580513,0.24181503,-0.49534798,797
1747533244580,0.76389915,0.856641,-0.92497694,-0.92944324,0.33076462,-0.41598576,798
1747533244590,0.7624348249999999,0.9272955,-0.976351,-1.3211942,0.5944175650000001,-0.0599211225,799
1747533244600,0.7615806,0.9515792,-0.946820125,-1.61707145,0.765658865,0.1387506925,800
1747533244610,0.76756,0.9584128,-0.92131615,-1.7097495,0.8586032,0.24021713,801
1747533244620,0.7397374649999999,0.921560125,-0.83687227,-1.88551805,1.12518555,0.5502091,802
1747533244630,0.7703666849999999,0.84773284,-0.7225315,-1.9411781,1.30388365,0.7688546199999999,803
1747533244640,0.863962685,0.791233595,-0.5951336,-1.9574234,1.3901701,0.87990844,804
1747533244650,0.9100895,0.78415596,-0.5523015,-1.8716697,1.8141453,1.1100056,805
1747533244660,0.988309835,0.771098855,-0.49470405,-1.8050907,2.0309267,1.1158645,806
1747533244670,1.01662045,0.750476025,-0.47261687,-1.73611475,2.35609865,1.10121715,807
1747533244680,1.0279691,0.7370529,-0.46444094,-1.7225326,2.4580977,1.0897655,808
1747533244690,1.10216255,0.6948309699999999,-0.43210334,-1.69643365,2.8977856,0.8993495,809
1747533244700,1.0982577,0.70410514,-0.4148973,-1.6863136,2.968892,0.850081,810
1747533244710,1.0548154,0.716308,-0.39659303,-1.653823,3.026949,0.753142,811
1747533244720,0.9959976,0.70971847,-0.43100512,-1.6261262,3.0274816,0.6327671,812
1747533244730,0.92156017,0.6887296,-0.4737151,-1.6522251,2.9795446,0.5965481,813
1747533244740,0.903622,0.662859465,-0.441255495,-1.8021611,3.2378712500000004,0.78270303,814
1747533244750,0.9257092,0.6643238,-0.41172457,-1.8269285,3.353985,0.850081,815
1747533244760,0.88312115,0.66993713,-0.297993895,-1.840777,3.70232665,1.13450665,816
1747533244770,0.8573731,0.65944266,-0.26358184,-1.8295918,3.8179078,1.2415657,817
1747533244780,0.8244254,0.596353885,-0.16376241,-1.7496969,4.01871,1.4269217,818
1747533244790,0.788793,0.56474847,-0.11617125,-1.4777881000000002,4.1324273,1.8184064,819
1747533244800,0.79831123,0.52960426,-0.08005078,-1.4029533,4.103399,1.8993665,820
1747533244810,0.84785485,0.53180075,-0.033191785,-1.33770585,4.0274987,1.9105518,821
1747533244820,0.9088692,0.5100796,-0.0053692595,-1.1504856,3.7870152,1.8184065,822
1747533244830,1.01686455,0.426123945,0.02562601095,-0.969390675,3.5984633,1.38457745,823
1747533244840,1.0584763,0.38975942,0.047347106,-0.8615326249999999,3.5542549,1.05407915,824
1747533244850,1.0096649,0.39854547,0.065407336,-0.8335694,3.5404065,0.9619338,825
1747533244860,0.921072,0.40171823,0.048567392,-0.8346347,3.4637074,0.8479505,826
1747533244870,0.84761083,0.39415246,0.00097622897,-0.9033443,3.4120421,0.809601,827
1747533244880,0.799409525,0.3885391299999999,0.037828871,-1.1113372,3.31909775,1.00907173,828
1747533244890,0.8496853,0.3626690649999999,0.11251039,-1.19123205,3.32708725,1.14569185,829
1747533244900,0.8854397,0.34290043,0.13935669,-1.1968247,3.365703,1.1696603,830
1747533244910,0.9235126,0.29433304,0.2208718,-1.1728562,3.4695663,1.1984226,831
1747533244920,0.943159225,0.25003664,0.3785328,-0.8982842,3.5252265,1.18404145,832
1747533244930,0.96536845,0.24710796,0.442109715,-0.58722701,3.41204215,1.1076087499999998,833
1747533244940,1.002831175,0.23881001,0.419168315,-0.37710361,3.3451967,0.97817913,834
1747533244950,1.0308977,0.23087814,0.4085518,-0.2828277,3.3284187,0.89642006,835
1747533244960,1.008444525,0.19170697,0.35986242,-0.17949706,3.347061,0.7094661,836
1747533244970,0.99233675,0.17523311,0.35583547,-0.17257284,3.2767534,0.6295713,837
1747533244980,1.02589465,0.2041538849999999,0.4081857399999999,-0.22050974,3.0415963,0.35526569,838
1747533244990,1.07653655,0.21220778,0.3979353399999999,-0.2173139499999999,3.16703115,0.17949706,839
1747533245000,1.1031388,0.21477039,0.3802412,-0.21518342,3.2751555,0.08948222,840
1747533245010,1.0448091,0.19060871,0.36413342,-0.23808661,3.594735,-0.040480047,841
1747533245020,0.967443,0.16986385,0.4288086,-0.26312032,3.829093,-0.094808534,842
1747533245030,0.798311275,0.153634045,0.5341192699999999,-0.156061242,3.8839542,-0.10546118,843
1747533245040,0.6545615300000001,0.154732305,0.57621915,-0.0165115985,3.83148995,-0.0655137635,844
1747533245050,0.60916686,0.15888128,0.5935472,0.033023197,3.794472,-0.042077947,845
1747533245060,0.57451078,0.183775105,0.63162015,0.2412824,3.67729295,-0.0015978964999999,846
1747533245070,0.5762192,0.18865626,0.6472398,0.34301516,3.6693034,0.010652645,847
1747533245080,0.6128277,0.19768637,0.65846646,0.4463458,3.7406762,0.0005326322,848
1747533245090,0.56804323,0.22685121,0.6118515250000001,0.5528722500000001,3.8818237,0.0053263225,849
1747533245100,0.53912246,0.234539,0.59916055,0.5768407,3.9212384,0.017576864,850
1747533245110,0.44381811,0.222092095,0.58927625,0.6231797,3.8762311,0.066312715,851
1747533245120,0.44735694,0.19768637,0.5994046,0.6247776,3.8919437,0.05219796,852
1747533245130,0.44784504,0.16522676,0.6296677,0.6375608,3.8791604,-0.013315806,853
1747533245140,0.352906775,0.17242644,0.668350785,0.725711415,3.8405447,-0.08628642,854
1747533245150,0.3109289,0.17987019,0.68994987,0.7680557,3.8184404,-0.0958738,855
1747533245160,0.20842488,0.22843759,0.66847277,0.98430437,3.792874,-0.09267801,856
1747533245170,0.19426957,0.23307467,0.59232694,0.9981528,3.8242993,-0.047404267,857
1747533245180,0.14814275,0.2039098349999999,0.5350955500000001,0.913730575,3.9305596,0.0644485,858
1747533245190,0.096524643,0.19878463,0.570605875,0.87644632,4.01737865,0.1741707375,859
1747533245200,0.060038086,0.20329969,0.60721445,0.87032104,4.0543966,0.24234766,860
1747533245210,0.044906532,0.316664265,0.70971847,1.0338391,3.8392131,0.37230992,861
1747533245220,0.090301185,0.331795815,0.702884885,1.17099195,3.70046245,0.339553045,862
1747533245230,0.0950603,0.32532831,0.6814078400000001,1.2106731,3.6693034,0.31265512,863
1747533245240,0.08029483,0.32215557,0.66871685,1.24849,3.583017,0.2625877,864
1747533245250,0.10006347,0.27944556,0.67799103,1.2522184,3.5760927,0.23062976,865
1747533245260,0.12715382,0.29640753,0.681773915,1.2996227,3.62482855,0.1850897,866
1747533245270,0.123004854,0.3487578,0.66822875,1.4162691,3.7071204,0.021837922,867
1747533245280,0.024405725,0.38756293,0.64357895,1.4072144,3.6187034,-0.02130529,868
1747533245290,-0.1364280025,0.420022535,0.5714600400000001,1.3222595,3.5220306,-0.029827403,869
1747533245300,-0.24674188,0.44442827,0.54107493,1.2905679,3.4818168,-0.020772656,870
1747533245310,-0.3884171199999999,0.4771319149999999,0.54424765,1.303351,3.2900693,0.01438107,871
1747533245320,-0.4275883,0.47103047,0.5222825,1.3789848,3.2682314,0.029294772,872
1747533245330,-0.5108118150000001,0.51630312,0.39317623,1.51294185,3.0929954,0.02982740475,873
1747533245340,-0.620759635,0.5497389500000001,0.246741885,1.5209314,2.88260565,-0.05592638325,874
1747533245350,-0.68336034,0.5610876,0.20451997,1.4940335,2.7526433,-0.12463594,875
1747533245360,-0.76341105,0.596964,0.12471326,1.391768,2.5672874,-0.108124346,876
1747533245370,-0.7834238,0.6228341,0.088348724,1.3022858,2.3973777,-0.087884314,877
1747533245380,-0.8756774,0.70361704,0.028066583,1.23837,2.231729,-0.058589544,878
1747533245390,-0.97781537,0.7530386250000001,-0.0486894225,1.13024555,1.80615585,0.0114515925,879
1747533245400,-1.0194272,0.76341105,-0.078830495,1.1020161,1.7006947,0.022903185,880
1747533245410,-1.087519,0.77805454,-0.14399378,0.96779275,1.2942963,-0.0061252705,881
1747533245420,-1.1602482,0.7998976,-0.249304475,0.9108011,1.1526161,-0.029294772,882
1747533245430,-1.20478865,0.81807988,-0.269683255,0.4745753,0.4261057785,-0.129962258,883
1747533245440,-1.2154051,0.8274760800000001,-0.243569135,0.0948085335,-0.0865527415,-0.13262542,884
1747533245450,-1.2039344,0.8263778,-0.22306833,-0.019707393,-0.2130529,-0.10333065,885
1747533245460,-1.138771,0.8053889,-0.15107143,-0.019707393,-0.2130529,-0.10333065,886
1747533245470,-1.0640897,0.7792748,-0.08615221,-0.4788363799999999,-0.69188926,0.131560165,887
1747533245480,-0.8275981,0.6914142,0.0688241465,-0.65673553,-0.90654003,0.198405505,888
1747533245490,-0.7807391,0.6784792,0.10689708,-0.7126619,-0.9938917,0.20612867,889
1747533245500,-0.70410514,0.64187056,0.16742326,-0.8085357,-1.1494204,0.20240025,890
1747533245510,-0.6406503,0.60184515,0.22965786,-0.8740495,-1.3459617,0.1933455,891
1747533245520,-0.5723142,0.5791479,0.255772,-0.8926916,-1.4082797,0.18002969,892
1747533245530,-0.44845516,0.527529725,0.433689745,-0.967260115,-1.3739248,0.20266656,893
1747533245540,-0.37828872,0.5227706,0.47664383,-1.02664865,-1.3736585,0.2322276449999999,894
1747533245550,-0.33948365,0.5232587,0.53009236,-1.0386329,-1.365669,0.23755397,895
1747533245560,-0.36681804,0.5132524,0.58134437,-1.0285128,-1.3640711,0.2625877,896
1747533245570,-0.41807005,0.50763905,0.6108753,-0.98110855,-1.3837786,0.30626354,897
1747533245580,-0.4685899,0.5440035999999999,0.593181105,-0.80134515,-1.64210515,0.26498453,898
1747533245590,-0.45687516,0.5648705,0.5148387400000001,-0.7890946,-1.7712685,0.14141386,899
1747533245600,-0.4429639,0.5762192,0.46224442,-0.8005462,-1.8050907,0.07243799,900
1747533245610,-0.36852646,0.56816524,0.45736328,-0.9139969,-1.8594191,-0.028229509,901
1747533245620,-0.219529485,0.524357,0.55022705,-1.08736865,-1.77712745,-0.124103308,902
1747533245630,-0.188656255,0.5148387649999999,0.681285785,-1.12864765,-1.7539579500000002,-0.149403345,903
1747533245640,-0.24393522,0.499829245,0.734856365,-1.0705908000000002,-1.77260005,-0.110254875,904
1747533245650,-0.27529657,0.49128726,0.75096416,-1.0157297,-1.7875137,-0.07190535,905
1747533245660,-0.34192422,0.5012936,0.74315435,-0.8644621,-1.8407769,0.049534798,906
1747533245670,-0.41697181,0.54131895,0.614536125,-0.6921555699999999,-2.024535,0.237553965,907
1747533245680,-0.416239635,0.56853135,0.486284035,-0.7355651,-2.1939121,0.32756881,908
1747533245690,-0.40098605,0.5776835,0.45394647,-0.917459,-2.27433965,0.39601205,909
1747533245700,-0.3385074,0.571338,0.409284,-1.0263823,-2.2983081,0.43782368,910
1747533245710,-0.24869433,0.5520575,0.40049794,-1.2506205,-2.2349248,0.5390238,911
1747533245720,-0.0913994385,0.4549227,0.47286091,-1.4391723,-2.065015,0.6348976,912
1747533245730,-0.055400997,0.422219,0.5005614,-1.6186693,-1.85382645,0.773648315,913
1747533245740,-0.07443746,0.31654227,0.6570021,-1.6612799,-1.7848506,0.8277105,914
1747533245750,-0.07443746,0.31654227,0.6570021,-1.61254405,-1.85995175,0.82850945,915
1747533245760,-0.0241616671,0.30763416,0.796968935,-1.40987755,-2.1531658,0.695617715,916
1747533245770,0.0339239574,0.309708635,0.769878595,-1.3267869,-2.3624903,0.50946275,917
1747533245780,0.0918875475,0.30751213,0.70178663,-1.3267869,-2.4788704,0.3512709499999999,918
1747533245790,0.1550983699999999,0.267608775,0.6471178,-1.41893225,-2.3947144,0.30866037,919
1747533245800,0.19158493,0.23868799,0.6325964,-1.4748586,-2.328668,0.29827404,920
1747533245810,0.243691165,0.233684815,0.6889736,-1.5883093,-2.2423816,0.31478566,921
1747533245820,0.287499445,0.215868645,0.77305128,-1.67273155,-2.1622206,0.4106594449999999,922
1747533245830,0.312515305,0.17511108,0.84883108,-1.6378441,-2.1350563,0.45193845,923
1747533245840,0.287011325,0.14130915,0.8982527149999999,-1.5369103,-2.1044299,0.416252095,924
1747533245850,0.2672427,0.12642166,0.93107843,-1.4759239,-2.0900488,0.39361522,925
1747533245860,0.27432033,0.1217845625,0.926807405,-0.9784454,-2.3145534,0.086020105,926
1747533245870,0.27432033,0.13740423,0.89105296,-0.8583368499999999,-2.402704,-0.1043959149999999,927
1747533245880,0.268707035,0.18658177,0.74022565,-0.8708537,-2.45916305,-0.2338255449999999,928
1747533245890,0.27017137,0.19475769,0.6811638,-0.912399,-2.4730115,-0.27324033,929
1747533245900,0.28115395,0.19744232,0.61941725,-1.2287825,-2.3712788,-0.023435818,930
1747533245910,0.33191785,0.21599068,0.7106947,-1.3044163,-2.3185482,0.1784318,931
1747533245920,0.422097,0.16815543,0.7493777500000001,-1.3126721,-2.25889325,0.34940675,932
1747533245930,0.4497975,0.14277348,0.7414459,-1.3076121,-2.2301311,0.37124467,933
1747533245940,0.46334268,0.079440635,0.7647534,-1.2825783,-2.2210765,0.30679616,934
1747533245950,0.45199403,0.07175283,0.7817154,-1.2175972,-2.2658174,0.15978967,935
1747533245960,0.3431445,0.15741692,0.78586435,-1.055677,-2.6322684,-0.090014845,936
1747533245970,0.42856455,0.13691612,0.71826047,-1.1147993,-2.8138961,-0.106526445,937
1747533245980,0.5933032,0.11983211,0.6033095,-1.1547467,-2.821353,-0.10226539,938
1747533245990,0.7767122,0.0639429995,0.660784985,-1.3824469,-2.3395871,0.07536746,939
1747533246000,0.7963588,0.029286869,0.73485637,-1.4460965,-2.100169,0.20293288,940
1747533246010,0.7268025,-0.0019524579,0.81417495,-1.3704628,-1.9606192,0.34887412,941
1747533246020,0.67481834,-0.04002539,0.86518294,-1.206412,-1.897236,0.41545314,942
1747533246030,0.65968674,-0.065163285,0.8866599,-0.99708754,-1.969674,0.36112466,943
1747533246040,0.672133665,-0.061136341,0.7983112299999999,-0.70973243,-2.4160198,-0.1504686049999999,944
1747533246050,0.67799103,-0.046858992,0.74510676,-0.61891866,-2.7073696,-0.45327002,945
1747533246060,0.8454143,-0.06882414,0.6965394,-0.646881815,-2.8740834,-0.86526105,946
1747533246070,1.0211354,-0.05759751,0.6487042,-0.6466155,-2.8107002,-0.9502159,947
1747533246080,1.0604287,-0.029042812,0.6655441,-0.60240704,-2.541721,-0.97471696,948
1747533246090,0.65797835,0.06760386,0.7025187900000001,-0.451672115,-2.21574995,-0.559263815,949
1747533246100,0.5864696,0.07297312,0.68433654,-0.36911413,-2.0889835,-0.29134983,950
1747533246110,0.53058046,0.082247294,0.62014943,-0.32437304,-2.0431771,-0.06870956,951
1747533246120,0.546688225,0.07370529,0.549006785,-0.325704605,-2.12546895,0.0937432699999999,952
1747533246130,0.62149175,0.09310784,0.469932245,-0.47031427,-2.47620725,0.0279631924999999,953
1747533246140,0.7808611350000001,0.12056428,0.39012551,-0.6061355,-2.753176,-0.051665325,954
1747533246150,0.88788027,0.12861817,0.3682824,-0.83996105,-3.0248184,-0.1107875,955
1747533246160,1.19453815,0.106775045,0.2729780349999999,-1.2207931,-2.8160265,-0.103330655,956
1747533246170,1.2900866,0.08956901,0.27651685,-1.347027,-2.674879,-0.06870956,957
1747533246180,1.22053035,0.0318494676,0.48909077,-1.5403724,-1.96860865,0.442084735,958
1747533246190,1.074096,-0.0272123819,0.6472398500000001,-1.50175655,-1.5936356,0.836498885,959
1747533246200,1.0355349,-0.052716363,0.6655441,-1.4562165,-1.5355787,0.932639,960
1747533246210,1.02455235,-0.0839556915,0.6616392,-1.40428485,-1.53424715,0.95367798,961
1747533246220,1.0150341,-0.17303659,0.64016217,-1.2532836,-1.6405072,0.82398206,962
1747533246230,1.053107,-0.18255483,0.592571,-1.2175972,-1.814678,0.5885586,963
1747533246240,1.1395032,-0.17230442,0.5432714,-1.2314457,-2.0847225,0.08042747,964
1747533246250,1.1746475,-0.17157225,0.49958518,-1.2596753,-2.0463731,-0.08628642,965
1747533246260,1.1606142,-0.17389079,0.50019534,-1.2373047,-1.8607507,-0.038083204,966
1747533246270,1.0575,-0.17254847,0.5127643,-1.2149341,-1.6751283,0.010120012,967
1747533246280,0.971958,-0.1715722499999999,0.59330317,-1.0333065,-1.4618092,0.417051045,968
1747533246290,1.02796915,-0.174500935,0.55559632,-0.86046735,-1.4125407,0.59761335,969
1747533246300,1.0592085,-0.1718163,0.5359497,-0.7952199,-1.4109428,0.5906891,970
1747533246310,1.0789771,-0.174744985,0.50666284,-0.7827030500000001,-1.43917225,0.5318332649999999,971
1747533246320,1.108386,-0.1991507049999999,0.438326825,-0.8026768,-1.5536882,0.30945933,972
1747533246330,1.1019185,-0.20671648,0.45126185,-0.83516735,-1.6341157,0.026631612,973
1747533246340,1.1065556,-0.21257387,0.46932206,-0.76272935,-1.5962988,-0.04474111,974
1747533246350,1.1102165,-0.21769907,0.49470404,-0.6514092,-1.5180018,-0.076166406,975
1747533246360,1.0994779,-0.20696054,0.50715095,-0.54435015,-1.4929681,-0.058589544,976
1747533246370,1.1277885,-0.19207305,0.46639338,-0.48203218,-1.4727281,-0.00479369,977
1747533246380,1.1848979,-0.19573392,0.42636803,-0.46232477,-1.4040185,0.08628642,978
1747533246390,1.3093672,-0.19085276,0.38536638,-0.51984906,-1.1616709,0.18961707,979
1747533246400,1.3210819,-0.21599068,0.41123646,-0.53795856,-1.0183928,0.21411815,980
1747533246410,1.2956998,-0.2511349,0.4656612,-0.5075985,-0.9171927,0.2247708,981
1747533246420,1.2717823,-0.27480847,0.52399087,-0.41918156,-0.85487473,0.2082592,982
1747533246430,1.23541775,-0.23722364,0.4990970799999999,-0.16724652,-0.71585774,0.082558,983
1747533246440,1.17171885,-0.197442315,0.44625868,-0.116646458,-0.59548285,0.0274305595,984
1747533246450,1.1321816,-0.17913802,0.41636166,-0.123038046,-0.5603291,0.027696876,985
1747533246460,1.0928884,-0.14594623,0.38170552,-0.17470337,-0.49055427,0.07084008,986
1747533246470,1.087519,-0.10665302,0.3790209,-0.311323525,-0.4375573849999999,0.117978035,987
1747533246480,1.0551815,-0.0942060949999999,0.36327922,-0.42903524,-0.41119209,0.17204021,988
1747533246490,1.0499343,-0.08908089,0.36315718,-0.46924898,-0.41065946,0.20399815,989
1747533246500,1.0708012,-0.093840005,0.37438381,-0.5869607299999999,-0.359260425,0.4000068,990
1747533246510,1.0814177,-0.10372432,0.38439015,-0.6178534,-0.33289513,0.48043427,991
1747533246520,1.1248599,-0.12495731,0.40952805,-0.63383234,-0.24714136,0.64341974,992
1747533246530,1.1731832,-0.13935669,0.42978483,-0.6040049,-0.15339808,0.7707188,993
1747533246540,1.274955,-0.276516865,0.39146784,-0.56885123,0.14274544,0.86872315,994
1747533246550,1.2786158,-0.3014107,0.39537275,-0.5656554,0.28495824,0.850081,995
1747533246560,1.2678773,-0.3231318,0.42783237,-0.52144694,0.37444046,0.7861652,996
1747533246570,1.26202,-0.34949,0.47884035,-0.40906155,0.38083205,0.66206187,997
1747533246580,1.20405645,-0.37963104,0.475179475,-0.25992453,0.35739622,0.4857606,998
1747533246590,1.1725731,-0.37828873,0.429662775,-0.018642128,0.2625877,0.11558119,999
1747533246600,1.1695224,-0.37169918,0.4131889,0.04261058,0.2263687,-0.03781689,1000
