timestamp,acc_x,acc_y,acc_z,gyro_x,gyro_y,gyro_z,id
1747533106660,0.328012935,0.50702894,0.640772325,0.3536678,-0.240217135,-0.0490021645,1
1747533106670,0.3917118899999999,0.69617331,0.23673555,0.264718225,0.27590349,-0.1145159275,2
1747533106680,0.2406404649999999,0.95511807,-0.24576565,0.14434333,0.3898867849999999,-0.1283643675,3
1747533106690,0.179748165,0.9603653,-0.245155505,-0.037550575,0.52171326,-0.13448964,4
1747533106700,0.12800802,0.959755115,-0.2024454849999999,-0.170176,0.5936186,-0.117445407,5
1747533106710,0.106530987,0.960121185,-0.144847975,-0.158724405,0.55660065,-0.079095885,6
1747533106720,0.124835277,0.970249595,-0.091033355,-0.07057377,0.446878425,-0.040213733,7
1747533106730,0.183653075,1.000634675,-0.0750476025,0.053795855,0.29694247,-0.01597896725,8
1747533106740,0.223434405,1.019183,-0.0992092725,0.21837922,0.1014664419999999,0.00585895475,9
1747533106750,0.2294138,1.0172306,-0.12129646,0.31957935,-0.0181094955,0.0215716055,10
1747533106760,0.29897013,0.988919945,-0.206838515,0.3017361699999999,0.0101200125,0.0207726565,11
1747533106770,0.32459613,0.972568125,-0.25906676,0.228499235,0.083090628,-0.0053263229999999,12
1747533106780,0.296895615,0.94010855,-0.30031244,0.013582125,0.211721313,-0.095074856,13
1747533106790,0.20281156,0.92497702,-0.30861039,-0.217047625,0.311057225,-0.182692855,14
1747533106800,0.091887553,0.94328127,-0.282252205,-0.32623723,0.328634085,-0.192812865,15
1747533106810,0.006833604,0.9582908,-0.249426505,-0.3914846899999999,0.33688988,-0.15073492,16
1747533106820,-0.036608586,0.95890097,-0.22855961,-0.42051315,0.32943303,-0.07323693,17
1747533106830,-0.0263581824,0.95462992,-0.182066705,-0.346477275,0.246342405,0.0306263525,18
1747533106840,0.0159857510999999,0.949870785,-0.129228307,-0.1824265475,0.110254871,0.1089232875,19
1747533106850,0.0607702565,0.947552235,-0.120442249,-0.0146473874999999,-0.0191747589999999,0.1379517499999999,20
1747533106860,0.12861817,0.95609425,-0.141431177,0.13209279,-0.1600559849999999,0.14301176,21
1747533106870,0.214282265,0.98245245,-0.19085277,0.215183415,-0.30466563,0.0921453775,22
1747533106880,0.254673735,1.0118613,-0.29677361,0.08175904,-0.3390204,-0.0242347645,23
1747533106890,0.237833785,1.00832247,-0.388051015,-0.207460265,-0.2231728949999999,-0.110254867,24
1747533106900,0.20427592,0.98049997,-0.380241185,-0.46498795,-0.0705737682999999,-0.129962265,25
1747533106910,0.17047399,0.9525554,-0.29079421,-0.65966503,0.0615190216999999,-0.13528859,26
1747533106920,0.15790504,0.938156,-0.2255089,-0.73636408,0.153398085,-0.1288969999999999,27
1747533106930,0.084565838,0.8873921499999999,0.05088594,-0.5289038149999999,0.1241033129999999,-0.0569916495,28
1747533106940,0.04783522,0.8764095999999999,0.205374175,-0.094808535,-0.042610582,0.0612527055,29
1747533106950,0.066871684,0.879094225,0.200737085,0.28735508,-0.230896085,0.1424791249999999,30
1747533106960,0.087616552,0.88495159,0.1143408225,0.5520733,-0.37630468,0.19307919,31
1747533106970,0.1304486,0.900937345,-0.0610143125,0.65673554,-0.43729106,0.21624869,32
1747533106980,0.165104725,0.93290886,-0.2205057249999999,0.6298376,-0.390153115,0.22690133,33
1747533106990,0.167301245,0.96170758,-0.27224585,0.4825648,-0.26391927,0.22583606,34
1747533107000,0.177673685,0.977205175,-0.2831064,0.32437303,-0.0988032805,0.2327602799999999,35
1747533107010,0.18877829,0.992580825,-0.2816420699999999,0.19307919,0.0748348245,0.23782029,36
1747533107020,0.183409025,1.0056379,-0.26638849,0.12090752,0.249271875,0.25086978,37
1747533107030,0.1549763499999999,1.02040335,-0.27529658,0.10892329,0.324639335,0.29108351,38
1747533107040,0.13886857,1.03321635,-0.32032515,0.1054611799999999,0.25433189,0.3462109399999999,39
1747533107050,0.13886857,1.0291894,-0.3615708199999999,0.0862864224999999,0.131560165,0.3842941549999999,40
1747533107060,0.12129645,1.0196712,-0.3839020549999999,0.06791061,-0.010120015,0.399207865,41
1747533107070,0.071508771,1.000390675,-0.411602555,0.0170442315,-0.200269725,0.39867522,42
1747533107080,0.0112266324999999,0.990018225,-0.43063903,-0.064981131,-0.3624562249999999,0.401604695,43
1747533107090,-0.0475911635,0.99660775,-0.416117625,-0.147539125,-0.42450788,0.431165785,44
1747533107100,-0.10762925,0.99502135,-0.38561046,-0.2506034649999999,-0.4181163,0.51185956,45
1747533107110,-0.1366720599999999,1.0013669,-0.35766591,-0.362456235,-0.333161455,0.6277071000000001,46
1747533107120,-0.0957924679999999,1.0327283,-0.330453525,-0.5129248200000001,-0.142745438,0.726244075,47
1747533107130,-0.047713192,1.05542555,-0.303851285,-0.64235445,0.026631612,0.746750375,48
1747533107140,-0.063576914,1.0507884,-0.273588185,-0.67377978,0.0761664099999999,0.695617665,49
1747533107150,-0.08615221,1.0465174,-0.2523552,-0.67324716,0.08575379,0.66525763,50
1747533107160,-0.191951025,1.0348027,-0.21086546,-0.5289038,-0.0074568525,0.5685849350000001,51
1747533107170,-0.33862944,1.0560357,-0.212085745,-0.393615215,-0.1158475125,0.53902382,52
1747533107180,-0.4689560149999999,1.1010643,-0.23380684,-0.216248685,-0.26178875,0.528104835,53
1747533107190,-0.5377801499999999,1.1503638,-0.27017137,-0.106526445,-0.3158509149999999,0.509196405,54
1747533107200,-0.5725583,1.177088,-0.2928687,-0.10333065,-0.2860235,0.49747851,55
1747533107210,-0.60123505,1.20564275,-0.3219115099999999,-0.168311785,-0.081759045,0.47990164,56
1747533107220,-0.657368225,1.2500612,-0.36218096,-0.32250882,0.38855522,0.479102685,57
1747533107230,-0.62503061,1.2727585499999998,-0.37011282,-0.45167214,0.739559865,0.498543765,58
1747533107240,-0.453824445,1.29142895,-0.35180852,-0.49827743,0.84528735,0.447144765,59
1747533107250,-0.17913802,1.31327205,-0.27822527,-0.4572647399999999,0.804540985,0.251136105,60
1747533107260,-0.0184263215,1.32181405,-0.190120605,-0.19041602,0.538757505,-0.182426535,61
1747533107270,-0.0636989465,1.3115636,-0.161077785,0.15180019,0.23675503,-0.547545925,62
1747533107280,-0.149485065,1.2925271,-0.19573391,0.3565972699999999,0.0822916834999999,-0.627174435,63
1747533107290,-0.20207939,1.2717823,-0.25479576,0.4745753,0.004261058,-0.6066681,64
1747533107300,-0.1376482799999999,1.24408185,-0.30348518,0.51691955,-0.0063915865,-0.56245965,65
1747533107310,-0.0357543859,1.21381875,-0.3408259449999999,0.4663194899999999,0.108390659,-0.5632585999999999,66
1747533107320,0.0024405721,1.1813591,-0.3599844399999999,0.35579832,0.29161615,-0.6050702,67
1747533107330,0.025259925,1.13340185,-0.35705575,0.24767398,0.44155212,-0.6543387,68
1747533107340,0.037828874,1.1048472,-0.34851375,0.1933455,0.5123922,-0.6801714,69
1747533107350,0.08956901,1.0660421,-0.32728076,0.15126756,0.53955644,-0.7451525,70
1747533107360,0.11006982,1.0589644,-0.2723679,0.18908444,0.40053943,-0.87032104,71
1747533107370,0.12032023,1.0633575,-0.24186075,0.24181503,0.28868666,-0.8809737,72
1747533107380,0.162298065,1.0596966,-0.156318665,0.4018710199999999,0.1360875349999999,-0.88550105,73
1747533107390,0.17340267,1.04566325,-0.1127544525,0.628506035,0.094275905,-0.8876316,74
1747533107400,0.15058332,1.01967115,-0.1065309905,0.87751159,0.130494895,-0.86153265,75
1747533107410,0.0907892985,0.99111652,-0.155098378,1.008272825,0.18162759,-0.7917578350000001,76
1747533107420,0.03282570075,0.95829082,-0.228071495,1.0570087,0.2055960399999999,-0.6897587350000001,77
1747533107430,0.0102504045,0.9437694,-0.26529023,1.0652645,0.21571605,-0.6317018,78
1747533107440,0.05930591438,0.907160785,-0.38182756,0.87298425,0.28229508,-0.4250405299999999,79
1747533107450,0.148630868,0.89483585,-0.43417786,0.6559366,0.3307646199999999,-0.34008568,80
1747533107460,0.200371005,0.899106885,-0.43527612,0.50493535,0.309991955,-0.352336225,81
1747533107470,0.24015234,0.907282835,-0.429418755,0.37151098,0.21678131,-0.401072075,82
1747533107480,0.25796852,0.9132622,-0.42563587,0.30999196,0.15020229,-0.4346279,83
1747533107490,0.184995395,0.930834335,-0.306901975,0.217313955,-0.0790958864999999,-0.5038701,84
1747533107500,0.098599135,0.9332749,-0.22380048,0.22210764,-0.0719053514999999,-0.43835633,85
1747533107510,0.054668827,0.92314655,-0.20891299,0.22690133,0.0388821514999999,-0.324905665,86
1747533107520,0.0113486624999999,0.915214725,-0.201469255,0.22770028,0.170175998,-0.191214975,87
1747533107530,-0.0234294965,0.8993509749999999,-0.192195085,0.24021713,0.282295075,-0.044208475,88
1747533107540,0.030873243,0.8925173,-0.20098115,0.28868666,0.32091091,0.12703278,89
1747533107550,0.09786696,0.8969103,-0.21452633,0.32597092,0.31265512,0.22210763,90
1747533107560,0.194757685,0.92363465,-0.251378975,0.35127096,0.274039285,0.20213393,91
1747533107570,0.21965154,0.9447456,-0.31483385,0.39574575,0.05166533,0.08815063775,92
1747533107580,0.18633771,0.96158555,-0.333382205,0.3499393699999999,-0.2063949949999999,-0.0612527072499999,93
1747533107590,0.127275845,0.98196435,-0.352784755,0.2298308049999999,-0.2391518799999999,-0.1059938149999999,94
1747533107600,0.0717528275,0.983062625,-0.341924205,0.116912775,-0.11664646,-0.054328488,95
1747533107610,0.022453266,0.976839125,-0.31947094,0.00692422,0.05699165,0.049801114,96
1747533107620,-0.0124469195,0.9759849,-0.3006785349999999,-0.088683265,0.230629765,0.181893907,97
1747533107630,-0.00719968825,0.969395365,-0.297017675,-0.209590785,0.422377365,0.3904194399999999,98
1747533107640,0.08285743475,0.962927865,-0.3011666349999999,-0.305198265,0.53076801,0.536360685,99
1747533107650,0.20757069,0.97391045,-0.285180895,-0.311856165,0.4559331799999999,0.48975535,100
1747533107660,0.283228445,0.9903843,-0.24588769,-0.2577939999999999,0.249538195,0.3507383149999999,101
1747533107670,0.30519359,0.99831618,-0.208058815,-0.15073492,-0.038882155,0.179230735,102
1747533107680,0.241616665,1.00258718,-0.22624107,-0.0090547475,-0.39041943,0.008522115,103
1747533107690,0.155586495,1.00417355,-0.269805285,0.0458063715,-0.58483018,-0.071372717,104
1747533107700,0.1219066,0.99795007,-0.267242685,-0.0130494899999999,-0.5166532500000001,-0.0410126799999999,105
1747533107710,0.092619725,0.993557005,-0.243813175,-0.086286422,-0.345145685,0.027430557,106
1747533107720,0.068702116,0.987577635,-0.2034217099999999,-0.166447568,-0.1115864519999999,0.1328917399999999,107
1747533107730,0.083955696,0.981842325,-0.1547323,-0.2149171,0.112119083,0.26897928,108
1747533107740,0.16107779,0.980133925,-0.129594402,-0.189617075,0.1984055049999999,0.332895145,109
1747533107750,0.24393523,0.98294055,-0.128374122,-0.1163801449999999,0.157925455,0.28016455,110
1747533107760,0.3090985149999999,0.98586925,-0.149363045,-0.032224251,0.0500674285,0.1685781,111
1747533107770,0.33033149,0.988919975,-0.1943916,0.081759049,-0.2388855465,-0.046605315,112
1747533107780,0.26468009,0.995509505,-0.2281935199999999,0.15446335,-0.45060685,-0.19281286,113
1747533107790,0.1648606749999999,0.99758398,-0.2373456749999999,0.179497065,-0.71505875,-0.22876554,114
1747533107800,0.1104359024999999,0.98928603,-0.25259926,0.16990969,-0.7669904,-0.20026971,115
1747533107810,0.1249573175,0.983062595,-0.27419832,0.02663161,-0.55953015,-0.0189084465,116
1747533107820,0.162176045,0.981842315,-0.283472495,-0.169643365,-0.2466087119999999,0.1390170085,117
1747533107830,0.188290165,0.97671712,-0.2705374499999999,-0.352868855,0.021038973,0.271908755,118
1747533107840,0.255894035,0.972568155,-0.261629375,-0.44394897,0.0780306225,0.300670895,119
1747533107850,0.37145514,0.976351035,-0.25333144,-0.5052016850000001,0.0268979285,0.229298175,120
1747533107860,0.43039497,0.98318465,-0.21367212,-0.5131911650000001,-0.106792764,0.07856325665,121
1747533107870,0.338629445,0.95426385,-0.1275199075,-0.45140581,-0.293214045,-0.07803062335,122
1747533107880,0.198784625,0.9120419,-0.0666276275,-0.29614351,-0.435959475,-0.11318435,123
1747533107890,0.12520137,0.89154106,-0.071264714,-0.166447565,-0.44474791,-0.0170442299999999,124
1747533107900,0.12520137,0.89154106,-0.071264714,-0.14168017,-0.41385525,0.04261058,125
1747533107910,0.13118077,0.8960561300000001,-0.12983845,-0.18482338,-0.1968076,0.22556976,126
1747533107920,0.22099384,0.9064286,-0.1818226399999999,-0.354733065,0.0418116299999999,0.31318775,127
1747533107930,0.346805335,0.918875525,-0.195001735,-0.52304485,0.2101234149999999,0.288952975,128
1747533107940,0.376214235,0.931078375,-0.15277984,-0.54674698,0.178165485,0.1600559825,129
1747533107950,0.3653537,0.9366917,-0.12349297,-0.53316486,0.1304949,0.084155895,130
1747533107960,0.22477672,0.908136995,-0.0527163675,-0.372043615,-0.0724379817,0.0513990125,131
1747533107970,0.15888126,0.87482322,-0.0192805222449999,-0.1446096475,-0.2340918599999999,0.14274544,132
1747533107980,0.14472594,0.8710403200000001,-0.023795580745,0.0615190225,-0.341683575,0.25672874,133
1747533107990,0.189388425,0.89300549,-0.0895690085,0.10199907,-0.3355583,0.30839406,134
1747533108000,0.2295358499999999,0.91606892,-0.16290822,0.05139900835,-0.24900556,0.326769875,135
1747533108010,0.23380685,0.9327868,-0.213550095,-0.06098639165,-0.1009338085,0.33822148,136
1747533108020,0.21293995,0.929003925,-0.217821085,-0.231428705,0.0623179715,0.38296257,137
1747533108030,0.2134280599999999,0.91753325,-0.1709620949999999,-0.30652985,0.100667492,0.41758366,138
1747533108040,0.245033465,0.912041925,-0.115195018,-0.20879184,-0.0135821229999999,0.389354155,139
1747533108050,0.26114124,0.9103335,-0.090789296,-0.13901702,-0.08575379,0.36325517,140
1747533108060,0.24759607,0.91765529,-0.127641945,0.0617853395,-0.31585091,0.25166874,141
1747533108070,0.17718556,0.909723405,-0.23295264,0.0354200435,-0.391751005,0.25619611,142
1747533108080,0.11202228,0.89263938,-0.300190425,-0.105461179,-0.380299405,0.34967307,143
1747533108090,0.0976229,0.879948415,-0.263093725,-0.22397185,-0.32543829,0.4711132,144
1747533108100,0.1641285,0.84602448,-0.191462905,-0.291349825,-0.25806032,0.6511429,145
1747533108110,0.2925026,0.8178358649999999,-0.147288555,-0.28256139,-0.22796659,0.75687042,146
1747533108120,0.393542315,0.811612365,-0.16949777,-0.230363435,-0.2660498,0.712129295,147
1747533108130,0.43442193,0.80685323,-0.19475769,-0.20612867,-0.29614353,0.67697555,148
1747533108140,0.46029195,0.78415596,-0.2809099,-0.20879184,-0.36645097,0.62584287,149
1747533108150,0.45589894,0.74339837,-0.3807293,-0.30200246,-0.45486793,0.6332997,150
1747533108160,0.47981656,0.65431745,-0.28579104,-0.6599313250000001,-0.609597575,0.8575379000000001,151
1747533108170,0.49641246,0.6433349,-0.23990828,-0.7105314,-0.6098639,0.9219864,152
1747533108180,0.6114854350000001,0.6035535999999999,-0.11763559,-0.7941546500000001,-0.4561995,1.12598455,153
1747533108190,0.7455949,0.60147912,-0.0075657714999999,-0.72464613,-0.32304144,1.21546675,154
1747533108200,0.8334555,0.60843474,0.059794027,-0.64768076,-0.24927188,1.2559468,155
1747533108210,0.90728283,0.6626154200000001,0.0981110135,-0.4841626799999999,-0.331563565,1.19256355,156
1747533108220,0.96646673,0.74620503,0.153145925,-0.2231729,-0.493217425,1.09615715,157
1747533108230,0.93852215,0.80123993,0.188534225,-0.01411475,-0.65993132,1.03517075,158
1747533108240,0.9541418,0.8581052650000001,0.2317323499999999,0.3283677499999999,-0.86126632,0.893224235,159
1747533108250,1.01625435,0.886049835,0.232952635,0.65061025,-0.97098855,0.6873618850000001,160
1747533108260,1.0837362,0.8764095700000001,0.16949775,0.75633775,-0.89482215,0.49481532,161
1747533108270,1.1180263,0.8700641,0.12935033,0.7707188,-0.8229168,0.39414784,162
1747533108280,1.12803255,0.83113693,-0.0236735535,0.5757754500000001,-0.40746366,0.06684534,163
1747533108290,1.08446835,0.805022825,-0.06552937,0.27244138,0.0367516299999999,-0.15845809,164
1747533108300,1.04053805,0.798677355,-0.017206035,0.045273739,0.40373524,-0.336090935,165
1747533108310,1.0197932,0.8089277450000001,0.064187055,0.068709557,0.5352954,-0.447943675,166
1747533108320,1.01100715,0.811490315,0.11629328,0.211454998,0.5944175700000001,-0.5621933,167
1747533108330,1.00710225,0.79001327,0.09969739,0.478570075,0.57044912,-0.68097032,168
1747533108340,0.97305625,0.7687803200000001,0.0218431249999999,0.884169475,0.35340149,-0.80720417,169
1747533108350,0.93949835,0.768902335,-0.08358961,1.1496866,0.0774979915,-0.88630005,170
1747533108360,0.9366917,0.77170897,-0.14399378,1.1792477,-0.018109497,-0.9006811,171
1747533108370,0.97891357,0.753648775,-0.30507158,0.96805905,-0.16831178,-0.9749833,172
1747533108380,0.98477095,0.725338125,-0.34070392,0.57630806,-0.052464277,-1.0788466,173
1747533108390,0.92070598,0.694342875,-0.3148338499999999,0.162719145,0.210656038,-1.1781825,174
1747533108400,0.79062345,0.666764405,-0.250768825,-0.0748348299999999,0.502538485,-1.2194614499999998,175
1747533108410,0.618929135,0.6447992300000001,-0.1508273749999999,-0.201867615,0.71852085,-1.20641195,176
1747533108420,0.52350277,0.6382097,-0.09396204,-0.2231729,0.7771104,-1.1808456,177
1747533108430,0.364255445,0.637233495,0.0647971985,0.070041145,0.637028115,-0.91932323,178
1747533108440,0.32532832,0.63357264,0.14179726,0.294013,0.5049353,-0.77444726,179
1747533108450,0.33765321,0.6585885,0.14911898,0.64128922,0.2900182225,-0.62238076,180
1747533108460,0.37352962,0.697515605,0.115072995,1.11426662,-0.0404800525,-0.4218447199999999,181
1747533108470,0.41550747,0.730341325,0.01171475,1.3044163000000002,-0.247407675,-0.35127094,182
1747533108480,0.45211605,0.7791528000000001,-0.2156245799999999,1.19282985,-0.341949885,-0.31478564,183
1747533108490,0.47823017,0.8090498,-0.428930625,0.83676522,-0.24154871,-0.31505196,184
1747533108500,0.467247605,0.8172257,-0.4998292399999999,0.455400555,-0.01118528,-0.337688835,185
1747533108510,0.414287185,0.83357755,-0.5336311499999999,0.044208475,0.240749765,-0.3336941,186
1747533108520,0.328134975,0.8406552,-0.52130627,-0.55873121,0.5491438200000001,-0.234624495,187
1747533108530,0.268462975,0.83870272,-0.45455661,-1.09455925,0.7920241,-0.0982706415,188
1747533108540,0.25211114,0.844804195,-0.37609221,-1.3350426999999998,0.8823052499999999,-0.0005326315,189
1747533108550,0.24332508,0.85175985,-0.34119204,-1.4327807,0.9129316,0.0479369,190
1747533108560,0.22221413,0.8804365000000001,-0.24356912,-1.6263925,0.91293165,0.1331580525,191
1747533108570,0.161687935,0.8878802299999999,-0.105310694,-1.6125441,0.8644621,0.196807605,192
1747533108580,0.0851759815,0.89532398,0.042221904,-1.4495586500000002,0.7797736,0.312122485,193
1747533108590,0.0751696315,0.90825905,0.138624518,-1.19735725,0.65859978,0.4431500149999999,194
1747533108600,0.12751991,0.941939,0.205618235,-0.8588694299999999,0.4990764,0.535561725,195
1747533108610,0.191096825,1.0206475,0.1590033,-0.47750479,0.330498295,0.56219335,196
1747533108620,0.215380525,1.08459045,0.0322155575,-0.0391484749999999,0.11558119,0.5547364699999999,197
1747533108630,0.20110318,1.1032608,-0.0811490375,0.259125585,-0.04048005,0.54967645,198
1747533108640,0.174989055,1.12290745,-0.1934153699999999,0.29481195,-0.074302197,0.55447015,199
1747533108650,0.16205402,1.1346222,-0.25333142,0.2775014,-0.082025364,0.55766594,200
1747533108660,0.11324256,1.13181545,-0.34363261,0.0748348255,-0.042077945,0.53955645,201
1747533108670,0.0555230235,1.14072355,-0.355713445,-0.1901496995,0.061519025,0.54861118,202
1747533108680,0.0236735535,1.1460928,-0.33862944,-0.51718587,0.18855181,0.58962387,203
1747533108690,0.044906535,1.1488994,-0.2826183,-0.5563343350000001,0.133158055,0.597080735,204
1747533108700,0.010616491,1.1840437,-0.237589735,-0.62211445,0.067377974,0.6239786700000001,205
1747533108710,-0.0560111365,1.2372481999999998,-0.1978084,-0.6253102500000001,0.0300937207,0.67138292,206
1747533108720,-0.0643090825,1.2690975999999998,-0.189754515,-0.5635249,-0.1307612033,0.73849455,207
1747533108730,-0.046736963,1.2723924,-0.212329805,-0.515854335,-0.3206446,0.745418775,208
1747533108740,-0.0307512135,1.2642166,-0.20708257,-0.492951135,-0.413588925,0.671915575,209
1747533108750,-0.0373407605,1.2431057,-0.21330604,-0.464721615,-0.4644552899999999,0.58349865,210
1747533108760,-0.108727505,1.20515475,-0.23307468,-0.44341633,-0.50147325,0.506000635,211
1747533108770,-0.26468008,1.1493875999999998,-0.273832235,-0.4825647949999999,-0.5965481100000001,0.527039585,212
1747533108780,-0.36718413,1.0978914999999998,-0.3022648999999999,-0.562193305,-0.652208175,0.6263755,213
1747533108790,-0.36169285,1.07617045,-0.2916484,-0.60267335,-0.56645438,0.716923,214
1747533108800,-0.325572375,1.07812295,-0.277127,-0.58136806,-0.42770368,0.7728494,215
1747533108810,-0.24247088,1.0992339,-0.3090985149999999,-0.53183326,-0.342482525,0.75926725,216
1747533108820,-0.175111075,1.12742245,-0.34582913,-0.462591075,-0.374706765,0.59814599,217
1747533108830,-0.200370995,1.1564652,-0.340581895,-0.38429415,-0.456732125,0.387756275,218
1747533108840,-0.283716545,1.1840437,-0.32337585,-0.3171825,-0.497478485,0.251136105,219
1747533108850,-0.449187355,1.2269978,-0.301654755,-0.15233281,-0.3850931,-0.008522116,220
1747533108860,-0.593181135,1.26214205,-0.276516855,-0.11291803,-0.32756882,-0.0529969079999999,221
1747533108870,-0.6277152500000001,1.24432585,-0.25320939,-0.031691619,-0.19414445,-0.105727498,222
1747533108880,-0.6344268200000001,1.2005175499999998,-0.240030305,0.054861121,-0.01331581,-0.098803278,223
1747533108890,-0.64150447,1.1635429,-0.2331967,0.15073492,0.18961707,-0.034887411,224
1747533108900,-0.57316845,1.1238836,-0.263825895,0.275903495,0.418382625,0.142212799,225
1747533108910,-0.3620589349999999,1.1118028,-0.3131254599999999,0.3752394049999999,0.53103435,0.27989823,226
1747533108920,-0.0983550719999999,1.15451285,-0.34143608,0.428502615,0.44528055,0.2263687,227
1747533108930,0.130570628,1.2128424999999998,-0.36938063,0.4745753,0.275370865,0.043675847,228
1747533108940,0.303119115,1.28008025,-0.42368338,0.4546016,-0.0362189849999999,-0.391218373,229
1747533108950,0.34802565,1.3276713999999998,-0.4544346,0.3685815,-0.294279305,-0.79628517,230
1747533108960,0.3214234,1.3367015,-0.447601,0.3206446,-0.34301516,-0.8863,231
1747533108970,0.3214234,1.3367015,-0.447601,0.3206446,-0.34301516,-0.8863,232
1747533108980,0.178161785,1.2795922000000002,-0.378410775,0.0135821199999999,-0.13448964,-1.01732755,233
1747533108990,0.10848344,1.22162855,-0.313003425,-0.135022275,0.163251775,-0.9622001,234
1747533109000,0.0519841915,1.15646525,-0.24552159,-0.2242381749999999,0.4287689449999999,-0.864462115,235
1747533109010,0.0407575595,1.1122909,-0.194147545,-0.20373183,0.50014168,-0.780306215,236
1747533109020,0.054546793,1.0817837,-0.1330112,-0.0948085367499999,0.46072689,-0.69934612,237
1747533109030,0.06882414,1.0711672,-0.10079564,-0.0127831735,0.40959418,-0.66152924,238
1747533109040,0.2205057249999999,1.0625032499999998,-0.0339239575,0.42690472,0.0378168899999999,-0.7384946,239
1747533109050,0.27041543,1.0662861,-0.024893839,0.6631271,-0.18162759,-0.809601,240
1747533109060,0.24796216,1.0548154,-0.07272906,0.84209156,-0.37337518,-0.8745821,241
1747533109070,0.183897135,1.03114195,-0.199516795,0.91293165,-0.47617321,-0.8796421249999999,242
1747533109080,0.15692881,1.01454605,-0.291282315,0.748614605,-0.28549088,-0.823449425,243
1747533109090,0.1180016825,0.9903843,-0.356201565,0.4420847599999999,0.0854874749999999,-0.7139934800000001,244
1747533109100,0.0805388915,0.9674429,-0.354493165,0.29188246,0.26525086,-0.65247446,245
1747533109110,0.055889111,0.93717985,-0.313491525,-0.0029294749999999,0.5874933600000001,-0.46365635,246
1747533109120,0.086518297,0.911919935,-0.23832189,-0.096140115,0.6764429350000001,-0.351004625,247
1747533109130,0.19365943,0.918387415,-0.139234655,-0.078563255,0.64874605,-0.32517196,248
1747533109140,0.281398015,0.93437318,-0.092497698,0.083889575,0.415985765,-0.38376151,249
1747533109150,0.29530928,0.9364477,-0.099087246,0.21038973,0.22530343,-0.42237735,250
1747533109160,0.24332508,0.9314445,-0.133499313,0.278832965,0.096406432,-0.453270025,251
1747533109170,0.15936938,0.9216822,-0.16449458,0.36272254,-0.052996908,-0.45193844,252
1747533109180,0.07883049,0.91155385,-0.127031795,0.4138552399999999,0.0247673979999999,-0.3078614149999999,253
1747533109190,0.0212329815,0.903499985,-0.0832235225,0.4783037499999999,0.197606558,-0.123570672,254
1747533109200,0.0259920975,0.8995950349999999,-0.0787084624999999,0.5366269699999999,0.329166725,0.0085221155,255
1747533109210,0.109947786,0.9055744,-0.1040904149999999,0.59068912,0.412523675,0.0798948325,256
1747533109220,0.23539321,0.931688525,-0.15168158,0.63729445,0.435959485,0.0513990084999999,257
1747533109230,0.284814805,0.977327275,-0.246741885,0.644218665,0.329166715,-0.1004011765,258
1747533109240,0.23856596,0.998194175,-0.336188875,0.588558585,0.1802960049999999,-0.229298175,259
1747533109250,0.19817449,0.99233675,-0.358032,0.54807854,0.13528858,-0.24660872,260
1747533109260,0.1098257625,0.974764615,-0.3122712549999999,0.448476325,-0.008522117,-0.155262295,261
1747533109270,0.0744374635,0.9759849,-0.23612539,0.4567321399999999,-0.054328485,-0.06231797,262
1747533109280,0.065773431,0.985625165,-0.200371,0.53449644,-0.006924215,0.10759171,263
1747533109290,0.105554755,1.0006347,-0.241616675,0.592553345,0.081492732,0.26205506,264
1747533109300,0.1924391349999999,1.01393585,-0.30128868,0.55739962,0.134755952,0.29507826,265
1747533109310,0.2776151249999999,1.0236980999999998,-0.3511983899999999,0.4775047999999999,0.164583355,0.2532666249999999,266
1747533109320,0.3586421199999999,1.0235759999999998,-0.3965930199999999,0.2913498399999999,0.08948221335,0.059921125,267
1747533109330,0.3863426199999999,1.0225998,-0.3969591,0.116912775,-0.0644484966499999,-0.1704423099999999,268
1747533109340,0.32630455,1.0206474,-0.33570075,0.07403588,-0.20160129,-0.28602351,269
1747533109350,0.25308737,1.0083225,-0.26223952,0.08815063,-0.30200246,-0.333960415,270
1747533109360,0.1931713099999999,0.995753535,-0.201713315,0.143810705,-0.33049829,-0.313986705,271
1747533109370,0.1350856799999999,0.99221471,-0.17242644,0.25885927,-0.23915187,-0.183491805,272
1747533109380,0.10775127,0.989164025,-0.18963247,0.361657285,-0.1073253929999999,-0.029561087,273
1747533109390,0.1516815799999999,0.98745565,-0.236735525,0.388022575,-0.0418116305,0.048203218,274
1747533109400,0.25284332,0.99904835,-0.30104463,0.36938044,-0.0396811014999999,0.0585895465,275
1747533109410,0.335090605,1.0150341,-0.3759702,0.21198762,-0.131293844,-0.0836232635,276
1747533109420,0.340093775,1.0141799,-0.39451854,-0.039414786,-0.23116238,-0.28336033,277
1747533109430,0.2885976999999999,1.0056379,-0.3427784,-0.075900093,-0.2205097349999999,-0.295344565,278
1747533109440,0.228681635,1.00295325,-0.28078786,-0.128630685,-0.17816548,-0.29614352,279
1747533109450,0.198540565,0.9947773,-0.23978625,-0.153930715,-0.1014664435,-0.259391895,280
1747533109460,0.17071804,0.98062202,-0.215014435,-0.17283916,-0.0055926385,-0.206661305,281
1747533109470,0.133621343,0.96231777,-0.206106345,-0.20772657,0.15206651,-0.097205381,282
1747533109480,0.127153833,0.92888192,-0.21586864,-0.254864515,0.3171825,0.051399009,283
1747533109490,0.142041325,0.89642227,-0.21721095,-0.28122981,0.39521311,0.15446334,284
1747533109500,0.168643565,0.889710665,-0.195123765,-0.26098979,0.38748994,0.198671815,285
1747533109510,0.2225802049999999,0.895201915,-0.16119982,-0.183491805,0.279099285,0.174437055,286
1747533109520,0.283838575,0.9138723,-0.147288555,0.0098536949999999,-0.04846953,0.0308926725,287
1747533109530,0.29177045,0.93656965,-0.17303659,0.1816275949999999,-0.38402784,-0.1086569725,288
1747533109540,0.244301315,0.93742387,-0.221726015,0.20213393,-0.4929511399999999,-0.1302285799999999,289
1747533109550,0.198174485,0.92631927,-0.271025575,0.14034859,-0.47990164,-0.096406435,290
1747533109560,0.164372555,0.9060625,-0.301898805,-0.0865527399999999,-0.262587685,0.0154463349999999,291
1747533109570,0.160955755,0.8844634499999999,-0.289085805,-0.32330777,-0.0047936899999999,0.127565415,292
1747533109580,0.174989045,0.8703081349999999,-0.247229995,-0.4159857799999999,0.12117383,0.1736381,293
1747533109590,0.17218239,0.8556647,-0.1973202849999999,-0.44315001,0.1789644249999999,0.21012341,294
1747533109600,0.1909748,0.847488765,-0.138868575,-0.397077315,0.12809805,0.226102375,295
1747533109610,0.21550256,0.853224135,-0.09054524,-0.28469193,0.000798947,0.205596035,296
1747533109620,0.220871815,0.872504685,-0.09237567,-0.0868190564999999,-0.2444781929999999,0.17230652,297
1747533109630,0.22392253,0.8901988000000001,-0.140210885,0.0511326935,-0.4681837399999999,0.15739282,298
1747533109640,0.21501444,0.89678835,-0.19304928,0.016511599,-0.519316425,0.18295917,299
1747533109650,0.2240445549999999,0.8837313,-0.23075613,-0.158990716,-0.38296256,0.278832975,300
1747533109660,0.241250595,0.86676932,-0.226973235,-0.33529198,-0.164050723,0.381897315,301
1747533109670,0.24271494,0.86140007,-0.181822635,-0.3936152149999999,-0.0426105775,0.434627905,302
1747533109680,0.243935225,0.8523699499999999,-0.12263876,-0.371777295,-0.0010652645,0.455400555,303
1747533109690,0.251256935,0.8424856199999999,-0.066139515,-0.2599245249999999,-0.050866375,0.425839465,304
1747533109700,0.20769272,0.8044126899999999,-0.0375848165,0.0468716399999999,-0.275637175,0.366450975,305
1747533109710,0.1042124485,0.73412422,-0.0856640965,0.36884782,-0.53742592,0.430366825,306
1747533109720,0.033191785,0.6714015,-0.181700625,0.47643952,-0.66898607,0.642088145,307
1747533109730,0.029652955,0.6379656499999999,-0.259554885,0.46312372,-0.71772193,0.8817726699999999,308
1747533109740,0.1288622285,0.618441085,-0.29933621,0.3960120649999999,-0.688693495,1.1041466,309
1747533109750,0.25906677,0.595011585,-0.298970135,0.2809635,-0.57471019,1.33664055,310
1747533109760,0.376946415,0.57097193,-0.283594535,0.17816548,-0.491885875,1.489506,311
1747533109770,0.4873823149999999,0.553277765,-0.28396061,0.12676647,-0.51425642,1.50335445,312
1747533109780,0.533265075,0.545345905,-0.314711825,0.05193164225,-0.57311227,1.5086808,313
1747533109790,0.5690194749999999,0.55230152,-0.386464655,-0.13901701775,-0.64714815,1.5960325,314
1747533109800,0.6731099,0.580368125,-0.398423445,-0.555801725,-0.7022756,1.8074875,315
1747533109810,0.8299166499999999,0.627349175,-0.29799388,-0.908670575,-0.69322085,1.9627498,316
1747533109820,0.97903565,0.68531275,-0.161443862,-1.0034790999999998,-0.63835972,1.95955395,317
1747533109830,1.0852005500000002,0.7516963,-0.0104944595,-0.97631485,-0.5893575550000001,1.89430645,318
1747533109840,1.16891215,0.8639626499999999,0.1559525875,-0.690291365,-0.568052265,1.69590095,319
1747533109850,1.2146729,0.9391323,0.24454537,-0.45007423,-0.56459016,1.5414376,320
1747533109860,1.30399785,0.98806575,0.209157065,-0.170175995,-0.55846488,1.18031298,321
1747533109870,1.39857005,1.0438328499999998,0.104822588,0.14434334,-0.5166532500000001,0.61252706,322
1747533109880,1.3187634,1.01393585,-0.071508767,0.13821807,-0.417849975,0.217580266,323
1747533109890,1.16940035,0.9584128,-0.1948797,-0.116912775,-0.148071753,-0.2314287039999999,324
1747533109900,1.0539611999999998,0.9169231,-0.190852765,-0.44022055,0.173638102,-0.56325857,325
1747533109910,0.97976782,0.87445715,-0.13166889,-0.605869175,0.398408905,-0.68895978,326
1747533109920,0.939132305,0.83601813,-0.0518621665,-0.6524745000000001,0.599743905,-0.79415465,327
1747533109930,0.8487090850000001,0.7775664,0.0256260105,-0.429834225,0.77018623,-0.905474785,328
1747533109940,0.72777875,0.72814477,0.050641877,-0.095607485,0.80933468,-0.95580855,329
1747533109950,0.6589546,0.716308,0.0169619775,0.132625425,0.705205055,-0.922252715,330
1747533109960,0.639185935,0.71728423,-0.035022215,0.3171825,0.572046995,-0.87138632,331
1747533109970,0.64016217,0.72045696,-0.065163285,0.39521313,0.50333744,-0.84368944,332
1747533109980,0.6695710500000001,0.7235077050000001,-0.16290821,0.4868258599999999,0.357129915,-0.8274441699999999,333
1747533109990,0.6232002000000001,0.72460598,-0.2246546999999999,0.4825647999999999,0.314253015,-0.83596629,334
1747533110000,0.54253928,0.7329039500000001,-0.26040909,0.42663841,0.311057225,-0.79308939,335
1747533110010,0.49055508,0.7465711150000001,-0.2766388899999999,0.347808835,0.31265512,-0.7235809,336
1747533110020,0.4751795,0.75657743,-0.2796896,0.30519825,0.31265512,-0.68656296,337
1747533110030,0.4936058049999999,0.822595,-0.2951872399999999,0.03994742,0.36485308,-0.6170544499999999,338
1747533110040,0.511177895,0.8678676249999999,-0.297017665,-0.17337179,0.43089947,-0.6364955,339
1747533110050,0.54180707,0.87628755,-0.283350465,-0.3336941,0.48975532,-0.6676544799999999,340
1747533110060,0.5657247,0.87299275,-0.2757847,-0.41705105,0.5225122,-0.68389976,341
1747533110070,0.5804901849999999,0.84382795,-0.174989055,-0.57790595,0.6447513,-0.751544085,342
1747533110080,0.535339565,0.8070973,-0.0317274499999999,-0.5046690149999999,0.640490265,-0.7864315,343
1747533110090,0.461268215,0.77231915,0.113974735,-0.238352925,0.530235395,-0.7568703999999999,344
1747533110100,0.38646467,0.7657296,0.183531045,0.1025317,0.36911413,-0.64874605,345
1747533110110,0.3367989999999999,0.77305132,0.194757675,0.45247106,0.195476023,-0.51798485,346
1747533110120,0.34717143,0.81100222,0.075047602,0.82957465,-0.022903182,-0.37657099,347
1747533110130,0.37450585,0.86408465,-0.119099933,1.011468565,-0.154463345,-0.2942793099999999,348
1747533110140,0.367184135,0.8980086,-0.26968324,0.896420015,-0.108124343,-0.29321404,349
1747533110150,0.33240597,0.91582482,-0.3710890249999999,0.6514092,0.002929477,-0.30706247,350
1747533110160,0.285668995,0.90960137,-0.398911565,0.1552622999999999,0.21225394,-0.355532015,351
1747533110170,0.24076247,0.8880022999999999,-0.34497492,-0.2876213999999999,0.39734364,-0.4079963,352
1747533110180,0.20342172,0.87335885,-0.265046175,-0.42983421,0.46152583,-0.413855235,353
1747533110190,0.17120616,0.86664725,-0.1930492899999999,-0.47510795,0.48682585,-0.3787015,354
1747533110200,0.153512005,0.86701338,-0.126665715,-0.4319647399999999,0.46072687,-0.312122475,355
1747533110210,0.1586371999999999,0.87860611,-0.077488173,-0.3898868,0.43356264,-0.27377295,356
1747533110220,0.186215675,0.89154113,-0.074315428,-0.1211738345,0.277767705,-0.104928551,357
1747533110230,0.226241065,0.8970324000000001,-0.099819415,0.0660463955,0.142212805,0.0042610574999999,358
1747533110240,0.2800557,0.90533035,-0.119832105,0.153664395,0.035153727,0.0298274044999999,359
1747533110250,0.3184947299999999,0.92436685,-0.1389906,0.22796659,-0.049801113,-0.018109494,360
1747533110260,0.27285601,0.94145085,-0.1748670199999999,0.255397155,-0.0655137635,-0.12463594,361
1747533110270,0.1948797099999999,0.93962038,-0.209645175,0.19600865,0.03089267,-0.18801917,362
1747533110280,0.14741058,0.92692938,-0.22245818,0.164583355,0.0759000925,-0.166713885,363
1747533110290,0.107873305,0.916679,-0.23392887,0.10359697,0.1691107325,-0.10466223,364
1747533110300,0.101527815,0.90411005,-0.23392887,0.049268481,0.257527675,-0.019441073,365
1747533110310,0.147898695,0.9009373,-0.209523145,0.022903186,0.323574075,0.0806937819999999,366
1747533110320,0.196099995,0.90240165,-0.20354375,0.05139901,0.309459325,0.15526229,367
1747533110330,0.239908275,0.90325585,-0.221481955,0.09054748,0.217846575,0.170708625,368
1747533110340,0.285180895,0.90472025,-0.238932045,0.101999075,0.106526443,0.152599135,369
1747533110350,0.29335681,0.895690125,-0.255405905,0.099335915,-0.001597897,0.121706465,370
1747533110360,0.255161855,0.883975325,-0.26956122,0.059388496,-0.07616641,0.13342437,371
1747533110370,0.243935225,0.8829990999999999,-0.275662665,0.0082557995,-0.0644485009999999,0.163784405,372
1747533110380,0.2720018,0.8964222749999999,-0.2773710649999999,-0.0215716055,0.038882154,0.15952335,373
1747533110390,0.28115393,0.90947935,-0.291160285,-0.054861119,0.164317045,0.1454086,374
1747533110400,0.2494265,0.916068925,-0.30787821,-0.1041296,0.258592955,0.149137025,375
1747533110410,0.212207775,0.9215602,-0.306779965,-0.1272991024999999,0.260457165,0.175236005,376
1747533110420,0.2277054,0.9405966,-0.2997023,-0.1078580245,0.176567585,0.200536035,377
1747533110430,0.24283696,0.94694213,-0.30385127,-0.0852211569999999,0.064981135,0.20879183,378
1747533110440,0.28627916,0.96427023,-0.3153219699999999,-0.07563378,0.00479369,0.2066613,379
1747533110450,0.30421737,0.9861133,-0.35107635,-0.1528654499999999,-0.22370554,0.12410331,380
1747533110460,0.28115397,0.990750365,-0.372065275,-0.28682246,-0.31425302,0.08122641,381
1747533110470,0.28884176,0.984771015,-0.322765725,-0.380033105,-0.319845645,0.0905474749999999,382
1747533110480,0.28335045,0.9901403,-0.281398,-0.4745753299999999,-0.294811935,0.095607482,383
1747533110490,0.25650416,1.0034414,-0.2511349,-0.54435015,-0.1933455,0.080427464,384
1747533110500,0.20561823,0.98599127,-0.202811575,-0.5305017000000001,-0.0348874085,0.090281162,385
1747533110510,0.1347196,0.95792467,-0.1935374,-0.50839747,0.04048005,0.145142285,386
1747533110520,0.123615,0.94755225,-0.20964518,-0.50839747,-0.0253000289999999,0.207460255,387
1747533110530,0.1441158049999999,0.93608157,-0.226241065,-0.50972905,-0.1581917725,0.237553975,388
1747533110540,0.0942060965,0.94071862,-0.25357548,-0.55260595,-0.43809,0.321709865,389
1747533110550,0.0375848165,0.95670438,-0.258578665,-0.63569657,-0.743820905,0.4780374349999999,390
1747533110560,0.081149035,0.97903565,-0.2230683299999999,-0.70147662,-0.8772452799999999,0.5968144200000001,391
1747533110570,0.155952585,1.00222107,-0.18523945,-0.75500615,-0.8692557999999999,0.6511429,392
1747533110580,0.19109683,1.0108851,-0.16937573,-0.7819041,-0.8309063,0.6641924,393
1747533110590,0.14936304,1.02613865,-0.1239810849999999,-0.91692638,-0.45779742,0.683367135,394
1747533110600,0.0579635985,1.0160103,-0.077366142,-0.9869675,-0.26684874,0.7094661,395
1747533110610,0.0181822655,0.9834287,-0.0133011195,-0.9691243,-0.11717909,0.80241045,396
1747533110620,-0.0098843185,0.96219573,0.0563772245,-0.8399610200000001,-0.101732755,0.8495484,397
1747533110630,-0.0331917855,0.95938903,0.086152207,-0.598678635,-0.20240025,0.8748484350000001,398
1747533110640,-0.056621285,0.989286,-0.01818227,-0.300404575,-0.503071155,0.864195785,399
1747533110650,-0.091277415,1.04261255,-0.158881275,-0.133158055,-0.77924097,0.83729785,400
1747533110660,-0.138502485,1.1102165,-0.232098445,-0.132359105,-0.83996103,0.824781,401
1747533110670,-0.198784625,1.1938061000000002,-0.295553335,-0.20399815,-0.7558051299999999,0.810133635,402
1747533110680,-0.278103235,1.2838631500000002,-0.3310636649999999,-0.33289514,-0.51159326,0.7669904350000001,403
1747533110690,-0.388539135,1.39564135,-0.30800025,-0.5552691,0.0151800099999999,0.64555025,404
1747533110700,-0.4515059,1.4597064,-0.27822527,-0.7036072,0.37923414,0.5544701,405
1747533110710,-0.4084298,1.43286005,-0.174867015,-0.686030315,0.8684568500000001,0.33236251,406
1747533110720,-0.41404314,1.4112610499999998,-0.12520137,-0.512125895,1.10308135,0.2000034,407
1747533110730,-0.378288745,1.37636085,-0.14741058,-0.10386328,1.03517075,0.14993597,408
1747533110740,-0.25528388,1.33975225,-0.20232346,0.3512709499999999,0.7568703999999999,0.1272991025,409
1747533110750,-0.0982330455,1.33450505,-0.23636944,0.66073027,0.44874265,0.0684432395,410
1747533110760,0.0411236445,1.34670785,-0.28444872,0.81226414,0.2892193,0.025033714,411
1747533110770,0.12849614,1.3548838,-0.3553473499999999,1.00054962,0.059654805,-0.1073253929999999,412
1747533110780,0.20866895,1.3523213,-0.4800605999999999,1.10547815,-0.184290755,-0.3760383499999999,413
1747533110790,0.2766389,1.33987435,-0.59196083,0.90520845,-0.1275654185,-0.5749765,414
1747533110800,0.2992141849999999,1.31717695,-0.6222239300000001,0.646082885,0.0338221465,-0.690824,415
1747533110810,0.291770425,1.28874425,-0.6100211,0.35979306,0.210389735,-0.7858988499999999,416
1747533110820,0.2497925899999999,1.215039,-0.504588365,0.0082557949999999,0.43942158,-0.8724516,417
1747533110830,0.204519975,1.1292529,-0.36510964,-0.225569745,0.604803875,-0.9254485,418
1747533110840,0.1775516449999999,1.08092955,-0.26553429,-0.231428695,0.601608095,-0.9387643,419
1747533110850,0.151193465,1.0434668,-0.16620299,-0.141680175,0.50679956,-0.945954835,420
1747533110860,0.118733855,1.013203685,-0.07809832,0.061252705,0.332895135,-0.927579015,421
1747533110870,0.084809895,0.986357335,-0.0181822657,0.41678472,0.1086569725,-0.84209153,422
1747533110880,0.07785426,0.9695174,0.00170840068,0.7270430050000001,-0.025300031,-0.7504788,423
1747533110890,0.07895252,0.96536845,-0.01037243312,0.883636885,-0.01917476015,-0.69641665,424
1747533110900,0.058329683,0.96048732,-0.0484453625,0.9867012,0.05246427335,-0.63143552,425
1747533110910,0.046370877,0.94596589,-0.101405788,1.0309097,0.169110735,-0.55127437,426
1747533110920,0.138258429,0.94267109,-0.1963440649999999,0.9989518,0.33236252,-0.52624065,427
1747533110930,0.2446673899999999,0.95316559,-0.3090985149999999,0.87431585,0.4215784099999999,-0.61758708,428
1747533110940,0.2626056,0.95670444,-0.35193056,0.71079775,0.377369925,-0.7379619799999999,429
1747533110950,0.19561188,0.923756715,-0.389027235,0.56006281,0.28549087,-0.8040083650000001,430
1747533110960,0.11848979,0.913018195,-0.353883,0.447411075,0.16911073,-0.808003095,431
1747533110970,0.0085420049999999,0.90984543,-0.261019235,0.4026699649999999,0.0708400835,-0.68176925,432
1747533110980,-0.067359795,0.90813705,-0.15705085,0.4463458,0.0825579935,-0.497212185,433
1747533110990,-0.069922397,0.913384265,-0.10604288,0.55899752,0.19707393,-0.349673065,434
1747533111000,-0.0286767259,0.929614015,-0.1056767925,0.690557685,0.30652985,-0.22743397,435
1747533111010,0.0355103311,0.94633195,-0.1427734925,0.8066715,0.3701794,-0.156593885,436
1747533111020,0.110069815,0.96024325,-0.1973202849999999,0.934769585,0.311057225,-0.135821225,437
1747533111030,0.15424417,0.9689073,-0.22868164,1.0120013,0.23276028,-0.13741912,438
1747533111040,0.174744985,0.97012755,-0.2796896,1.0580739499999998,0.022903185,-0.20053603,439
1747533111050,0.15351201,0.96976148,-0.31617616,1.0447581499999998,-0.09400959,-0.22743396,440
1747533111060,0.14899695,0.98574723,-0.3959828749999999,0.97604855,-0.164849675,-0.2386192349999999,441
1747533111070,0.13496366,1.00368545,-0.459681815,0.7310377,-0.117179088,-0.244478185,442
1747533111080,0.072851089,1.00283125,-0.452604165,0.422111035,0.051665327,-0.20213393,443
1747533111090,-0.005491286,0.9896521,-0.4167277649999999,0.1882854975,0.296676145,-0.0572579649999999,444
1747533111100,-0.07407137,0.971225825,-0.348635775,0.0146473875,0.5470133,0.15020228,445
1747533111110,-0.10762924,0.951701275,-0.26443602,-0.0439421564999999,0.7318367,0.370712025,446
1747533111120,-0.0152535749999999,0.9358375,-0.1865817699999999,0.0452737385,0.8327705,0.62850602,447
1747533111130,0.192927255,0.9481624,-0.1731586199999999,0.201601295,0.79388835,0.7390272,448
1747533111140,0.30165476,0.9654905,-0.19475769,0.26365295,0.7350325,0.70680296,449
1747533111150,0.4447943399999999,1.0225999,-0.383780015,0.2988066849999999,0.4183826149999999,0.39547942,450
1747533111160,0.383291915,1.02638275,-0.512398215,0.1800297,0.155794927,0.18935075,451
1747533111170,0.2761507749999999,1.00075675,-0.525089175,-0.151800175,-0.141680173,0.061785337,452
1747533111180,0.206716475,0.96402615,-0.392810125,-0.4082626,-0.3155846,0.0657800819999999,453
1747533111190,0.163884435,0.92522107,-0.238443935,-0.35926045,-0.3225088149999999,0.15419703,454
1747533111200,0.14887492,0.90325594,-0.16571487,-0.1643170465,-0.3355583,0.267914005,455
1747533111210,0.1315468575,0.8864159250000001,-0.095060305,-0.034621093,-0.3536678,0.3339604,456
1747533111220,0.27712701,0.91045558,-0.24613174,0.320111965,-0.558731195,0.50946272,457
1747533111230,0.46261051,0.95804673,-0.4272222049999999,0.275104545,-0.720118765,0.4612595,458
1747533111240,0.5601113799999999,0.99111645,-0.5532777600000001,-0.081759055,-0.759799875,0.26365295,459
1747533111250,0.5891542,0.9947773,-0.60062486,-0.540621715,-0.703873475,0.07323693055,460
1747533111260,0.54583405,0.972446075,-0.5405868,-0.922785315,-0.56299225,-0.01890844295,461
1747533111270,0.4169718249999999,0.911675845,-0.268340953,-1.1177287,-0.40879524,-0.0093210625,462
1747533111280,0.33142975,0.87323684,-0.056133166,-1.1456919,-0.33662358,0.021837922,463
1747533111290,0.260165,0.8583493,0.12349297,-0.8825716,-0.37603834,0.1107875,464
1747533111300,0.29640754,0.85395632,0.032215556,-0.369913085,-0.469515305,0.377636255,465
1747533111310,0.426001925,0.8694539699999999,-0.0916434915,-0.20639499,-0.473776365,0.48655954,466
1747533111320,0.553399805,0.89983908,-0.1790159949999999,-0.293214045,-0.43516053,0.405066825,467
1747533111330,0.61368193,0.909845415,-0.2295358499999999,-0.4372910599999999,-0.36991308,0.26631613,468
1747533111340,0.56279598,0.87994841,-0.183286995,-0.58296595,-0.25939189,0.1379517499999999,469
1747533111350,0.455166755,0.842485625,-0.08688438,-0.622380725,-0.18402443,0.0982706449999999,470
1747533111360,0.373163535,0.818201915,-0.024893837755,-0.53476274,-0.22130869,0.1669802,471
1747533111370,0.34900187,0.798555315,0.013911263745,-0.408528915,-0.30386668,0.260723475,472
1747533111380,0.35559142,0.7902574,0.027334413,-0.3387541,-0.34834146,0.3073288,473
1747533111390,0.4607800749999999,0.82174073,-0.0359984445,-0.130494895,-0.388821525,0.34115095,474
1747533111400,0.5265535100000001,0.836994335,-0.123614995,-0.088949585,-0.33316146,0.2926814,475
1747533111410,0.555108185,0.83260131,-0.16449458,-0.14034859,-0.262854,0.226635005,476
1747533111420,0.538390275,0.823937225,-0.16986384,-0.19520971,-0.191481285,0.16511599,477
1747533111430,0.482867255,0.8049007850000001,-0.14533609,-0.22397185,-0.138484385,0.140348595,478
1747533111440,0.45052966,0.79269797,-0.12593354,-0.22690132,-0.11611383,0.13901702,479
1747533111450,0.348757805,0.7491337,-0.0562552,0.00133158,-0.07403588,0.25752768,480
1747533111460,0.33484653,0.7414459,-0.06613952,0.09906959,-0.103863285,0.355532005,481
1747533111470,0.39207797,0.734490285,-0.18316496,0.120108563,-0.16884442,0.452737385,482
1747533111480,0.4793284249999999,0.7587740000000001,-0.2783472899999999,-0.063649552,-0.25885927,0.5454154,483
1747533111490,0.545711995,0.77524788,-0.32374194,-0.33049829,-0.3089267,0.612793375,484
1747533111500,0.58158842,0.78269163,-0.27981164,-0.493217435,-0.29987195,0.629571275,485
1747533111510,0.614170075,0.79599275,-0.1950017399999999,-0.5787049200000001,-0.28016455,0.6231797,486
1747533111520,0.657856345,0.8027043,-0.115317045,-0.58323228,-0.24927188,0.5864281,487
1747533111530,0.68275017,0.79867735,-0.0591838825,-0.4713795,-0.168844415,0.50679958,488
1747533111540,0.6653000499999999,0.789647235,-0.03978133,-0.32623723,-0.080427465,0.4444816,489
1747533111550,0.62259005,0.775613935,-0.0455166775,-0.21305289,-0.041545315,0.46152583,490
1747533111560,0.55303375,0.746571125,-0.0639430025,-0.1057275,-0.06631271,0.56139436,491
1747533111570,0.5287500300000001,0.721433225,-0.0837116374999999,0.01225054,-0.24847294,0.7603325000000001,492
1747533111580,0.604529795,0.7188706,-0.0783423749999999,0.14594123,-0.478570065,0.90840427,493
1747533111590,0.709230365,0.72143318,-0.068214,0.278300335,-0.635163925,0.91106742,494
1747533111600,0.7702447,0.72314161,-0.07895252,0.414920515,-0.769120925,0.8607336800000001,495
1747533111610,0.7913556500000001,0.72338568,-0.10579882,0.5270396,-0.8628642150000001,0.78643148,496
1747533111620,0.7900133,0.71264715,-0.147044495,0.5997439,-0.893224265,0.7110639999999999,497
1747533111630,0.7435204,0.6995901,-0.2183092199999999,0.58403125,-0.82025365,0.6679208,498
1747533111640,0.7008104,0.70117645,-0.2939669649999999,0.478836375,-0.70147665,0.6740460749999999,499
1747533111650,0.715087735,0.71276915,-0.348269685,0.31691618,-0.6013417999999999,0.69588399,500
1747533111660,0.7620687500000001,0.72594828,-0.37841076,0.1062601295,-0.4889564,0.684166115,501
1747533111670,0.8091717949999999,0.7432763600000001,-0.35620155,-0.1179780355,-0.358994125,0.63383238,502
1747533111680,0.8611559799999999,0.7580418,-0.31239328,-0.42104576,-0.1384843882499999,0.50946273,503
1747533111690,0.918021315,0.76646177,-0.26284966,-0.679106075,0.06791060975,0.354733065,504
1747533111700,0.950847015,0.77829857,-0.18865625,-0.769387245,0.157659138,0.209324465,505
1747533111710,0.9413288,0.7967248849999999,-0.09237567,-0.7499461700000001,0.206927615,0.0367516225,506
1747533111720,0.79562664,0.8005078,0.1261776,-0.47324373,0.1880191749999999,-0.1259675224999999,507
1747533111730,0.769268455,0.7913556500000001,0.139966835,-0.08069378,0.114249615,-0.21385184,508
1747533111740,0.717650355,0.77646813,0.154610265,0.2450108299999999,0.017310547,-0.23861924,509
1747533111750,0.672011645,0.76414323,0.133255253,0.41065946,-0.039414786,-0.24767399,510
1747533111760,0.641260425,0.75438095,0.067847914,0.68789453,-0.149403343,-0.235157135,511
1747533111770,0.650046475,0.76292295,-0.0812710589999999,1.0428939000000002,-0.3206446,-0.19574235,512
1747533111780,0.688241425,0.7865964999999999,-0.2358813249999999,1.05168235,-0.3810983599999999,-0.16618126,513
1747533111790,0.7370529,0.8088057,-0.331063655,0.8676579,-0.33848779,-0.18615497,514
1747533111800,0.794406335,0.826743935,-0.3991556149999999,0.601341765,-0.22210764,-0.254331895,515
1747533111810,0.854322335,0.829062485,-0.40513502,0.1371528,0.0673779799999999,-0.416784725,516
1747533111820,0.8815347149999999,0.8064871650000001,-0.36047256,-0.302002465,0.39068574,-0.580569125,517
1747533111830,0.862986415,0.77048874,-0.297139705,-0.51984905,0.59521653,-0.66951871,518
1747533111840,0.8495633,0.75169635,-0.26284966,-0.6114618,0.69135666,-0.71159667,519
1747533111850,0.80587703,0.71826047,-0.18231077,-0.69668293,0.82877576,-0.78563255,520
1747533111860,0.67860117,0.6534633000000001,-0.0411236429999999,-0.5355617,0.83063995,-0.80081258,521
1747533111870,0.59427942,0.62600685,0.0259920965,-0.29188246,0.70147665,-0.75420725,522
1747533111880,0.56596875,0.6274712,0.025503982,-0.1051948645,0.5502091,-0.72091772,523
1747533111890,0.5518134,0.6303999,0.021721095,-0.011717909,0.4708469,-0.70627034,524
1747533111900,0.5320448,0.6294237,0.012690976,0.16564862,0.3089267,-0.6578008,525
1747533111910,0.527285695,0.63625725,-0.076267892,0.3358246099999999,0.130494895,-0.55447015,526
1747533111920,0.5526676500000001,0.6572461350000001,-0.115317045,0.379500465,0.0766990425,-0.55287224,527
1747533111930,0.51776748,0.676160605,-0.11190024,0.395479435,0.0924116925,-0.61465757,528
1747533111940,0.42404949,0.68360439,-0.101161727,0.4098604999999999,0.12277173,-0.63729445,529
1747533111950,0.3283790399999999,0.68567887,-0.105310702,0.42583947,0.134755955,-0.5962818,530
1747533111960,0.291038275,0.70654575,-0.143261605,0.42823631,0.144609655,-0.47857007,531
1747533111970,0.31544399,0.7364427499999999,-0.18902234,0.409327865,0.15659388,-0.35659727,532
1747533111980,0.376946405,0.76158065,-0.2338068449999999,0.363255185,0.170442315,-0.287088765,533
1747533111990,0.41611758,0.7753699,-0.2626056,0.33076462,0.17630127,-0.25513083,534
1747533112000,0.48054874,0.7924539,-0.3141017,0.149669655,0.16911073,-0.22583607,535
1747533112010,0.57329045,0.8214967200000001,-0.28713336,0.0218379199999999,0.160588615,-0.275104555,536
1747533112020,0.5930591,0.822717,-0.24649782,-0.03568636,0.15925704,-0.31478566,537
1747533112030,0.49250753,0.771220935,-0.218675285,-0.1749696849999999,0.1944107649999999,-0.49268481,538
1747533112040,0.45419052,0.7497439,-0.21159762,-0.18748654,0.20879184,-0.49055427,539
1747533112050,0.3782887299999999,0.72887695,-0.16425053,-0.15393072,0.2074602549999999,-0.446345815,540
1747533112060,0.293600855,0.756089325,-0.166813135,-0.09614012,0.21678132,-0.371510965,541
1747533112070,0.26260559,0.770854775,-0.174500935,-0.0527305934999999,0.21544974,-0.2878876999999999,542
1747533112080,0.29091623,0.7687803,-0.16547081,-0.042077947,0.20453078,-0.2647182,543
1747533112090,0.31898282,0.792453885,-0.151803605,0.008522116,0.2130529,-0.23808661,544
1747533112100,0.39537273,0.814541035,-0.20049303,0.0500674304999999,0.12197278,-0.17124126,545
1747533112110,0.490066945,0.84785485,-0.267242685,0.0119842255,-0.0306263525,-0.20772657,546
1747533112120,0.501781715,0.88861245,-0.30934255,-0.06364955,-0.2079928925,-0.2942793,547
1747533112130,0.459803875,0.91289615,-0.34595114,-0.1925465475,-0.35846149,-0.37577203,548
1747533112140,0.3928101499999999,0.919119625,-0.3497340399999999,-0.505734295,-0.3552656899999999,-0.3619235899999999,549
1747533112150,0.352906775,0.927051455,-0.3216674499999999,-0.87165263,-0.16325178,-0.245277135,550
1747533112160,0.347171435,0.93412908,-0.27053746,-1.1422298,0.1978728699999999,-0.0897485317,551
1747533112170,0.325206285,0.94437953,-0.1797481699999999,-1.3299826499999998,0.5920207,0.0593884933,552
1747533112180,0.30128867,0.96366006,-0.0693122585,-1.3741911,0.84235785,0.18562233,553
1747533112190,0.29433304,0.97403246,-0.018060237,-1.3677995,0.9321064,0.24927188,554
1747533112200,0.28542497,0.978669515,0.07346123,-0.8908273999999999,0.48389638,0.3629888599999999,555
1747533112210,0.277005,0.98818773,0.06272271,-0.7797736,0.2790993,0.34674358,556
1747533112220,0.21477039,1.0465174,-0.0039049159,-0.5592638,-0.077231675,0.33076462,557
1747533112230,0.05418071,1.03529085,-0.099209271,-0.31824775,-0.56592177,0.31318775,558
1747533112240,-0.05198419,1.0313859,-0.14716652,-0.2615224,-0.6982809,0.3222425,559
1747533112250,-0.257114315,1.03504675,-0.18182265,-0.242613985,-0.6114618,0.63995762,560
1747533112260,-0.38634263,1.0399279,-0.20622837,-0.272175075,-0.4870921649999999,0.810932545,561
1747533112270,-0.4458926,1.0418804,-0.22355644,-0.29134983,-0.42876893,0.90014845,562
1747533112280,-0.508371235,1.0837362499999998,-0.243325085,-0.340352,-0.2993393199999999,1.11453295,563
1747533112290,-0.470298315,1.15097395,-0.241006535,-0.2277002825,-0.2660498,1.1627362,564
1747533112300,-0.41355499,1.2162593,-0.27651686,-0.0527305895,-0.33688988,1.13210985,565
1747533112310,-0.367184115,1.25530855,-0.32154541,0.093476953,-0.4902879599999999,1.0460897,566
1747533112320,-0.34851375,1.2769076,-0.3372871,0.1736381,-0.58269966,0.9901633,567
1747533112330,-0.413554985,1.3676968500000002,-0.42832047,0.43436158,-0.97471695,0.782170415,568
1747533112340,-0.496046375,1.40015645,-0.526553515,0.41944787,-1.0841729,0.754473535,569
1747533112350,-0.54461375,1.43029755,-0.582686665,0.2375539675,-0.970988565,0.81972097,570
1747533112360,-0.54217315,1.4742278,-0.61941731,-0.0340884625,-0.694818735,0.8791095,571
1747533112370,-0.5217944,1.4963149,-0.63015586,-0.18908444,-0.53476274,0.8900285,572
1747533112380,-0.3018988,1.5727049,-0.3909797,-0.9821738,0.5965481,0.5022722,573
1747533112390,-0.280665825,1.5352421,-0.329599315,-1.0098707,0.7850999000000001,0.3968110149999999,574
1747533112400,-0.25406359,1.45384905,-0.199150715,-0.97045595,1.0578075999999998,0.2348908149999999,575
1747533112410,-0.2373456749999999,1.3877095499999998,-0.0738273109999999,-0.7566041,1.144094,0.14487597,576
1747533112420,-0.145458123,1.3304781,0.0081759175,-0.405865755,1.06499812,0.0884169549999999,577
1747533112430,-0.0047591144999999,1.2899646,-0.0032947735,0.227433965,0.664725035,-0.0077231624999999,578
1747533112440,0.1189779135,1.28850025,-0.112022282,0.80880204,0.1613875725,-0.1430117475,579
1747533112450,0.22843758,1.30729265,-0.257968505,1.02984442,-0.1866875925,-0.27696876,580
1747533112460,0.3084883499999999,1.3306000999999998,-0.402816475,1.0873687,-0.4495416,-0.42157842,581
1747533112470,0.38097335,1.3280375,-0.56035545,0.80587255,-0.510261675,-0.66552396,582
1747533112480,0.406477345,1.3009471,-0.64894823,0.3637878,-0.37284255,-0.902278975,583
1747533112490,0.39366436,1.2849613,-0.65041256,0.1917476,-0.27377295,-0.96779275,584
1747533112500,0.303973315,1.2078392999999998,-0.580002025,-0.268979275,0.0354200435,-1.0748518,585
1747533112510,0.23795582,1.1547569,-0.503123985,-0.496413235,0.191747605,-1.092695,586
1747533112520,0.172914555,1.08861735,-0.3654757349999999,-0.6471481649999999,0.3318298699999999,-1.03250755,587
1747533112530,0.122760798,1.04004995,-0.22038371,-0.661529245,0.39760995,-0.92624745,588
1747533112540,0.104578533,1.02711495,-0.139356695,-0.537692235,0.350738325,-0.8279768000000001,589
1747533112550,0.12837411,1.0197932,-0.0868843875,-0.334226715,0.246342405,-0.7419566799999999,590
1747533112560,0.216722835,1.0134477,-0.09066727,-0.0479369,0.08894958165,-0.74994618,591
1747533112570,0.27944554,1.001855,-0.1280080224999999,0.162452825,-0.03488741085,-0.83862945,592
1747533112580,0.261385305,0.98306262,-0.1295943925,0.26019083,-0.1033306475,-0.92331795,593
1747533112590,0.21086546,0.963538055,-0.1050666425,0.370978335,-0.166713885,-0.98483695,594
1747533112600,0.1411871125,0.936569735,-0.087982635,0.497744815,-0.2074602549999999,-1.00374545,595
1747533112610,0.047835219,0.891053035,-0.102992157,0.6974819,-0.221575005,-0.9251822,596
1747533112620,-0.0277004985,0.857861235,-0.157050842,0.87138632,-0.2330266,-0.7869641,597
1747533112630,-0.05503491,0.847488775,-0.231610335,0.92092112,-0.2644518999999999,-0.63516393,598
1747533112640,-0.0521062219999999,0.8438279049999999,-0.3073901049999999,0.89934952,-0.2886866649999999,-0.4862932299999999,599
1747533112650,-0.0294088985,0.84626848,-0.36205892,0.81732415,-0.267914015,-0.3768373149999999,600
1747533112660,0.0250158684999999,0.84809888,-0.36608587,0.657268175,-0.172839163,-0.274305605,601
1747533112670,0.095426385,0.84968528,-0.336921035,0.514256425,-0.075367462,-0.21518342,602
1747533112680,0.1474105799999999,0.8639626499999999,-0.31703035,0.455134235,-0.0439421589999999,-0.224770795,603
1747533112690,0.17401282,0.8936156,-0.314223685,0.40426786,-0.0426105779999999,-0.260723475,604
1747533112700,0.17132819,0.92143812,-0.323497875,0.34115094,-0.049534798,-0.29427931,605
1747533112710,0.1266657125,0.93888822,-0.338385375,0.17736653,0.0085221149999999,-0.266316115,606
1747533112720,0.058085624,0.9448676,-0.3398497099999999,-0.0053263224999999,0.125168575,-0.161387565,607
1747533112730,0.028066583,0.9449896,-0.33240595,-0.060720075,0.18109496,-0.0974717,608
1747533112740,0.028066583,0.9449896,-0.33240595,-0.060720075,0.18109496,-0.0974717,609
1747533112750,0.0065895458999999,0.94413545,-0.1858496,-0.123038045,0.399474175,0.294012985,610
1747533112760,0.2608972,0.98452693,-0.16693515,-0.001597895,0.452471075,0.43382895,611
1747533112770,0.3264265699999999,1.005515865,-0.2223361449999999,0.10679276,0.420246825,0.452471085,612
1747533112780,0.433323635,1.0404161,-0.33179581,0.068176923,0.25752769,0.30173616,613
1747533112790,0.475057435,1.06103895,-0.42051062,-0.067910612,0.0769653595,0.113184346,614
1747533112800,0.45040767,1.0644557,-0.4412555099999999,-0.23968451,-0.0189084455,-0.030093724,615
1747533112810,0.361570825,1.044565,-0.291038275,-0.356863605,-0.0300937225,-0.1222391,616
1747533112820,0.266632545,1.01869495,-0.089935093,-0.303067745,-0.017576864,-0.14194649,617
1747533112830,0.21428226,0.9940452,0.025137897,-0.094275905,-0.0346210955,-0.099069595,618
1747533112840,0.19304928,0.9786696,0.07541369,0.0314253,-0.049534798,-0.06924219,619
1747533112850,0.0841997435,0.95755862,0.1022599875,0.45699845,-0.07989483,0.1083906565,620
1747533112860,0.1475326085,0.94669807,-0.0568653349999999,0.64208815,-0.013848435,0.358994115,621
1747533112870,0.333382205,0.959267,-0.27761511,0.5997439,0.093476955,0.49002165,622
1747533112880,0.44979751,1.0003907,-0.421120775,0.342482535,0.149669655,0.370712045,623
1747533112890,0.502879945,1.0122274999999998,-0.47945046,-0.188551815,0.14407702,0.1166464664999999,624
1747533112900,0.466637425,1.0025872,-0.37084499,-0.64528395,0.1046622349999999,-0.1035969685,625
1747533112910,0.37365163,0.9844049,-0.1847513449999999,-0.73982615,0.0804274674999999,-0.16005598,626
1747533112920,0.29762782,0.95060297,-0.0257480414999999,-0.681236615,0.07962852,-0.14727281,627
1747533112930,0.235759305,0.9238787,0.1044564985,-0.498810085,0.0913464275,-0.084422212,628
1747533112940,0.158759238,0.898130655,0.12117442,-0.1177117199999999,0.175235995,0.090281163,629
1747533112950,0.148264783,0.8768976900000001,0.0087860599999999,0.151001235,0.310790895,0.2825614,630
1747533112960,0.245765645,0.888124315,-0.12520137,0.1049285475,0.42157841,0.35420044,631
1747533112970,0.366573985,0.9213161,-0.235271185,-0.0458063675,0.50280483,0.334226725,632
1747533112980,0.4838435,0.94413547,-0.3170303599999999,-0.26072347,0.5222458999999999,0.22929817,633
1747533112990,0.504466325,0.94718617,-0.285424955,-0.5414206699999999,0.38562574,0.026897928,634
1747533113000,0.42746626,0.93071228,-0.17779571,-0.715591405,0.19121498,-0.111053822,635
1747533113010,0.354859235,0.90362191,-0.0967686975,-0.684432425,0.06817692675,-0.092411695,636
1747533113020,0.29103826,0.885805755,-0.0239176085,-0.576308075,-0.01518001825,-0.0271642444999999,637
1747533113030,0.25894472,0.88055855,0.010006348,-0.51026165,-0.04314321,0.012250541,638
1747533113040,0.2323425,0.86884385,0.0319715,-0.36272255,-0.07243799,0.09960223,639
1747533113050,0.207326625,0.826987965,0.0162298076,-0.0295610915,-0.001864213,0.348341485,640
1747533113060,0.231610325,0.816005435,-0.0236735514,0.0673779785,0.0047936900499999,0.44235107,641
1747533113070,0.3009226,0.807585445,-0.0905452375,0.10439592,0.0026631611,0.48522797,642
1747533113080,0.41038226,0.814663075,-0.157050845,0.059654811,-0.15206649945,0.381631,643
1747533113090,0.45907168,0.83980098,-0.20024898,-0.0308926689999999,-0.3643204399999999,0.23116239,644
1747533113100,0.44686884,0.85273606,-0.21501444,-0.07669904,-0.42184472,0.18429075,645
1747533113110,0.417703975,0.853224165,-0.253575475,-0.321709865,-0.451405815,0.136087535,646
1747533113120,0.413677025,0.8470006999999999,-0.2534534499999999,-0.51851748,-0.38163099,0.13448964,647
1747533113130,0.399399685,0.818201935,-0.20293361,-0.78909466,-0.126233837,0.190682335,648
1747533113140,0.3886611749999999,0.779762885,-0.131912945,-0.95927066,0.076166406,0.24074976,649
1747533113150,0.380607275,0.7615806,-0.07272906,-1.04209495,0.37550573,0.3091930149999999,650
1747533113160,0.37572612,0.750720075,-0.0231854399,-1.00427805,0.47377637,0.339819355,651
1747533113170,0.40330461,0.744984745,0.0111046046,-0.804008335,0.406931025,0.3158509149999999,652
1747533113180,0.4207547,0.748401555,0.01513154925,-0.564323845,0.23888556,0.25885927,653
1747533113190,0.4131889,0.75145227,0.0053692595,-0.48948902,0.15978967,0.23702134,654
1747533113200,0.39146784,0.74632704,-0.03099527,-0.362456235,-0.0652474495,0.260989785,655
1747533113210,0.40940602,0.7361986899999999,-0.0342900445,-0.29427931,-0.17204021,0.2990729949999999,656
1747533113220,0.4136770199999999,0.7235077,-0.00829794635,-0.16351809,-0.2490055649999999,0.4095941899999999,657
1747533113230,0.4127008,0.71093875,0.0061014313,-0.06870956,-0.28229508,0.49801114,658
1747533113240,0.41758195,0.6892177,0.010006348,0.039414786,-0.27164245,0.6103965,659
1747533113250,0.462610525,0.673475985,-0.003904916,0.1965413,-0.28229508,0.74461985,660
1747533113260,0.48542988,0.66847277,-0.020012695,0.30360037,-0.2977414,0.81545997,661
1747533113270,0.637477525,0.68836342,-0.15753895,0.31824775,-0.33449304,0.87831052,662
1747533113280,0.736808825,0.71704017,-0.23710161,0.252467665,-0.357928855,0.880707385,663
1747533113290,0.7787866750000001,0.73656479,-0.234539015,0.191747605,-0.4138552399999999,0.86179894,664
1747533113300,0.796968975,0.75401487,-0.209157055,0.14487597,-0.48229848,0.842357875,665
1747533113310,0.80429065,0.77598,-0.169741805,0.107858027,-0.54807858,0.8330367999999999,666
1747533113320,0.82955055,0.813808875,-0.104944615,0.047670586,-0.6127933999999999,0.8420915499999999,667
1747533113330,0.88336518,0.8509055999999999,-0.0524723089999999,-0.0260989795,-0.6159891799999999,0.833303125,668
1747533113340,0.91619086,0.86298645,-0.041001618,-0.0924116935,-0.532898545,0.779240925,669
1747533113350,1.0262607,0.913262185,0.0017084005,-0.160055985,-0.399474165,0.686562915,670
1747533113360,1.1142434,0.946209935,0.0255039825,-0.2439455649999999,-0.15765913885,0.44554685,671
1747533113370,1.1674478499999998,0.95816877,0.0474691354999999,-0.305730915,0.08016115115,0.1326254317,672
1747533113380,1.14072355,0.9447456,0.0676038585,-0.3020024799999999,0.23489082,-0.1230380433,673
1747533113390,1.1131451,0.93229866,0.07809832,-0.28868666,0.31478566,-0.24927188,674
1747533113400,1.0150341,0.8849516,0.09200958,-0.21624869,0.43356264,-0.45167214,675
1747533113410,0.75914008,0.792575915,0.082003235,0.0029294799999999,0.516919575,-0.6178534,676
1747533113420,0.61795298,0.749377775,0.042587989,0.220509735,0.4434163399999999,-0.59068915,677
1747533113430,0.58427308,0.745350825,-0.0046370874999999,0.39734363,0.3259709149999999,-0.517718535,678
1747533113440,0.5946454800000001,0.755601215,-0.053448539,0.44421528,0.24288029,-0.46205847,679
1747533113450,0.626738995,0.780495045,-0.1043344725,0.43223105,0.178431795,-0.4378237,680
1747533113460,0.644799265,0.82662188,-0.1427734849999999,0.309193,0.17124126,-0.4751079649999999,681
1747533113470,0.64955837,0.87043015,-0.1458242,0.14247912,0.223705545,-0.541154365,682
1747533113480,0.66310352,0.89813065,-0.132156995,0.0255663464999999,0.31425302,-0.591221765,683
1747533113490,0.6723777,0.9127741,-0.12837411,-0.025566347,0.36964676,-0.6135923,684
1747533113500,0.72045698,0.92570915,-0.12935034,-0.17869811,0.54914381,-0.6910902999999999,685
1747533113510,0.77183103,0.9319326,-0.142041315,-0.2785666599999999,0.643686015,-0.754473535,686
1747533113520,0.80795151,0.9315665,-0.153389975,-0.43915528,0.67804083,-0.879375785,687
1747533113530,0.8008738799999999,0.91253003,-0.14545812,-0.604537565,0.6833671649999999,-1.0165286,688
1747533113540,0.76450935,0.8801924299999999,-0.10762925,-0.6932208,0.7110639999999999,-1.10148345,689
1747533113550,0.66566615,0.82686595,0.0095182299999999,-0.723847165,0.737961935,-1.165133,690
1747533113560,0.5525456,0.7804951,0.12996048,-0.58429755,0.754739885,-1.1558119,691
1747533113570,0.476155685,0.769146425,0.18572756,-0.33848778,0.7536746,-1.08017815,692
1747533113580,0.412822835,0.773661495,0.2151364599999999,-0.105194863,0.72331455,-0.99016335,693
1747533113590,0.37157715,0.78232554,0.20403186,0.125967522,0.664991315,-0.8820389799999999,694
1747533113600,0.3771904849999999,0.79062347,0.118855882,0.310790905,0.584563865,-0.7765778,695
1747533113610,0.4302729199999999,0.801606,0.033069757,0.432231055,0.492684825,-0.698813495,696
1747533113620,0.46297657,0.81490712,0.0147654639999999,0.50866379,0.35926044,-0.6836334749999999,697
1747533113630,0.434299855,0.8293065399999999,0.0263581824999999,0.5560680499999999,0.2428802949999999,-0.72304827,698
1747533113640,0.38170552,0.838702735,0.0378288735,0.585362825,0.18562233,-0.75713672,699
1747533113650,0.33496855,0.83565199,0.0256260115,0.6064018,0.156593875,-0.755805125,700
1747533113660,0.275174545,0.820154375,0.0053692595,0.622380775,0.193611815,-0.6689860750000001,701
1747533113670,0.231854395,0.8121005,-0.0054912879,0.64128922,0.25140241,-0.5395564500000001,702
1747533113680,0.231610335,0.816737585,-0.0274564394,0.65087657,0.294012995,-0.429301575,703
1747533113690,0.2743203349999999,0.82454741,-0.0895690085,0.629571275,0.348607795,-0.332362505,704
1747533113700,0.32203352,0.844194025,-0.14460392,0.509729025,0.389354155,-0.29507825,705
1747533113710,0.34900187,0.8584714,-0.1492410049999999,0.368315175,0.3584614849999999,-0.348874105,706
1747533113720,0.3439987,0.861522085,-0.12666571,0.306263525,0.2761698099999999,-0.457264765,707
1747533113730,0.273710205,0.857007035,-0.091033355,0.2849582499999999,0.19228024,-0.543284865,708
1747533113740,0.22428861,0.8502955,-0.07004443,0.283893,0.14966966,-0.57151437,709
1747533113750,0.0303851284999999,0.80831763,0.0126909769999999,0.4024036549999999,0.0828243125,-0.3733751899999999,710
1747533113760,0.0296529565,0.8056329799999999,0.0050031735,0.5360943650000001,0.09400959,-0.1387506965,711
1747533113770,0.03636453,0.81149036,-0.003172744,0.5858955,0.10652645,-0.058056913,712
1747533113780,0.144725943,0.8520038350000001,-0.0545467945,0.6982808650000001,0.1323591075,0.1171790899999999,713
1747533113790,0.19036464,0.8659151,-0.08419975,0.7238472,0.14594123,0.1587244,714
1747533113800,0.37060092,0.937301845,-0.262971685,0.50706587,0.186953915,0.051399008,715
1747533113810,0.41892427,0.95048097,-0.31324747,0.32783513,0.177899165,-0.06657903,716
1747533113820,0.436008285,0.951213125,-0.332405955,0.135022273,0.153664395,-0.213319205,717
1747533113830,0.3753600499999999,0.948894575,-0.3095866149999999,-0.0410126819999999,0.122505413,-0.32916671,718
1747533113840,0.243325075,0.9266854,-0.2392981349999999,-0.21917816,0.1163801429999999,-0.34301515,719
1747533113850,0.153145915,0.899473,-0.1685215299999999,-0.332096185,0.162186515,-0.281229815,720
1747533113860,0.130326567,0.886537935,-0.12568948,-0.33635725,0.258060315,-0.1989381399999999,721
1747533113870,0.1190999369999999,0.880924635,-0.097866953,-0.303600375,0.3499393699999999,-0.1145159325,722
1747533113880,0.12398108,0.8850736,-0.110435898,-0.2713761249999999,0.3984088999999999,0.0127831725,723
1747533113890,0.17145021,0.8961782199999999,-0.129960475,-0.27057717,0.3912183649999999,0.118510675,724
1747533113900,0.25479576,0.923146545,-0.135329735,-0.298540355,0.327835125,0.11531488,725
1747533113910,0.331185685,0.955850175,-0.15253577,-0.350205685,0.24394555,0.0428768925,726
1747533113920,0.381095395,0.9786695,-0.167301245,-0.4266384199999999,0.16831178,-0.0921453724999999,727
1747533113930,0.39927766,0.9876996,-0.17035197,-0.46978164,0.13528858,-0.1736381,728
1747533113940,0.26248357,0.97439855,-0.13789235,-0.5882923,0.152865445,-0.2362223849999999,729
1747533113950,0.09469421,0.95292155,-0.08761655,-0.721450355,0.205063405,-0.249804515,730
1747533113960,0.0496656485,0.937423885,-0.055156937,-0.73609775,0.2396845,-0.20080236,731
1747533113970,0.0391711885,0.925465105,-0.032581643,-0.723314555,0.34061831,-0.033555832,732
1747533113980,0.0474691349999999,0.931932595,-0.0307512145,-0.66552395,0.35712991,0.094275903,733
1747533113990,0.05222825,0.94303715,-0.036852647,-0.62264705,0.3387541,0.175236,734
1747533114000,0.11995414,0.96475834,-0.05076391,-0.579503875,0.18455707,0.2330265999999999,735
1747533114010,0.18401917,0.98452697,-0.03819496,-0.53263225,0.0492684834999999,0.252201365,736
1747533114020,0.23844394,0.9962417,-0.02831064,-0.5022722,-0.034088463,0.2625877,737
1747533114030,0.1859716149999999,1.0427346,-0.0923756695,-0.5768407,-0.2205097449999999,-0.0042610574999999,738
1747533114040,0.14082102,1.0338265,-0.070532545,-0.5699165,-0.21678132,-0.04580637,739
1747533114050,-0.00707766,1.019183,-0.117147475,-0.61039653,-0.143011755,0.0335558305,740
1747533114060,-0.1424074,0.96597855,-0.126421655,-0.6303702250000001,-0.08415589,0.1315601599999999,741
1747533114070,-0.20903504,0.96927335,-0.1325230849999999,-0.6213154750000001,-0.096140115,0.36139097,742
1747533114080,-0.2046420099999999,0.9774493,-0.173402675,-0.6277070499999999,-0.1470064999999999,0.5978796850000001,743
1747533114090,-0.14021089,0.98928605,-0.1875579949999999,-0.6583334,-0.20373183,0.694818735,744
1747533114100,-0.061502429,1.03455865,-0.18853422,-0.6886934499999999,-0.287887715,0.7115966499999999,745
1747533114110,0.0185483495,1.0852005500000002,-0.199272735,-0.725178775,-0.369380445,0.6327671,746
1747533114120,0.021965151,1.1215651,-0.19207305,-0.77950725,-0.4181163,0.464721625,747
1747533114130,-0.0460047924999999,1.1320595,-0.154610265,-0.807470425,-0.395213125,0.34727621,748
1747533114140,-0.122150655,1.12888675,-0.119466023,-0.7755125,-0.31265512,0.34647727,749
1747533114150,-0.197320285,1.1310833,-0.110313878,-0.721982985,-0.22397185,0.39068575,750
1747533114160,-0.252721285,1.1409676,-0.104212445,-0.566720695,-0.1051948675,0.530501715,751
1747533114170,-0.29213653,1.15817365,-0.11177822,-0.37497309,-0.0322242489999999,0.68789453,752
1747533114180,-0.32044716,1.17135275,-0.137160175,-0.2495382,-0.0572579614999999,0.78350201,753
1747533114190,-0.31825064,1.1839217,-0.1482647799999999,-0.1347559549999999,-0.110521185,0.8543421,754
1747533114200,-0.29067218,1.2104019,-0.1507053549999999,-0.0266316134999999,-0.15978967,0.8852347700000001,755
1747533114210,-0.227217305,1.2669012,-0.18145656,0.0956074865,-0.198139195,0.815459935,756
1747533114220,-0.170229935,1.32437665,-0.230512065,0.163784415,-0.21997711,0.667654485,757
1747533114230,-0.146922465,1.3452435,-0.2668765899999999,0.139017015,-0.209324465,0.511060625,758
1747533114240,-0.1156831349999999,1.3497586,-0.294088975,0.075633777,-0.17496969,0.333427775,759
1747533114250,-0.101039705,1.3501246999999998,-0.30519359,-0.011451593,-0.1217064625,0.14114754,760
1747533114260,-0.099575365,1.3326745999999998,-0.2829843749999999,-0.13076121,-0.04767058365,-0.0498011149999999,761
1747533114270,-0.08505395,1.3125398499999998,-0.2216039799999999,-0.199470765,0.01358212185,-0.164317045,762
1747533114280,-0.06516328,1.31070945,-0.15265781,-0.17230652,0.0407463645,-0.198938135,763
1747533114290,-0.033801927,1.3058283,-0.106042875,-0.1107875,0.058589544,-0.221042375,764
1747533114300,0.018304294,1.29069675,-0.083101495,-0.03968110115,0.0782969375,-0.23782029,765
1747533114310,0.080050776,1.27739565,-0.080538895,0.05246427385,0.099069595,-0.26897928,766
1747533114320,0.13618394,1.27190435,-0.092131615,0.129695945,0.10359697,-0.33928673,767
1747533114330,0.19329334,1.26043365,-0.097012755,0.159523355,0.0897485319999999,-0.44315001,768
1747533114340,0.22306833,1.2512815,-0.09518232,0.16990969,0.082025364,-0.5006743,769
1747533114350,0.2180651499999999,1.22797405,-0.076878033,0.21092236,0.062317969,-0.6759103,770
1747533114360,0.146190292,1.1766,-0.057963596,0.27137612,0.080161147,-0.7600662,771
1747533114370,0.0574754819999999,1.11997865,-0.051007966,0.341417255,0.112651715,-0.7768440999999999,772
1747533114380,0.0032947724999999,1.09215615,-0.063454885,0.38695732,0.134223325,-0.7259777199999999,773
1747533114390,-0.0306291839999999,1.06909275,-0.079196575,0.4226436799999999,0.154995985,-0.65007764,774
1747533114400,-0.0573534515,1.0528629500000002,-0.096036525,0.44767739,0.177632855,-0.53236592,775
1747533114410,-0.0024405699999999,1.0462734500000002,-0.106653018,0.44874266,0.201334985,-0.378168885,776
1747533114420,0.123737025,1.04480905,-0.093840013,0.44767739,0.209324465,-0.327568815,777
1747533114430,0.220993845,1.0523748,-0.067969943,0.4777711,0.18109496,-0.4239752599999999,778
1747533114440,0.214038215,1.0496902499999998,-0.056011138,0.56405751,0.05858955,-0.62770708,779
1747533114450,0.12166254,1.02931145,-0.0662615424999999,0.64927867,-0.082291675,-0.776844085,780
1747533114460,0.0303851284999999,1.00307525,-0.0820032374999999,0.68682927,-0.1454086,-0.7637946,781
1747533114470,-0.0505198515,0.975252775,-0.102626072,0.70520508,-0.176833905,-0.68017134,782
1747533114480,-0.11604922,0.955606195,-0.140332917,0.68150293,-0.1866875949999999,-0.521180615,783
1747533114490,-0.14594623,0.94816244,-0.16278619,0.6562029,-0.18482338,-0.41971418,784
1747533114500,-0.12471326,0.9283937,-0.18426323,0.5640575,-0.16458336,-0.24660872,785
1747533114510,-0.0026846284999999,0.94889459,-0.097134785,0.36272254,-0.0580569125,0.0391484695,786
1747533114520,0.107263164,0.97207999,-0.0467369625,0.35846149,-0.0125168575,0.044208476,787
1747533114530,0.20183534,1.006980225,-0.0411236475,0.382163625,0.01438107,-0.090813794,788
1747533114540,0.197686365,1.0293115,-0.073339205,0.38535942,0.01464738615,-0.24660872,789
1747533114550,0.126665715,1.0244303499999998,-0.10457853,0.33342777,-0.00266316135,-0.2934803499999999,790
1747533114560,0.0613804,1.01295965,-0.1110460425,0.267647685,-0.0034621097,-0.2764361199999999,791
1747533114570,0.0130570635,0.99819415,-0.0962805824999999,0.22237395,0.0135821218,-0.212520255,792
1747533114580,-0.0156196645,0.98855385,-0.0594279415,0.210656045,0.038882152,-0.129429625,793
1747533114590,-0.0305071565,0.98208632,0.0313613535,0.317182495,0.098803273,0.012783175,794
1747533114600,-0.042343931,0.96951742,0.1044565,0.4990764,0.1669802,0.16990968,795
1747533114610,-0.050763905,0.9620737,0.11373068,0.5800365,0.19068234,0.22956449,796
1747533114620,0.056987365,0.97342233,0.0954263844999999,0.815193635,0.189883385,0.36698361,797
1747533114630,0.2314883099999999,1.02028133,-0.0137892325,0.97205385,0.03408846,0.230363437,798
1747533114640,0.3392396,1.0553036,-0.10421244,1.0540792,-0.10652645,0.072970614,799
1747533114650,0.35510328,1.0718994,-0.19402552,1.0029465,-0.27004454,-0.11664646,800
1747533114660,0.32508424,1.0787331,-0.2626056,0.8809737,-0.41065946,-0.26312032,801
1747533114670,0.19854058,1.0631133,-0.305559665,0.60267335,-0.4857605849999999,-0.33688988,802
1747533114680,0.103480276,1.0291894,-0.204764028,0.39920785,-0.451672125,-0.28336034,803
1747533114690,0.047225076,0.99014027,-0.05296042625,0.33209619,-0.3648530749999999,-0.200536035,804
1747533114700,0.02037877895,0.96878527,0.03746278925,0.45753109,-0.29188246,-0.12916332,805
1747533114710,-0.0167179210499999,0.959999215,0.072240945,0.6641924,-0.239151865,-0.0119842249999999,806
1747533114720,-0.0248938389999999,0.969639415,-0.0492995724999999,0.828243115,-0.218379215,0.12756542,807
1747533114730,0.094450156,0.9973399,-0.22904775,0.768854615,-0.212253945,0.17710022,808
1747533114740,0.22306833,1.0244303,-0.32325385,0.5488775,-0.1989381399999999,0.112918035,809
1747533114750,0.23771176,1.0267489,-0.359252265,0.31691618,-0.17923075,0.012783173,810
1747533114760,0.202689545,1.002099075,-0.311050935,0.12436963,-0.157659145,-0.068443242,811
1747533114770,0.1169034264999999,0.949870795,-0.1271538115,0.12144015,-0.163784415,-0.083090627,812
1747533114780,0.04075756,0.8988628,0.0622346,0.33316146,-0.237287665,-0.0268979264999999,813
1747533114790,0.0338019295,0.914238435,0.024283697,0.541686985,-0.33635725,0.0628506004999999,814
1747533114800,0.0580856245,0.947308235,-0.0923756729999999,0.58589545,-0.38322888,0.17017599,815
1747533114810,0.14741057,0.970493665,-0.24625377,0.446079475,-0.33342778,0.26258768,816
1747533114820,0.27419831,0.986723415,-0.353516915,0.0215715999999999,-0.1163801475,0.29640983,817
1747533114830,0.343876665,0.98745557,-0.35852009,-0.42104577,0.1091896075,0.27137612,818
1747533114840,0.34107,0.95963307,-0.277615125,-0.62877235,0.1938781299999999,0.232760285,819
1747533114850,0.328745115,0.927905665,-0.15058332,-0.70041138,0.18695391,0.207992885,820
1747533114860,0.32020313,0.91399443,-0.07736614,-0.6961503,0.15819177,0.19867182,821
1747533114870,0.36340125,0.89630022,0.11055793,-0.0641821784999999,-0.34967306,0.099069592,822
1747533114880,0.36047256,0.90838107,0.0189144324999999,0.0830906265,-0.4942827,0.099069592,823
1747533114890,0.362791105,0.91728915,-0.1053107024999999,0.072437983,-0.529969075,0.13821806,824
1747533114900,0.38231568,0.933885025,-0.19719825,-0.064714812,-0.453802675,0.198671815,825
1747533114910,0.42734423,0.947674275,-0.2449114299999999,-0.3933489,-0.1749696915,0.2668487499999999,826
1747533114920,0.45028563,0.93852215,-0.23087814,-0.717455615,0.1347559535,0.3099919599999999,827
1747533114930,0.4355201749999999,0.91643495,-0.151559545,-0.836765215,0.25965822,0.321976175,828
1747533114940,0.439425075,0.9013034,-0.0551569355,-0.8181231,0.2391518799999999,0.2966761449999999,829
1747533114950,0.439059,0.8864159,0.0303851295,-0.6727145,0.1179780385,0.2324939649999999,830
1747533114960,0.384146125,0.854322375,0.0369746752,-0.39814257,-0.0735032465,0.176567585,831
1747533114970,0.313003425,0.81856799,-0.0392932148,-0.21891184,-0.19441076,0.15499598,832
1747533114980,0.27444238,0.8008738449999999,-0.11848979,-0.214650785,-0.205862355,0.23861924,833
1747533114990,0.2667545799999999,0.7897692599999999,-0.174378905,-0.255397155,-0.1898833899999999,0.37390782,834
1747533115000,0.282740335,0.780129015,-0.190486685,-0.34940675,-0.128630682,0.46631952,835
1747533115010,0.3790209,0.75194037,-0.08005078,-0.45540056,-0.0031957934,0.6215818,836
1747533115020,0.39451854,0.7508421350000001,-0.047225079,-0.39707733,0.0199737083,0.62397865,837
1747533115030,0.42343934,0.7452288499999999,-0.00207448675,-0.26391927,0.042876895,0.606668115,838
1747533115040,0.43173729,0.7349784500000001,0.0142773492499999,-0.1004011745,0.028495825,0.557399615,839
1747533115050,0.390735655,0.72485003,0.01037243325,0.0833569455,-0.00479369,0.514522715,840
1747533115060,0.27407628,0.69666138,-0.03551033125,0.3222425,-0.09294432,0.588558615,841
1747533115070,0.18572756,0.66493395,-0.0831014975,0.520648,-0.2114549949999999,0.76725675,842
1747533115080,0.190120595,0.6568800850000001,-0.100795645,0.625310235,-0.30253511,0.9648633,843
1747533115090,0.23283062,0.653463285,-0.11690342,0.71825457,-0.36911413,1.1688614,844
1747533115100,0.30812227,0.65334125,-0.122760795,0.813595735,-0.40906155,1.3409016,845
1747533115110,0.46956615,0.67164555,-0.1198321125,0.9691243,-0.42344262,1.40774695,846
1747533115120,0.6314981500000001,0.699101975,-0.1380143825,1.10068445,-0.44421527,1.38084905,847
1747533115130,0.701786625,0.733636075,-0.1924391449999999,1.1219898,-0.47031425,1.34436375,848
1747533115140,0.743764475,0.7826916,-0.2591888,1.07485185,-0.45327002,1.32199315,849
1747533115150,0.79050143,0.8328454000000001,-0.300922585,0.97471698,-0.3978762799999999,1.3209279,850
1747533115160,0.8866600099999999,0.8891006,-0.32410802,0.771784095,-0.295078265,1.2705942,851
1747533115170,0.97403253,0.936081575,-0.352418665,0.524642735,-0.212253945,1.13663715,852
1747533115180,1.0155222,0.962073655,-0.385854515,0.243146617,-0.20399814,0.9259811,853
1747533115190,1.0428566,0.98489303,-0.4156295,-0.1113201329999999,-0.20399814,0.6743124,854
1747533115200,1.048836,0.99319095,-0.4253917699999999,-0.495081645,-0.16724652,0.438356315,855
1747533115210,1.0550594000000002,0.973300275,-0.3851223299999999,-0.906540065,-0.06844324225,0.20213393,856
1747533115220,1.0648217,0.90203559,-0.197808406,-1.33743955,0.22024341775,-0.1749696849999999,857
1747533115230,1.0227219,0.816005415,0.020622834,-1.55768295,0.5491438200000001,-0.529436425,858
1747533115240,0.90899125,0.75486908,0.1475326,-1.4732607,0.72384722,-0.682834505,859
1747533115250,0.7651195,0.69873588,0.236369445,-1.3944311,0.7909589,-0.73822826,860
1747533115260,0.5823206,0.65126675,0.259798945,-0.78829565,0.7504788,-0.648213425,861
1747533115270,0.45541081,0.6393079850000001,0.23295265,-0.31531827,0.58935755,-0.47404268,862
1747533115280,0.4412555099999999,0.660296885,0.20073709,-0.0764327235,0.43942159,-0.34328148,863
1747533115290,0.53326507,0.7180164,0.16803341,0.2239718465,0.247940305,-0.219444485,864
1747533115300,0.6804315700000001,0.7841559250000001,0.13655003,0.4796353,0.109455922,-0.175502315,865
1747533115310,0.79696895,0.8144190250000001,0.105310705,0.588025975,0.097738012,-0.2428803,866
1747533115320,0.8683557,0.82418135,0.05491288,0.64821345,0.15579493,-0.35446675,867
1747533115330,0.8687217700000001,0.8235712150000001,-0.0122028615,0.645550275,0.2937466749999999,-0.482564805,868
1747533115340,0.7854982699999999,0.8191781650000001,-0.0981110115,0.5406217,0.4854942799999999,-0.609863905,869
1747533115350,0.68445855,0.8121005,-0.159369385,0.41065944,0.5949502,-0.67990503,870
1747533115360,0.6366233,0.8035585000000001,-0.16961979,0.32783514,0.58429754,-0.6897587249999999,871
1747533115370,0.6208816,0.7987994,-0.1683995,0.2908172,0.56618804,-0.69029135,872
1747533115380,0.599282565,0.80294832,-0.1266657075,0.2609898,0.48043427,-0.7025419,873
1747533115390,0.5874458,0.8097819,-0.111290105,0.28176245,0.3653857,-0.727043,874
1747533115400,0.58463915,0.7937962000000001,-0.119588052,0.303600375,0.149669655,-0.72091773,875
1747533115410,0.608434715,0.7898913000000001,-0.13288918,0.2727077,0.1984055049999999,-0.74728303,876
1747533115420,0.587201715,0.816493525,-0.19280523,0.200802355,0.31212248,-0.78643148,877
1747533115430,0.5277738,0.838092595,-0.24247088,0.0053263249999999,0.48363006,-0.81093255,878
1747533115440,0.4932397,0.83736044,-0.2438132,-0.14061491,0.59388494,-0.82078624,879
1747533115450,0.422341055,0.8490751750000001,-0.14143118,-0.209857095,0.55260595,-0.80107885,880
1747533115460,0.389027255,0.8490751750000001,-0.0605261995,-0.1581917669999999,0.429301585,-0.7659251499999999,881
1747533115470,0.35913025,0.8346757650000001,0.0322155555,-0.0311589855,0.264185585,-0.7171893,882
1747533115480,0.3439987,0.819544215,0.09286378,0.2916161465,0.0013315799999999,-0.6146575999999999,883
1747533115490,0.349856065,0.806731215,0.0616244545,0.608265995,-0.19041602,-0.50466905,884
1747533115500,0.34741549,0.7912336,-0.0114706895,0.71878718,-0.184024435,-0.44315002,885
1747533115510,0.34387666,0.787206685,-0.0824913489999999,0.7478156499999999,-0.11984225,-0.3954794299999999,886
1747533115520,0.34778157,0.7897693,-0.11519502,0.7419567,-0.07989483,-0.37550572,887
1747533115530,0.319714985,0.8349198200000001,-0.3081222799999999,0.40533311,0.2676477,-0.3488741199999999,888
1747533115540,0.27822525,0.8570070000000001,-0.32630454,0.218112895,0.38748996,-0.37257625,889
1747533115550,0.226241065,0.877995935,-0.30250895,0.071639036,0.422643675,-0.3787015099999999,890
1747533115560,0.17926005,0.8934935850000001,-0.26138531,-0.006391587,0.34221621,-0.35366779,891
1747533115570,0.14460392,0.908137,-0.191340885,0.0282295095,0.103863295,-0.286556135,892
1747533115580,0.15485432,0.92644127,-0.13203497,0.1392833275,-0.122771725,-0.212253945,893
1747533115590,0.2123298049999999,0.94389137,-0.13288918,0.2394181899999999,-0.217047625,-0.17310548,894
1747533115600,0.26419197,0.96304988,-0.179138035,0.290284575,-0.26418558,-0.161387565,895
1747533115610,0.2934788299999999,0.97793738,-0.251867085,0.2551308399999999,-0.27510455,-0.16990968,896
1747533115620,0.3210573,0.97049365,-0.29958026,0.0801611475,-0.202133935,-0.238086605,897
1747533115630,0.32471817,0.94535577,-0.30128866,-0.1190433025,-0.070041141,-0.3318298699999999,898
1747533115640,0.28591306,0.91399437,-0.2873774,-0.261522425,0.0625842839999999,-0.380299415,899
1747533115650,0.2502807,0.87933823,-0.2707815,-0.39361522,0.1850897,-0.39521313,900
1747533115660,0.1964660899999999,0.85310208,-0.250036645,-0.4833637699999999,0.28549087,-0.37736994,901
1747533115670,0.14545812,0.8506615,-0.24930448,-0.58296598,0.418648925,-0.285224555,902
1747533115680,0.14948506,0.865182925,-0.257602425,-0.68230188,0.5222459150000001,-0.181361275,903
1747533115690,0.16681313,0.879460275,-0.24820623,-0.73796195,0.54088805,-0.13315806,904
1747533115700,0.180602365,0.8898327500000001,-0.22746137,-0.76805565,0.51905011,-0.095341168,905
1747533115710,0.180846425,0.89276145,-0.14777667,-0.764060915,0.45593318,-0.054062168,906
1747533115720,0.18890031,0.9025237,-0.0294088959999999,-0.58669439,0.2122539405,0.008255801,907
1747533115730,0.21379414,0.9243668,0.037218729,-0.312921425,-0.0785632495,0.043675841,908
1747533115740,0.25101288,0.94364735,0.024893838,-0.13342437,-0.239418185,0.023968449,909
1747533115750,0.2894519,0.96182965,-0.051129995,-0.0487358514999999,-0.329699355,-0.0087884319999999,910
1747533115760,0.271147605,0.9991704,-0.134109463,-0.1075917114999999,-0.30759512,-0.000798949,911
1747533115770,0.239176115,1.0238201,-0.163396335,-0.22876554,-0.226635015,0.053263222,912
1747533115780,0.2330746799999999,1.0213795,-0.1360619175,-0.31025827,-0.16484967,0.109455925,913
1747533115790,0.23429496,1.0295555,-0.0787084605,-0.3539341099999999,-0.14301175,0.17923075,914
1747533115800,0.29213654,1.0385856,0.001952458,-0.3371561899999999,-0.1347559549999999,0.22903186,915
1747533115810,0.370967035,1.0493241,0.0386830745,-0.25965821,-0.108124347,0.21172131,916
1747533115820,0.331673815,1.0543273,-0.0222092065,-0.17603495,-0.139815962,0.12543489,917
1747533115830,0.231854395,1.05737805,-0.0916434949999999,-0.14700649,-0.17150758,0.064714815,918
1747533115840,0.155586495,1.04932415,-0.10714113,-0.15073492,-0.15446335,0.06498113,919
1747533115850,0.10287013,1.0168645,-0.101405785,-0.1933454949999999,-0.13129384,0.17896443,920
1747533115860,0.128984255,0.981598275,-0.0366085885,-0.087085365,-0.210389725,0.2330266,921
1747533115870,0.1383804575,0.96304995,0.012324890985,0.13741912,-0.40506682,0.20213393,922
1747533115880,0.016351834,0.95426387,-0.09152147,0.3568636,-0.69668293,0.18109496,923
1747533115890,-0.0014643434999999,0.953897785,-0.13618394,0.36591835,-0.782969365,0.20719394,924
1747533115900,-0.0425879905,0.95524008,-0.22550889,0.348874115,-0.91133375,0.269245585,925
1747533115910,-0.115195025,0.95487401,-0.333992345,0.1629854617,-0.866326335,0.445546875,926
1747533115920,-0.15912533,0.95316563,-0.38524437,-0.0900148433,-0.682834535,0.6476808000000001,927
1747533115930,-0.14631232,0.96195168,-0.35046621,-0.253266615,-0.4841627,0.7486145799999999,928
1747533115940,-0.143871745,0.97195801,-0.301288665,-0.364054125,-0.296143515,0.810133605,929
1747533115950,-0.198296515,0.97024958,-0.259554875,-0.42424157,-0.1030643359999999,0.845819975,930
1747533115960,-0.26907312,0.9661006,-0.25687026,-0.44767739,0.0300937205,0.86339685,931
1747533115970,-0.323009775,0.967931,-0.27981164,-0.44315002,0.0777643065,0.8857674,932
1747533115980,-0.38939333,0.9815982,-0.31519994,-0.430899475,0.091346428,0.935035885,933
1747533115990,-0.455532845,1.0080784,-0.3653537,-0.434627905,0.0551274345,1.0072075850000002,934
1747533116000,-0.467613695,1.0722655,-0.3930542,-0.44687845,-0.0173105485,1.0839066000000002,935
1747533116010,-0.431249155,1.1485333999999998,-0.3925661,-0.4311658,-0.151800185,1.1313108,936
1747533116020,-0.39293216,1.2079613,-0.40025389,-0.41039313,-0.2775013899999999,1.10521185,937
1747533116030,-0.37072295,1.2398108,-0.41050428,-0.4101268,-0.31318775,1.067395,938
1747533116040,-0.3018988,1.304486,-0.45394647,-0.4415521,-0.32277513,0.9102685,939
1747533116050,-0.313735585,1.3672087,-0.508127185,-0.6476808000000001,-0.28842035,0.568052285,940
1747533116060,-0.338385375,1.42566035,-0.5368039,-0.9422264,-0.21198763,0.162985465,941
1747533116070,-0.35193054,1.41772845,-0.458095425,-1.0849718,-0.089482219,0.0780306215,942
1747533116080,-0.3278909,1.4152879,-0.276028735,-1.1393003,-0.009054748,0.055926383,943
1747533116090,-0.25467373,1.4177285,-0.089324953,-0.97471695,0.39974049,0.1360875349999999,944
1747533116100,-0.20622836,1.4189488,-0.031483386,-0.8793758,0.45859635,0.16245283,945
1747533116110,0.037462786,1.4418902,0.09750087,-0.344879375,0.4998753649999999,0.095341172,946
1747533116120,0.163762413,1.4487238,0.12239471,0.004527375,0.4378237,-0.039947418,947
1747533116130,0.21647878,1.449456,0.11983211,0.17896444,0.39361522,-0.12357068,948
1747533116140,0.289573935,1.3875874,0.0067115759999999,0.68043769,0.1723065299999999,-0.517718515,949
1747533116150,0.26541227,1.3319423499999998,-0.110801987,0.9273127,0.023968447,-0.76991985,950
1747533116160,0.2144043,1.29777435,-0.196344055,0.98190748,-0.045007423,-0.86419578,951
1747533116170,0.16132184,1.27885995,-0.284814805,0.9520801,-0.081226415,-0.89189268,952
1747533116180,0.17059601,1.25750495,-0.35754387,0.73210299,-0.0183758124999999,-0.85780422,953
1747533116190,0.225752955,1.22419115,-0.35827604,0.479369,0.1115864524999999,-0.84581997,954
1747533116200,0.242836975,1.18624025,-0.270537445,0.39627838,0.22530344,-0.87591367,955
1747533116210,0.237101625,1.14304205,-0.162786175,0.4231763,0.3051982749999999,-0.900947395,956
1747533116220,0.243569135,1.10082015,-0.076633975,0.55606803,0.331030935,-0.93476954,957
1747533116230,0.255039815,1.0527409,-0.034778158,0.91080113,0.23009713,-1.026115965,958
1747533116240,0.2433250599999999,1.0110071,-0.0834675779999999,1.27405635,0.052464279,-1.13370765,959
1747533116250,0.2008591149999999,0.98098808,-0.1960999949999999,1.4189323,-0.093476956,-1.1968246,960
1747533116260,0.17279254,0.96451426,-0.25479576,1.4636734,-0.16245283,-1.222391,961
1747533116270,0.0392932165,0.90862512,-0.41855818,1.3132048,-0.17204021,-1.15075195,962
1747533116280,-0.0136672055,0.877873895,-0.48738234,1.080178185,-0.136353852,-1.0434264999999998,963
1747533116290,-0.005247231,0.874579175,-0.48286729,0.927845335,-0.057524282,-0.98430432,964
1747533116300,0.0540586785,0.8894667,-0.48640612,0.785632525,-0.0197073925,-0.96885802,965
1747533116310,0.14313958,0.918509465,-0.51752341,0.625576555,-0.0234358175,-1.0197244,966
1747533116320,0.19512377,0.946209965,-0.5546200800000001,0.4332963199999999,-0.053795853,-1.1190603,967
1747533116330,0.1133645859999999,0.9532876,-0.48420956,0.134489635,-0.158191768,-1.22505415,968
1747533116340,-0.043564219,0.941328735,-0.31715239,-0.049002165,-0.2657834799999999,-1.22691835,969
1747533116350,-0.16071169,0.922902465,-0.1519256325,0.038083205,-0.31611723,-1.0841729,970
1747533116360,-0.260531105,0.91094368,-0.0126909799999999,0.235956075,-0.335025665,-0.86632635,971
1747533116370,-0.335822775,0.89898485,0.0108605465,0.58855861,-0.19547602,-0.45193845,972
1747533116380,-0.30263099,0.88543967,-0.089813066,0.8625979,0.0231695029999999,-0.047670585,973
1747533116390,-0.159369383,0.898618785,-0.217699065,0.9038769,0.1379517479999999,0.108124345,974
1747533116400,0.0308732419999999,0.947064165,-0.333260175,0.86020105,0.1105211874999999,0.108124345,975
1747533116410,0.21672284,1.0079564,-0.45431255,0.6940198,-0.0556600675,-0.073769565,976
1747533116420,0.23307468,1.0651878,-0.5551082,0.2130529,-0.22610238,-0.38589203,977
1747533116430,0.09200958,1.0714114,-0.5195979,-0.319313025,-0.20905815,-0.5624596,978
1747533116440,0.04832333385,1.0546934,-0.458095465,-0.619184975,-0.0266316125,-0.53529535,979
1747533116450,-0.04112364615,1.0210135,-0.317762545,-0.7981494,0.1664475625,-0.44874263,980
1747533116460,-0.141431175,0.9723241,-0.11824574375,-0.83170523,0.30573089,-0.320111975,981
1747533116470,-0.21562457,0.929369965,0.04795724925,-0.58962388,0.329166725,-0.06391587,982
1747533116480,-0.204764025,0.9115538,0.116049223,-0.159523351,0.22556976,0.2300971249999999,983
1747533116490,-0.0772441215,0.921804185,0.128252082,0.218645529,0.0383495249999999,0.35819517,984
1747533116500,0.1136086435,0.96427015,0.068458054,0.515854315,-0.2106560499999999,0.31158985,985
1747533116510,0.245277525,1.0171086,-0.118489793,0.6788397850000001,-0.516653255,0.06524745,986
1747533116520,0.2400302999999999,1.04297865,-0.321911515,0.613326025,-0.66339343,-0.146473865,987
1747533116530,0.143261605,1.0461513999999998,-0.44930939,0.340352,-0.56725333,-0.15552861,988
1747533116540,0.059916055,1.04566325,-0.54729837,-0.0617853399999999,-0.367782555,-0.0692421878,989
1747533116550,0.0237955825,1.02748095,-0.5771953700000001,-0.543018565,-0.08868326,0.0801611522,990
1747533116560,0.1137306725,1.00710225,-0.405989215,-1.1329088,0.270310855,0.266848745,991
1747533116570,0.29518724,1.00405155,-0.16266416,-1.47086395,0.42051314,0.30706248,992
1747533116580,0.44699085,1.0266268,-0.0059794,-1.37578905,0.232493963,0.1225054161,993
1747533116590,0.5137405,1.0450531,0.07199689,-1.2809805,0.098004326,0.0005326322,994
1747533116600,0.42478164,1.06262525,0.159491415,-0.8181231,-0.35819517,-0.30732879,995
1747533116610,0.25394156,1.00222113,0.1022599915,-0.46951532,-0.63063653,-0.332895125,996
1747533116620,0.1295944,0.941206815,0.043564219,-0.200536035,-0.7877630499999999,-0.256196095,997
1747533116630,0.1027481,0.910943685,0.0187924077,-0.086819055,-0.8058725499999999,-0.173904425,998
1747533116640,0.080294835,0.878118,-0.0025626008,-0.0159789675,-0.7201187499999999,-0.0745685135,999
1747533116650,0.0441743624999999,0.8542003499999999,-0.012080833,0.020506341,-0.544350135,0.0458063715,1000
