id,timestamp,acc_x,acc_y,acc_z,gyro_x,gyro_y,gyro_z
1,1747532668360,0.142285375,0.11238836412,0.806609175,-0.131293845,0.2034654925,0.3163835534999999
2,1747532668370,0.530214365,0.47200671412,0.575120895,-2.4016386950000004,1.98831605,0.241548725
3,1747532668380,0.365353685,0.96927335,0.39390841,-4.342816900000001,3.3292176500000004,-0.21917816
4,1747532668390,0.35205257,1.0122274,0.43515409,-3.60112655,3.0069752000000003,-0.304665635
5,1747532668400,0.33130771,1.0455412,0.41758195,-2.8437235,2.5305357,-0.4032026
6,1747532668410,0.329843375,1.1014303499999998,0.35437111,-1.78192115,1.6165387999999998,-0.5608617300000001
7,1747532668420,0.337043065,1.1531705,0.26577834,-0.8322378500000001,0.64741449,-0.70973243
8,1747532668430,0.3414360899999999,1.1574415,0.1831649699999999,-0.38669099,0.0647148199999999,-0.7720503999999999
9,1747532668440,0.396226945,1.1314494,0.1261776,-0.034354775,-0.38216362,-0.8005462299999999
10,1747532668450,0.49690057,1.0934985,0.103602305,0.24660873,-0.6562029,-0.8080031
11,1747532668460,0.7285109000000001,1.05225285,0.0857861249999999,0.456998465,-0.773382,-0.82877577
12,1747532668470,1.03309435,1.0116173,0.0554009949999999,0.7115966499999999,-0.7837683200000001,-0.99389175
13,1747532668480,1.31058745,0.9779374,0.0192805222449999,0.9209211,-0.7318366700000001,-1.29962265
14,1747532668490,1.58405355,0.9526775,-0.009762290255,1.00507705,-0.7020093000000001,-1.6748621
15,1747532668500,1.812003,0.932298725,-0.0273344125,1.0586066,-0.7366304,-2.1150826
16,1747532668510,2.00724875,0.889832725,-0.031605414,1.0807108,-0.7749799,-2.3393207
17,1747532668520,2.4546057,0.76048235,-0.0015863725,1.2599415,-1.20215097,-3.1886028
18,1747532668530,2.9803051,0.5994046,-0.0053692605,1.38937115,-1.582983,-3.93322265
19,1747532668540,3.3886128,0.401840275,-0.152779847,1.0892329,-1.7347831500000002,-4.85387755
20,1747532668550,3.7376148,0.2029336,-0.2649241599999999,0.49375007,-1.726261,-5.7817227
21,1747532668560,4.0093726,0.0678479100999999,-0.19463566,-0.04607269,-1.5805861,-6.370814
22,1747532668570,4.29125855,-0.0852980049,-0.06369893825,-0.48895636,-1.35182065,-6.972955000000001
23,1747532668580,4.56496875,-0.24893838,0.07468151675,-0.814128325,-1.09109717,-7.5487304
24,1747532668590,4.715186,-0.32996538,0.14789869,-0.94968325,-0.96086854,-7.8211718
25,1747532668600,5.60697125,-0.97403255,0.8563969,-0.7933557,-0.914263215,-9.1080105
26,1747532668610,5.89373855,-1.21333065,1.2064970000000002,-0.2514024274999999,-1.062601315,-9.5104145
27,1747532668620,6.0185738,-1.4374972,1.479475,0.5273059225,-1.1848404,-9.8552945
28,1747532668630,6.01894,-1.5402453,1.5802706,0.964597,-1.2319783,-10.003899
29,1747532668640,5.4508967,-1.833358,1.56001395,2.7720845,-1.5885756,-9.990583
30,1747532668650,4.86515925,-1.85410295,1.32010565,3.90019945,-1.9816582,-9.6648785
31,1747532668660,4.407063750000001,-1.6102898,1.01906105,4.25333455,-2.2980418,-9.1610085
32,1747532668670,4.105287000000001,-1.4479917000000002,0.610753265,4.16545035,-2.53719365,-8.686166499999999
33,1747532668680,3.8844153,-1.36635445,0.291038275,3.75772035,-2.60324,-8.4813695
34,1747532668690,3.3751896500000003,-1.3284034999999998,0.13972277,2.92654775,-2.59045685,-8.420383000000001
35,1747532668700,2.75833495,-1.347318,0.099453325,2.04104675,-2.5875274,-8.3231775
36,1747532668710,2.3372142,-1.40418335,0.14094306,1.4394386,-2.56622205,-8.10772785
37,1747532668720,1.97722985,-1.4434765500000002,0.219407475,0.8977516,-2.45357035,-7.81504635
38,1747532668730,1.8260365,-1.4533609,0.26577836,0.6492787,-2.368083,-7.653925
39,1747532668740,1.28154455,-1.5286526,0.544003605,0.108124345,-1.7283916,-6.9849388
40,1747532668750,1.01454595,-1.6012596,0.659442675,-0.03275688335,-1.11133715,-6.5979818
41,1747532668760,0.7127692,-1.6681313000000002,0.7515742999999999,0.07057376665,-0.68443241,-6.4890585000000005
42,1747532668770,0.4471129,-1.7763707000000002,0.7545029999999999,0.2316950099999999,-0.408795235,-6.4035708
43,1747532668780,-0.07224093,-1.9498954,0.57487684,0.3406183,-0.333960415,-6.06135465
44,1747532668790,-0.56975165,-2.10560395,0.34338853,0.3653857,-0.34993938,-5.7572217
45,1747532668800,-0.740835785,-2.2062775,0.20220143,-0.0103863349999999,-0.482032165,-4.91566265
46,1747532668810,-0.8311369399999999,-2.3112221,0.115317052,-0.38802258,-0.56565541,-4.25360085
47,1747532668820,-0.873114795,-2.4319085,0.093107842,-0.750212485,-0.6719155299999999,-3.61311085
48,1747532668830,-0.94023052,-2.545151,0.13532975,-1.0082728,-0.8860337,-2.75131185
49,1747532668840,-1.04932415,-2.5973792,0.18743597,-1.1323761,-1.10281505,-1.79177485
50,1747532668850,-1.1587839,-2.58175955,0.20598431,-1.14143085,-1.18883515,-0.97658125
51,1747532668860,-1.2498172,-2.52318585,0.22319034,-1.1334414,-1.1965583,-0.02396845
52,1747532668870,-1.22711985,-2.3647927,0.2805438,-1.0836403,-0.916926385,1.59789665
53,1747532668880,-1.043466775,-2.1895596,0.33960566,-0.9933591,-0.40187102,3.3300166
54,1747532668890,-0.739493455,-2.06399215,0.3716992,-0.88124,0.0434095249999999,4.32976725
55,1747532668900,-0.395250705,-1.94367185,0.40013187,-0.71798825,0.40613206,4.96706165
56,1747532668910,-0.0909113225,-1.8410458,0.4096500899999999,-0.49135324,0.7187872,5.3867759500000005
57,1747532668920,0.2227022425,-1.6885101,0.34253435,-0.229564495,0.9859023,5.6482985
58,1747532668930,0.47664379,-1.53451,0.202689545,0.109189605,1.1917646,5.86507985
59,1747532668940,0.5603554,-1.48338,0.12813005,0.31265512,1.2703278,5.9825253
60,1747532668950,0.769024365,-1.3454877,-0.1177576175,0.39787625,0.963798,5.996906299999999
61,1747532668960,0.8660371250000001,-1.2725145,-0.28603509,0.301203515,0.61465759,5.9931778
62,1747532668970,0.978425525,-1.2208964,-0.457485315,-0.2404834349999999,-0.026897935,6.1029
63,1747532668980,1.1052132499999998,-1.19697885,-0.541563035,-0.9331717,-0.552339625,6.3207467
64,1747532668990,1.1587838,-1.19344,-0.53350914,-1.171791,-0.6412892,6.4299364
65,1747532669000,1.37318805,-1.24640035,-0.41013821,-1.8074875,-0.606668125,6.93860005
66,1747532669010,1.59650045,-1.2983845,-0.28164208,-2.13505635,-0.420246835,7.353520749999999
67,1747532669020,2.17247555,-1.4221214999999998,-0.139844815,-2.4655546,0.1941444449999999,7.991880500000001
68,1747532669030,2.8326505,-1.53804875,-0.045150593,-2.73053905,1.05461178,8.548481
69,1747532669040,3.2894037000000003,-1.5424418,0.033069757,-2.83360335,1.7909758999999998,8.784703499999999
70,1747532669050,3.6703769,-1.483746,0.152779845,-2.778476,2.32973345,8.914932
71,1747532669060,3.97496035,-1.41858275,0.3487578249999999,-2.5206821,2.53825895,9.016931
72,1747532669070,4.259531,-1.3953973,0.55022706,-1.6935042,2.29671015,9.5152085
73,1747532669080,4.62976575,-1.37086955,0.6872651750000001,-0.55899752,1.79683475,10.1802
74,1747532669090,5.111413,-1.2672672500000002,0.7915996750000001,0.46472163,1.3145363,10.5740815
75,1747532669100,5.64345785,-1.066652185,0.84358391,1.5715314,0.7675230200000001,10.7184245
76,1747532669110,6.19209825,-0.638331745,0.7104506349999999,3.2442629500000004,0.04101269,9.981794
77,1747532669120,6.297530999999999,-0.231244245,0.46151221,4.68822885,-0.4681837299999999,8.8563425
78,1747532669130,5.9225373,-0.0519841935,0.242592895,5.25921065,-0.505467985,8.1316965
79,1747532669140,5.467614299999999,0.1061649065,-0.0202567499999999,5.59104065,-0.36485307,7.535147999999999
80,1747532669150,5.0391715,0.2773710649999999,-0.323619915,5.62060165,-0.115581195,6.9892
81,1747532669160,4.46392885,0.5767073,-0.7820814300000001,4.9420280000000005,0.34381411,6.098639
82,1747532669170,3.9110174,0.87628755,-1.17574575,3.843474,0.8141283699999999,5.131645000000001
83,1747532669180,3.5354131,1.0326062,-1.32998995,2.7891287,1.1158644999999998,4.432831500000001
84,1747532669190,3.15517195,1.1266903,-1.4046715,1.4666028999999998,1.4498249,3.6759613
85,1747532669200,2.7749309,1.15475685,-1.3957634,0.11717909,1.77073585,2.9750173
86,1747532669210,2.4106755,1.12986305,-1.31229585,-1.01466436,1.9947077,2.4040356
87,1747532669220,1.8963249,1.05896445,-1.0598186200000002,-2.34544605,2.0855215,1.6737968
88,1747532669230,1.1656175,0.9691513,-0.5945235,-3.5894086,1.9680761,0.91985583
89,1747532669240,1.006736175,0.976839115,-0.48286729,-3.7015277,1.89803495,0.822117835
90,1747532669250,0.7423001250000001,0.985503165,-0.27261195,-3.8290931,1.716141,0.66845347
91,1747532669260,0.534363375,0.99868225,-0.04185582,-3.6024581,1.3739248000000002,0.5882923
92,1747532669270,0.3954947749999999,1.02369815,0.115439075,-3.1806134,1.0905645000000002,0.556600675
93,1747532669280,0.333260165,1.0633574,0.147898685,-2.8120319,0.975515925,0.51718591
94,1747532669290,0.30751213,1.0902036,0.1552204,-2.6232138,0.91346425,0.48522797
95,1747532669300,0.3261825,1.1687900999999998,0.17913802,-2.03811715,0.656469215,0.200536032
96,1747532669310,0.293234775,1.24701045,0.206960555,-1.3949638,0.40400155,-0.145941233
97,1747532669320,0.253209395,1.31803115,0.22001762,-0.7174556,0.1704423099999999,-0.4468784449999999
98,1747532669330,0.25943285,1.35500585,0.196466085,-0.2540655715,0.038349518,-0.563791215
99,1747532669340,0.332527995,1.37819125,0.0846878609999999,-0.027164243,-0.025033714,-0.60773337
100,1747532669350,0.565724715,1.38478075,-0.057597509,0.69135665,-0.2657834799999999,-0.9560748
101,1747532669360,0.7468152,1.3777031,-0.169009645,0.9219864,-0.37816888,-1.1659319
102,1747532669370,0.93290885,1.35817855,-0.28469278,0.856206325,-0.54754594,-1.5472966
103,1747532669380,1.2161373,1.3392640999999998,-0.3623029749999999,0.650077625,-0.8029430799999999,-2.15050265
104,1747532669390,1.5193784,1.3234004,-0.340093765,0.509729,-0.88896316,-2.372344
105,1747532669400,1.8437305,1.2815446499999998,-0.29042812,-0.244744515,-0.7584683,-3.5321506
106,1747532669410,2.05996525,1.2006396499999998,-0.289085805,-0.5834986,-0.53982277,-4.0847565
107,1747532669420,2.2698544,1.08288195,-0.29994635,-0.95500955,-0.3768373,-4.597415
108,1747532669430,2.53843935,0.9560942,-0.27102556,-1.29402995,-0.330764605,-5.012601849999999
109,1747532669440,3.05437635,0.795870675,-0.049909695,-1.4551512,-0.32330775,-5.2160673
110,1747532669450,3.62058915,0.646385625,0.2152585,-1.4666028,-0.296409825,-5.7745323
111,1747532669460,4.06282105,0.58171045,0.38353596,-1.39363225,-0.37950046,-6.54232165
112,1747532669470,4.2980924,0.5640163,0.4720067,-1.3092101,-0.48948902,-6.751646
113,1747532669480,5.23588215,0.51996395,0.794162245,-0.84368943,-0.95261272,-7.7567228
114,1747532669490,5.818690800000001,0.32410802,0.856274825,-0.435426855,-1.1946941,-8.872055
115,1747532669500,6.20796215,-0.009518235,0.801606,-0.242347665,-1.1675299,-9.738914
116,1747532669510,6.4345697,-0.350710275,0.785742275,-0.27004454,-0.77844205,-9.996708
117,1747532669520,6.6350627,-0.7080101,0.843461845,-0.17789916,-0.201335005,-10.1913855
118,1747532669530,6.7023,-1.2251674,1.0221118,0.139017015,0.383761515,-10.366621
119,1747532669540,6.7023,-1.2251674,1.0221118,0.36272255,0.65194184,-10.451309
120,1747532669550,5.6934895,-1.57856225,1.01430198,1.9941751,0.7352987799999999,-10.260894
121,1747532669560,5.192074,-1.61443865,0.89813068,2.57660845,0.331829883,-9.929064
122,1747532669570,4.711403150000001,-1.6521455,0.7282668299999999,2.97794675,-0.099868547,-9.6089515
123,1747532669580,4.23707765,-1.67728345,0.55913518,3.11936065,-0.437291075,-9.344766
124,1747532669590,3.611437000000001,-1.7162106,0.37816672,2.9816752500000003,-0.660730305,-8.960738
125,1747532669600,3.214478,-1.7537954,0.26870704,2.8266792,-0.72278196,-8.71333
126,1747532669610,2.7728565,-1.7897938,0.27078152,2.57927155,-0.5898901999999999,-8.4691185
127,1747532669620,2.13220625,-1.83567655,0.31275935,2.2711438,-0.340618305,-8.07177525
128,1747532669630,1.5824672,-1.8229856,0.3747498999999999,2.19045005,-0.0069242199999999,-7.56897045
129,1747532669640,1.03760935,-1.7844245,0.36889255,2.16408475,0.294545615,-7.0571107
130,1747532669650,0.72643637,-1.78405845,0.3098306899999999,2.1299963,0.36458675,-6.7327377
131,1747532669660,0.49458201,-1.8195688,0.23417293,2.04983515,0.28149613,-6.4203489000000005
132,1747532669670,0.27041543,-1.86850225,0.135085685,1.90389385,0.124635942,-6.1287327000000005
133,1747532669680,-0.0317274399999999,-2.0161569,-0.037462785,1.0807108,-0.29827404,-5.403554
134,1747532669690,-0.3108069,-2.2005422,-0.189266395,0.82531365,-0.321709855,-5.21686625
135,1747532669700,-0.489822895,-2.3212285,-0.22599701,0.31105723,-0.343547775,-4.7971520000000005
136,1747532669710,-0.685068695,-2.4122617,-0.21928543,-0.233559235,-0.2942793,-4.1920819
137,1747532669720,-0.8662811699999999,-2.48987195,-0.187924075,-0.701210315,-0.20612867,-3.48501265
138,1747532669730,-1.0714112999999998,-2.5782207,-0.134719595,-1.11346765,-0.0825579939,-2.41708505
139,1747532669740,-1.24261745,-2.6380148,-0.09469421,-1.4165354,0.0308926691,-1.25994155
140,1747532669750,-1.30802475,-2.6579055,-0.079684693,-1.5526228999999998,0.067377978,-0.38003311
141,1747532669760,-1.3268172,-2.6489973,-0.0558891089999999,-1.66207885,0.060720075,0.55739964
142,1747532669770,-1.2056428,-2.55564545,0.044784504,-1.71427685,0.0404800485,2.0056267
143,1747532669780,-0.97830348,-2.417387,0.179382075,-1.62639255,0.0846885235,3.51084545
144,1747532669790,-0.71887061,-2.3043885,0.27602875,-1.39656175,0.162719145,4.418184500000001
145,1747532669800,-0.41538543,-2.2092062,0.34143608,-1.081243415,0.192546545,5.0666642
146,1747532669810,-0.121296467,-2.1157323,0.353638945,-0.4841627,0.19600865,5.7417755
147,1747532669820,0.2488163729999999,-1.9710064,0.2532094,-0.10466223,0.076166403,5.96601375
148,1747532669830,0.56169779,-1.83103955,0.0695563159999999,0.397077335,-0.164317042,6.261092
149,1747532669840,0.6850687,-1.7564799999999998,-0.110191849,0.557399615,-0.43036684,6.41475625
150,1747532669850,0.76719395,-1.70266535,-0.272367895,0.542752225,-0.7094661200000001,6.60730275
151,1747532669860,0.8592035499999999,-1.64872875,-0.40879588,0.33023198,-0.91612745,6.882141
152,1747532669870,1.104237,-1.58795855,-0.511299915,-0.21731396,-1.0543455,7.307448
153,1747532669880,1.3797776,-1.5575734,-0.53985465,-0.811731515,-1.08284125,7.72050435
154,1747532669890,1.57294895,-1.57246085,-0.50019534,-1.2104067,-0.95527585,8.037953349999999
155,1747532669900,1.81078275,-1.5851518,-0.44430619,-1.5691345,-0.7464840500000001,8.3506085
156,1747532669910,2.3028022,-1.60455435,-0.3658418,-2.0479709,-0.450074225,8.7205215
157,1747532669920,2.83533515,-1.6355496500000002,-0.295309275,-2.4916536,-0.153398089,8.967929
158,1747532669930,3.1506571,-1.66141975,-0.249426515,-2.7593013,0.060720071,8.978048999999999
159,1747532669940,3.4559727,-1.68838805,-0.181090485,-2.9561089000000003,0.215716055,8.929846
160,1747532669950,3.7298049,-1.709499,-0.096280587,-3.00777425,0.32277514,8.897089
161,1747532669960,3.929932,-1.71254975,0.073583258,-2.7667581,0.43089947,9.3128085
162,1747532669970,4.06697,-1.6946115,0.2408845,-2.33479335,0.5848301499999999,10.146378
163,1747532669980,4.3051695,-1.6700837,0.2839606,-1.933455,0.7507451,10.988203
164,1747532669990,4.724826,-1.64433565,0.266022395,-1.5464977000000002,0.8870989650000001,11.7376165
165,1747532670000,4.962904,-1.6312786,0.24552159,-1.3608754,0.95128113,12.063055
166,1747532670010,6.01100805,-1.6322548,0.25442967,-1.0098706,0.94755274,12.30487
167,1747532670020,6.3993033,-1.4916779,0.29909215,-0.11904329,0.24634241,11.5293575
168,1747532670030,6.3945442,-1.3458537000000002,0.30885445,0.61199443,-0.356330965,10.6217515
169,1747532670040,6.3680639,-1.1427981,0.2796896,0.83037364,-0.52624065,10.304835
170,1747532670050,6.3318214,-1.0160104,0.2545517,0.83037364,-0.52624065,10.304835
171,1747532670060,5.58647065,-0.436862495,0.161931985,1.69377045,-0.90334425,8.207063999999999
172,1747532670070,4.8752878,0.002806655,0.01330112,1.5864451000000002,-0.79948098,7.146592999999999
173,1747532670080,4.284425,0.364743575,-0.109703735,1.1781825,-0.51851748,6.126336
174,1747532670090,4.1033344,0.48128092,-0.12056428,0.9571401,-0.3818973,5.780125
175,1747532670100,3.65365925,0.7498659,-0.0766339715,0.063383245,0.262055055,4.48955715
176,1747532670110,3.2806177,0.861156,0.0320935284999999,-0.56006278,0.86819055,3.2639704
177,1747532670120,2.8289896,0.92998015,0.151315495,-1.039431825,1.4357102,2.0804615
178,1747532670130,2.2277546,0.89764255,0.24527754,-1.2799152,1.8583539,1.1744541
179,1747532670140,2.2277546,0.89764255,0.24527754,-1.3044163,1.95742345,0.96299908
180,1747532670150,1.77075735,0.8068532500000001,0.297139705,-1.3052152499999998,2.1233383000000003,0.589357555
181,1747532670160,1.38929585,0.75633343,0.316420225,-1.0828413,2.26635,0.2095907835
182,1747532670170,1.0415143,0.7337581550000001,0.30677996,-0.7518104000000001,2.3459786,-0.056991649
183,1747532670180,0.844194035,0.741689975,0.27602875,-0.48070059,2.3262713,-0.1310275325
184,1747532670190,0.651022705,0.776956225,0.213184005,-0.0596547999999999,2.18459105,-0.188818125
185,1747532670200,0.532776955,0.8324792750000001,0.138258435,0.35979307,1.96994025,-0.26711506
186,1747532670210,0.501781685,0.88641595,0.078708465,0.62610918,1.76221375,-0.38003309
187,1747532670220,0.48835855,0.938522175,0.0317274405,0.88257155,1.53904085,-0.52863748
188,1747532670230,0.5163031,0.989408075,0.003172744,1.154214,1.32119425,-0.7142598
189,1747532670240,0.5440036,1.01479,-0.006833603,1.2985574,1.2149341,-0.8186557
190,1747532670250,0.6300337650000001,1.09032575,-0.20403186,2.019475,0.49161955,-1.5235945
191,1747532670260,0.599648665,1.0948408,-0.319837025,2.086853,0.1462075535,-1.721201
192,1747532670270,0.57304643,1.0894715,-0.439425075,1.98858245,-0.1933454965,-1.8564896
193,1747532670280,0.56694496,1.0828819,-0.5000733,1.8945729,-0.3520699,-1.9094865
194,1747532670290,0.6284474,1.0418804,-0.5879339,1.35927745,-0.62823973,-2.010154
195,1747532670300,0.99306897,0.993557035,-0.533387085,0.7909588599999999,-0.6210492000000001,-2.1433121
196,1747532670310,1.24188535,0.9745206,-0.5066628200000001,0.215982366,-0.43143211,-2.4253409
197,1747532670320,1.5619664,0.94401345,-0.49055508,-0.156593869,-0.229830805,-2.8490498
198,1747532670330,1.9364722,0.909967415,-0.46187836,-0.504669025,-0.11877699,-3.4139062
199,1747532670340,2.1736958,0.868965765,-0.40452489,-1.0341055,-0.13688648,-4.3111253
200,1747532670350,2.28803665,0.80319237,-0.32130137,-1.52465975,-0.207726565,-5.06453375
201,1747532670360,2.4890178,0.73119552,-0.20378781,-1.7646105,-0.2295644949999999,-5.38038445
202,1747532670370,2.7652906,0.67774695,-0.065407343,-1.9025623,-0.24181503,-5.68797945
203,1747532670380,3.1777475,0.55083718,0.088836837,-1.9680761,-0.277501385,-6.046707400000001
204,1747532670390,3.5855672,0.376458305,0.26284965,-2.07087415,-0.307328805,-6.6432555
205,1747532670400,3.85671465,0.25223317,0.46102412,-2.1201426000000003,-0.24074978,-7.19932335
206,1747532670410,4.1128528,0.14228538,0.68116377,-2.0005666,-0.0759000965,-7.520767
207,1747532670420,4.2380543,0.08639627,0.7941623,-1.9094865,0.018109497,-7.689079
208,1747532670430,4.6473384,-0.17328064,1.1919756,-1.3225258,0.4058657599999999,-8.162855
209,1747532670440,4.74337485,-0.333138145,1.28691385,-0.4577973899999999,0.737695625,-8.497348500000001
210,1747532670450,4.8651593,-0.569629625,1.39612945,0.51319116,0.9307748,-8.752212499999999
211,1747532670460,4.844048,-0.78635246,1.398448,1.6996294,0.77924097,-8.898154
212,1747532670470,4.7591161500000005,-0.864450755,1.3507348499999998,1.9827234,0.703873485,-8.874452
213,1747532670480,4.3076105,-1.1751356,1.0814177,2.6543727,0.5073321900000001,-8.714129499999999
214,1747532670490,4.19705245,-1.22211665,1.010275,3.15637865,0.35499938,-8.501342999999999
215,1747532670500,3.9544594,-1.3093672,0.86042385,3.3254893,0.3033340399999999,-8.3458145
216,1747532670510,3.6382832,-1.38307245,0.6973936,3.38141565,0.25885926,-8.17191
217,1747532670520,3.287329,-1.4379853,0.55462009,3.336142,0.199470775,-7.9631182
218,1747532670530,2.9577298,-1.46690615,0.46078009,3.2205608,0.111586455,-7.719438699999999
219,1747532670540,2.4680289,-1.4368871,0.365719785,2.9489183,-0.037284255,-7.23793925
220,1747532670550,2.1411142,-1.3994243,0.30604777,2.747317,-0.13369069,-6.8858695
221,1747532670560,2.1411142,-1.3994243,0.30604777,2.747317,-0.13369069,-6.8858695
222,1747532670570,1.78979375,-1.41528795,0.3513204,2.5899242,-0.249804515,-6.41049525
223,1747532670580,1.3367015,-1.4550693,0.378776845,2.47167985,-0.34061832,-5.717807
224,1747532670590,1.1574415,-1.54585865,0.3293552549999999,2.51988305,-0.255397165,-5.4421699
225,1747532670600,0.99392312,-1.68509325,0.24600971,2.5039041,-0.171241265,-5.4016899
226,1747532670610,0.75169632,-1.8213992,0.123737027,2.42321025,-0.11797804,-5.4552195
227,1747532670620,0.0900571349999999,-1.9456244,-0.151925633,2.18219415,-0.057790596,-5.3771888
228,1747532670630,-0.60038084,-2.01176395,-0.431737255,1.3600764,0.0242347664999999,-4.56465815
229,1747532670640,-0.893859725,-2.02091615,-0.53863433,0.3555320295,0.0790958854999999,-3.40272105
230,1747532670650,-1.044443,-2.0178655,-0.56084355,-0.3440804205,0.0498011125,-2.4996431
231,1747532670660,-1.008322485,-2.0358036,-0.43515407,-1.10015185,-0.1179780305,-1.43544385
232,1747532670670,-0.898496785,-2.0792457,-0.26773081,-1.60375565,-0.32250881,-0.6079996999999999
233,1747532670680,-0.87506727,-2.1087766,-0.1825548249999999,-1.7057547,-0.4740427,-0.21678132
234,1747532670690,-0.91045552,-2.12256575,-0.1208083349999999,-1.69883045,-0.69561772,0.2596582
235,1747532670700,-0.95487395,-2.1146339000000003,-0.06931226,-1.59922825,-0.96459695,0.8532767699999999
236,1747532670710,-0.969395375,-2.07704915,-0.0287987555,-1.4346449,-1.2128035,1.52039865
237,1747532670720,-0.88226694,-1.9629524000000005,0.0097622895,-1.12305505,-1.43943855,2.67274855
238,1747532670730,-0.7049593300000001,-1.81041665,0.03807293,-0.8111989,-1.55422085,3.8373489
239,1747532670740,-0.501293565,-1.6993707,0.04771319,-0.7163904,-1.5616777,4.211523
240,1747532670750,-0.3904916,-1.6529999,0.05027579,-0.54914385,-1.536644,4.8751826
241,1747532670760,0.22306834,-1.5074196,0.0320935295,-0.180562318,-1.3720606000000002,5.685849
242,1747532670770,0.686533065,-1.39198055,-0.0156196654999999,0.129429627,-1.3270532,6.0168798
243,1747532670780,0.967687035,-1.31437035,-0.08236932,0.292947715,-1.42585645,6.0669473
244,1747532670790,1.215039,-1.22089645,-0.1469224599999999,0.41252365,-1.5571503,6.066148399999999
245,1747532670800,1.3890518,-1.112535,-0.204642,0.48869005,-1.66873675,6.093845399999999
246,1747532670810,1.53865895,-0.987455625,-0.25613808,0.477504785,-1.61787035,6.431267999999999
247,1747532670820,1.8384832,-0.8927614,-0.30165476,0.30040458,-1.1792477,7.208112
248,1747532670830,1.96734555,-0.87055218,-0.324840205,0.1957423469999999,-0.905741075,7.465107
249,1747532670840,2.24178795,-0.835163865,-0.37304151,-0.112385393,-0.209590775,8.0400835
250,1747532670850,2.876947,-0.762800905,-0.41465327,-0.7358314,0.80906835,8.592689499999999
251,1747532670860,3.5639681,-0.61270572,-0.387562915,-1.29509525,1.5837819,8.8009485
252,1747532670870,3.8687954,-0.43076105,-0.27053746,-1.4908376,1.83065695,8.749017
253,1747532670880,4.01620605,-0.26150735,-0.129472373,-1.5406387,1.86900645,8.748751
254,1747532670890,4.08234575,-0.15717287,0.002318542,-1.46021125,1.77499685,8.829444500000001
255,1747532670900,4.1409195,-0.17242645,0.24076247,-1.2330436,1.60082615,8.913866500000001
256,1747532670910,4.1534885,-0.2412506,0.48665015,-0.44315,1.1771172,8.9415635
257,1747532670920,4.1077275,-0.27907947,0.58720174,0.52757222,0.788295675,8.950618
258,1747532670930,4.15043725,-0.26480212,0.571338025,1.14196352,0.696682975,8.9165295
259,1747532670940,4.2736864,-0.17071805,0.44491638,1.6000272,0.73636408,8.7199885
260,1747532670950,4.32481645,-0.0112266325,0.27846932,1.83545065,0.8863000299999999,8.3383575
261,1747532670960,4.0098605,0.47054234,-0.102259986,1.5446335,1.5116103,6.867227
262,1747532670970,3.88746585,0.53802417,-0.1172695129999999,1.41041015,1.6540894000000002,6.533533
263,1747532670980,3.62302985,0.66908295,-0.0763899245,1.2194615,1.8873823,5.876265
264,1747532670990,3.30770775,0.8018501,0.0342900405,1.25354995,2.02080665,5.1923652
265,1747532671000,2.9480895,0.92936995,0.09701275,1.48844075,2.0554278,4.57930545
266,1747532671010,2.47620495,1.0626252,-0.039537275,1.8210696,1.8751318,3.82589725
267,1747532671020,2.0384882500000003,1.1888028,-0.302630965,1.96594555,1.57632505,3.0618364
268,1747532671030,1.7502566000000002,1.29142885,-0.547420385,1.778459,1.31000895,2.5478463500000004
269,1747532671040,1.51583955,1.381364,-0.750476,1.4343786,1.0458234,2.0793962500000003
270,1747532671050,1.32852565,1.45031015,-0.86664725,1.024784435,0.84661895,1.68498205
271,1747532671060,1.0157663,1.5883245,-0.97476465,-0.066046394,0.60240704,0.9012137
272,1747532671070,0.995387485,1.6069949,-0.984038825,-0.251935037,0.57151437,0.7659251499999999
273,1747532671080,0.97330034,1.6691074,-0.9825745,-0.8181231,0.45167214,0.34408042
274,1747532671090,1.07458407,1.6942453999999998,-0.90435415,-1.1787151,0.31132354,-0.05512744
275,1747532671100,1.23944475,1.74622965,-0.70483735,-1.63225145,0.06631271,-0.70493875
276,1747532671110,1.3285257,1.7935767,-0.46297661,-1.71986945,-0.154995985,-1.1984225
277,1747532671120,1.4057697999999998,1.8138335,-0.25174505,-1.6476978,-0.373108875,-1.6748620500000002
278,1747532671130,1.52206305,1.80626775,-0.107629245,-1.4839134,-0.51345745,-2.13372465
279,1747532671140,1.7772249,1.7297557499999998,0.04588276,-1.12864767,-0.5419533000000001,-2.906574
280,1747532671150,2.03360705,1.62273665,0.185239445,-0.70866717,-0.52251225,-3.72256665
281,1747532671160,2.1738179,1.5235274,0.22526484,-0.40906155,-0.5360943499999999,-4.2320293
282,1747532671170,2.2482553,1.462147,0.22599702,-0.2711098,-0.5587312,-4.4730453
283,1747532671180,2.9346662500000003,1.27739565,0.19060871,0.170175995,-0.6559366,-5.3899718
284,1747532671190,3.59935625,1.1642751,0.1175135649999999,0.43382895,-0.83117263,-6.2067633
285,1747532671200,3.96165925,1.0860547,0.03782887435,0.47297743,-1.15554565,-6.887201
286,1747532671210,4.217187,0.98940805,-0.04759116065,0.2817624575,-1.59549985,-7.5937375
287,1747532671220,4.4535565,0.83406565,-0.09469421,-0.1416801775,-1.9502329,-8.157529
288,1747532671230,4.937034199999999,0.54973895,0.12666571,-0.657001855,-2.0668794,-8.5151915
289,1747532671240,5.4504087,0.2579684949999999,0.543027375,-1.12838132,-1.7656759,-9.0073435
290,1747532671250,5.72057985,0.03148338,0.9113097,-1.1875035,-1.1832425,-9.4986965
291,1747532671260,5.8312597,-0.09176553,1.0902036,-1.0428939,-0.9060074,-9.65023
292,1747532671270,5.9576817,-0.28920785,1.309123,-0.5070659,-0.43729106,-9.86861
293,1747532671280,5.97098275,-0.54742044,1.4933863,0.60986392,-0.222640275,-10.039851
294,1747532671290,5.7171632500000005,-0.8621322499999999,1.43286005,1.82240115,-0.5030711299999999,-10.1663515
295,1747532671300,5.3188616500000006,-1.1495096500000002,1.22895025,2.81522765,-0.90281163,-10.174075
296,1747532671310,5.03099615,-1.30985525,1.0221118,3.0770164,-1.12971295,-10.0576945
297,1747532671320,4.7421545,-1.5241375,0.8606678999999999,3.15265015,-1.28018155,-9.98578875
298,1747532671330,4.0858845,-1.79199035,0.626372925,2.8732846,-1.2969595,-9.75675675
299,1747532671340,3.35407875,-2.00309985,0.444306225,2.3909861,-1.16406775,-9.4025565
300,1747532671350,2.9001323,-2.0726561500000003,0.44943142,1.98645185,-0.945155875,-9.067531
301,1747532671360,2.6731591,-2.0818083,0.46492904,1.7896442,-0.81439465,-8.877914
302,1747532671370,2.18821725,-2.1075563500000003,0.52850597,1.53664395,-0.3994741575,-8.3508745
303,1747532671380,1.26592488,-2.0685072,0.62136977,1.25674575,0.2993393175,-7.223558499999999
304,1747532671390,0.66920498,-2.0104215,0.6562699350000001,1.28284475,0.663926075,-6.331932
305,1747532671400,0.38780698,-2.02408875,0.648338065,1.428786,0.712395625,-5.79823435
306,1747532671410,0.1134866299999999,-2.04117285,0.5773174,1.61281035,0.56778598,-5.330317
307,1747532671420,-0.46834585,-2.2138433,0.14399378,1.6793893999999998,0.18855181,-4.5484129
308,1747532671430,-0.573290475,-2.2142094,0.0524723099999999,1.45275445,-0.12570121,-3.55824955
309,1747532671440,-0.76084845,-2.21042655,-0.10543273,1.02158863,-0.17630127,-2.77048645
310,1747532671450,-0.8812907000000001,-2.2085961000000003,-0.19768637,0.543018565,-0.180828645,-2.0831246
311,1747532671460,-0.93046825,-2.22323955,-0.22697324,0.053263225,-0.173638115,-1.45435235
312,1747532671470,-0.993557,-2.24508275,-0.2054962,-0.5925533599999999,-0.0990695985,-0.5829660095
313,1747532671480,-1.07739065,-2.24361835,-0.161809955,-1.1638014,0.0082558005,0.3344930405
314,1747532671490,-1.1075318,-2.22348355,-0.115072995,-1.46180915,0.090547479,1.05194865
315,1747532671500,-1.0788551000000002,-2.2005422,-0.05332651,-1.68098735,0.178698115,1.82293375
316,1747532671510,-0.99770605,-2.16222525,0.021110953,-1.8109496,0.2673813849999999,2.6098978500000003
317,1747532671520,-0.7188706499999999,-2.05422995,0.150827383,-1.74570215,0.3091930149999999,3.7297571
318,1747532671530,-0.3579099599999999,-1.91865605,0.260775165,-1.5172029500000002,0.246342405,4.668255
319,1747532671540,-0.090667265,-1.81944665,0.281764075,-1.25408265,0.1081243385,5.0078082
320,1747532671550,0.13789234,-1.71779685,0.27187976,-0.96699385,-0.0524642765,5.2054147
321,1747532671560,0.377434495,-1.5688,0.1709621,-0.6295713000000001,-0.303866695,5.330849499999999
322,1747532671570,0.57231422,-1.4455511,0.0444184205,-0.4063984,-0.51505537,5.40648335
323,1747532671580,0.66652037,-1.385513,-0.0313613545,-0.37097835,-0.56405755,5.45149065
324,1747532671590,0.73168365,-1.31656685,-0.12617759,-0.407729965,-0.51905013,5.529787799999999
325,1747532671600,0.7772003000000001,-1.2540882,-0.224776725,-0.5408880149999999,-0.4178499799999999,5.6514943
326,1747532671610,0.864816865,-1.19783295,-0.308000255,-0.90654,-0.273772965,5.8853198
327,1747532671620,1.024918415,-1.1403574,-0.334480465,-1.3209279,-0.187752865,6.0983728
328,1747532671630,1.2499392,-1.08166165,-0.290184065,-1.5566177,-0.23728766,6.15642955
329,1747532671640,1.4803293,-1.0143019,-0.22831555,-1.70122735,-0.33928673,6.1700117500000005
330,1747532671650,1.6444578,-0.951213125,-0.1735246999999999,-1.76567585,-0.44101948,6.209959250000001
331,1747532671660,1.7679507,-0.9182654,-0.128008025,-1.7824537500000002,-0.50440273,6.3359267500000005
332,1747532671670,2.11243755,-0.913262225,-0.07736615,-1.7811222,-0.42157842,6.7926588
333,1747532671680,2.5752921,-0.88971067,-0.0176941505,-1.7563548,-0.24714135,7.3186331
334,1747532671690,2.93185975,-0.82357117,0.0566212795,-1.6820526,-0.107059075,7.6376798
335,1747532671700,3.24937835,-0.74034768,0.129716425,-1.5486282,0.0561927049999999,7.954861999999999
336,1747532671710,3.74981785,-0.657612265,0.17730759,-1.26553415,0.345412,8.321579499999999
337,1747532671720,4.34788,-0.5453459350000001,0.221481955,-0.9086706,0.619717595,8.4779075
338,1747532671730,4.75289275,-0.37072298,0.28566902,-0.530768035,0.737961945,8.3077315
339,1747532671740,4.967541,-0.1654708225,0.354493165,0.0239684449999999,0.7440872199999999,8.08189525
340,1747532671750,4.993289,0.0169619805,0.3972031649999999,0.623712345,0.66019765,7.94554125
341,1747532671760,4.980232,0.130448598,0.401474165,1.425057515,0.5776396500000001,7.758054599999999
342,1747532671770,4.9365457500000005,0.1846293,0.377434525,2.19471105,0.53343118,7.468302599999999
343,1747532671780,4.8158595,0.23173235,0.28530291,2.60643575,0.54195328,7.187073
344,1747532671790,4.745205,0.25601605,0.208913,2.7824707,0.5640575,7.036072
345,1747532671800,4.526408,0.35229664,-0.0816371455,2.9225530500000003,0.692421925,6.4411215
346,1747532671810,4.2058386500000005,0.53753612,-0.326304545,2.55876515,0.8000136499999999,5.617938349999999
347,1747532671820,3.8386544,0.75230647,-0.5514473599999999,1.94517285,0.88656635,4.69089185
348,1747532671830,3.5283356,0.88360925,-0.66054094,1.35927745,0.92438323,4.0578585
349,1747532671840,3.16774095,0.9681751,-0.69495302,0.7139935,0.96220013,3.4799527
350,1747532671850,2.7895744,1.01051905,-0.66273748,0.085487475,1.01173495,2.9912627
351,1747532671860,2.2642411,1.02662685,-0.46858993,-0.604803905,1.04129605,2.4514399
352,1747532671870,1.79443085,1.0396839,-0.2239225199999999,-1.05993818,0.99895175,2.0066919
353,1747532671880,1.5407334,1.0655539,-0.0715087704,-1.1179951,0.90867057,1.76887165
354,1747532671890,1.22980445,1.0920341,0.0514960796,-0.9760486,0.8133294,1.41360595
355,1747532671900,0.96805305,1.1107045,0.107263165,-0.76432727,0.75500618,1.05594338
356,1747532671910,0.85590878,1.13059515,0.09786696,-0.61385864,0.7451525,0.8045409800000001
357,1747532671920,0.76109253,1.1582957,0.0569873665,-0.47963531,0.7499462,0.5145227299999999
358,1747532671930,0.6252746499999999,1.19478225,-0.0306291835,-0.41039312,0.75314198,0.2151834249999999
359,1747532671940,0.5452239,1.2139407,-0.08932495,-0.40107206,0.75154406,0.06924219
360,1747532671950,0.363523275,1.2252894,-0.20793678,-0.647148185,0.65220815,-0.4636563549999999
361,1747532671960,0.242226815,1.23737025,-0.1605896725,-0.81652523,0.4753742549999999,-0.86046738
362,1747532671970,0.18084642,1.25640675,-0.057475482,-0.76139778,0.349673065,-1.07431923
363,1747532671980,0.1692537,1.2592134,-0.0141553195,-0.614923925,0.28469193,-1.2279836
364,1747532671990,0.17742962,1.257383,-0.01586372,-0.53103435,0.2545982,-1.3028184
365,1747532672000,0.22965786,1.23895665,-0.1032362149999999,-0.473776375,0.116380139,-1.48870705
366,1747532672010,0.528750015,1.2039344,-0.2918924699999999,-0.6127933999999999,-0.2780340249999999,-2.0679446
367,1747532672020,0.7475473,1.2698299,-0.2882316,-0.77737675,-0.38642469,-2.36888185
368,1747532672030,0.814052925,1.29179505,-0.275296565,-0.9345032,-0.426904735,-2.66156335
369,1747532672040,1.084102275,1.31534655,-0.21794312,-1.17711715,-0.35393412,-3.1361386
370,1747532672050,1.4263925,1.29826255,-0.125445425,-1.37978375,-0.205596045,-3.6482644
371,1747532672060,1.8499539,1.2383465,0.053692598,-1.3763217,0.056459017,-4.2365565
372,1747532672070,1.97576535,1.2064970000000002,0.1258115139999999,-1.28737215,0.1267664685,-4.4480116
373,1747532672080,2.4284916,1.07372987,0.416361665,-0.71852092,0.035420045,-5.02858085
374,1747532672090,2.9209992,0.930346255,0.67518435,0.13049489,-0.28655613,-5.556153
375,1747532672100,3.2299756,0.825279565,0.66664233,0.8431568100000001,-0.615989165,-5.8171427
376,1747532672110,3.52272225,0.7187486,0.51191005,1.4327806500000002,-1.02398545,-5.9638829
377,1747532672120,3.87379865,0.632718445,0.311783125,1.71560835,-1.4202638,-6.0562947000000005
378,1747532672130,4.45343475,0.454434605,0.158515183,1.58910825,-1.63731145,-6.4131585
379,1747532672140,4.95704675,0.25564997,0.127153823,1.31320475,-1.61520725,-6.9061095
380,1747532672150,5.2239232,0.1376482869999999,0.21001126,1.1257182,-1.39736065,-7.2653698
381,1747532672160,5.5137412,0.010982577,0.32886715,1.0391655,-1.0958907999999998,-7.64939765
382,1747532672170,5.645532,-0.25479576,0.46212241,1.0612697,-0.764060915,-8.09307985
383,1747532672180,5.4683465,-0.51361849,0.555596325,1.29030155,-0.377369915,-8.7181235
384,1747532672190,5.084566499999999,-0.64553142,0.5823206,1.5848472,-0.148870705,-9.126653
385,1747532672200,4.67162175,-0.7778103949999999,0.57829365,1.7643442500000002,-0.175236,-9.083244
386,1747532672210,4.29467535,-0.897398475,0.5544980749999999,1.9052255,-0.250337145,-8.9178615
387,1747532672220,3.7326115,-1.0127155,0.4904330649999999,2.0120183000000003,-0.328634085,-8.509865
388,1747532672230,3.17542895,-1.1153416,0.40916199,2.04024785,-0.37390782,-8.06991085
389,1747532672240,2.8062924,-1.1819693,0.35778794,1.97340245,-0.39947417,-7.80599165
390,1747532672250,2.4284917000000004,-1.219188,0.33118569,1.87406645,-0.40346892,-7.5599155
391,1747532672260,2.05825675,-1.2516476,0.3141016749999999,1.7488979,-0.3933489049999999,-7.28001735
392,1747532672270,1.51108045,-1.2614099,0.311539085,1.5635419,-0.39388153,-6.79319145
393,1747532672280,0.99453328,-1.22443525,0.32032515,1.4242586,-0.38802257,-6.284793799999999
394,1747532672290,0.72997523,-1.1785525,0.32837904,1.38058275,-0.40107206,-5.916745
395,1747532672300,0.516181075,-1.146581,0.34107002,1.3701964,-0.446612125,-5.5489625
396,1747532672310,0.222580196,-1.1488995,0.36547573,1.44183545,-0.495880605,-4.9867692
397,1747532672320,-0.072973114,-1.1984431,0.39512866,1.56753665,-0.4516721299999999,-4.4016728
398,1747532672330,-0.2601650199999999,-1.2581151,0.40025387,1.6823189,-0.32650355,-3.9587891
399,1747532672340,-0.435398115,-1.32218015,0.32545033,1.73078845,-0.195476015,-3.4021883
400,1747532672350,-0.57695133,-1.40613585,0.186581757,1.6226641000000002,-0.0820253599999999,-2.8394624
401,1747532672360,-0.630888,-1.4516525,0.114218794,1.5222629,-0.03781689,-2.5965822
402,1747532672370,-0.7728073,-1.5502516,-0.188900305,0.57630806775,0.1709749384999999,-1.6431705
403,1747532672380,-0.70691185,-1.62859405,-0.24539955,-0.33422673225,0.38988678,-0.99602225
404,1747532672390,-0.6100211,-1.7289016,-0.2417387,-0.9731191,0.57497647,-0.725178765
405,1747532672400,-0.5632841,-1.8122471,-0.18719191,-1.53318185,0.752342995,-0.551274365
406,1747532672410,-0.6290575199999999,-1.91645955,-0.044540445,-1.96754345,0.8910937,-0.40373523
407,1747532672420,-0.7614586050000001,-1.99895085,0.11568314,-2.22693535,0.9353022,0.06684534
408,1747532672430,-0.854444415,-2.025187,0.22611904,-2.19204795,0.8886968749999999,0.7728493200000001
409,1747532672440,-0.90557438,-2.0336071,0.32972133,-1.8703381,0.84422205,1.45701545
410,1747532672450,-0.92924795,-2.00371005,0.39622693,-1.38883855,0.85114627,2.2335932
411,1747532672460,-0.80709732,-1.92780815,0.36144877,-0.51558802,0.85194522,3.3451967
412,1747532672470,-0.60074692,-1.85410295,0.23331872,0.316383555,0.81306308,4.34255055
413,1747532672480,-0.4467468,-1.7833264,0.0651632869999999,0.690557675,0.74541883,4.86532905
414,1747532672490,-0.3682824,-1.7386639,-0.027822526,0.8319715,0.6982809,5.0988884
415,1747532672500,-0.064797201,-1.60638475,-0.324962205,0.8831042,0.45486793,5.5010257
416,1747532672510,0.237345659,-1.47239735,-0.52289264,0.41784998,-0.09827064,5.78571745
417,1747532672520,0.485429835,-1.35976495,-0.6674965500000001,-0.136353855,-0.455666855,5.899967200000001
418,1747532672530,0.614292075,-1.32571895,-0.71447755,-0.6364955,-0.6213154750000001,5.97613385
419,1747532672540,0.73424625,-1.30948915,-0.7052034,-1.165931915,-0.7904262200000001,6.1047645
420,1747532672550,0.85444445,-1.2928933,-0.6360132000000001,-1.6644757,-0.95048217,6.2962455
421,1747532672560,1.1414558,-1.3115637,-0.434299885,-2.09750575,-1.04928545,6.579072999999999
422,1747532672570,1.5758776499999998,-1.3100993,-0.162786187,-2.5710158,-0.86259788,7.207845499999999
423,1747532672580,1.97845,-1.21076795,0.0538146179999999,-2.8434572,-0.49907638,7.854195000000001
424,1747532672590,2.1689367,-1.1402354,0.14985114,-2.8410604,-0.350472,8.042747
425,1747532672600,2.7690736,-0.9952654,0.218675285,-2.79685185,0.0820253625,8.431568
426,1747532672610,3.3186904,-0.98049997,0.21196372,-2.87381725,0.576574385,8.566324000000002
427,1747532672620,3.7920395,-1.01771872,0.27139166,-2.9204226,0.993359075,8.604141
428,1747532672630,4.0601365,-1.06567595,0.387806965,-2.7875308,1.1084076500000002,8.569786
429,1747532672640,4.26197165,-1.0806855,0.528139875,-2.4061661,1.08150975,8.614793500000001
430,1747532672650,4.3744819,-1.07812295,0.67664871,-1.8130801,1.0162623,8.844092
431,1747532672660,4.50602885,-1.05115455,0.7906234350000001,-0.715857695,1.03570335,9.510415
432,1747532672670,4.684556949999999,-1.002831165,0.80026368,0.42477419,1.05727495,10.27128
433,1747532672680,4.94472185,-0.973422315,0.69007185,1.083373935,1.0333065,10.645454
434,1747532672690,5.21172035,-0.95536205,0.5222825099999999,1.57259665,0.97125485,10.6965865
435,1747532672700,5.37633735,-0.9277836,0.376336275,1.86581065,0.8476842,10.3964485
436,1747532672710,5.437596,-0.9071608,0.31751847,1.9632823,0.7717841,10.164754
437,1747532672720,4.9378885,-0.5366819,0.17425688,2.0636835,0.50120694,8.1958782
438,1747532672730,4.577782,-0.3192268849999999,0.10884954,1.9853866,0.40639839,7.4294207
439,1747532672740,3.96373375,-0.032581635,0.0070776619999999,1.83385275,0.383495215,6.67015335
440,1747532672750,3.363353,0.20805881,-0.074071373,1.4202638,0.536626965,5.71035
441,1747532672760,2.8200815,0.39464056,-0.082735404,0.92837795,0.8098673000000001,4.87092165
442,1747532672770,2.6670576500000003,0.44967548,-0.062722712,0.59361862,1.0727213,4.4080645
443,1747532672780,2.3735788,0.5520575,-0.016473865,0.29933932,1.3145363,4.00219875
444,1747532672790,2.2331238,0.5994046,0.00976229,0.165116,1.4253238,3.8125815
445,1747532672800,1.6576368,0.78464405,0.140699,-0.204530775,1.89723595,2.97714785
446,1747532672810,1.6239569,0.810026,0.15448824,-0.21997711,1.953695,2.8107002
447,1747532672820,1.5115686,0.99538745,0.1608337249999999,0.00905475,2.0098877,2.04876985
448,1747532672830,1.35549395,1.14780125,0.0706545715,0.41891525,1.706021,1.144892985
449,1747532672840,1.2439598,1.2356619,-0.019768637,0.7089335,1.4231933,0.52464277
450,1747532672850,1.0023431,1.291795,-0.265168205,0.90654005,0.828243125,-0.3581951725
451,1747532672860,0.831136985,1.28349705,-0.409161985,0.86872315,0.458330025,-0.82930835
452,1747532672870,0.74291027,1.2690977,-0.47591165,0.8117315,0.2892193,-1.0322412
453,1747532672880,0.54668823,1.1739154,-0.624054365,0.302268795,-0.051132696,-1.392567
454,1747532672890,0.5381462,1.08190575,-0.651266765,-0.3033340499999999,-0.1768339,-1.53877455
455,1747532672900,0.6280813199999999,1.0040515,-0.595011575,-0.89109368,-0.24660872,-1.7286579
456,1747532672910,0.72533817,0.95438585,-0.5091034,-1.1917645499999998,-0.25486453,-1.96008655
457,1747532672920,0.7668279,0.9269294,-0.46883395,-1.3262542,-0.25885928,-2.0937772
458,1747532672930,0.8523699,0.8286964,-0.367550225,-1.8218685,-0.1888181199999999,-2.73053905
459,1747532672940,0.8851956,0.7804951,-0.30580372,-2.1494373,0.00692422,-3.23068085
460,1747532672950,0.98891998,0.750720085,-0.1453360925,-2.2399848,0.23568976,-3.53747705
461,1747532672960,1.0770246,0.7358326049999999,-0.0147654635,-2.1888521,0.4239752449999999,-3.76118255
462,1747532672970,1.19649065,0.72692454,0.0833455489999999,-2.04211195,0.548078565,-3.94813635
463,1747532672980,1.51535145,0.70898634,0.25308736,-1.66793785,0.44954161,-4.256263949999999
464,1747532672990,1.90157205,0.6889736200000001,0.46419689,-1.16406775,0.1384843774999999,-4.6075351
465,1747532673000,2.19395265,0.651998925,0.600014745,-0.70174295,-0.2159823725,-4.87331865
466,1747532673010,2.5072001,0.591350705,0.6872651750000001,-0.235956074,-0.58003649,-5.1681304
467,1747532673020,2.6624205,0.56426036,0.7224094,-0.009054748,-0.75793564,-5.3257895
468,1747532673030,3.2182609,0.4152634,0.86066788,0.8772453,-1.2357068,-5.9540293
469,1747532673040,3.6989317,0.258822705,0.87494525,1.2876384,-1.27618685,-6.3441825000000005
470,1747532673050,4.05147245,0.114340822,0.79648085,1.30361735,-1.082575,-6.651244999999999
471,1747532673060,4.37118745,-0.051374053,0.7510862,1.1739214,-0.815726265,-6.954579
472,1747532673070,4.7748583,-0.297627805,0.90618455,0.969923265,-0.47537428,-7.273092999999999
473,1747532673080,5.13166985,-0.4720067,1.18990105,0.962732765,-0.264451905,-7.518636499999999
474,1747532673090,5.3507111,-0.5436375,1.3863671,1.28311105,-0.30120352,-7.6573873
475,1747532673100,5.58366375,-0.689339685,1.50497895,1.69510205,-0.37923413,-7.79773595
476,1747532673110,5.73522335,-0.888002305,1.543296,2.08365725,-0.38216361,-7.96258565
477,1747532673120,5.529117100000001,-1.19441622,1.4107729,2.5747442,-0.1161138199999999,-8.289089
478,1747532673130,5.0317282500000005,-1.47935305,1.1669597,2.9076394,0.272974025,-8.5466165
479,1747532673140,4.485894200000001,-1.6150488,0.92497695,2.8943236,0.538757505,-8.5109305
480,1747532673150,3.9650761,-1.70486185,0.7246059499999999,2.75131175,0.7566040700000001,-8.325841
481,1747532673160,3.3208871,-1.75379535,0.5973301,2.56861885,0.94302535,-8.07790035
482,1747532673170,2.9042814,-1.7672185,0.5427833,2.4168187000000003,1.08470555,-7.8174431
483,1747532673180,2.4829165,-1.76087305,0.5538879,2.3971113,1.1068098000000002,-7.46031325
484,1747532673190,1.8595942,-1.7374436000000002,0.5699957,2.5281389,1.0114686,-7.062437
485,1747532673200,1.6576368,-1.7203596,0.5749989,2.615757,0.9491506,-6.888
486,1747532673210,0.8948358750000001,-1.69815035,0.476399735,2.91696035,0.78430095,-6.2286015
487,1747532673220,0.12520137,-1.6639824,0.28042176,3.22295765,0.6580671,-5.3779875
488,1747532673230,0.01317909,-1.6600774500000002,0.205130105,3.4394726,0.4697816,-4.447212650000001
489,1747532673240,-0.09884319,-1.6561725,0.12983845,3.4551852,0.3787015,-4.1241713
490,1747532673250,-0.201835345,-1.7048619,-0.07297311625,3.26796495,-0.001864205,-3.426423
491,1747532673260,-0.319959035,-1.7711234,-0.27310006,2.79472125,-0.28495824,-3.1992554
492,1747532673270,-0.4806707249999999,-1.86276695,-0.4723728,2.13505635,-0.4063984,-3.1388017
493,1747532673280,-0.61722078,-1.9631965,-0.61270574,1.46926605,-0.33182989,-3.1300133
494,1747532673290,-0.8035585000000001,-2.0796118000000003,-0.74095782,0.666589235,-0.166447575,-3.08500595
495,1747532673300,-1.01076307,-2.1918781000000003,-0.808927765,-0.209058165,0.0476705849999999,-2.9518478
496,1747532673310,-1.25286785,-2.3427055,-0.759750245,-1.0612697,0.25726136,-2.70710325
497,1747532673320,-1.4783768,-2.4743744,-0.63747753,-2.0785972,0.3557983249999999,-1.91880755
498,1747532673330,-1.6076051,-2.51708445,-0.50788313,-2.78486755,0.1896170775,-0.8354336
499,1747532673340,-1.6581249,-2.5267248,-0.44101146,-2.85357715,-0.2394181875,0.123837
500,1747532673350,-1.6232248,-2.4360573,-0.171084135,-2.6724823,-0.802676765,1.17472035
501,1747532673360,-1.26385047,-2.2875485,0.03892713,-2.03066045,-1.5909725,2.6455842
502,1747532673370,-0.6635916,-2.0683851,0.16034561,-1.30361735,-2.1555627,3.92736365
503,1747532673380,-0.52033003,-2.00309985,0.137282202,-0.8825715999999999,-2.2325280000000003,4.52870535
504,1747532673390,-0.256626205,-1.87411565,0.0623566275,-0.59628179,-2.1968416,4.9537458
505,1747532673400,-0.0244057249999999,-1.7518429,-0.0590618545,-0.48682585,-2.1172131,5.285842150000001
506,1747532673410,0.3267926499999999,-1.6163911,-0.22172601,-0.69615031,-2.1587585,5.58704585
507,1747532673420,0.6837263849999999,-1.5154734,-0.346561285,-1.07298765,-2.3529029,5.758287149999999
508,1747532673430,0.89300546,-1.46202485,-0.39317621,-1.40055645,-2.60856625,5.814213499999999
509,1747532673440,1.066042025,-1.4058917,-0.40074199,-1.7470337,-2.91136775,5.8818576
510,1747532673450,1.3033877500000002,-1.4194369,-0.30092258,-2.0940436,-3.17608605,5.97986195
511,1747532673460,1.6278619,-1.5063213,-0.04490653,-2.51109455,-3.0706248,6.38759205
512,1747532673470,1.7350029500000002,-1.5395131,0.0291648399999999,-2.86742555,-2.4160197,7.07335585
513,1747532673480,1.9631964,-1.60223585,0.182676845,-3.032009,-1.5595471,7.697867
514,1747532673490,2.51012875,-1.7101092,0.34363261,-3.2077776,-0.39095205,8.499212
515,1747532673500,3.24766985,-1.7585544999999998,0.44857722,-3.3332125,0.6921556,9.0659325
516,1747532673510,3.8303565,-1.6383563,0.5291161,-3.2658346,1.2713932,9.0169305
517,1747532673520,4.101382,-1.5480552,0.5862255,-3.1894019,1.5190672,8.9136
518,1747532673530,4.37436,-1.34365715,0.87274875,-2.4114923,1.8338528,8.581770500000001
519,1747532673540,4.433544,-1.300337,0.9776934,-2.0410466,1.892975,8.5088
520,1747532673550,4.4869923,-1.25689475,1.1877046,0.64368607,1.41680175,8.8038785
521,1747532673560,4.5281163,-1.26263015,1.1291308999999998,2.90577515,0.670583965,9.212141
522,1747532673570,4.636965849999999,-1.2783719,0.94096275,4.1579934000000005,0.165115991,9.434515
523,1747532673580,4.7220197,-1.2895985,0.8300387,4.7329698,-0.056991648,9.526128
524,1747532673590,4.95485,-1.2590914,0.5513253,5.580388,-0.39734364,9.53465
525,1747532673600,5.1835318,-1.1111927,0.2421048,6.1108894,-0.6540724,9.349826
526,1747532673610,5.5009284,-0.33155176,-0.41501935,6.13832,-0.719053515,7.814247
527,1747532673620,5.19231795,0.0170840099999999,-0.688851595,5.4807855,-0.477771115,6.15030425
528,1747532673630,4.7405678,0.289695955,-0.950602975,4.51512335,-0.092678005,5.05228305
529,1747532673640,4.050618,0.551691385,-1.1664716,2.77581295,0.6551376600000001,3.94787015
530,1747532673650,3.4074053,0.7372969250000001,-1.2505493,0.91612745,1.43384595,3.03813435
531,1747532673660,3.2037396,0.77781045,-1.2417632,0.2828277,1.6767262,2.790993
532,1747532673670,2.6310593,0.82662189,-1.01674245,-1.35075535,2.22853325,2.1835259
533,1747532673680,2.1424566,0.869453925,-0.7192367,-2.2050974,2.50124095,1.8471686
534,1747532673690,1.6924149000000002,0.9244888,-0.4033046,-2.9318741,2.67434645,1.4618092
535,1747532673700,1.4301754,0.98367275,-0.2020793974999999,-3.2439966,2.65437265,1.1350393
536,1747532673710,1.2971642,1.018451,-0.106164895,-3.200587,2.576342,1.0428939
537,1747532673720,1.1236396,1.0704352,0.039537273,-2.71296215,2.0913804000000003,0.6759103
538,1747532673730,0.8008739199999999,1.19819905,0.29774984,-1.85542435,1.4924355,0.198671825
539,1747532673740,0.570117745,1.2716603,0.367550225,-0.8990832200000001,0.95421062,-0.303067735
540,1747532673750,0.421730925,1.28264285,0.2946991399999999,-0.294811939,0.719586135,-0.62317971
541,1747532673760,0.3448529,1.2847173,0.2438132,-0.013848438,0.61838603,-0.7749799
542,1747532673770,0.189998565,1.2412751,0.0214770369999999,0.586694415,0.4316984299999999,-1.07937925
543,1747532673780,0.17242644,1.1574414,-0.22941381,0.8080031000000001,0.348874105,-1.30894375
544,1747532673790,0.1726705,1.07934315,-0.46700354,0.7653925,0.232760275,-1.50681655
545,1747532673800,0.185361485,1.0474937,-0.5636502,0.52197958,0.0740358795,-1.61440825
546,1747532673810,0.215502545,1.02247785,-0.5992825500000001,0.206661305,-0.0937432705,-1.6809873
547,1747532673820,0.30922052,0.9979501,-0.5648705,-0.1235706749999999,-0.2364887,-1.72040205
548,1747532673830,0.67201166,1.0305317,-0.3934203,-0.43382895,-0.3848267749999999,-1.9422434
549,1747532673840,1.109972425,1.10972825,-0.21074344,-0.5651227999999999,-0.524642725,-2.38299665
550,1747532673850,1.42456215,1.17196285,-0.14558014,-0.5238438,-0.6165218,-2.85890355
551,1747532673860,1.67069385,1.2117442,-0.14472594,-0.5142564000000001,-0.65540398,-3.3388051
552,1747532673870,1.93854675,1.1630548,-0.19451362,-0.67857345,-0.54754594,-4.00379635
553,1747532673880,2.21079255,1.04761575,-0.2391760949999999,-0.94622115,-0.35286886,-4.62218235
554,1747532673890,2.4526533,0.920583925,-0.219285435,-1.1885688,-0.21571606,-5.023787
555,1747532673900,2.7695618,0.777810425,-0.095182327245,-1.3821806,-0.171773895,-5.4520233000000005
556,1747532673910,2.927955,0.707766,-0.00048811449,-1.4519554,-0.17789917,-5.674131
557,1747532673920,3.533827,0.491531285,0.560233375,-0.86925579,-0.5840312400000001,-6.6174228
558,1747532673930,4.185094,0.3265486,0.9235126,0.16990969,-1.2703278,-7.5133104
559,1747532673940,4.343243,0.2894519,0.90752683,0.324905665,-1.46527125,-7.6731
560,1747532673950,4.681506199999999,0.20439795,0.86835566,0.50147322,-1.7616811,-7.9402153
561,1747532673960,5.0882275,0.0881046685,0.8449262099999999,0.44661209,-1.8415759,-8.153268
562,1747532673970,5.70862105,-0.1585151815,0.98391678,0.182959161,-1.3390374,-8.5383605
563,1747532673980,6.196979750000001,-0.4545566,1.23785835,0.023435818,-0.5083974499999999,-8.983641
564,1747532673990,6.270929000000001,-0.7044712,1.46056065,0.2213086869999999,0.13156016,-9.29603
565,1747532674000,6.087642000000001,-0.96048725,1.6272517,0.75260934,0.61385864,-9.4978975
566,1747532674010,5.7357117,-1.16842405,1.7033975,1.45967865,0.83330313,-9.490707
567,1747532674020,5.098356,-1.3573244,1.59381585,2.42107975,0.7819041,-9.1716605
568,1747532674030,4.4331778,-1.51010425,1.3664766,3.2133702,0.6332997,-8.7884315
569,1747532674040,3.9605609,-1.602846,1.16634965,3.49193695,0.52304485,-8.525044999999999
570,1747532674050,3.48599145,-1.6854594,1.0072242500000002,3.651194,0.454867925,-8.239288
571,1747532674060,2.81495615,-1.7764927,0.8512716499999999,3.7715689,0.3755057149999999,-7.7958715
572,1747532674070,2.1259826,-1.85349265,0.7008104,3.83548475,0.2897519149999999,-7.2608425
573,1747532674080,1.889003,-1.8772882,0.6469958,3.83655,0.25566345,-7.020093
574,1747532674090,1.889003,-1.8772882,0.6469958,3.83655,0.25566345,-7.020093
575,1747532674100,0.7414459250000001,-1.82847685,0.37133311,3.69114125,0.19734024,-5.7316555000000005
576,1747532674110,0.171084135,-1.7913801500000002,0.164616609,3.3960631,0.28415929,-4.89675435
577,1747532674120,-0.289451895,-1.76490005,-0.042221906,2.97981105,0.3632551699999999,-4.06691335
578,1747532674130,-0.4504076299999999,-1.7589207,-0.184263225,2.56995055,0.3723099199999999,-3.6163065
579,1747532674140,-0.585737385,-1.7321964,-0.300922585,2.0764668,0.345944625,-3.2328113
580,1747532674150,-0.66481197,-1.7137701,-0.3658418049999999,1.4293186,0.306529835,-2.8056403000000003
581,1747532674160,-0.6538293850000001,-1.81285735,-0.355713425,0.5320995867499999,0.3637878,-2.3678165
582,1747532674170,-0.680675675,-1.95904755,-0.329111185,-0.19920446325,0.48442899,-2.1108215
583,1747532674180,-0.82003236,-2.0620397,-0.3572998,-0.629837625,0.55766593,-1.97926145
584,1747532674190,-1.015644235,-2.1734519,-0.4006199649999999,-1.076982375,0.59468388,-1.7784589999999998
585,1747532674200,-1.2938695,-2.30536475,-0.384634225,-1.5225292,0.6072007500000001,-1.43890595
586,1747532674210,-1.5044909,-2.38114455,-0.299336225,-2.0040288,0.66312715,-0.543817525
587,1747532674220,-1.5402453,-2.37003995,-0.1891443649999999,-2.2514365,0.63569657,0.666322875
588,1747532674230,-1.46837045,-2.3413632,-0.0698003659999999,-2.1134847,0.43329632,1.6120114
589,1747532674240,-1.32901375,-2.28266745,0.0253819539999999,-1.8005633,0.161121253,2.4338629000000003
590,1747532674250,-1.1326697499999998,-2.2021285500000003,0.057963596,-1.4024207,-0.169909682,3.1811459
591,1747532674260,-0.6499245199999999,-2.0726562,-0.038561044,-0.893756875,-0.7760451850000001,3.88475325
592,1747532674270,-0.174989056,-1.94232965,-0.218431235,-0.577107025,-1.3928333,4.31778335
593,1747532674280,0.017328064,-1.86301105,-0.380241185,-0.66712187,-1.75635475,4.45972965
594,1747532674290,0.13996683,-1.78210605,-0.506662845,-0.97285277,-2.04450875,4.62990545
595,1747532674300,0.28615712,-1.68192055,-0.528872075,-1.78884535,-2.1457089,5.067995549999999
596,1747532674310,0.55962324,-1.6283499,-0.36022848,-2.8730183,-1.8940402,5.724731
597,1747532674320,0.6582223700000001,-1.6276177,-0.275662655,-3.04079735,-1.77712745,5.873868
598,1747532674330,0.87348085,-1.6268855,-0.11373068,-3.3140377,-1.5792546,6.13645575
599,1747532674340,1.15524495,-1.62163835,0.0488114499999999,-3.45198955,-1.4724618500000002,6.29890875
600,1747532674350,1.432372,-1.6055306,0.190486685,-3.4463968,-1.45967865,6.37853725
601,1747532674360,1.78588895,-1.6239569,0.28786552,-3.2719596500000003,-1.5936356,6.589726000000001
602,1747532674370,2.15026645,-1.6526337,0.338385375,-3.0647658,-1.7441042,6.8941255
603,1747532674380,2.3854156,-1.6652027,0.371333105,-2.89778565,-1.72519575,7.21450355
604,1747532674390,2.75577235,-1.71865125,0.54607808,-2.52600835,-1.25221835,7.8960063
605,1747532674400,3.2399820000000004,-1.77063545,0.8053889000000001,-1.96860875,-0.530768025,8.666725
606,1747532674410,3.75921395,-1.7498905,0.9931909,-1.27352368,0.064182185,9.1642035
607,1747532674420,4.338483849999999,-1.66215185,1.10985025,-0.3344930499999999,0.56698701,9.516806
608,1747532674430,4.809758499999999,-1.58502975,1.1064335,0.78882833,0.826911525,9.775399
609,1747532674440,4.994876,-1.5631866,1.0662861,1.3864417,0.88203895,9.893111
610,1747532674450,5.835896849999999,-1.6479966,0.53350915,4.4461476,0.08309063,9.98499
611,1747532674460,5.84065605,-1.53682845,0.30421737,5.5260595,-0.33289514,9.8707405
612,1747532674470,5.7680492,-1.402597,0.024283695,6.1905182,-0.521180645,9.757556
613,1747532674480,5.7304642,-1.2240692,-0.41038227,6.50184155,-0.5054679950000001,9.53172
614,1747532674490,5.6081915,-0.97464265,-0.789647215,6.49571635,-0.30146984,9.1538175
615,1747532674500,5.5012946,-0.8581053,-0.8932495,6.00356435,0.1786981,8.3852292
616,1747532674510,5.20134805,-0.60123505,-1.00783445,5.29090235,0.657800795,7.5564535
617,1747532674520,4.7801051,-0.2074486725,-1.17965075,4.6488142,0.907339025,6.935138
618,1747532674530,4.36691635,0.2032996925,-1.3463418,3.3172336,1.1022824,5.6642772
619,1747532674540,4.075024,0.47713193,-1.4558015,1.79843275,1.19922145,4.3393545
620,1747532674550,3.4573151,0.69507505,-1.5215749,0.6846987575,1.23064675,3.6253612
621,1747532674560,3.06157615,0.7656076,-1.48704075,-0.4703142424999999,1.28630685,3.0200248
622,1747532674570,2.69707655,0.7953826,-1.368673,-1.5824503,1.35368485,2.49431685
623,1747532674580,2.2053012,0.8084396250000001,-1.05872035,-2.58086945,1.41440485,2.0261331
624,1747532674590,1.7535512999999998,0.8160054050000001,-0.6916582499999999,-3.6272255,1.4594122500000002,1.4697987
625,1747532674600,1.4804512,0.82723203,-0.4031826,-4.3148537000000005,1.46154285,0.9779128
626,1747532674610,1.2399328,0.84931922,-0.139356691,-4.379036,1.42106285,0.706270325
627,1747532674620,1.0339485000000002,0.88019247,0.0590618589999999,-4.220844250000001,1.36859855,0.475906875
628,1747532674630,0.73241577,0.9675649,0.224288615,-3.75372565,1.2924321,0.1158475
629,1747532674640,0.467857735,1.04785975,0.287377415,-3.24293125,1.2261194,-0.258060315
630,1747532674650,0.34302245,1.0548153999999998,0.25430766,-2.9467877,1.206412,-0.501473235
631,1747532674660,0.231976405,1.05054445,0.223068325,-2.69032535,1.2311794,-0.70493874
632,1747532674670,0.151315492,1.02491845,0.14863086,-2.4106935,1.2828447,-0.96060222
633,1747532674680,0.137770312,0.9852591,0.0739493415,-2.2248049,1.2980247,-1.22558675
634,1747532674690,0.149729115,0.951091115,0.055156935,-2.18219425,1.25008785,-1.40748065
635,1747532674700,0.13569583,0.897886635,0.072851086,-2.1475731,1.1539477,-1.53983975
636,1747532674710,0.106042875,0.84187547,0.1576609825,-2.051433,1.03090965,-1.59443455
637,1747532674720,0.104334475,0.82039845,0.377190485,-1.5954998,0.8114652,-1.5441007999999998
638,1747532674730,0.170840075,0.8289404499999999,0.5729244,-0.9353022,0.562992265,-1.4674018
639,1747532674740,0.28701132,0.8465125499999999,0.61417005,-0.37097836,0.342482525,-1.46607025
640,1747532674750,0.43015088,0.8772637750000001,0.599160525,0.23782029,0.058056915,-1.56780295
641,1747532674760,0.50641876,0.89715445,0.58256465,0.561927,-0.10066749,-1.6500946
642,1747532674770,0.68311626,0.9418169,0.48738232,0.9395633,-0.29561087,-1.8322549
643,1747532674780,1.2197981,0.94816244,0.17401282,0.97951066,-0.4958806,-2.6029737
644,1747532674790,1.3016793,0.93425117,0.17852788,0.912665305,-0.4958806,-2.7510454500000003
645,1747532674800,1.5071755,0.8933716,0.21171967,0.7744472250000001,-0.48682585,-3.0378679
646,1747532674810,1.6307905,0.8664033,0.2403964,0.7030745,-0.4777711,-3.1766186
647,1747532674820,2.434471,0.6898278,0.450163585,0.5765744,-0.1957423485,-3.7545246
648,1747532674830,2.81361385,0.6483380649999999,0.57707335,0.686829275,-0.01704423075,-4.24747565
649,1747532674840,3.2187489,0.6373555,0.62063755,0.924116925,-0.0782969322499999,-4.6685215
650,1747532674850,3.5784893,0.639063935,0.5563284749999999,1.0993529,-0.3358246,-5.1974255
651,1747532674860,4.10601925,0.53546162,0.4190462849999999,1.0793792,-0.72810825,-5.753227300000001
652,1747532674870,4.71189125,0.31495588,0.3803632249999999,0.6327670999999999,-1.07325395,-6.5095648
653,1747532674880,5.12910695,0.06955632,0.521550315,0.0806937849999999,-1.077248685,-7.2366077
654,1747532674890,5.4435749,-0.1658369,0.725704185,-0.207992885,-0.69002505,-7.7125147
655,1747532674900,5.6572472000000005,-0.360350535,0.950480935,-0.299871935,-0.07030745,-8.1657845
656,1747532674910,5.7359555,-0.6288135100000001,1.26177595,-0.1430117455499999,0.51798484,-8.494951
657,1747532674920,5.6981265,-0.88824635,1.49118975,0.6034723194499999,0.924915875,-8.6829705
658,1747532674930,5.5828097,-1.0350468,1.5102262,1.58378195,1.0740529,-8.7697895
659,1747532674940,5.4090409,-1.16830205,1.4432325,2.31375445,0.9374327,-8.7934915
660,1747532674950,5.00256345,-1.32401055,1.185508075,3.13906815,0.545948015,-8.794024499999999
661,1747532674960,4.53092275,-1.4404259,0.896300225,3.72469725,0.144343335,-8.744223250000001
662,1747532674970,4.1893645,-1.4976573,0.7231415999999999,3.8788942,-0.052730595,-8.66699125
663,1747532674980,3.7989951,-1.5462246999999998,0.559379215,3.8677089,-0.18322549,-8.5322355
664,1747532674990,3.3939822,-1.5745353999999998,0.430639015,3.7209687,-0.2231729,-8.339689
665,1747532675000,3.0128866,-1.60809325,0.36437747,3.52176425,-0.159257035,-8.12637
666,1747532675010,2.4228782,-1.6675212,0.40147418,3.32176085,-0.0117179125,-7.7157108
667,1747532675020,1.77356405,-1.7249967,0.50629676,3.268764,0.1291633075,-7.219563799999999
668,1747532675030,1.3091231,-1.7315862,0.5614536999999999,3.3899379,0.207726565,-6.7854685
669,1747532675040,0.90667265,-1.7075465,0.51447267,3.50365485,0.254598205,-6.2863918000000005
670,1747532675050,0.56389425,-1.7087667999999998,0.39573882,3.50764955,0.32330776,-5.7694721
671,1747532675060,0.183775098,-1.7814959,0.160345613,3.1401333,0.4306331599999999,-5.08131145
672,1747532675070,-0.143505662,-1.8619127,-0.076389922,2.54491675,0.43249737,-4.5183193500000005
673,1747532675080,-0.315443985,-1.89925345,-0.196832175,1.93052545,0.30679616,-4.22217585
674,1747532675090,-0.381339435,-1.94855315,-0.2496705599999999,1.18963405,0.227167645,-3.87942685
675,1747532675100,-0.286889285,-2.05667045,-0.134475537,0.14247913,0.353934105,-3.49486635
676,1747532675110,-0.17230441,-2.1906577,0.049665648,-0.72171667,0.5787049,-3.26610085
677,1747532675120,-0.183164965,-2.3346515,0.155464465,-1.0343718,0.773648315,-3.28660715
678,1747532675130,-0.32947728,-2.5436867000000003,0.21196372,-1.13610455,0.989098065,-3.38514415
679,1747532675140,-0.4417436,-2.6655934,0.22868164,-1.0559434,1.13796875,-3.3619746
680,1747532675150,-1.21357473,-2.95895015,0.0970127564999999,-0.897219,1.11985925,-2.9864689
681,1747532675160,-1.87460385,-3.0235033,-0.1245912185,-0.738228275,0.6759103,-1.46740183
682,1747532675170,-2.25813975,-2.9709089,-0.3341143749999999,-0.6969492749999999,0.03755057,0.5262406199999999
683,1747532675180,-2.0602092,-2.8697472,-0.409284025,-0.81386205,-0.36565203,2.00136555
684,1747532675190,-1.6145607000000002,-2.7529658,-0.41184662,-1.01040335,-0.583498625,3.2807481000000003
685,1747532675200,-0.785620285,-2.5112271,-0.322277605,-1.22345625,-0.6492787,4.24348075
686,1747532675210,0.019768635,-2.23019515,-0.24613175,-1.46127655,-0.715857725,4.91166805
687,1747532675220,0.3845121849999999,-2.0165230000000003,-0.255894035,-1.6535568,-0.888164265,5.1542821
688,1747532675230,0.5333870949999999,-1.80077635,-0.29408899,-1.7872475,-1.132376115,5.099687100000001
689,1747532675240,0.55840296,-1.688632,-0.31825066,-1.9896477,-1.3872406,5.145493500000001
690,1747532675250,0.5112999149999999,-1.5325575,-0.3214234,-2.24957215,-1.5592808,5.37692235
691,1747532675260,0.63454882,-1.53829285,-0.172304422,-2.56062935,-1.5203986500000002,6.0480389500000005
692,1747532675270,0.83760447,-1.5331676,0.027456438,-2.7593012,-1.24103305,6.8975873
693,1747532675280,1.47495995,-1.4110169,0.28176408,-2.6695527,-0.7230482250000001,7.9777655
694,1747532675290,2.4276374,-1.1734272,0.49641243,-2.4458472,-0.357662545,8.7221195
695,1747532675300,3.22594855,-0.8789721699999999,0.567677145,-2.1864553,-0.24501083,8.559134
696,1747532675310,3.8857573,-0.58000204,0.633450575,-1.8628812,-0.03408846,8.207596
697,1747532675320,4.30175315,-0.35534735,0.6822620500000001,-1.5092134,0.22184133,7.947405250000001
698,1747532675330,4.497243,-0.27920148,0.69959013,-1.129712935,0.49002165,7.850732750000001
699,1747532675340,4.506761,-0.4111144499999999,0.72997523,-0.38296257,0.7946872700000001,7.91145275
700,1747532675350,4.45172615,-0.5929371,0.766339725,0.668453465,0.964863265,8.12956575
701,1747532675360,4.4503839,-0.748401535,0.728144795,1.59017355,0.935568515,8.406268
702,1747532675370,4.50627305,-0.942793185,0.6217358399999999,2.39125245,0.8122641500000001,8.6366315
703,1747532675380,4.6506328,-1.16256675,0.43015088,3.342001,0.412789963,8.814530999999999
704,1747532675390,4.763265,-1.2861817,0.30067852,3.908988,0.098004326,8.897089
705,1747532675400,4.927027450000001,-1.21076795,-0.090179155,4.11857875,-0.106792758,8.574846
706,1747532675410,4.9572906,-1.1482893,-0.21501444,4.0874195,-0.11558119,8.406534
707,1747532675420,4.72604625,-0.84663458,-0.465783265,3.45918,0.290550885,7.8368845
708,1747532675430,4.4049890000000005,-0.6275932200000001,-0.51898775,2.38006705,1.0306434,7.23287925
709,1747532675440,4.01205705,-0.435276105,-0.4678577499999999,1.250354125,1.72413055,6.64858175
710,1747532675450,3.6845324,-0.33448046,-0.39342029,0.60720076,2.05622675,6.37214565
711,1747532675460,3.5175972,-0.29311275,-0.35974038,0.29348037,2.223207,6.2573633
712,1747532675470,3.0544986,-0.184263225,-0.182432785,-0.7307714,2.7904603,5.947904
713,1747532675480,2.79640795,-0.09310784,-0.0306291875,-0.8878979,2.81309715,5.8554923
714,1747532675490,2.57150925,0.114096755,0.1481427575,-1.12838135,2.6578348,5.3638728
715,1747532675500,2.39896085,0.39598288,0.268096895,-1.1406318999999998,2.33213015,4.63629725
716,1747532675510,2.0910823,0.80685323,0.22624107,-0.92278532,2.0306603,3.84667
717,1747532675520,1.2305366,1.3010693,-0.09567044,-0.29028457,1.6618125,2.202967
718,1747532675530,1.0583542,1.3614734,-0.25381953,-0.320111975,1.5709987,2.00429515
719,1747532675540,0.76878028,1.43493455,-0.56657888,-0.52464274,1.3952301,1.6429041
720,1747532675550,0.5704838,1.4315178,-0.8200323700000001,-0.9914949,1.24129945,1.3520869
721,1747532675560,0.44064537,1.38441475,-0.9194857,-1.6255936,1.15368145,1.14782245
722,1747532675570,0.38341395,1.2769075,-0.7004443,-2.48126725,1.2514194,1.0610034
723,1747532675580,0.39561679,1.1991753,-0.32203355,-3.0591732,1.4604775,1.05967185
724,1747532675590,0.4491873549999999,1.22882825,-0.04856739,-3.0224216,1.566205,1.0657971000000002
725,1747532675600,0.53680393,1.28508345,0.134475545,-2.7300064,1.51986605,1.02984442
726,1747532675610,0.6366233649999999,1.3425589,0.235637285,-2.31295535,1.3414343,0.92757902
727,1747532675620,0.8916632,1.4425003,0.280177735,-1.62932195,0.94648748,0.543817495
728,1747532675630,1.1886809,1.5497635,0.25906677,-0.97045588,0.53103432,-0.0482032149999999
729,1747532675640,1.3185193,1.60272395,0.1698638449999999,-0.631701815,0.241815028,-0.637827085
730,1747532675650,1.3503687,1.60723895,0.0533265085,-0.43755737,-0.021305287,-1.243429925
731,1747532675660,1.31278385,1.4948506,-0.1228828315,-0.44927527,-0.18002969,-1.8024274
732,1747532675670,1.3407284499999998,1.32718335,-0.249182455,-0.855141035,-0.100933806,-2.3126891
733,1747532675680,1.5055892,1.1918536,-0.20232346,-1.3499564,0.141413859,-2.6857981
734,1747532675690,1.78137385,1.0538392,-0.038072935,-1.56860195,0.38083205,-2.97528375
735,1747532675700,2.18455635,0.91802135,0.18560553,-1.5587482499999998,0.573112285,-3.3579799
736,1747532675710,2.7993365,0.78488812,0.381217405,-1.02238757,0.450340555,-4.16358625
737,1747532675720,3.3081959,0.70788804,0.417581945,-0.286289821,0.03675163,-5.0735885
738,1747532675730,3.5610392,0.69898,0.16766733,0.3787015,-0.85327685,-6.134858
739,1747532675740,3.5745845000000003,0.6854348,0.0672377725,0.334226725,-1.124120375,-6.3993098
740,1747532675750,3.6484119,0.6083126999999999,-0.034412071,0.1177117319999999,-1.51986615,-6.897321
741,1747532675760,4.071241,0.313491547,0.2100112714999999,-0.2846919229999999,-1.3358417,-7.5127777
742,1747532675770,4.642091,-0.0296529529999999,0.6029434499999999,-0.4402205299999999,-0.6937535,-8.0779005
743,1747532675780,5.05259525,-0.19085277,0.8163715,-0.18588864335,-0.08894957,-8.4494115
744,1747532675790,5.415752250000001,-0.26541226,0.90484225,0.21012341665,0.2636529549999999,-8.8611365
745,1747532675800,5.7115495,-0.30934256,0.9310784,0.61572286,0.2439455549999999,-9.311477
746,1747532675810,6.058843,-0.375970185,0.9285158,1.00214755,-0.1629854599999999,-9.90909
747,1747532675820,6.37050435,-0.474813365,0.9354714,1.2335763,-0.515588,-10.512563
748,1747532675830,6.5624552000000005,-0.59488955,0.98416085,1.27432265,-0.45220475,-10.625481
749,1747532675840,6.68240935,-0.7480355000000001,1.057256,1.40721435,-0.265250835,-10.812967
750,1747532675850,6.5462255,-0.9917267,1.074584,1.6293220000000002,-0.0162452799999999,-10.91576475
751,1747532675860,6.2013725,-1.2250454,1.023209975,2.00775715,0.15952335,-10.94346175
752,1747532675870,5.8172265,-1.38221825,0.935349375,2.354767,0.143011748,-10.9131015
753,1747532675880,5.36193765,-1.5465908,0.8036805,2.5102957000000004,-0.039148472,-10.8449245
754,1747532675890,4.76704815,-1.69778425,0.6419926,2.5435853,-0.259125575,-10.7394635
755,1747532675900,3.8889302,-1.8899793000000005,0.53070248,2.3896545500000004,-0.500141665,-10.3873935
756,1747532675910,2.8996441,-2.0561824,0.592571,2.2248049,-0.6178534,-9.6507635
757,1747532675920,2.72489915,-2.0926689,0.6289355,2.2461101,-0.5534049,-9.41826975
758,1747532675930,2.344658,-2.161371,0.6899498,2.31055855,-0.3568636,-8.9724565
759,1747532675940,1.96819965,-2.2304392,0.70190865,2.3811324000000003,-0.028495825,-8.5617965
760,1747532675950,1.6067509,-2.31732355,0.6688389,2.4005735,0.418648925,-8.1812307
761,1747532675960,1.10716575,-2.48962805,0.501659665,2.262888,0.81253045,-7.627826000000001
762,1747532675970,0.6036756,-2.61568355,0.314223705,1.9768645,0.8143946799999999,-6.9508505
763,1747532675980,0.3203251299999999,-2.60531105,0.25345345,1.6207999000000002,0.5323659199999999,-6.2539012
764,1747532675990,0.31300341,-2.6293508,0.23502712,1.21839625,0.34168357,-5.534314999999999
765,1747532676000,0.5145947,-2.72294675,0.23844393,0.82211785,0.346210945,-5.018727
766,1747532676010,0.60440777,-2.92844295,0.22428861,0.320910903,0.691889265,-4.82351735
767,1747532676020,0.37401773,-3.17884575,0.15229172,-0.135288597,1.18350885,-4.81126685
768,1747532676030,-0.1215405,-3.3653054,0.037950904,-0.4314321,1.55581875,-4.6544067
769,1747532676040,-0.79269793,-3.4958759500000003,-0.100063471,-0.7893609500000001,1.8208032,-3.9880838
770,1747532676050,-1.59723265,-3.5524974,-0.243203045,-1.16939405,1.87166965,-2.8128308
771,1747532676060,-2.0282377,-3.5023437,-0.2820081399999999,-1.5488945,1.4977618499999998,-0.54035545
772,1747532676070,-1.8570316,-3.36323085,-0.22123789,-1.78458425,0.949416915,1.80322635
773,1747532676080,-1.34841635,-3.17066965,-0.130448605,-1.7853832,0.52490905,3.09193
774,1747532676090,-0.465661232,-2.7633382,-0.01793821,-1.54090505,-0.00239685,4.2014029
775,1747532676100,0.2189193529999999,-2.310856,0.0308732425,-1.190433,-0.4247741849999999,4.85840475
776,1747532676110,0.422585135,-1.995534,-0.0202567525,-0.95980323,-0.5904228,5.05414725
777,1747532676120,0.4893348,-1.8411678,-0.0622346,-0.86020106,-0.6530071,5.147358
778,1747532676130,0.517035315,-1.4994877,-0.18792408,-1.01839285,-0.5819007,5.583850249999999
779,1747532676140,0.577073375,-1.3515890499999998,-0.191584935,-1.22904885,-0.45753107,5.986520049999999
780,1747532676150,0.61892915,-1.3264512,-0.1483868,-1.2575447,-0.340618295,6.31941505
781,1747532676160,0.91423843,-1.29447965,0.0436862498,-1.1496867000000002,-0.22184132,6.69465445
782,1747532676170,1.1680579,-1.2005176,0.1241031149999999,-0.91293165,-0.133690695,7.089601200000001
783,1747532676180,1.6990045,-0.95682645,0.0671157459999999,-0.59601547,-0.1784318,7.4800207
784,1747532676190,2.3087816,-0.7080101,-0.101527809,-0.282295085,-0.66579025,7.786017899999999
785,1747532676200,2.5722413,-0.59720812,-0.24759608,-0.238352935,-0.97365167,7.9753687
786,1747532676210,2.67084045,-0.59830637,-0.37206529,-0.5787049200000001,-0.545681715,8.2486095
787,1747532676220,2.8599849500000003,-0.6928785500000001,-0.45040765,-1.13610455,0.2077265549999999,8.65847
788,1747532676230,3.3966668,-0.7507201,-0.289451888,-1.8599517,1.16433405,9.003615499999999
789,1747532676240,3.7760537,-0.7455949,-0.107873306,-2.2626216,1.6969663,9.140502
790,1747532676250,3.8892963,-0.8078295,0.13032657,-2.2311964,1.5435683,9.3184
791,1747532676260,4.28174035,-0.98574715,0.475057435,-1.426921765,0.83676525,9.892045499999998
792,1747532676270,4.748256,-1.07812285,0.670547285,-0.47643952,0.37017941,10.303504
793,1747532676280,5.157052,-1.14597085,0.6574902300000001,0.916393745,0.05086637,10.8009825
794,1747532676290,5.362426,-1.1829455000000002,0.401718245,2.00109925,0.01837581,11.2044515
795,1747532676300,5.456876,-1.206619,0.24820623,2.17819945,0.2921487749999999,11.2467955
796,1747532676310,5.927296350000001,-1.26214205,-0.10042955,2.03758455,0.67377976,11.0398675
797,1747532676320,6.056402650000001,-1.09801358,-0.21281791,1.69137365,1.023452785,10.6430565
798,1747532676330,6.0582333,-0.99868226,-0.26187342,1.4732608,1.1712582,10.406035
799,1747532676340,5.41770475,-0.63552505,-0.181700625,-0.0719053449999999,1.57472715,9.165802
800,1747532676350,5.19707705,-0.5432714200000001,0.02050081,-0.3259709149999999,1.6892431,8.76473
801,1747532676360,4.9576568,-0.41465327,0.243569145,-0.289485605,1.7347831500000002,8.318384
802,1747532676370,4.42353765,-0.096646675,0.37560411,0.173371795,1.5592808,7.62356525
803,1747532676380,3.8286483,0.253819525,0.318250645,0.62371235,1.27245835,6.899717750000001
804,1747532676390,3.2440088,0.5735345,0.049543623,0.6434197500000001,1.12997925,6.3593625
805,1747532676400,3.14626395,0.672743775,-0.0269683235,0.41944788,1.11160345,5.7460365
806,1747532676410,2.9774984,0.876653625,-0.1560746,-0.0194410849999999,1.2279836,4.805408
807,1747532676420,2.4234884,1.1812371,-0.236491465,-0.6609965649999999,1.5592809,3.181146
808,1747532676430,1.6399426,1.4062579,-0.254917795,-1.14356135,1.9070898,1.8453043
809,1747532676440,1.04749365,1.44115805,-0.250890845,-1.3140037,2.14304585,1.34409745
810,1747532676450,0.5541319499999999,1.42431805,-0.2871333499999999,-1.4247912,2.26927965,1.05887288
811,1747532676460,0.24247087,1.36110725,-0.327524825,-1.5161376,2.16887845,0.91293163
812,1747532676470,0.0817591835,1.2728806,-0.33130771,-1.591505,1.2964269,1.0061423
813,1747532676480,0.0942060985,1.2243132499999998,-0.328867135,-1.6189356,1.0575413,1.067395
814,1747532676490,0.24857231,1.2799583,-0.34997809,-1.6905747,0.69987875,1.1155982
815,1747532676500,0.4152634149999999,1.38465885,-0.38744088,-1.8290591,0.49428272,1.03730125
816,1747532676510,0.76194674,1.6732564,-0.25870067,-2.3323965,0.294013,0.43303
817,1747532676520,0.78635247,1.73268445,-0.159369378,-2.36595235,0.27670245,0.287621405
818,1747532676530,0.85163775,1.82347375,0.018792407,-2.3880566,0.2476739849999999,-0.00213053
819,1747532676540,0.9525554,1.8713089,0.168643565,-2.329467,0.229298175,-0.312655135
820,1747532676550,1.0849565,1.89290805,0.301654775,-2.2034995,0.22450449,-0.6753777
821,1747532676560,1.372578,1.84336445,0.41819209,-1.91081815,0.301736165,-1.40561645
822,1747532676570,1.6824086500000002,1.7439111,0.4916532799999999,-1.5813851,0.41864893,-2.22640265
823,1747532676580,1.8157859,1.64848465,0.5143506,-1.3475595500000002,0.476173205,-2.7704865
824,1747532676590,1.897423,1.52206295,0.5184996,-1.10947295,0.48070058,-3.23254505
825,1747532676600,2.0420269,1.3695272,0.5593792200000001,-0.8426241999999999,0.4298342,-3.60725175
826,1747532676610,2.4840146,1.1569533,0.62442047,-0.329433038,0.307328795,-4.1806302
827,1747532676620,3.239616,0.86518294,0.54034275,0.29507825,0.16724652,-5.1510863
828,1747532676630,3.4618302,0.76621772,0.460413995,0.31318775,0.14034859,-5.56227815
829,1747532676640,3.91797305,0.5399766500000001,0.302875035,0.2412824049999999,0.132625425,-6.32420865
830,1747532676650,4.47234885,0.157783008,0.206716485,-0.0245010749999999,0.23435818,-7.01236965
831,1747532676660,4.924587,-0.193659432,0.29677362,-0.559796455,0.670317685,-7.904795
832,1747532676670,5.397326,-0.5696296,0.7812273,-0.9126653,1.2037489,-8.691492499999999
833,1747532676680,5.551326,-0.70349502,0.95414185,-0.72011875,1.5014903,-9.1295825
834,1747532676690,5.7920885,-0.93095637,1.2697079,-0.17736652,1.6753947,-9.501626000000002
835,1747532676700,5.8770205,-1.09203415,1.47910895,0.6319681300000001,1.7134779,-9.7583545
836,1747532676710,5.8847083,-1.2249233,1.46226895,1.9896477,1.34116795,-9.842511
837,1747532676720,5.8760443,-1.2755652,1.28008025,3.13454065,0.78083885,-9.8326575
838,1747532676730,5.84016775,-1.23773635,1.08593272,3.4935348,0.36911415,-9.8406465
839,1747532676740,5.7918442500000005,-1.2146729,0.90569645,3.6381445,0.0213052925,-9.8787295
840,1747532676750,5.4836,-1.30265555,0.70398313,3.56171175,-0.1603223025,-10.0137525
841,1747532676760,4.9820625,-1.44628325,0.5497389500000001,3.3718283,-0.152066505,-10.132796
842,1747532676770,4.518354,-1.56965415,0.49726664,3.1949943,-0.03914847,-10.104566
843,1747532676780,4.278568,-1.63738,0.48201308,3.106311,0.02609898,-10.065151
844,1747532676790,3.5701915,-1.84653705,0.4668815,2.91802565,0.260723485,-9.7258645
845,1747532676800,3.0022702,-2.01249595,0.47090846,2.87221925,0.355265715,-9.4294545
846,1747532676810,2.1970034,-2.075707,0.4429639,2.8671594,0.3371562,-8.431568
847,1747532676820,1.9586815,-2.0448337,0.382925825,2.8581046,0.4005394399999999,-8.18282885
848,1747532676830,1.5764878,-2.0390983,0.281398015,2.77980755,0.49987534,-7.7090526
849,1747532676840,1.25787105,-2.0503249500000003,0.1849953899999999,2.59498415,0.5826996499999999,-7.25817945
850,1747532676850,0.8118564500000001,-2.06228375,0.0540586739999999,2.20376585,0.54781225,-6.6009112000000005
851,1747532676860,0.42465961,-2.1236641,-0.056255196,1.72945685,0.26844664,-5.907690349999999
852,1747532676870,0.23039004,-2.20664355,-0.107873305,1.3515543,-0.04500743,-5.38704235
853,1747532676880,0.085298005,-2.2698544,-0.136794085,0.96539595,-0.22583607,-4.811267
854,1747532676890,0.0386830715,-2.26839005,-0.0964026085,0.34834148,-0.335824625,-3.8948733
855,1747532676900,0.1126324165,-2.2605803,-0.0036608584999999,-0.197340235,-0.356330965,-3.1249533
856,1747532676910,0.16107778,-2.28462005,0.058329682,-0.411991015,-0.272974015,-2.87221935
857,1747532676920,0.063942997,-2.30475475,0.082003237,-0.5352954,-0.1315601565,-2.7020433
858,1747532676930,-0.153512003,-2.3132967,0.073217175,-0.61545655,0.0290284585,-2.45916295
859,1747532676940,-0.520208015,-2.3075613,0.0416117605,-0.62850603,0.2047971,-1.7267937
860,1747532676950,-0.826865925,-2.2858401,0.0076878035,-0.5427522499999999,0.263386645,-0.80667154
861,1747532676960,-0.9202178,-2.2432521000000003,-0.028188612,-0.401338385,0.1288969999999999,-0.1115864599999999
862,1747532676970,-0.944989625,-2.16722835,-0.078830495,-0.24234766,-0.0804274649999999,0.58829228
863,1747532676980,-0.824913475,-2.0332410000000003,-0.186215685,-0.091346423,-0.37577203,1.5909725
864,1747532676990,-0.6428468,-1.89022345,-0.297749845,-0.049801113,-0.602140715,2.5489116000000003
865,1747532677000,-0.5109338649999999,-1.7772249,-0.35534735,-0.142745435,-0.663127115,3.1273501
866,1747532677010,-0.356933725,-1.66617885,-0.3997657599999999,-0.31611722,-0.6753776499999999,3.69486975
867,1747532677020,-0.184385255,-1.57111855,-0.418558165,-0.5177185200000001,-0.67085027,4.17264095
868,1747532677030,0.048201305,-1.4312737,-0.42197499,-0.7467504,-0.69961244,4.6157908
869,1747532677040,0.26529023,-1.2864257,-0.44308594,-0.98057595,-0.758201985,4.9574745
870,1747532677050,0.41807008,-1.1992973,-0.467247575,-1.19522675,-0.815459935,5.093296
871,1747532677060,0.56694502,-1.1550009,-0.45894964,-1.4146712,-0.866592645,5.2008875
872,1747532677070,0.68689917,-1.1703765000000002,-0.4275883,-1.59177135,-0.91879061,5.3612095
873,1747532677080,0.88653795,-1.21992015,-0.37230933,-1.7326526,-1.067927635,5.911951200000001
874,1747532677090,1.1520722,-1.2095477,-0.30214287,-1.7931064,-1.26287105,6.6597669
875,1747532677100,1.4516525,-1.11058245,-0.2408844949999999,-1.7891116500000002,-1.4104102,7.2635057
876,1747532677110,1.82176535,-0.980622,-0.187435955,-1.83491805,-1.49589765,7.7889475
877,1747532677120,2.4796216,-0.71118283,-0.102748096,-2.0421119,-1.315069,8.238223
878,1747532677130,2.95699775,-0.477253955,-0.0246497779999999,-2.25516485,-0.9118664,8.223841499999999
879,1747532677140,3.5675069500000003,-0.190242625,0.11275445,-2.5374599,-0.25699506115,8.10080325
880,1747532677150,3.7277305,-0.14570218,0.3048275,-2.6114958,0.2122539488499999,7.8992021
881,1747532677160,3.6772107,-0.222824275,0.4033046,-2.4849957,0.58909126,7.85818955
882,1747532677170,3.59057025,-0.477009885,0.69263445,-2.1060278500000003,0.778442,8.1026682
883,1747532677180,3.62400595,-0.7137454000000001,0.9344952,-0.9374327495,0.6530071049999999,8.9263835
884,1747532677190,3.87184615,-0.827232025,1.01906105,0.5291701505,0.243679249,9.8536955
885,1747532677200,4.3710652,-0.852980045,1.04773775,1.61467465,-0.281496126,10.273676
886,1747532677210,4.6920004,-0.82491344,1.0428566,2.1544974,-0.55287224,10.397513
887,1747532677220,5.2598,-0.605139945,0.7955046,3.1473238,-0.8671253,10.258496
888,1747532677230,5.2286825,-0.37975308,0.3426563475,3.8488004,-0.554470155,9.1743235
889,1747532677240,4.874189,-0.18572757,-0.0882266975,3.63201915,0.0042610599999999,8.3087965
890,1747532677250,4.52433315,-0.123859053,-0.25052476,3.07089115,0.457797385,7.953264499999999
891,1747532677260,4.11553765,0.004881147,-0.23209844,2.4487766,0.8839031500000001,7.67736065
892,1747532677270,3.7287066,0.193415375,-0.09884319,1.7973674000000002,1.28843735,7.197192899999999
893,1747532677280,3.43901035,0.346073165,-0.0075657734999999,1.39176805,1.53291555,6.62461325
894,1747532677290,3.12100385,0.48848055,0.0375848165,1.31746585,1.57579245,6.163354
895,1747532677300,2.7723682,0.6355250450000001,0.036486558,1.2881711,1.58378195,5.681322
896,1747532677310,2.2644852,0.848953125,-0.066993712,1.19948785,1.5691345,5.10288315
897,1747532677320,1.8307955,1.0692148,-0.19426956,0.866858975,1.56034605,4.08528915
898,1747532677330,1.63335315,1.23712615,-0.268584985,0.4676510849999999,1.5592807999999998,2.9406625
899,1747532677340,1.40271905,1.37538455,-0.3322839199999999,0.196008657,1.49057125,2.0104203
900,1747532677350,1.2644606,1.428467,-0.3612047,0.066046394,1.427987,1.5414376
901,1747532677360,0.7704887,1.2644606,-0.5055646,-0.53929012,1.056742325,0.4396878875
902,1747532677370,0.52813985,1.0964272,-0.579635975,-1.005609675,0.846618925,0.035153728
903,1747532677380,0.44015722,1.05139865,-0.58573741,-1.3502227,0.67963872,-0.0351537294999999
904,1747532677390,0.435886235,1.04432095,-0.557548785,-1.67539465,0.499875335,-0.1163801399999999
905,1747532677400,0.4650511,1.0627473,-0.49128724,-1.9206718,0.378701505,-0.234091855
906,1747532677410,0.523014685,1.1010643,-0.34448681,-2.11055515,0.312122475,-0.370179385
907,1747532677420,0.6382097,1.2051547,-0.12032023,-2.19790685,0.349406735,-0.6186522999999999
908,1747532677430,0.6674965500000001,1.24005485,-0.101039705,-2.1513016,0.463390025,-0.9060074
909,1747532677440,0.7486456,1.28898835,-0.083833665,-2.0399815,0.568052275,-1.14569195
910,1747532677450,0.9458439,1.2956999,-0.10225998,-1.8932413,0.59681445,-1.64743145
911,1747532677460,1.19588055,1.2681214,-0.0942060899999999,-1.7584853,0.512658535,-2.20057
912,1747532677470,1.40857645,1.2155271,-0.0366085858,-1.65115985,0.365385695,-2.54305255
913,1747532677480,1.6334752,1.1397472999999998,0.0111046047,-1.5235945,0.20799288,-2.84292445
914,1747532677490,1.88021705,1.04981225,0.0201347225,-1.41147545,0.0681769295,-3.11163745
915,1747532677500,2.25801775,0.90179155,-0.0067115744999999,-1.4042848499999998,-0.0716390354999999,-3.5734297
916,1747532677510,2.6061654,0.74242213,-0.0345341005,-1.5230617999999998,-0.18375812,-4.1028662
917,1747532677520,2.8281354,0.61929528,-0.0297749839999999,-1.70495575,-0.2247708,-4.5151234
918,1747532677530,3.1056285,0.49067713,0.0412456749999999,-1.90096445,-0.218645525,-5.025384900000001
919,1747532677540,3.4376683000000003,0.33997175,0.17291456,-2.010953,-0.1749696849999999,-5.58145305
920,1747532677550,3.875507,0.032337575,0.364377485,-1.92120445,-0.042876895,-6.3606941500000005
921,1747532677560,4.254894,-0.3122712549999999,0.549983025,-1.685781,0.09134643,-7.0919981
922,1747532677570,4.4775963,-0.57560901,0.7209451,-1.3534185,0.1105211899999999,-7.4624438
923,1747532677580,4.6308645,-0.7804950500000001,0.92253635,-0.86339685,0.06657903,-7.7039925
924,1747532677590,4.714942300000001,-0.88531765,1.05640175,-0.247940315,0.0250337149999999,-7.8027958
925,1747532677600,4.87296915,-0.95853485,1.061527,0.7273093350000001,-0.015446335,-7.88482115
926,1747532677610,4.99377735,-0.988797925,0.98464898,1.5933693,-0.0809601,-8.03502335
927,1747532677620,4.93679,-0.970981745,0.8936155800000001,1.9776634,-0.14674018,-8.1796335
928,1747532677630,4.881389,-0.95719254,0.8473667,2.1427794,-0.1768339,-8.240354
929,1747532677640,4.71701645,-0.79343008,0.712037025,2.40909555,-0.248206615,-8.219847
930,1747532677650,4.41438565,-0.69788165,0.594157365,2.5039041,-0.07030745,-8.2446145
931,1747532677660,3.95580215,-0.7002002199999999,0.4724948249999999,2.5363947,0.255397155,-8.319182999999999
932,1747532677670,3.5204039500000004,-0.76438732,0.411114425,2.5204156500000003,0.535828025,-8.327705
933,1747532677680,3.2889156,-0.8000197,0.38561043,2.5102956,0.67537767,-8.309063
934,1747532677690,2.6129988500000003,-0.9254651,0.369502675,2.6389264,1.0460897,-8.03289335
935,1747532677700,1.7855228,-1.0958171,0.35168648,2.9033783,1.0729875999999998,-7.7191725
936,1747532677710,1.6656906500000002,-1.11912455,0.33252799,3.1933966,0.9494169,-7.388407949999999
937,1747532677720,1.43163975,-1.1715968499999998,0.2971397,3.3542515,0.75660405,-7.1487236
938,1747532677730,1.317421,-1.2007617,0.2809099,3.4210968,0.6450176,-7.0248866
939,1747532677740,1.0520087,-1.2639725,0.261385325,3.54466745,0.428236305,-6.671218700000001
940,1747532677750,0.8186900500000001,-1.36672055,0.2530873649999999,3.63068745,0.417849975,-6.37267835
941,1747532677760,0.6096550000000001,-1.53353365,0.202811575,3.6464002,0.472977415,-6.17427285
942,1747532677770,0.4788403,-1.722556,0.0779762946,3.5129759,0.50094063,-6.209426499999999
943,1747532677780,0.1223947099999999,-1.9589254,-0.1919510254,3.2045818,0.459129,-6.257896
944,1747532677790,-0.27724904,-2.1291554,-0.4402792749999999,2.21974485,0.22823291,-5.8573565
945,1747532677800,-0.41733791,-2.21408735,-0.49018899,0.99841915,-0.035420045,-5.15880935
946,1747532677810,-0.4358862599999999,-2.29792095,-0.42417151,-0.21145499,-0.21411815,-4.3153863
947,1747532677820,-0.41184662,-2.3594234,-0.294455075,-0.500141645,-0.2506034649999999,-4.090881850000001
948,1747532677830,-0.359984445,-2.51476585,-0.1203202235,-1.1347729,-0.35446675,-3.5617117
949,1747532677840,-0.404280845,-2.65839365,0.0095182315,-1.5297196999999998,-0.454335285,-3.08314155
950,1747532677850,-0.57865977,-2.6655933000000003,0.060648225,-1.5819177,-0.5683185749999999,-2.6317358
951,1747532677860,-0.76304498,-2.62764235,0.09469421,-1.5483619000000002,-0.77844198,-1.96887505
952,1747532677870,-0.96622264,-2.5108612,0.12642166,-1.381648,-1.2341089,-0.63010395
953,1747532677880,-0.91838742,-2.3636946,0.1232489149999999,-1.2229236,-1.5041534,0.450340525
954,1747532677890,-0.7725632,-2.139528,0.1056767899999999,-1.0165286,-1.8319885,2.020274
955,1747532677900,-0.57121596,-1.9854058,0.078586435,-0.9438243,-1.8700717,2.9497173
956,1747532677910,-0.34143608,-1.8285989,0.056377226,-0.91772535,-1.73398415,3.8480016
957,1747532677920,-0.0001220249999999,-1.6359157,0.009518233,-0.9867012,-1.2615394,4.78570055
958,1747532677930,0.328379045,-1.47068895,-0.0295309265,-1.0873686500000002,-0.68043768,5.36147595
959,1747532677940,0.504222275,-1.3664765,-0.0472250784999999,-1.11479925,-0.2543318925,5.48744345
960,1747532677950,0.5757310250000001,-1.2808124,-0.09920927,-1.12278875,0.0266316125,5.5585499
961,1747532677960,0.5992825500000001,-1.23712615,-0.15753895,-1.18963405,-0.0143810649999999,5.70795315
962,1747532677970,0.6313761,-1.19673465,-0.157172865,-1.2863068,-0.326503565,6.0283315
963,1747532677980,0.9332749,-1.0288233,-0.094450153,-1.29669315,-0.8064051750000001,6.87788015
964,1747532677990,1.43041955,-0.79745707,-0.054668825,-1.2551478,-1.17099195,7.7133138
965,1747532678000,1.8638652,-0.62124774,-0.061502427,-1.2412994,-1.22079305,8.0107889
966,1747532678010,2.43373885,-0.48359947,-0.078952515,-1.26260475,-1.005076985,8.14208275
967,1747532678020,2.9148978000000003,-0.4258799,-0.072973113,-1.30415005,0.074834815,8.086156200000001
968,1747532678030,3.09037495,-0.4200225,-0.0140332915,-1.2357068,1.38431115,7.954063400000001
969,1747532678040,3.16908335,-0.42990684,0.0713867415,-0.96885803,1.9819245,7.91864345
970,1747532678050,3.2299757,-0.48542989,0.13496365,-0.52277853,2.1201426000000003,7.994543249999999
971,1747532678060,3.31466355,-0.58122235,0.15302389,0.14088122,1.73584845,8.247011
972,1747532678070,3.56970335,-0.7213111999999999,0.031483385,1.08044447,0.5826996499999999,8.681639
973,1747532678080,3.8155911,-0.8478548850000001,-0.164982705,1.7406421,-0.54807855,9.076053
974,1747532678090,3.9528732,-0.981720235,-0.3183726799999999,1.8572886,-1.00907175,9.3628755
975,1747532678100,4.11822185,-1.1418218,-0.3968370799999999,1.7872475,-1.1190603,9.649698
976,1747532678110,4.30163085,-1.2333433,-0.358276035,1.4737934,-0.67324712,10.1301325
977,1747532678120,4.4807688500000005,-1.2640945,-0.294211015,1.059405515,0.00905475,10.539993
978,1747532678130,4.63269465,-1.25042735,-0.2178211,0.706270335,0.55127437,10.5517105
979,1747532678140,4.79694535,-1.16146845,-0.0737052875,0.44874264,1.005876,10.2856605
980,1747532678150,4.85918,-1.002709175,0.1038463525,0.39308257,1.3137374,9.7873835
981,1747532678160,4.642701150000001,-0.6849466750000001,0.313735595,0.72011875,1.39736065,8.785236
982,1747532678170,4.27112385,-0.336432925,0.456020995,1.28870365,1.19735725,7.707986999999999
983,1747532678180,3.9271253,-0.10055159325,0.452116085,1.8218686,0.82611255,6.9641663000000005
984,1747532678190,3.610095,0.10164984175,0.374261815,2.34571245,0.3669835899999999,6.1961108
985,1747532678200,3.1067268500000003,0.31642022,0.1575389635,2.7744813,-0.112119085,5.40754875
986,1747532678210,2.6067755,0.480304645,-0.1172695065,2.9329393,-0.6673881749999999,4.21684935
987,1747532678220,2.34429185,0.530336385,-0.32081325,2.7121632,-0.94142745,3.1129691
988,1747532678230,2.13354845,0.5498609999999999,-0.472128745,2.2261363,-0.7523430200000001,2.5126926000000003
989,1747532678240,1.95550875,0.555718375,-0.553033715,1.62106615,-0.380832045,1.9414445
990,1747532678250,1.6844831500000002,0.5430273999999999,-0.54546792,0.985369625,0.121440145,1.4165354
991,1747532678260,1.3990582,0.510933875,-0.49104315,0.125168575,0.95714007,0.81279678
992,1747532678270,1.1338899,0.44662476,-0.39415246,-0.8213189,1.9760655,0.2247708
993,1747532678280,1.07165535,0.42112078,-0.361692845,-1.00134855,2.1907163,0.11185276775
994,1747532678290,0.93681375,0.37719047,-0.28871973,-1.2599415,2.50603455,-0.06817692225
995,1747532678300,0.7620687349999999,0.3408259449999999,-0.1892664,-1.3630059,2.6405242,-0.18801917
996,1747532678310,0.6150242349999999,0.318494725,-0.11336459,-1.3222595,2.58326635,-0.31851407
997,1747532678320,0.53228885,0.30995271,-0.0865182925,-1.1912319500000002,2.37740395,-0.42184472
998,1747532678330,0.459193715,0.30360721,-0.0696783424999999,-1.04688865,2.1142836000000003,-0.46232477
999,1747532678340,0.396348965,0.3065359,-0.061502425,-0.88150635,1.794438,-0.48629323
1000,1747532678350,0.33411437,0.29482115,-0.0600380835,-0.588558615,1.266066815,-0.45273739
