timestamp,acc_x,acc_y,acc_z,gyro_x,gyro_y,gyro_z,id
1747533614070,-0.82125266,0.0150095249999999,1.158417775,-3.000051085,1.029578085,-3.5316179145000004,1
1747533614080,-1.73183025,0.295309285,1.33316275,-5.83365465,2.4487766,-7.03234315,2
1747533614090,-1.6532438,0.34558508,1.2878901,-5.00008515,2.3821976,-6.92342,3
1747533614100,-1.4856984999999998,0.474203235,1.1412117,-4.25440005,2.3843283,-6.84725365,4
1747533614110,-1.4179726,0.49568027,1.0653099,-4.0432115,2.442119,-6.8512483,5
1747533614120,-1.35659225,0.50873734,0.98208635,-3.57822325,2.48739255,-6.88986415,6
1747533614130,-1.3537855,0.53106856,0.9715919,-3.432282,2.4943168,-6.8890653,7
1747533614140,-1.2938695,0.7060576350000001,0.8218628,-2.8876656,2.51429045,-6.53965865,8
1747533614150,-1.2245572,0.754624985,0.70801005,-2.9036445,2.53825885,-6.2605595,9
1747533614160,-1.1797727,0.7743936,0.6562699,-2.948652,2.576342,-6.087454,10
1747533614170,-1.16293275,0.82735405,0.5887880999999999,-3.12442065,2.7883298,-5.55135945,11
1747533614180,-1.1892909,0.8551766,0.5781716,-3.176086,2.8479846,-5.3423014,12
1747533614190,-1.138283,0.91399445,0.64992449,-3.09193015,3.14705755,-4.2618568,13
1747533614200,-1.0801974,0.9359596,0.719968885,-2.91296565,3.23920285,-3.9678439,14
1747533614210,-1.0389518,0.9535317,0.76511943,-2.8059065,3.2533176,-3.8429415,15
1747533614220,-0.9730562,0.98379475,0.8092938,-2.69778215,3.2083103,-3.77636255,16
1747533614230,-0.9183875,0.9391323,0.81832397,-2.420281,2.9656963,-3.7342846,17
1747533614240,-0.802948325,0.93217665,0.829062465,-2.05888985,2.0333235,-3.86690985,18
1747533614250,-0.837848545,1.04139228,0.761336595,-2.0072245,1.6253272,-3.73854555,19
1747533614260,-0.86201024,1.1124129,0.71118283,-2.000034,1.4152038,-3.6229644,20
1747533614270,-0.81490713,1.258115,0.5747548,-2.1417142,1.1251856,-3.0828754,21
1747533614280,-0.35302881,1.3628157,0.21574661,-2.5459821,1.08390655,-2.6181537500000003,22
1747533614290,-0.0134231449999999,1.2877681,0.178161785,-3.0152311000000003,1.07751495,-2.3347934,23
1747533614300,0.15912533,1.2393227,0.17767367,-3.1622376,1.0844392,-2.3334618,24
1747533614310,0.30970864,1.2057648,0.201103165,-3.2290829,1.1057445,-2.43572715,25
1747533614320,0.71191496,1.2410312,0.23087814,-3.1553133,1.2777847,-2.8565066,26
1747533614330,1.02565057,1.73061005,0.325328305,-2.2556975,1.6655409,-2.8794098,27
1747533614340,1.1263242,1.8531268,0.34729347,-1.40748065,1.2815132,-2.3877903500000004,28
1747533614350,1.3437792,2.0576468,0.2711476,-1.1632688,1.0689929,-2.1715417,29
1747533614360,1.5329236,2.2289748,0.012935034,-0.912399,0.7781757,-1.635181,30
1747533614370,1.6683753,2.3373363,-0.24308102,-1.0045444,0.6876282,-1.0551444,31
1747533614380,1.8448287,2.4056723,-0.52374685,-1.3923006,0.60240704,-0.43036684,32
1747533614390,1.9401331,2.30695115,-0.492263425,-2.4426514,0.13022857,1.3006879,33
1747533614400,1.978084,2.2541127,-0.47395915,-2.5108283,0.00479369,1.587244,34
1747533614410,2.1616151500000003,2.03690175,-0.38194959,-2.3835292,-0.330232,2.0378509,35
1747533614420,2.21359935,1.92500155,-0.44699086,-1.388838525,-0.93050848,2.6636938,36
1747533614430,2.2155519,1.8824136,-0.5469323,-0.78083885,-1.1275824,2.9449236,37
1747533614440,2.18638685,1.81786035,-0.8041686400000001,-0.045273745,-1.0476876,3.3044504,38
1747533614450,2.2114027,1.7791773,-0.86201024,0.15393071,-1.0045444,3.4131074,39
1747533614460,2.3192759,1.6425053,-0.77829856,0.86233157,-0.8527442,3.636813,40
1747533614470,2.2956026,1.5663594,-0.57402265,1.2634037,-0.90654004,3.6863477,41
1747533614480,2.13342645,1.5799045500000002,-0.21586863,2.09404355,-1.2144015,3.9089879,42
1747533614490,2.0615516,1.6005274,-0.10323621,2.3915186,-1.3496901,4.0139165,43
1747533614500,1.833114,1.6268855,0.05662128,2.9071066,-1.798699,4.359062,44
1747533614510,1.1260802,1.7074246,0.2923806,3.687413,-3.2714272,5.348693,45
1747533614520,0.9684192,1.6800901,0.31312545,3.881291,-3.6005939500000004,5.60462265,46
1747533614530,0.44686884,1.6022359,0.3397277,4.50021,-4.381965,6.320214,47
1747533614540,0.0707766,1.5583055,0.32410803,5.0301785,-4.4964814,6.757505,48
1747533614550,-0.28701133,1.4821596,0.3385074,5.4099455,-4.261058,6.9620357,49
1747533614560,-0.844194,1.479475,0.41587353,5.7055564,-3.2362735,7.056844,50
1747533614570,-1.1519502,1.5551329,0.4417436,5.7241983,-2.5326662,7.0648336,51
1747533614580,-1.4819156,1.6137065,0.49568027,5.3721285,-1.8572886,7.106379,52
1747533614590,-1.82762265,1.6747209,0.772441225,4.938566,-1.3273195,7.176154,53
1747533614600,-2.04922665,1.7725878,1.0278471,4.52258,-0.86233157,7.2475266,54
1747533614610,-2.1835802,1.8472692,1.1956364,3.804592,-0.30200246,7.374826,55
1747533614620,-2.511349,2.003466,1.4863087,3.6384108,-0.27057716,7.5228977,56
1747533614630,-2.893787,2.1008449,1.7088889,3.7281593,-0.484162685,7.890147,57
1747533614640,-3.141993,2.1008449,1.8213992,3.764112,-0.61412495,8.025169,58
1747533614650,-3.197638,1.9797924,1.7215798,3.758253,-1.077515,8.224374,59
1747533614660,-2.9587061,1.867282,1.4394495,3.0903323,-1.7614148,8.367652,60
1747533614670,-2.8169088,1.82567025,1.32449865,2.7779434,-1.6956347,8.293616499999999,61
1747533614680,-2.5430765,1.7638018,1.0643337,1.7853832,-1.401888,8.004397,62
1747533614690,-2.5435646,1.7540395,0.99868226,1.1653993,-1.1590078,7.822237,63
1747533614700,-2.4827945,1.6510473,1.0377314,0.40107206,-0.77444726,7.619837,64
1747533614710,-2.4364235,1.5378047,1.0523748,0.3270362,-0.6982809,7.5213,65
1747533614720,-2.383463,1.4509203,1.0897156,0.3920173,-0.7222493,7.3982615,66
1747533614730,-2.425807,1.42919925,1.05091055,0.53742594,-0.7499462,7.259777,67
1747533614740,-2.485723,1.4357888,1.0216236,0.6711166,-0.7238472,7.21983,68
1747533614750,-2.7505252,1.4697127,1.1026506,0.82078624,-0.77391464,7.4850807,69
1747533614760,-2.8547378,1.4404259,1.1168059,0.82877576,-1.0125339,7.6342177,70
1747533614770,-2.9701767,1.4067459,1.150974,0.85540736,-1.4695324,7.786018,71
1747533614780,-3.0311909,1.3013133,1.0775127,0.9108011,-1.6692694,7.8515315,72
1747533614790,-3.0185,0.9942892,0.7924539,0.9438243,-1.5638082,7.5271587,73
1747533614800,-3.1195397,0.8710403,0.7067898,0.85487473,-1.3379722,7.286409,74
1747533614810,-3.3792167,0.77683425,0.6474839,0.69774824,-1.0258497,7.173491,75
1747533614820,-3.567873,0.5618198,0.6645679,0.45380265,-0.84635264,7.190535,76
1747533614830,-3.5166206,0.18938842,0.8336995,0.30519825,-0.9491506,7.0717583,77
1747533614840,-3.55823255,-0.15985749,0.9747646,0.601608095,-1.19442775,6.7484506500000006,78
1747533614850,-3.6689126,-0.83101493,1.244692,1.9350529,-1.8743328,5.8866515,79
1747533614860,-3.7079618,-1.0904478,1.3872215,3.0013826,-2.1688783,5.615009,80
1747533614870,-3.7079618,-1.0904478,1.3872215,3.47329475,-2.28232905,5.56361,81
1747533614880,-4.54837275,-1.57343705,0.73156158,4.169711400000001,-2.3595607000000003,5.555088,82
1747533614890,-5.095427,-1.6722802,0.27090356,3.8397458,-2.159291,5.61927,83
1747533614900,-5.654806,-2.101089,-0.04344219,2.6780748,-1.3321131,5.6576195,84
1747533614910,-5.948407,-2.762972,-0.14204131,1.2287825,-0.22264028,5.299158,85
1747533614920,-6.216382,-3.3831215,-0.14716652,-0.4063984,0.7440872,4.373443,86
1747533614930,-6.552815300000001,-3.98081775,-0.0031727439999999,-3.635215,1.9387813,1.2010857,87
1747533614940,-6.526335,-3.944209,0.029042812,-4.408597,2.202967,-0.34194988,88
1747533614950,-6.3708706,-3.610339,0.03099527,-4.8235173,2.442119,-1.8333201,89
1747533614960,-6.259336,-3.129302,0.17840585,-4.8006144,2.5459821,-3.0695596,90
1747533614970,-6.104116,-2.4820623,0.49348375,-4.2205777,2.5885925,-4.031493,91
1747533614980,-5.7856209,-1.5398792,1.141211735,-1.599228353,1.8429076,-5.0043462000000005,92
1747533614990,-5.53631665,-1.01186132,1.47984115,-0.061252706,1.1930962,-5.310876,93
1747533615000,-5.421732,-0.89080894,1.4987555,1.6580842,-0.1438107,-5.584649,94
1747533615010,-5.2190423500000005,-0.767804085,1.4362769,2.068211,-0.7044060999999999,-5.7745323,95
1747533615020,-4.6700354,-0.36437747,1.1297411,2.7180223,-2.143312,-6.4267406,96
1747533615030,-4.4750338,-0.028066583,0.80246025,2.3771377,-2.5470474,-6.760168,97
1747533615040,-3.9878953,0.5605995,0.29530928,0.5294364,-2.0687435,-6.79692,98
1747533615050,-3.6232738,0.6028214,0.29262465,-0.47404268,-1.4615428,-6.784137,99
1747533615060,-3.44523405,0.58305275,0.31764051,-0.92624744,-1.09535817,-6.823551500000001,100
1747533615070,-3.0075176,0.5276518,0.41123646,-2.1736722,-0.042077947,-6.992396,101
1747533615080,-2.882316,0.5051985,0.50617474,-2.9726205,0.716923,-7.148457,102
1747533615090,-2.6504617,0.4502856,0.72753465,-3.7055223,1.6634104,-7.4589815,103
1747533615100,-2.5486898,0.38951537,0.7224094,-3.9760995,2.0900488,-7.757788,104
1747533615110,-2.4823062,0.35437113,0.7136234,-4.250938,2.4916537,-8.121576,105
1747533615120,-2.467419,0.379509,0.6718896,-4.5161886,2.9497173,-8.508267,106
1747533615130,-2.4603412,0.41855815,0.59989274,-4.7580037,3.5665054,-8.902947,107
1747533615140,-2.75443015,0.663225575,0.88568375,-4.826713,4.6972837,-9.363142,108
1747533615150,-2.813004,0.71045065,0.9818423,-4.6738477,5.0509515,-9.334912,109
1747533615160,-2.848148,0.8395569,1.2415192,-4.279167,5.1846423,-9.191102,110
1747533615170,-2.8820722,0.9342511,1.4389615,-3.86691,4.9785132,-9.028649,111
1747533615180,-2.9224634,1.01125125,1.7384198,-2.9720879,3.781689,-8.673383,112
1747533615190,-2.9272225,1.0257727,1.7501346,-2.5555694,3.0945933,-8.477374,113
1747533615200,-2.9103827,0.99770606,1.6098017,-2.2604911,2.5529063,-8.311726,114
1747533615210,-2.8086107,0.9432813,1.4304196,-2.146508,2.2221417,-8.234494,115
1747533615220,-2.775907,0.9225364,1.2483528,-2.1949775,2.1315942,-8.255267,116
1747533615230,-2.770782,0.87909424,0.9601213,-2.359028,2.2194786,-8.337825,117
1747533615240,-2.7895741,0.8861718,0.8412653,-2.9071066,2.8554413,-8.282432,118
1747533615250,-2.6929276,0.83882475,0.74535084,-3.2016523,3.200587,-8.159393,119
1747533615260,-2.46314765,0.6378436,0.8516377500000001,-3.5537221,3.6602488,-7.843542,120
1747533615270,-2.4291017,0.6125837,0.88275504,-3.5744948,3.6256275,-7.6406093,121
1747533615280,-2.4291017,0.6125837,0.88275504,-3.5744948,3.6256275,-7.6406093,122
1747533615290,-2.0686291,0.57280237,0.8975204999999999,-3.338539,3.200587,-7.310377,123
1747533615300,-2.0259192,0.58378494,0.8676235,-3.1366713,2.9758162,-7.1782846,124
1747533615310,-2.0256752,0.62869147,0.8257677,-3.0051111500000003,2.8916603,-7.051251799999999,125
1747533615320,-2.0198178,0.73680884,0.7321718,-2.641856,2.7244139,-6.665892,126
1747533615330,-1.8000442,0.8271100499999999,0.551569365,-2.242648,2.56196105,-6.0091567,127
1747533615340,-1.7640458,0.8537123,0.48225713,-2.2343922,2.5262747,-5.8685417,128
1747533615350,-1.3462198,0.86152214,0.3687705,-2.3457124,2.4261398,-5.27732,129
1747533615360,-1.21076805,0.8867820500000001,0.34814765,-2.706837,2.3265376,-5.064267,130
1747533615370,-0.8593256,0.95328766,0.26870704,-2.9204226,2.2152174,-4.905543,131
1747533615380,-0.5850052,1.0186949,0.25137895,-3.0439932,2.1369205,-4.7292414,132
1747533615390,-0.25137895,1.1746475,0.25333142,-2.8932583,2.189651,-4.614193,133
1747533615400,0.008786061,1.3894179,0.25040275,-1.6580842,2.3931167,-4.376639,134
1747533615410,0.68214005,1.978328,0.63015586,-0.44048685,2.4197483,-4.1934137,135
1747533615420,1.1673259,2.3217165,0.78635246,0.233026595,2.3342608,-4.1614556,136
1747533615430,1.6459221,2.6948802,0.95060295,2.1997712,1.7736653,-4.0996704,137
1747533615440,1.8372629,3.077318,0.9059405,3.187804,1.0887003,-3.8360174,138
1747533615450,2.348807,3.9002788,0.62063754,3.8722363,-0.58696073,-2.6035063,139
1747533615460,2.6607122,4.0855184,0.2630937,3.6389434,-1.2314457,-1.5536882,140
1747533615470,2.80665835,4.1636167,0.0416117549999999,3.4205642000000003,-1.27565415,-1.09482555,141
1747533615480,2.9526045,4.241715,-0.17987019,2.721218,-1.1414309,0.23861924,142
1747533615490,3.0965981,4.1209064,-0.12080834,2.3845944,-0.8697884,0.9518138,143
1747533615500,2.950408,3.6901455,0.24820623,2.3281355,-0.6087986,1.979794,144
1747533615510,2.718798,3.5007572,0.37633628,2.4746094,-0.78296936,2.4458473,145
1747533615520,2.1713774,3.2979455,0.4023283749999999,2.5686189,-1.35395115,3.32096195,146
1747533615530,1.9580714,3.2498662,0.39878955,2.57794,-1.5696672,3.6650424,147
1747533615540,1.4648316,3.1395526,0.3533949,2.5566347,-2.0698087,4.7287087,148
1747533615550,0.51398456,2.673403,0.42197496,2.6652918,-2.9619677,6.401174,149
1747533615560,0.12056428,2.3929813,0.46639338,2.9103024,-3.4551852,7.036072,150
1747533615570,-0.21794313,2.0881538,0.447601,3.2373388,-3.8477352,7.4952006,151
1747533615580,-0.5547421,1.8126132,0.4127008,3.6112466,-4.0820932,7.7993336,152
1747533615590,-0.93986446,1.5971106,0.37926495,4.000601,-4.0506682,8.009191,153
1747533615600,-1.29325933,1.522185,0.408307775,4.35054025,-3.7183057,8.169512999999998,154
1747533615610,-1.8238398,1.4542150500000002,0.4778641,4.84109425,-3.1217575,8.433166,155
1747533615620,-2.3500273,1.5358523,0.61966133,5.087703,-2.5124261,8.754343,156
1747533615630,-2.5394156,1.6107779,0.7241178,5.1271176,-2.2892532,8.992963,157
1747533615640,-2.6591257,1.67301245,0.82613375,5.1004863,-2.1108215,9.217733,158
1747533615650,-2.6487532,1.6810663,0.8088057,4.6855655,-1.8908445,9.559683,159
1747533615660,-2.6619325,1.6293261,0.7409578,4.328702,-1.5632756,9.533585,160
1747533615670,-2.6909752,1.5429299,0.7968469,3.9745016,-1.128115,9.357816,161
1747533615680,-2.7561386,1.4401819,0.9091133,3.6938045,-0.6945524,9.015865,162
1747533615690,-2.8852448,1.3449996,0.9191196,2.9044435,0.36591834,8.0273,163
1747533615700,-3.0724368,1.3918585,0.959145,2.3489082,0.71319455,7.8115845,164
1747533615710,-3.09745265,1.398326,1.0083225,2.0740699,0.777643055,7.76924025,165
1747533615720,-3.01898815,1.35122295,1.3265732,1.4258565,0.7105314,7.691742,166
1747533615730,-2.9322256500000003,1.30997725,1.5487873,1.3427658,0.37284255,7.7082534,167
1747533615740,-2.878899,1.2825208,1.6632501,1.9664782,-0.7190535,7.901599,168
1747533615750,-2.9303954,1.2432276,1.6957097,2.5587652,-1.2713932,7.984157,169
1747533615760,-3.0747552,1.0727536,1.62578735,3.5470644,-1.72306525,7.945541,170
1747533615770,-3.095134,1.0262607,1.5897889,3.8818238,-1.8200043,7.904262,171
1747533615780,-3.069996,1.0765365,1.2910628,4.1444116,-1.8732675,7.6214347,172
1747533615790,-3.0341196,1.1092402,1.1370627,3.790211,-1.794438,7.507451,173
1747533615800,-2.9438186,1.1346222,0.99087244,3.274623,-1.6106799,7.397729,174
1747533615810,-2.8891497,1.1231514,0.8429737,2.6093652,-1.3097427,7.321563,175
1747533615820,-2.8176408,1.0240642,0.86371857,2.0080235,-0.9635317,7.2347436,176
1747533615830,-2.7527218,0.76804817,1.0987457,1.5723304,-0.680704,7.062703,177
1747533615840,-2.7510133,0.68409246,1.2285842,1.2644689,-0.7339672,6.5774755,178
1747533615850,-2.84839215,0.55535225,1.3063164,1.3811153,-0.9853696,6.4006414,179
1747533615860,-2.920389,0.5125202,1.296188,1.5371766,-1.2868395,6.3441825,180
1747533615870,-2.920389,0.5125202,1.296188,1.5371766,-1.2868395,6.3441825,181
1747533615880,-3.0174017500000003,0.0052472,1.1856301,1.75742005,-1.7283916499999998,6.29997395,182
1747533615890,-2.9731054,-0.93571544,1.0164984,2.2887206,-2.4266725,5.7167416,183
1747533615900,-3.1172211,-1.29862865,0.961219475,2.7766118,-2.5427864,5.1154,184
1747533615910,-3.1515112,-1.4025971,0.93937635,3.3902042,-2.4362597,4.5976815,185
1747533615920,-3.2020311,-1.615415,0.8561529,3.976632,-1.9936424,4.204599,186
1747533615930,-4.313712,-1.7291456,0.882511,4.495416,-0.15819177,4.1875544,187
1747533615940,-5.270294,-2.10572595,1.05493745,4.2093925,0.49481535,4.584898,188
1747533615950,-5.563773,-2.3121984,1.0994779,3.480219,0.83942837,5.053082,189
1747533615960,-5.822229500000001,-2.6186123,1.1006982,2.9276131000000003,0.916393735,5.1396345,190
1747533615970,-6.0904484,-3.8975942,1.0816617,1.0647318,0.9262474,4.4384246,191
1747533615980,-6.0394406,-4.4703965,1.0509106,-1.0487529,0.6785734,0.7238472,192
1747533615990,-6.191244,-4.096989,1.03163,-1.6666062,0.8809737,-0.9709886,193
1747533616000,-6.182214,-3.5227222,1.0374874,-2.0501015,1.2106731,-2.5353293,194
1747533616010,-6.137673700000001,-3.2130136,1.09581705,-2.06075415,1.29269845,-3.00644255,195
1747533616020,-5.9491396,-2.3907847,1.3730661,-1.7789917,1.3651364,-4.209925,196
1747533616030,-5.7902584,-1.9260999,1.637136,-1.2346416,1.0796455,-4.731372,197
1747533616040,-5.214283,-1.1155857,1.9422076,0.23595607,-0.29294774,-5.433914,198
1747533616050,-4.9143367,-0.77781045,1.8604484,0.7909589,-1.1797804,-5.7273946,199
1747533616060,-4.802070349999999,-0.611241385,1.7447653,0.90307795,-1.52146395,-5.84324195,200
1747533616070,-4.58595775,-0.299214195,1.48069535,0.91799162,-2.0080235,-6.038984149999999,201
1747533616080,-3.883439,0.19719826,0.79709095,-1.468999665,-1.38724065,-6.6174228500000005,202
1747533616090,-3.52577305,0.287011325,0.62503062,-2.52441045,-0.7896272499999999,-6.8768146,203
1747533616100,-3.4224148,0.30019042,0.60086894,-3.0381343,-0.4628574,-7.0158315,204
1747533616110,-3.2193592,0.2979939,0.7060576,-4.615791,0.8245147,-7.4728303,205
1747533616120,-3.1581008,0.2723679,0.77732235,-5.1217914,1.3912354,-7.6342177,206
1747533616130,-3.010446,0.19475769,0.8473667,-5.4530888,1.8210696,-7.8414116,207
1747533616140,-2.9069657,0.13716017,0.93522733,-5.5958343,2.1358552,-8.106663,208
1747533616150,-2.8842685,0.13716017,0.976229,-5.593171,2.4048345,-8.432633,209
1747533616160,-2.8325286,0.22355644,0.9730562,-5.3492255,2.6535738,-9.0669985,210
1747533616170,-2.8671844,0.32215557,0.976229,-5.219263,2.6668897,-9.274193,211
1747533616180,-2.9599264,0.44784504,1.0313859,-5.029646,2.6072347,-9.33438,212
1747533616190,-2.9860406,0.5352176,1.07434,-4.74309,2.5545042,-9.353555,213
1747533616200,-2.8976917,0.7324158,1.1365746,-3.9441416,2.6354642,-9.329054,214
1747533616210,-2.9486997,0.83028275,1.1172941,-3.5542548,2.7233486,-9.286976,215
1747533616220,-3.0704844,0.8912971,1.1373067,-3.2586439,2.7595675,-9.210809,216
1747533616230,-3.138088,0.94572186,1.2551864,-2.8831382,2.6786075,-9.105881,217
1747533616240,-3.1324747,0.99404514,1.3520772,-2.569418,2.4746094,-9.0334425,218
1747533616250,-3.1053846,1.1360865,1.3596429,-2.2775354,2.1497037,-8.907208,219
1747533616260,-3.0404654,1.1827015,1.2393227,-2.0298615,1.5329156,-8.439558,220
1747533616270,-2.855958,1.1831895,1.1092402,-2.1342573,1.3704628,-8.166317,221
1747533616280,-2.6331336,1.1665937,1.0150341,-2.3425164,1.3459617,-7.9516664,222
1747533616290,-2.4740083,1.1258361,0.9454777,-2.6061695,1.412008,-7.7993336,223
1747533616300,-2.2524045,1.0440769,0.91106576,-3.03121,1.7198695,-7.5388765,224
1747533616310,-2.2275105,1.1429201,0.94254905,-3.03121,1.9286613,-7.377489,225
1747533616320,-2.29694475,1.31632275,0.898862835,-2.979012,2.2216091,-6.93753475,226
1747533616330,-2.3039005,1.3540297,0.86371857,-2.9795446,2.2961776,-6.7702885,227
1747533616340,-1.9761316,1.1373067,0.81417495,-3.0796795,2.4426515,-6.299974,228
1747533616350,-1.778201,1.0282133,0.84248555,-3.053048,2.4016387,-6.1625547,229
1747533616360,-1.6268855,0.9706156,0.8188121,-2.9811425,2.2599585,-6.025136,230
1747533616370,-1.5436621,0.9584128,0.7507201,-2.8852687,2.1363878,-5.854161,231
1747533616380,-1.4667841,0.97476465,0.690682,-2.7579696,1.953695,-5.539908,232
1747533616390,-1.1307173,1.1319375,0.61502427,-2.6636937,1.7342505,-5.2592106,233
1747533616400,-0.9723241,1.2307807,0.4549227,-2.8075044,1.2319783,-4.6280413,234
1747533616410,-0.6706693,1.3193735,0.2762728,-3.1121702,1.1872373,-4.2717104,235
1747533616420,-0.2135501,1.3923465,0.11617125,-3.5521243,1.6572852,-3.84240885,236
1747533616430,0.20671648,1.4165082,0.03904916,-3.671434,1.8967034,-3.7273602,237
1747533616440,0.6782351,1.6132184,0.18475133,-3.7710361,2.8202877,-3.4977958,238
1747533616450,1.0028312,1.8223755,0.38194957,-3.5132422,2.748915,-3.482882,239
1747533616460,1.3059504,2.1581984,0.5615757,-3.0546458,2.369681,-3.4780884,240
1747533616470,1.38783155,2.3556407,0.6775029,-2.6178874,2.16648165,-3.3920683,241
1747533616480,1.8111488,2.8291116,0.96329397,-0.9582054,1.5584819,-2.961435,242
1747533616490,2.145019,3.4958758,1.0821499,1.5089471,0.020240024,-1.8168086,243
1747533616500,2.497438,3.6354768,1.0731196,2.6141589,-0.97045594,-1.2596753,244
1747533616510,2.5931082,3.7501836,0.8180799,3.3859432,-1.9286613,-0.6114618,245
1747533616520,2.689755,3.8819747,0.41562948,3.7955372,-2.6045716,0.066046394,246
1747533616530,2.7432034,3.9071124,0.04490653,3.930826,-2.7856665,0.928378,247
1747533616540,2.6411877,3.671353,-0.38439015,3.4871433,-2.0048277,2.3004386,248
1747533616550,2.4615614,3.4819648,-0.27212384,3.1894019,-1.6218652,2.8985846,249
1747533616560,2.4615614,3.4819648,-0.27212384,3.1894019,-1.6218652,2.8985846,250
1747533616570,1.7656322000000002,3.1369898000000003,0.195001754,3.03280785,-1.6144083,3.84054475,251
1747533616580,0.84809893,2.9335682,0.5256993,3.2069786,-2.1779332,4.995025,252
1747533616590,0.45345837,2.7988486,0.5459561,3.40644945,-2.8884646,6.12873265,253
1747533616600,0.064919226,2.631181,0.5405868,3.4647727,-3.134008,6.4965153,254
1747533616610,-0.4131889,2.4234886,0.528628,3.6400087,-3.7193708,7.329552,255
1747533616620,-0.8080735,2.2126231,0.4983649,3.8599858,-4.0485377,7.9388833,256
1747533616630,-1.4950947,1.8360426,0.35656762,4.1364217,-4.121508,8.429971,257
1747533616640,-1.794797,1.7301219,0.3099527,4.5188518,-3.4812841,9.099489,258
1747533616650,-2.1350129,1.7127937,0.31703037,4.5428205,-2.8884647,9.370599,259
1747533616660,-2.27095285,1.7160885499999998,0.355225325,4.440555,-2.3031018,9.628925,260
1747533616670,-2.6333778,1.7425689,0.5025139,4.256264,-1.8679413,9.870741,261
1747533616680,-3.0936697,1.6932691,0.62014943,3.5473306,-1.0503508,10.213756,262
1747533616690,-3.4487727,1.5807588,0.8139309,3.3065808,-0.70680296,10.277139,263
1747533616700,-3.7079618,1.4553133,1.022844,3.1206923,-0.49694586,10.253703,264
1747533616710,-3.8221807,1.2334653,1.2522577,2.9987195,-0.5107943,10.113621,265
1747533616720,-3.8386545,1.1658615,1.4002784,3.0658312,-0.87138635,9.906426,266
1747533616730,-3.7921617,1.0548154,1.6825306,3.2458608,-1.3731259,9.668873,267
1747533616740,-3.5171092,1.0843463,1.4704449,3.4535873,-1.901497,9.218266,268
1747533616750,-3.3997176,1.2029582,1.398204,3.4535873,-1.8386464,9.020659,269
1747533616760,-3.3218632,1.325475,1.3947871,3.4914043,-1.6698021,8.831042,270
1747533616770,-3.333822,1.4265146,1.4384733,3.5872781,-1.5579493,8.738364,271
1747533616780,-3.355787,1.4191929,1.534632,3.7406762,-1.4578145,8.678177,272
1747533616790,-3.3357744,1.3689171,1.530727,3.9979374,-1.4439659,8.482168,273
1747533616800,-3.3103926,1.3413386,1.478987,3.97823,-1.5137408,8.368717,274
1747533616810,-3.28305815,1.34085045,1.4367651,3.90632475,-1.52945345,8.3167855,275
1747533616820,-3.158589,1.3186413,1.2537221,3.5334823,-1.484446,8.127968,276
1747533616830,-2.8962274,1.2178457,0.8334555,1.9936424,-0.7462177,7.6709695,277
1747533616840,-2.8359451,1.1336459,0.8363842,1.2144015,-0.23169503,7.441405,278
1747533616850,-2.8061702,1.044565,0.9366917,0.57151437,0.21731395,7.2027855,279
1747533616860,-2.774443,0.9479183,1.1165619,0.11984225,0.49055427,6.9391327,280
1747533616870,-2.660468,0.84785485,1.27886,-0.14913702,0.5118596,6.630206,281
1747533616880,-2.695368,0.8300387,1.3171769,-0.46924898,-0.17097494,6.16362,282
1747533616890,-2.8852448,0.7609705,1.2283401,-0.70200926,-0.71319455,6.0544305,283
1747533616900,-3.129546,0.6294237,1.2258996,-0.9150622,-1.5100124,6.073605,284
1747533616910,-3.06230845,-0.31434574,1.0948408,0.0138484399999999,-3.47888745,5.4403055,285
1747533616920,-2.9635873,-0.485918,1.052863,0.44048685,-3.6661077,5.18624,286
1747533616930,-2.9003763,-0.7053254,1.0577441,1.6042882,-3.7678404,4.690892,287
1747533616940,-3.0390007,-0.8295506,1.0365112,3.27648705,-3.7433393,4.5183195,288
1747533616950,-3.1602974,-0.97427654,0.9127741,3.750796,-3.7252297,4.538027,289
1747533616960,-3.329673,-1.261776,0.5835409,4.278102,-3.491937,4.576376,290
1747533616970,-4.2568464,-1.3916144,0.03441207,4.2035336,-1.8716697,4.743623,291
1747533616980,-4.8974967,-1.6461661,-0.0741934,3.5867455,-0.53742594,5.0536146,292
1747533616990,-5.5952563,-2.204569,-0.027090356,2.2935145,1.045557,5.24696,293
1747533617000,-6.3535423,-3.8024118,0.3287451,0.92038846,1.6879115,3.3859432,294
1747533617010,-6.683264,-4.209011,0.3360668,-1.7928401,1.1808456,1.6916399,295
1747533617020,-6.851175,-4.3456836,0.28237423,-2.700978,0.95447695,-0.12783173,296
1747533617030,-6.60589765,-3.7897209,0.3232538299999999,-3.28287875,1.00401172,-2.65224215,297
1747533617040,-6.5053463,-3.5012453,0.37413976,-3.3625073,1.055677,-3.4253578,298
1747533617050,-6.399425,-2.7990925,0.86884385,-2.6221485,0.83729786,-5.240036,299
1747533617060,-5.984284,-1.4052817,1.1673259,-1.5456988,0.47404268,-5.524994,300
1747533617070,-5.624543,-1.0884954,1.432372,-0.39627838,-0.011717909,-5.701828,301
1747533617080,-5.307269,-0.895202,1.5522041,0.7813715,-0.6215818,-6.0389843,302
1747533617090,-4.847221149999999,-0.2331966815,1.38014375,1.7385116,-1.226652,-6.5050373,303
1747533617100,-4.7986536,-0.043930303,1.3064384,2.4458473,-2.1310616,-7.3306174,304
1747533617110,-4.740201949999999,0.1117782235,1.26165395,2.30762925,-2.2479743,-7.4238282,305
1747533617120,-4.39217635,0.658222375,1.1654954,1.128381365,-2.44717875,-7.5681715,306
1747533617130,-4.284913,0.7665838,1.1326697,0.68336713,-2.4351945,-7.567639,307
1747533617140,-4.049398,0.89007676,1.0492021,-0.73290193,-2.2077606,-7.5516596,308
1747533617150,-3.5007572,0.95597225,0.8510276,-3.197924,-1.1653993,-7.618239,309
1747533617160,-3.23717545,0.8434618700000001,0.9518233,-4.275439,-0.5001417,-7.7418094,310
1747533617170,-3.11648905,0.75389284,1.18807065,-5.38171605,0.1134506665,-8.00253285,311
1747533617180,-3.0768297,0.72118914,1.3491484,-5.6320534,0.19973709,-8.081096,312
1747533617190,-3.0088598,0.8064871650000001,1.7741741,-5.3865097,-0.214118165,-8.2398205,313
1747533617200,-2.976034,0.8268659,1.7926004,-5.0568104,-0.53103435,-8.30853,314
1747533617210,-2.9352765,0.97134785,1.63725805,-4.422711700000001,-1.1049456,-8.453139499999999,315
1747533617220,-2.9184365,1.0338265,1.5451264,-4.288222,-1.196292,-8.486962,316
1747533617230,-2.8088548,1.1491435,1.2210184000000002,-4.357198,-0.5219795815,-8.666459,317
1747533617240,-2.82191195,1.22101845,1.16268865,-4.4991446,-0.058056913,-8.749017,318
1747533617250,-2.8496125,1.2337095,1.1858741,-4.680772,0.3653857,-8.767126,319
1747533617260,-2.84863615,1.2250454,1.2443258,-4.725513,0.542485915,-8.782039999999999,320
1747533617270,-2.8847566,1.2710502,1.5265781,-4.5329667,1.07192235,-8.809737,321
1747533617280,-3.0575492,1.3694052,1.6654466,-4.4123254,1.1574098,-8.795356,322
1747533617290,-3.17847965,1.500586,1.7696591000000002,-4.172641,1.2665994,-8.64249,323
1747533617300,-3.137844,1.5121787,1.7838144,-4.033091,1.113734,-8.3575325,324
1747533617310,-3.0026364,1.4697127,1.7894278,-4.070908,0.793622,-8.31066,325
1747533617320,-2.919901,1.4062579,1.7313421,-4.185424,0.42184472,-8.266452,326
1747533617330,-2.7392986,1.4074782,1.3999124,-4.335626,0.221575,-8.153534,327
1747533617340,-2.61031425,1.5249917,1.18831475,-4.77771115,0.4548679399999999,-7.69653585,328
1747533617350,-2.5828578,1.5641629,1.1407236,-4.8394966,0.5811018,-7.5793567,329
1747533617360,-2.54124605,1.58185705,1.10801995,-4.8639975,0.90654004,-7.193198,330
1747533617370,-2.3068292,1.5788063,1.0047837,-4.7755804,1.2197278,-6.896522,331
1747533617380,-1.9134089,1.2963101,0.9296141,-4.50313935,1.4578144000000002,-6.85204715,332
1747533617390,-1.7581885,1.1575636,0.9183875,-4.3145875,1.42239435,-6.847786149999999,333
1747533617400,-1.7523311,1.2305366,0.8171036,-4.26958,1.3885722,-6.789463,334
1747533617410,-1.6571487,1.3059504,0.61746484,-4.36066,1.3773869,-6.5146246,335
1747533617420,-1.4184607,1.3349931,0.52472305,-4.835768,1.48870705,-5.891178849999999,336
1747533617430,-0.8639627,1.2324891,0.42270714,-5.102617,1.5851135,-5.6293902,337
1747533617440,-0.6386978,1.2649487,0.3943965,-5.3044844,1.6527578,-5.336975,338
1747533617450,-0.41099238,1.3845367,0.28676724,-5.403554,1.7662084,-5.041897,339
1747533617460,-0.20061506,1.5553769,0.028798755,-5.4706655,1.9829898,-4.7755804,340
1747533617470,0.111290105,1.8580079,-0.12202863,-5.2767873,2.2812638,-4.607269,341
1747533617480,0.81271064,2.6426518,-0.051740136,-3.88715,2.8575718,-4.115649,342
1747533617490,1.0140579,3.005565,0.1461903,-2.8575718,2.6551716,-3.581419,343
1747533617500,1.4731296,3.2164304,0.43100512,-1.613343,1.8263959,-3.057309,344
1747533617510,1.8065119,3.4138727,0.6657882,-0.11930962,0.45007423,-2.5577,345
1747533617520,2.079856,3.6374292,0.55693865,1.8807244,-1.222391,-1.8743328,346
1747533617530,2.430078,3.8426812,-0.31581008,4.2786345,-2.2897859,-0.94595486,347
1747533617540,2.3719923,3.986187,-0.7485236,4.6994143,-2.310026,-0.4346279,348
1747533617550,2.3529558,3.989604,-1.0538392,4.6424227,-2.095908,0.035153728,349
1747533617560,2.3639384000000003,3.94957865,-1.0606728,4.424576,-1.9062908,0.4527374,350
1747533617570,2.3228148,3.90223145,-0.96036528,4.3747748,-1.87380025,0.68443242,351
1747533617580,1.9519699,3.6772106,-0.2677308,4.4261737,-1.9622171,1.5142734,352
1747533617590,1.7730759,3.4787917,-0.051496077,5.445632,-3.192065,3.095126,353
1747533617600,1.5046129,3.2176507,0.024649782,6.000102,-3.8690405,3.8402784,354
1747533617610,1.3335288,2.9233177,0.008542004,6.702377500000001,-4.715126700000001,4.6751795000000005,355
1747533617620,1.1602482,2.6204426,-0.065407336,6.907707,-4.9582734,4.8959556,356
1747533617630,0.56694496,2.1813836,-0.2711476,7.556986,-5.1681304,5.4562845,357
1747533617640,0.28798756,1.9946798,-0.3482697,7.7977357,-4.785168,5.596367,358
1747533617650,-0.0036608586,1.9143851,-0.33045352,7.9932117,-4.2253714,5.682121,359
1747533617660,-0.34558508,1.8765563,-0.28579104,8.111989,-3.3683662,5.7577543,360
1747533617670,-0.6213697,1.8489777,-0.16693515,8.132762,-2.1422467,5.8461714,361
1747533617680,-1.3918585,1.8687464,0.33509058,7.994277,-0.3009372,6.1327276,362
1747533617690,-1.7174308,1.8362867,0.53814626,7.861652,0.7914915,6.327671,363
1747533617700,-1.9468447,1.7528191,0.7192367,7.5111794,1.8242654,6.372945,364
1747533617710,-1.9468447,1.7528191,0.7192367,7.2240907,2.1957764,6.354569,365
1747533617720,-2.55772,1.7479379,1.4057697,6.3654876,2.9561088,6.314355,366
1747533617730,-2.8747504,1.6964419,2.1589303,5.924468,2.1880531,6.501309,367
1747533617740,-2.869625,1.6041883,2.209206,6.0661483,1.5297197,6.677078,368
1747533617750,-2.7505252,1.5138872,2.1040175,6.2525697,1.3864417,6.671219,369
1747533617760,-2.7768834,1.3918585,2.2143314,6.544452,1.8098843,6.3298016,370
1747533617770,-2.8679166,1.3547617,2.5562556,6.808105,1.7241305,6.146576,371
1747533617780,-2.886465,1.2595794,2.852541,7.175089,1.4093449,5.988917,372
1747533617790,-2.771758,1.1839217,2.8671844,7.4477963,0.8969527,5.7955713,373
1747533617800,-2.5647976,1.1539028,2.6797485,7.518104,0.34301516,5.5521584,374
1747533617810,-2.1132917,1.244448,1.956607,7.031278,0.34248254,5.1564126,375
1747533617820,-1.9896767,1.26519275,1.8049254,6.396913,0.88523477,4.942827,376
1747533617830,-1.7423246,1.3508569,1.5448823,5.762548,1.427987,4.7292414,377
1747533617840,-1.8316495,1.5456146,1.5829554,5.51806975,1.61174515,4.71272995,378
1747533617850,-1.8326258,1.5641629,1.57002035,5.01047125,2.1305289,4.81978925,379
1747533617860,-1.81712825,1.56879995,1.51608365,4.674114149999999,2.65330745,4.9926285,380
1747533617870,-1.8338462,1.5165718,1.3506129,4.396879,3.333745,5.129248,381
1747533617880,-1.9636846,1.5277983,1.2339534,4.04694,3.9468048,5.255482,382
1747533617890,-2.0981603,1.5072975,1.2024701,3.5260253,4.5151234,5.4376426,383
1747533617900,-2.2736373,1.3291358,1.4572659,2.13479,4.7345676,5.6783924,384
1747533617910,-2.3837073,1.2886223,1.6185876,1.6873789,4.3739758,5.774266,385
1747533617920,-2.5346565,1.12412775,1.58563995,1.4013554,4.0533314,5.947904,386
1747533617930,-2.5782208,1.0423685,1.5426859,0.990695915,3.70925085,6.3172845,387
1747533617940,-2.7546742,0.8236932,1.3891739,0.82344943,3.6245623,6.44485,388
1747533617950,-2.8058041,0.461878335,1.37587275,0.522512215,3.4208305,6.41901735,389
1747533617960,-2.8604729,-0.100795645,1.39307875,0.2354234399999999,2.9656962,6.21635085,390
1747533617970,-2.8798754,-0.5227706,1.4682485,0.66845345,2.0399814,5.5782576,391
1747533617980,-3.214234,-0.5605995,1.3974718,1.1158645,1.5856462,5.4216633,392
1747533617990,-3.6675703,-1.00051267,1.06836055,1.4626081,1.284709,5.4072824,393
1747533618000,-3.832919,-1.0936205,0.9896521,1.7465011,1.0833739,5.400891,394
1747533618010,-4.20913335,-1.2061309,0.8301607,1.59896195,1.1653993,5.5207332000000005,395
1747533618020,-4.9044526,-1.556109,0.562673975,1.13850137,1.3946975,5.780657550000001,396
1747533618030,-5.6335735,-2.6970766,0.24015234,-0.03834952,1.7757958,5.7779946,397
1747533618040,-6.418706,-4.484552,-0.0741934,-1.500425,2.1230721,3.235741,398
1747533618050,-6.5021734,-4.8313575,0.024161667,-1.3683321,2.4351945,1.5275892,399
1747533618060,-6.6449466,-4.700299,0.29042813,-1.06286755,2.4258734000000004,0.720385075,400
1747533618070,-6.7364683,-4.2170653,0.677747,0.23435818,1.8881812,-1.3992249,401
1747533618080,-6.713283,-3.7150395,0.9205839,1.9832561,0.170708625,-3.2735578,402
1747533618090,-6.4279795,-2.5601604,1.1014304,2.6754117,-0.76272935,-4.0922136,403
1747533618100,-6.3281603,-2.0073707,1.1392592,2.954511,-1.4466292,-4.6552057,404
1747533618110,-6.215528000000001,-1.7850346,1.17598985,2.96596255,-1.70229265,-4.89489035,405
1747533618120,-5.737786,-1.155123,1.26202,2.7041738,-2.4586303,-5.8546934,406
1747533618130,-5.3389964,-0.7394935,1.1722069,1.44449865,-2.6732812,-6.8222198,407
1747533618140,-4.9721785,-0.08956901,0.92278045,0.6940198,-2.6530411,-7.1926656,408
1747533618150,-4.8272085,0.06931226,0.7770783,-0.1486044,-2.4000409,-7.3870764,409
1747533618160,-4.728487250000001,0.11385271,0.714965715,-0.96299905,-2.0735373,-7.566041,410
1747533618170,-4.3664284,0.21501444,0.5801241,-1.6974989,-1.6916399,-7.7556577,411
1747533618180,-3.81193025,0.269195155,0.54729838,-3.09752275,-0.555269095,-8.297078500000001,412
1747533618190,-3.62266365,0.288353635,0.5848831999999999,-3.48927375,-0.11211909,-8.509599000000001,413
1747533618200,-3.5317523,0.3104408,0.6228341,-3.617638,0.07829694,-8.597217,414
1747533618210,-3.3748236,0.30677995,0.68994987,-3.7417414,0.3888215,-8.762865,415
1747533618220,-3.2588966,0.3180066,0.75340474,-3.7571878,0.57311225,-8.930645,416
1747533618230,-3.2047157,0.46712556,0.91448253,-3.42376,0.6269081,-9.261942,417
1747533618240,-3.1908045,0.55718267,0.8808026,-3.1989892,0.6066681,-9.43558,418
1747533618250,-3.1908045,0.55718267,0.8808026,-3.1989892,0.6066681,-9.43558,419
1747533618260,-3.1933670000000003,0.756089375,0.7563333999999999,-2.9720879,0.669252395,-9.6678075,420
1747533618270,-3.240348,0.9706156,0.6816519,-2.8546425,0.9552759,-9.60575575,421
1747533618280,-3.10111325,1.10679965,0.7679261,-2.8130971,1.2037488500000002,-9.48804425,422
1747533618290,-3.057305,1.1033828,0.8122225,-2.7851338,1.3038837,-9.476593,423
1747533618300,-3.155172,1.091668,0.8507836,-2.7318707,1.5632756,-9.410013,424
1747533618310,-3.2981894,1.0811737,0.9247329,-2.6823359,1.7789917,-9.286976,425
1747533618320,-3.3760438,1.0645777,1.0682385,-2.5976474,1.9297266,-9.169796,426
1747533618330,-3.5461519,1.0657979,1.1807489,-2.4080303,2.3318639,-9.133045,427
1747533618340,-3.6867287,1.0631135,1.1863623,-2.5049694,2.5699506,-9.238506,428
1747533618350,-3.8395085,1.1334019,1.1924638,-2.8309402,2.787797,-9.343434,429
1747533618360,-3.8687954,1.1648853,1.2246792,-3.260242,2.7883296,-9.360478,430
1747533618370,-3.8641584,1.2095478,1.2324891,-3.7667751,2.6045716,-9.250224,431
1747533618380,-3.5507889,1.2503053,1.2935034,-4.577974,1.887116,-8.762865,432
1747533618390,-3.1908045,1.2261436,1.2742229,-4.743623,1.5009576,-8.531171,433
1747533618400,-2.8254507,1.151218,1.0562798,-4.928446,1.4764565,-8.429971,434
1747533618410,-2.68890075,1.10521325,0.97805945,-5.0304452,1.6048209,-8.392420000000001,435
1747533618420,-2.3512475,1.0113733,0.82003236,-5.2885056,2.1358552,-8.26805,436
1747533618430,-2.1088986,0.91814333,0.95426387,-5.3337793,2.6194854,-7.960189,437
1747533618440,-2.1494124,1.0282133,1.0636015,-4.819789,2.8740835,-7.6187716,438
1747533618450,-2.0920587,1.1355984,1.1180263,-4.427239,2.7308054,-7.112238,439
1747533618460,-1.98150075,1.1728171,1.1364526499999998,-4.2506715,2.5443841000000003,-6.85417775,440
1747533618470,-1.5668476,1.2395668,1.061405,-3.8764973,1.8221349,-6.1753383,441
1747533618480,-1.163909,1.4318839,0.707766,-3.9808934,0.9550096,-5.7646785,442
1747533618490,-0.8712844,1.658369,0.59989274,-3.983024,0.92944324,-5.701828,443
1747533618500,-0.6965394,1.7492803,0.53167872,-3.91031965,1.22558677,-5.67759325,444
1747533618510,-0.346073185,1.8981553,0.50239185,-3.7004625,1.74730005,-5.60409,445
1747533618520,-0.06064823,2.0798559,0.68262812,-3.28634085,2.03625305,-5.43125075,446
1747533618530,0.6369894,2.9508963,1.1829455,-1.2719258,1.7129452,-4.402738,447
1747533618540,0.9850151,3.367014,1.2136967,-0.43516052,1.3528858,-3.8434741,448
1747533618550,1.45336085,3.98911575,1.20881555,0.30253512,1.1190603,-3.1451933,449
1747533618560,1.6869236,4.258555,1.2227268,1.5606124,0.96566224,-1.7188042,450
1747533618570,1.8080982,4.5001713500000005,1.45616755,2.52387785,0.54754595,-0.4359594699999999,451
1747533618580,1.8211553,4.5685077,1.5334117,2.7904603,0.304133,-0.06338324,452
1747533618590,1.6844832,4.6456294,1.6837509,3.387541,-0.4809669,0.7142598,453
1747533618600,1.654708,4.5494714,1.7152344,4.0703754,-1.25861,1.4034859,454
1747533618610,1.7664863,4.0523267,1.4379853,5.1271176,-2.1182783,2.2961776,455
1747533618620,1.7664863,4.0523267,1.4379853,5.1271176,-2.1182783,2.2961776,456
1747533618630,1.3911263,3.8182757,1.2937474,5.569735,-3.1521175,3.4445326,457
1747533618640,1.1460928,3.7069855,0.9938011,5.3998256,-3.5217643,4.3324304,458
1747533618650,0.6574902,3.2383955,0.7482795,4.3963466,-3.8099184,6.1124873,459
1747533618660,0.26236153,3.0536442,0.81441903,4.0772996,-4.0980725,6.8352695,460
1747533618670,0.083223515,2.9367409,0.825279565,4.0224385,-4.382498,7.5330176,461
1747533618680,-0.47810817,2.5962808,0.7487676,4.1800976,-4.4687843,8.184427,462
1747533618690,-0.95426387,2.3863916,0.65895456,4.5023403,-4.2631884,8.760202,463
1747533618700,-1.8653295,1.9114565,0.5857374,5.3012886,-3.3625073,9.580456,464
1747533618710,-2.3200083,1.8638653,0.5784157,5.5564194,-2.7803402,9.897904,465
1747533618720,-2.55881825,1.86801425,0.52118425,5.480253,-2.50443675,10.103234,466
1747533618730,-3.1581008,1.8265244,0.29994637,4.549212,-1.6106799,10.869959,467
1747533618740,-3.4387667,1.7276812,0.17791773,3.4951327,-1.1526161,11.232148,468
1747533618750,-3.9600728,1.5912533,0.22843759,1.2144015,-0.49215218,11.753595,469
1747533618760,-4.148241,1.475082,0.379509,0.34461305,-0.2647182,11.875568,470
1747533618770,-4.369113,1.2478647,0.64040625,-0.17150758,-0.128897,11.789282,471
1747533618780,-4.5924253,0.97549677,0.976229,-0.23435818,-0.1587244,11.5357485,472
1747533618790,-4.7247043,0.77195305,1.3720899,0.15286545,-0.45859635,11.202321,473
1747533618800,-4.8499055,0.6164886,1.8692344,1.9510318,-2.000034,10.712832,474
1747533618810,-5.0883493,0.5696296,2.123542,3.0333405,-2.9885995,10.743725,475
1747533618820,-5.15534325,0.52618743,2.0955975,3.54120545,-3.38221465,10.762367,476
1747533618830,-4.9697375,0.37267542,1.7794214,4.6695867,-4.1587925,10.614295,477
1747533618840,-4.2256074,0.5261874,1.0704352,4.637629,-3.9691753,10.178069,478
1747533618850,-4.0176706,0.6726217,0.989164,3.0850058,-2.630138,9.106946,479
1747533618860,-3.7865481,0.6887296,1.1006982,2.160889,-1.816276,8.646219,480
1747533618870,-3.39874135,0.6168547,1.42492825,1.4306501,-1.1664646,8.196145,481
1747533618880,-3.3006303,0.5930591,1.5336558,0.83889574,-0.7882957,7.6576533,482
1747533618890,-2.9227076,0.48054871,1.68826605,0.32011196,-0.9422264,7.0195603,483
1747533618900,-2.8613272,0.44808912,1.658369,0.015978966,-1.3118732,6.8001156,484
1747533618910,-2.8640118,0.42099872,1.5746574,-0.151001242,-1.51294185,6.726612299999999,485
1747533618920,-2.8736521,0.40781964,1.5185242,-0.503603775,-1.8975023,6.604639499999999,486
1747533618930,-2.8309420000000003,0.37072296,1.3914924,-0.8825716,-2.2445122,6.5034395,487
1747533618940,-2.7095234,0.27895743,0.9874556,-1.464206,-2.700978,6.375608,488
1747533618950,-2.7336853,0.122760795,0.65090066,-2.143312,-2.6812706,5.888782,489
1747533618960,-2.800557,-0.1683995,0.2774931,-2.2351911,-2.57554315,5.703958500000001,490
1747533618970,-2.78811,-0.46834585,0.17816179,-2.3073628,-2.3110912,5.156945,491
1747533618980,-2.575536,-0.93254274,0.6037976,-1.8828549,-2.543319,4.7335024,492
1747533618990,-2.5003664,-0.98452693,0.65334123,0.3174488,-3.7534592,4.014449,493
1747533619000,-2.4744964,-0.9452337,0.53082454,1.6112125,-4.3223104,3.8748994,494
1747533619010,-2.55100835,-0.90923527,0.40415882,2.1435784,-4.4975464,3.8709047,495
1747533619020,-2.8081229,-0.88275504,-0.12813005,3.2474587,-4.6440206,3.956925,496
1747533619030,-3.269147,-1.0770246,-0.8817788,2.7206855,-3.2197618,4.0629187,497
1747533619040,-3.652073,-1.1499978,-1.1021625,2.0378509,-2.2514365,4.061321,498
1747533619050,-4.109192,-1.2481087,-1.1997855,1.2820457,-1.2687299,4.0309606,499
1747533619060,-4.682238,-1.4948506,-1.3449996,0.42290998,-0.4165184,3.9031289,500
1747533619070,-5.1908536,-1.9507496,-1.5849078,-0.51292485,0.32490566,3.5776906,501
1747533619080,-5.8219855,-2.87743495,-2.1381856,-2.218946,1.80296,1.9600866,502
1747533619090,-6.0700698,-3.03399765,-2.05862285,-2.75557275,2.6160232,0.258060335,503
1747533619100,-6.1802616,-3.0653589,-1.9077955,-2.7292075,2.783536,-0.30146983,504
1747533619110,-6.1604934,-2.9613905,-1.4409139,-1.6026903,2.7041738,-1.6511599,505
1747533619120,-5.947431,-2.5679703,-0.87250465,-0.05273059,2.1976407,-2.591256,506
1747533619130,-5.9247336,-1.3835605,-0.1164153,3.5776906,0.63436496,-3.375823,507
1747533619140,-5.600382,-1.2249234,0.039537273,4.8959556,-0.12197278,-3.6559875,508
1747533619150,-5.236248,-1.1519502,0.09859913,4.8959556,-0.12197278,-3.6559875,509
1747533619160,-5.016597,-0.9886759,0.12593354,5.6347165,-1.3006879,-4.785168,510
1747533619170,-4.84234,-0.699224,0.12813005,5.10528,-1.4801849,-5.3566823,511
1747533619180,-4.4252462,-0.056377225,0.16522676,4.1140513,-1.3640711,-5.8211374,512
1747533619190,-4.1379905,0.11251039,0.2443013,1.2548815,-0.19973709,-6.6861324,513
1747533619200,-3.9854548,0.16449459,0.38512233,0.13422333,0.46498793,-6.9439263,514
1747533619210,-3.9273691,0.157905045,0.466271365,-0.311057215,0.7605988149999999,-7.04326215,515
1747533619220,-3.7333438,0.11177822,0.66944903,-1.4455639,1.5164039,-7.32103,516
1747533619230,-3.5061266,-0.008053889,0.8283303,-2.3446472,2.0698087,-7.756723,517
1747533619240,-3.461464,-0.03099527,0.8712844,-2.604039,2.2498386,-7.99694,518
1747533619250,-3.4939234,0.010494461,0.9618296,-2.7979171,2.3323965,-8.163121,519
1747533619260,-3.4434037,0.058573738,1.0626253,-2.89432355,2.23705525,-8.23769,520
1747533619270,-3.295261,0.09786696,1.1221752,-3.1132355,1.834918,-8.49069,521
1747533619280,-2.9984872,0.20305562,0.86249834,-3.3534524,1.861017,-9.025986,522
1747533619290,-2.9772544,0.28408262,0.6894617,-3.546798,2.2844596,-9.258213,523
1747533619300,-3.0043447,0.36413342,0.6550496,-3.6820867,2.8367991,-9.39723,524
1747533619310,-3.073657,0.42392743,0.7241178,-3.70738675,3.0921963,-9.429987,525
1747533619320,-3.107581,0.4458926,0.8339436,-3.6623793,3.6985981,-9.50429,526
1747533619330,-3.2310739,0.4937278,1.0030752,-3.0738206,4.1428137,-9.582586,527
1747533619340,-3.3762882,0.47005424,1.0182068,-2.7499802,4.2429485,-9.626795,528
1747533619350,-3.4636605,0.48835856,1.0225998,-2.4682178,4.362258,-9.618805,529
1747533619360,-3.4636605,0.48835856,1.0225998,-2.4682178,4.362258,-9.618805,530
1747533619370,-3.8236446,0.65993077,1.0513986,-2.1640847,4.514058,-9.32639,531
1747533619380,-3.8890522,0.77024466,1.1434082,-2.0271983,4.436826,-9.061672,532
1747533619390,-3.7946022,0.7490117,1.2666571,-1.7449032,4.4352283,-8.859804,533
1747533619400,-3.7614102,0.7409578,1.3162007,-1.6698021,4.3574643,-8.834771,534
1747533619410,-3.546396,0.754625,1.2503053,-1.7875137,3.9563923,-8.823052,535
1747533619420,-3.4058187,0.77756643,1.1463369,-1.9845877,3.8429415,-8.778845,536
1747533619430,-3.2942846,0.8581053,1.0589644,-2.231729,3.794472,-8.660068,537
1747533619440,-3.2381516,0.993313,1.0211354,-2.4580977,3.8599858,-8.480571,538
1747533619450,-3.0712163,1.2085714,1.1346222,-2.6391926,4.107127,-8.066715,539
1747533619460,-2.99433825,1.2305366000000002,1.16720385,-2.62108315,4.0424122,-7.9631182,540
1747533619470,-2.7480845,1.3347491,1.2049106,-2.5497105,3.748133,-7.5756283,541
1747533619480,-2.647899,1.3441453,1.2052767,-2.540123,3.4344127,-7.2549834,542
1747533619490,-2.280227,1.3181533,1.2439598,-2.4857945,2.9332056,-6.911968,543
1747533619500,-1.5207207,1.3542737,1.3039979,-2.1891184,2.0671456,-6.502374,544
1747533619510,-1.219066,1.4013767,1.1373067,-2.1606226,1.96994025,-6.3729445,545
1747533619520,-0.95621634,1.4523847,0.91423845,-2.2716765,1.7960359,-5.918609,546
1747533619530,-0.6272271,1.5509838,0.8083176,-2.4538367,1.897236,-5.575594,547
1747533619540,-0.4127008,1.6205401,0.79611474,-2.6130936,2.066613,-5.22672,548
1747533619550,-0.024649782,1.8904674,0.8095379,-2.700978,2.011752,-4.6397595,549
1747533619560,0.14521407,2.1789432,0.9135063,-2.3148196,1.9371834,-4.247742,550
1747533619570,0.434543925,2.7062289,1.08666495,-1.35847845,1.7931064,-3.59739805,551
1747533619580,0.5205741,2.852053,1.1524384,-1.0056096,1.7156084,-3.3561156,552
1747533619590,0.90642864,3.0685318,1.1702545,-0.34514567,1.2873721,-2.843191,553
1747533619600,2.0947433,3.4690297,1.424074,1.2713932,-0.08575379,-2.0831246,554
1747533619610,2.3697958,3.7675118,1.3069266,2.02347,-0.73130405,-1.6080167,555
1747533619620,2.631181,4.024016,1.0948408,2.591256,-0.9720538,-0.9395633,556
1747533619630,2.741251,4.1741114,0.9000831,2.8751488,-1.0540792,-0.18056233,557
1747533619640,2.6914632,4.357642,0.83443177,2.9827404,-1.158475,0.7089335,558
1747533619650,2.5460052,4.3246946,0.8332114,3.0855384,-1.7699369,2.1379857,559
1747533619660,2.4527755,4.1384788,0.7819594,3.260242,-2.020274,2.8831382,560
1747533619670,2.1749163,3.74396015,0.6778689899999999,3.4461305,-2.2849922,3.603257,561
1747533619680,2.0046864,3.6205893,0.64260274,3.57689175,-2.7497139,4.73403535,562
1747533619690,1.3335288,2.9999516,0.5544981,3.6940708,-3.3161683,5.722334350000001,563
1747533619700,0.9340071,2.698785,0.536926,3.7950046,-3.707653,6.331932,564
1747533619710,0.44662476,2.498414,0.52472305,4.101801,-4.0251017,6.9140987,565
1747533619720,-0.247107962,2.1464835,0.3693806699999999,4.531635,-4.248275,7.5623126,566
1747533619730,-0.857373085,1.90950385,0.248206235,4.8932925,-4.0562606500000005,8.279768,567
1747533619740,-1.2830089,1.7806417,0.18377511,4.991297,-3.8418763,8.598282,568
1747533619750,-1.701323,1.6632501,0.16107778,4.9300437,-3.4530547,8.891763,569
1747533619760,-1.9087716,1.60565265,0.17645339,4.84242585,-3.2306807,9.02572,570
1747533619770,-2.4830384,1.4650756,0.3192269,4.501275,-2.6482475,9.384447,571
1747533619780,-2.8061702,1.3579346,0.64357895,4.257862,-2.503904,9.534117,572
1747533619790,-2.8725538,1.364524,0.7307074,3.632552,-2.2684808,9.587913,573
1747533619800,-2.8953732,1.36635445,0.78220345,3.4788875,-2.23306075,9.586315,574
1747533619810,-2.911603,1.4062579,0.9405966,3.0786142,-2.0895162,9.56714,575
1747533619820,-3.0333874,1.453605,1.0118613,2.882073,-1.9526298,9.553824,576
1747533619830,-3.3538346,1.3757507,1.1985651,2.6727486,-1.5462314,9.632654,577
1747533619840,-3.4272957,1.3579346,1.2808125,2.6045716,-1.464206,9.592174,578
1747533619850,-3.478304,1.3755066,1.2991167,2.4655545,-1.5180018,9.51867,579
1747533619860,-3.4717143000000004,1.3972277,1.2593354,2.32760275,-1.52838815,9.480587,580
1747533619870,-3.4121644,1.462635,1.0504224,1.609082,-1.4205302,9.324793,581
1747533619880,-3.1685953,1.3862451,0.97208,0.5965481,-0.9289106,8.971125,582
1747533619890,-3.1229565,1.3562261,1.1290088,0.33822146,-0.9555422,8.794824,583
1747533619900,-3.167619,1.3764828,1.3013133,0.37337518,-1.1574098,8.734636,584
1747533619910,-3.2135018000000004,1.3873434,1.3415827,0.48975534,-1.3060142,8.7644635,585
1747533619920,-3.2279012,1.3530534,1.3740423,0.76059885,-1.6048209,8.790029749999999,586
1747533619930,-2.9447947,1.1402354,1.2329772,1.5733956,-2.031992,8.3239765,587
1747533619940,-2.94528285,1.1528043499999998,1.17440345,1.7566211,-1.7949706,8.01718,588
1747533619950,-2.94601515,1.18587415,1.04895803,1.7566211,-1.7949706,8.01718,589
1747533619960,-2.9550452,1.2339534,0.9596331,1.4258565,-0.9933591,7.710917,590
1747533619970,-3.0185,1.2180897,1.0243083,1.0231866,-0.63649553,7.619304,591
1747533619980,-3.1402845,1.0099089,1.3652563,0.3920173,-0.91612744,7.460047,592
1747533619990,-3.0670674,0.8266219,1.4514085,0.27643612,-1.3747238,7.2363415,593
1747533620000,-2.9123352,0.64040625,1.500464,0.376571,-2.004295,6.907707,594
1747533620010,-2.8300878,0.5758530749999999,1.4572658,0.5052016699999999,-2.26901325,6.715160750000001,595
1747533620020,-2.6890228,0.48689422,1.2246792,0.9150622,-2.9209552,6.151902,596
1747533620030,-2.7851813,0.6125837,0.8937377,1.0274476,-2.6354642,5.80143,597
1747533620040,-2.9950705,0.6587105,0.8163715,0.83889574,-2.3952472,5.793441,598
1747533620050,-3.1969059,0.43661842,0.9711038,0.78083885,-2.4458473,5.785984,599
1747533620060,-3.3614006,0.07541369,1.1292529,1.0082728,-2.667955,5.6810555,600
1747533620070,-3.4800124,-0.32093528,1.2603117,1.5371766,-3.018427,5.5521584,601
1747533620080,-3.8702598,-1.1397473,1.1648853,3.0642333,-3.7215014,5.2240567,602
1747533620090,-4.189243,-1.2263877,0.70020026,3.6464002,-3.472762,5.116465,603
1747533620100,-4.793772,-1.2010058,0.018792408,3.55052635,-2.978213,5.11832925,604
1747533620110,-5.358765,-1.4465274,-0.5444917,2.4991105,-1.0173275,5.1846423,605
1747533620120,-5.936937,-2.0647242,-0.9808661,0.7387609,0.6375608,5.0509515,606
1747533620130,-6.810417,-3.6298635,-0.98403883,-1.4466292,2.0975058,3.0983217,607
1747533620140,-7.200909,-4.147509,-0.97378844,-5.182512,1.9148128,1.5329156,608
1747533620150,-7.4618063,-4.101382,-1.0504224,-6.0714746,1.6719326,0.1486044,609
1747533620160,-7.2990203,-3.7614102,-1.1129011,-6.17480545,1.660481,-0.4615258,610
1747533620170,-7.13721035,-3.5989901,-1.05933055,-5.622998,1.6447684,-2.5811357,611
1747533620180,-5.886661,-2.294138,0.13960074,-2.0932446,1.6863136,-4.774515,612
1747533620190,-5.69495385,-1.3849028,0.761092525,0.4426174,1.2394352,-5.419,613
1747533620200,-5.610144,-1.1485333,0.87201655,2.7015107,0.25300032,-5.849367,614
1747533620210,-5.23576,-0.33509058,0.78806084,5.143097,-1.9808593,-6.7063723,615
1747533620220,-5.1092163500000005,-0.1662029751,0.68311622,5.08397465,-2.2783344000000003,-6.90238095,616
1747533620230,-4.6790657,0.3682824,0.4510178,4.1859565,-2.667955,-7.4557858,617
1747533620240,-4.3886375,0.7153318,0.42661208,2.908172,-2.3686156,-7.7386136,618
1747533620250,-4.2131605,1.0387076,0.4846977,0.9624664,-1.73212,-7.799866,619
1747533620260,-3.6908778,1.2005176,0.740591705,-0.6151901999999999,-1.129180325,-7.55139315,620
1747533620270,-3.5261393,1.1465809,0.76975656,-3.5766253,0.23755397,-7.085074,621
1747533620280,-3.223264,0.9581688,0.82296103,-4.74309,1.0471549,-7.0163646,622
1747533620290,-2.9955585,0.74535084,0.88983274,-5.6208677,1.8232001,-7.0339413,623
1747533620300,-2.7019577,0.42856455,1.0509106,-6.382532,3.0754185,-7.255516,624
1747533620310,-2.6043348,0.32386398,1.0289453,-6.3947825,3.6048548,-7.4738955,625
1747533620320,-2.557964,0.23966423,0.989164,-6.2488413,4.1992726,-7.8067904,626
1747533620330,-2.6062875,0.22453266,1.0438329,-5.975601,4.6003447,-8.042747,627
1747533620340,-2.6487532,0.26919514,1.1888028,-5.516472,4.8235173,-8.192416,628
1747533620350,-2.7436914,0.47225076,1.3818521,-4.4831653,4.8698564,-8.393219,629
1747533620360,-2.8127596,0.6108753,1.5409775,-3.904727,4.7121973,-8.449145,630
1747533620370,-2.9299073,0.74632704,1.6998588,-3.277286,4.346812,-8.404404,631
1747533620380,-3.0831752,0.8834872,1.794797,-2.696717,3.8067226,-8.240354,632
1747533620390,-3.134427,0.94303715,1.7725879,-2.2647521,3.3188314,-8.045942,633
1747533620400,-3.052424,0.88836837,1.5324354,-2.163552,2.886334,-7.910654,634
1747533620410,-2.9789627,0.7883049,1.3625716,-2.5454495,3.0700922,-8.122108,635
1747533620420,-3.0080056,0.7643873,1.2473766,-3.0652986,3.4333472,-8.362326,636
1747533620430,-3.1092894,0.822717,1.2122324,-3.5606465,3.790211,-8.499745,637
1747533620440,-3.1620057,0.9171671,1.4004005,-3.8722363,4.0890174,-8.511463,638
1747533620450,-3.0470545,0.9342511,1.4846002,-3.9745016,4.346812,-8.26805,639
1747533620460,-2.9179485,0.9442575,1.5766098,-3.8472025,4.3095274,-8.101869,640
1747533620470,-2.7876217,0.94254905,1.6207842,-3.54413485,3.9843553,-7.848336,641
1747533620480,-2.6465569,0.9850151,1.632987,-3.4594464,3.853594,-7.7625823,642
1747533620490,-2.39749645,1.21894395,1.4621469500000002,-3.2844767,3.30205355,-7.03047895,643
1747533620500,-2.3585694,1.2503053,1.3960074,-3.3289514,3.2405345,-6.8581724,644
1747533620510,-2.1674724,1.2456682,1.2859375,-3.5404065,3.1409323,-6.544985,645
1747533620520,-1.9505056,1.2134526,1.2210184,-4.107393399999999,3.1843418,-6.115683,646
1747533620530,-1.61334045,1.04981225,1.0158883,-4.4149885,3.3065808,-5.915946,647
1747533620540,-1.424074,1.018939,1.01479,-4.5801044,3.5867455,-5.722068,648
1747533620550,-1.1883147,1.0204034,1.006004,-4.6743803,3.8786278,-5.4866447,649
1747533620560,-1.0221118,1.0025872,0.99917036,-4.7596016,4.0112534,-5.320463,650
1747533620570,-0.97537483,1.03236215,1.02321003,-4.78143955,3.95878915,-5.2112735,651
1747533620580,-0.72582626,1.5275543,1.1226633,-4.805408,3.7571878,-4.7958207,652
1747533620590,-0.34900185,1.8235958,1.210768,-4.59129,3.5420043,-3.9888828,653
1747533620600,0.0605262,1.9727148,1.3149804,-4.2690473,3.4248252,-3.6804886,654
1747533620610,0.464685,2.0149367,1.5653832,-3.7193708,3.1382692,-3.448261,655
1747533620620,0.85322416,2.1289113,1.8782645,-2.8522456,2.4138892,-3.2751555,656
1747533620630,1.5421977,2.3607657,2.0325086,-0.17257284,0.31052458,-2.761698,657
1747533620640,1.9195102,2.5643096,1.952458,1.0114686,-0.40959418,-2.553439,658
1747533620650,2.1037736,2.9208772,1.671304,1.8823223,-0.91133374,-2.354767,659
1747533620660,2.2275105,3.3408997,1.3720899,2.3558323,-1.1132014,-2.0809941,660
1747533620670,2.46327,3.8451219,1.1478013,2.4937842,-1.2873721,-1.6943032,661
1747533620680,2.9530928,4.4528246,0.92937,2.406965,-1.7667412,-1.1147993,662
1747533620690,3.0165475,4.5516675,0.550959245,2.2626216,-2.8703551,0.5885586,663
1747533620700,3.0185,4.524577,0.41026023,2.3888555,-3.1707597,1.8695391,664
1747533620710,2.97347135,4.38595265,0.25687025,2.47407665,-3.1409322,2.35130495,665
1747533620720,2.732221,3.913214,-0.06028214,2.6897926,-3.0450585,3.5952675,666
1747533620730,1.8833898,3.2835462,-0.09200958,2.912433,-3.059972,4.6381617,667
1747533620740,1.210524,2.9918978,-0.021721095,3.0924628,-3.1808796,5.1127367,668
1747533620750,0.66993713,2.723679,-0.029530926,3.2911346,-3.118029,5.617672,669
1747533620760,0.436252325,2.59457265,-0.0061014304999999,3.37289355,-3.04505845,5.8554923500000005,670
1747533620770,-0.23893206,2.246547,0.19109683,3.6096487,-2.9134984,6.588128,671
1747533620780,-1.2285842,1.8943723,0.5108118,3.9627838,-3.0418627,7.8217044,672
1747533620790,-1.5761217,1.7245085,0.6169767,4.034689,-3.1510522,8.300541,673
1747533620800,-1.709499,1.6468983,0.66505597,4.064250250000001,-3.22615335,8.4898915,674
1747533620810,-1.9630745,1.5147413,0.73119552,4.12443775,-3.3406692500000004,8.818792,675
1747533620820,-2.2968228,1.3540297,0.7214332,4.1870217,-3.2607746,9.1133375,676
1747533620830,-2.617514,1.2197981,0.74437463,4.0634513,-2.7079022,9.155948,677
1747533620840,-2.8671844,1.2720264,0.8407772,3.983024,-2.3638217,9.2475605,678
1747533620850,-3.2200913,1.3198615,0.92961407,3.8418763,-1.9089539,9.5373125,679
1747533620860,-3.5200377,1.3306,1.0894716,3.6298885,-1.6506273,9.853164,680
1747533620870,-3.684776,1.2932593,1.2178457,3.2490566,-1.5840483,10.06888,681
1747533620880,-3.776542,1.1499978,1.475082,2.3377228,-1.8935076,10.126937,682
1747533620890,-3.6425543,1.0777569,1.5839316,2.0698087,-2.120409,9.903764,683
1747533620900,-3.5022216,1.0323621,1.7166986,2.0080235,-2.3164175,9.552226,684
1747533620910,-3.50405205,1.0725096,1.77319785,2.0698088500000003,-2.4748756,9.39004,685
1747533620920,-3.6823356,1.1846539,1.8455609,2.3451798,-2.996589,9.019061,686
1747533620930,-3.8434136,0.94303715,1.7186512,2.912433,-3.7646446,8.710668,687
1747533620940,-3.7753217,0.81539524,1.5190123,3.038667,-4.0266995,8.491223,688
1747533620950,-3.6303515,0.76121455,1.2341975,2.9774141,-4.042679,8.2297,689
1747533620960,-3.53297275,0.769634545,1.069947,2.667955,-3.7225666,7.9649825,690
1747533620970,-3.2532833,0.8190561,0.56548065,2.030394,-3.0722227,7.731157,691
1747533620980,-2.70122565,0.837238365,0.6374775500000001,0.2277002815,-1.65941565,7.072290649999999,692
1747533620990,-2.6631527,0.84761083,0.7497439,-0.011185277,-1.5169365,6.9449916,693
1747533621000,-2.6016502,0.8300387,0.93278676,-0.22849922,-1.4919028,6.7324715,694
1747533621010,-2.4830384,0.7890371,1.0108851,-0.22956449,-1.6990968,6.4890585,695
1747533621020,-2.404208,0.77024466,0.959145,-0.08575379,-1.8141453,6.269081,696
1747533621030,-2.2397132,0.7297312,0.7141115,0.1555286,-2.0213394,5.6794577,697
1747533621040,-2.4225123,0.75096416,0.605262,0.17576863,-2.2008364,5.483449,698
1747533621050,-2.5054917,0.5344854,0.66822875,0.270577165,-2.63067055,5.47359515,699
1747533621060,-2.477669,0.32410803,0.7492558,0.7568704,-3.5483959,5.382249,700
1747533621070,-2.4796216,0.07248501,0.77781045,1.355549,-4.053864,5.1665325,701
1747533621080,-2.52501645,-0.037340761,0.57023975,2.2743397,-4.5348306,4.9103365,702
1747533621090,-2.5342906,-0.053204484,0.4881145,3.0056436,-4.4554687,4.833637,703
1747533621100,-2.5804174,-0.158515192,0.373163535,3.5404063,-3.97290385,4.80514135,704
1747533621110,-2.8444872,-0.43637437,0.17523311,4.260525,-2.9960563,4.7217846,705
1747533621120,-3.320155,-0.6806757,0.0976229,4.220045,-2.4975126,4.811267,706
1747533621130,-3.752136,-1.0467615,0.05662128,4.036287,-2.0751352,4.9438925,707
1747533621140,-4.269049,-1.4362769,0.009030119,3.7358825,-1.5899072,4.971589,708
1747533621150,-4.818422,-1.8338462,0.0014643435,3.3587787,-1.0375676,4.8453555,709
1747533621160,-5.963051,-2.7768834,0.06858008,1.8748654,0.055926383,4.1321607,710
1747533621170,-6.1996641,-3.39398205,0.34778159,0.93690007,0.333960415,2.5662221,711
1747533621180,-6.2959447,-3.5524971,0.43515408,0.67005134,0.30360037,1.9419771,712
1747533621190,-6.525603,-3.543955,0.5469323,0.27803403,0.10865697,0.6775082,713
1747533621200,-6.7464743,-3.167131,0.66969305,-0.07403588,0.009054748,-1.6378441,714
1747533621210,-6.60553115,-2.97640015,0.7125251,-0.17843179,0.050067431,-2.25276805,715
1747533621220,-6.1653743,-2.2977989,0.8432178,-0.35899413,0.027696876,-4.1225734,716
1747533621230,-6.0543284,-1.6920489,1.0194272,-0.3110572,-0.13688648,-5.2581453,717
1747533621240,-5.9501157,-1.0111293,1.1651293,-0.21891184,-0.36432046,-5.6560216,718
1747533621250,-5.22673,-0.33265,1.411627,0.082025364,-1.3028184,-6.0331254,719
1747533621260,-4.962416,-0.16107778,1.3740423,0.23435818,-1.8082864,-6.260559,720
1747533621270,-4.8280625,-0.088104665,1.2949677,0.24767399,-1.9550266,-6.396380499999999,721
1747533621280,-4.516279,0.110557936,1.0250404,0.07669904,-2.047971,-6.808105,722
1747533621290,-4.1933913,0.3802412,0.78415596,-0.37230992,-1.7891116,-7.0318108,723
1747533621300,-4.0040035,0.4288086,0.7246059,-1.9755329,-0.74089146,-7.500527,724
1747533621310,-3.8570807,0.45345837,0.77317333,-2.7467844,-0.2066613,-7.6991987,725
1747533621320,-3.7343197,0.4385709,0.82906246,-3.4232273,0.3190467,-7.9239697,726
1747533621330,-3.6352324,0.43246946,0.8820229,-3.9760995,0.7984157,-8.184959,727
1747533621340,-3.5149124,0.42197496,0.92156017,-4.4410877,1.2000204,-8.499212,728
1747533621350,-3.2696347,0.44930938,0.8009959,-5.274657,2.078331,-9.221461,729
1747533621360,-3.2164304,0.4737151,0.6889736,-5.6879797,2.7015107,-9.572999,730
1747533621370,-3.1659107,0.4898229,0.6203935,-6.0512347,3.4099116,-9.863283,731
1747533621380,-3.137844,0.5366819,0.6552937,-6.236591,4.0533314,-10.080065,732
1747533621390,-3.171524,0.7048373,1.1175382,-5.503156,4.7004795,-10.034259,733
1747533621400,-3.1009915,0.7563334,1.2703179,-4.805408,4.640292,-9.906426,734
1747533621410,-2.9568755500000004,0.7458389,1.3027776,-4.192881,4.479437,-9.870208,735
1747533621420,-2.9560213,0.7687803,1.3013133,-3.7140446,4.3350935,-9.791911,736
1747533621430,-3.1642022,0.84102124,1.2442038,-3.407781,4.2802324,-9.609218,737
1747533621440,-3.3304052,0.7604824,1.1036268,-3.4125748,4.566256,-9.215603,738
1747533621450,-3.3894668,0.67091334,1.1370627,-3.5872781,4.8368335,-9.133577,739
1747533621460,-3.53883,0.5981843,1.1905112,-3.880226,4.937501,-9.106946,740
1747533621470,-3.6037495,0.47713193,1.0352908,-4.1396174,5.033375,-9.110674,741
1747533621480,-3.573486,0.43173727,1.0450531,-4.71273,5.83978,-9.218799,742
1747533621490,-3.725534,0.485918,1.1590278,-4.9002166,6.075736,-9.249159,743
1747533621500,-3.8207163,0.52057413,1.12620215,-4.98357345,6.10343285,-9.257681000000002,744
1747533621510,-3.8822188,0.507395,0.8073414,-5.4594803,6.502374,-9.278454,745
1747533621520,-3.7321234,0.38951537,0.92082804,-5.859487,7.006777,-9.158078,746
1747533621530,-3.4809885,0.3951287,1.4521407,-5.8461714,6.65737,-8.396415,747
1747533621540,-3.2940407,0.3912238,1.7879633,-5.298093,6.049104,-7.901599,748
1747533621550,-3.0302148,0.4002539,1.9976085,-4.4682517,5.2272525,-7.479222,749
1747533621560,-2.9313717,0.447601,2.0427591,-3.5212317,4.21898,-7.192133,750
1747533621570,-2.7283158,0.6665203,1.9773518,-2.7238812,3.1430628,-6.924219,751
1747533621580,-2.0239668,0.7573096,1.3713577,-2.0128171,1.9867182,-6.7857347,752
1747533621590,-1.5956463,0.69556314,1.1270564,-1.9041603,2.0916467,-6.9769497,753
1747533621600,-1.4775226,0.8361401,0.84785485,-2.0112193,2.4756746,-7.072291,754
1747533621610,-1.4753261,0.95938903,0.6474839,-2.24504485,2.8242824,-7.0195605,755
1747533621620,-1.37660495,0.96097544,0.7277787,-2.6248117,3.3233588,-6.89385925,756
1747533621630,-1.2388346499999998,1.029433475,0.94193895,-2.8240161500000003,3.412841,-6.67627875,757
1747533621640,-0.80258225,1.64299335,1.59064315,-1.9736687,1.8857844,-4.8815744,758
1747533621650,-0.6040417,1.7469617,1.6098017,-1.6229304,1.6303873,-4.5513425,759
1747533621660,0.0395373,2.13550085,1.6855814,0.1472727999999999,1.064199225,-3.7963362,760
1747533621670,0.5503491,2.41702095,1.786011,1.55501975,0.540621715,-3.617638,761
1747533621680,0.7094744,2.5479577,1.8477575,2.0900488,0.26418558,-3.6314864,762
1747533621690,0.82759815,3.0250895,1.743545,2.7622306,-0.14487597,-3.4844801,763
1747533621700,0.9862353,3.5171092,1.4687365,3.06157,-0.5049353,-3.1664987,764
1747533621710,1.244936,3.9205358,1.2117443,3.0594394,-0.700944,-2.7100327,765
1747533621720,1.6207842,4.6563683,0.84102124,2.6770096,-0.6924219,-1.2703278,766
1747533621730,1.790404,4.9006696,0.8402891,2.5513084,-0.7387609,-0.41705105,767
1747533621740,1.9595356,4.9690056,0.92082804,2.700978,-1.0247844,0.34141725,768
1747533621750,2.054962,4.9602194,1.0113733,3.2016523,-1.504686,1.0242518,769
1747533621760,2.0862012,4.9436235,0.9637821,3.959588,-2.1145499,1.7134778,770
1747533621770,1.8614246,4.942159,0.763167,4.958806,-2.8176246,2.7755466,771
1747533621780,1.2588474,4.6065803,0.24942651,6.1284666,-3.50472,4.996623,772
1747533621790,0.88861245,3.883927,0.079684692,6.5657573,-3.6165729,5.9590893,773
1747533621800,0.7568215,3.6091187,0.033435844,6.9625683,-3.6373456,6.6536417,774
1747533621810,0.38121742,3.069752,0.05515694,7.427024,-3.577158,7.2219605,775
1747533621820,-0.08127106,2.680969,0.034900185,7.9287634,-3.3177662,7.795605,776
1747533621830,-1.0723876,1.943672,0.24698594,8.833706,-2.3712788,8.836369,777
1747533621840,-1.5680678,1.6054085,0.48274526,9.251289,-1.911617,9.220929,778
1747533621850,-2.110363,1.201982,0.87201655,9.53678,-1.3422332,9.653426,779
1747533621860,-2.6499736,1.1709867,0.99965847,9.53678,-1.3422332,9.653426,780
1747533621870,-2.6499736,1.1709867,0.99965847,9.399894,-1.1009508,9.774334,781
1747533621880,-2.9335682,1.2402989,1.3401184,8.735168,-0.97418433,9.872871,782
1747533621890,-2.9518726,1.2154051,1.5116906,8.408133,-1.0434265,9.806292,783
1747533621900,-2.85376155,1.13620855,1.55415655,8.408133,-1.0434265,9.806292,784
1747533621910,-2.7556505,1.057012,1.5966225,8.060856,-0.9310411,8.853946,785
1747533621920,-2.7493049,1.0975255000000002,1.46946865,7.793741,-0.5313006299999999,8.4720485,786
1747533621930,-3.1566365,1.5482991,1.5248697,6.016081,0.95128113,7.8653803,787
1747533621940,-3.2891593,1.5834434,1.713282,5.294897,1.0045444,8.11625,788
1747533621950,-3.1183195,1.3008251,1.9024262,4.1396174,0.37816888,8.258995,789
1747533621960,-3.064627,1.189535,1.7806417,3.6330845,0.08522116,8.141816,790
1747533621970,-2.9806712,1.1114367,1.6268855,3.118029,-0.08575379,8.003332,791
1747533621980,-2.9015965,1.0894716,1.4745939,2.583799,-0.14114754,7.9239697,792
1747533621990,-2.74686435,0.9608534,1.27239245,1.9281287,-0.08522116,7.856858,793
1747533622000,-2.6712067,0.8598137,1.1704986,1.0215886,0.08735169,7.4579163,794
1747533622010,-2.6736472,0.84248555,1.0806855,0.6380934,0.22583607,7.3029203,795
1747533622020,-2.7002494500000003,0.8556647,1.0985017,0.510261665,0.282295085,7.29759415,796
1747533622030,-2.7556505,0.85493255,1.189779,0.31052458,0.3206446,7.329552,797
1747533622040,-2.677308,0.7497439,1.1695224,0.304133,0.21198763,7.2773542,798
1747533622050,-2.6660812,0.6557818,1.2024701,0.42077947,-0.165116,7.086139,799
1747533622060,-2.6885345,0.6133158,1.2061309,0.6066681,-0.44794372,7.0611053,800
1747533622070,-2.6206868,0.50715095,1.1949043,0.9890981,-0.71798825,6.9439263,801
1747533622080,-2.5137897,0.38707477,1.0985017,1.3070794,-0.85487473,6.6792083,802
1747533622090,-2.5233078,0.19939478,0.9984382,1.5462314,-0.8863,6.3207464,803
1747533622100,-2.4906042,0.067359805,0.9471862,1.8184065,-1.0402308,6.147641,804
1747533622110,-2.4825501,-0.108117364,0.86884385,1.875398,-1.1100056,5.9702744,805
1747533622120,-2.4107975,-0.411480515,1.15853975,2.107093,-1.3582122,5.8728027,806
1747533622130,-2.3585694,-0.5022698,1.2756872,2.7526433,-1.7859159,5.7210026,807
1747533622140,-2.3422174,-0.6657882,1.3164448,5.038701,-2.9406626,5.171326,808
1747533622150,-2.4652224,-0.7824476,1.1343781,6.1092916,-3.3491914,5.0259175,809
1747533622160,-2.5003664,-0.9554841,0.75267255,6.870956,-3.2080438,4.958806,810
1747533622170,-2.4796216,-1.2227268,0.4756676,7.2640386,-2.591256,4.8192563,811
1747533622180,-3.0050769,-1.3932008,0.42282918,7.3087792,-1.7044232,4.5864964,812
1747533622190,-3.4287603,-1.3852689,0.49934113,6.48533,0.8021441,4.273841,813
1747533622200,-4.0486655,-1.5958903,0.83784854,5.756689,1.9451729,4.134291,814
1747533622210,-4.635867,-1.9980967,1.2471325,4.8906293,2.663161,3.9020636,815
1747533622220,-5.158394,-2.5008545,1.688388,3.7518613,2.7925909,3.3838124,816
1747533622230,-5.8812914,-3.4922152,2.251184,2.9742184,2.3691483,2.7079022,817
1747533622240,-6.0435896,-3.602285,2.2631428,2.0149477,1.3667343,0.7621967,818
1747533622250,-6.27642,-3.6037495,2.2875485,1.6490294,1.1632688,-0.15233281,819
1747533622260,-6.3154692,-3.5823943500000004,2.33440755,1.48844075,0.9997507,-0.624777605,820
1747533622270,-6.248842,-3.3748236,2.4652224,1.0365024,0.28229508,-2.1774006,821
1747533622280,-6.0731206,-2.4405725,2.5262365,0.6956177,-1.3725933,-4.0341563,822
1747533622290,-5.698249,-1.8631331,2.4164107,0.51026165,-2.3249397,-4.667456,823
1747533622300,-5.2086697,-1.214917,2.0603313,-0.1272991,-3.1467912,-5.2197957,824
1747533622310,-4.8059754,-0.7155758,1.6525116,-1.0263823,-3.0961912,-5.48771,825
1747533622320,-4.4789385500000005,-0.5282619,1.41894885,-3.3923347,-1.7097495,-5.8781295,826
1747533622330,-3.9461615,-0.40318257,1.2722704,-3.3923347,-1.7097495,-5.8781295,827
1747533622340,-3.798019,-0.5034901,1.4509203,-5.0552125,-0.28122982,-6.735667,828
1747533622350,-3.82742775,-0.458339535,1.7425687,-5.403554,0.12197278,-7.175089,829
1747533622360,-3.844878,-0.42783237,1.8111488,-5.49649835,0.26871295,-7.75326085,830
1747533622370,-3.8024118,-0.4127008,1.7811297,-5.4967647,0.2759035,-7.9511337,831
1747533622380,-3.5966718,-0.39756927,1.3681849,-6.0048957,0.8064052,-9.137838,832
1747533622390,-3.6435308,-0.33362624,1.2298045,-6.4746776,1.2415657,-9.645969,833
1747533622400,-3.739201,-0.2421048,1.2090596,-6.899185,1.6463662,-10.051835,834
1747533622410,-3.785328,-0.17669745,1.1197346,-7.2603097,1.9590213,-10.414025,835
1747533622420,-3.76031195,-0.134475543,0.95511806,-7.566041,2.834136,-11.173026,836
1747533622430,-3.7892327,-0.090789296,0.93010217,-7.362575,3.2937977,-11.441473,837
1747533622440,-3.8849032,0.020500809,0.8991069,-6.983341,3.7832868,-11.5219,838
1747533622450,-3.9080887,0.09030118,0.93620354,-6.343117,4.2786345,-11.480887,839
1747533622460,-3.9085767,0.16620298,0.99502134,-5.713546,4.4038033,-11.436679,840
1747533622470,-3.883439,0.20012695,0.9928249,-4.998221,4.4586644,-11.470235,841
1747533622480,-3.948358,0.20574026,1.006004,-3.5499938,4.3963466,-11.664646,842
1747533622490,-4.1592236,0.36266908,0.9476743,-2.966229,4.424043,-11.504324,843
1747533622500,-4.1592236,0.36266908,0.9476743,-2.966229,4.424043,-11.504324,844
1747533622510,-4.2465963,0.586347525,0.8088057200000001,-2.4341292,4.298342,-10.8220215,845
1747533622520,-3.95189715,0.755723275,0.7640212,-2.92628155,3.42402625,-9.723201,846
1747533622530,-3.801436,0.758774,0.8105141,-3.1113712,3.0511837,-9.338108,847
1747533622540,-3.5498128,0.7241178,0.8263778,-3.160107,2.9209552,-9.19483,848
1747533622550,-3.3779964,0.70239675,0.78757274,-3.2314796,2.8266792,-8.922122,849
1747533622560,-3.3282084,0.79269797,0.8092938,-3.2117724,2.7883296,-8.637697,850
1747533622570,-3.1322308,0.7726852,0.9610975,-2.854376,2.7915256,-8.17697,851
1747533622580,-2.9836,0.81197846,1.1292529,-2.33905435,2.509763,-7.787615649999999,852
1747533622590,-2.8603508,0.8605459,1.150974,-2.1875205,2.340386,-7.627826,853
1747533622600,-2.685118,0.93986446,1.0670183,-2.0330572,1.8706044,-7.167632,854
1747533622610,-2.3839512,0.9686632,1.0257727,-1.9302592,1.4114754,-6.5226145,855
1747533622620,-1.7289016,0.9093573,0.77195305,-2.066613,1.0167949,-5.7716026,856
1747533622630,-1.5195004,0.92937,0.6716455,-2.2551649,0.9235843,-5.4882426,857
1747533622640,-1.3696493,0.99184865,0.575487,-2.4517062,0.96299905,-5.231514,858
1747533622650,-1.2709281,1.027969175,0.476033665,-2.5864621,1.129446675,-5.1327107000000005,859
1747533622660,-1.0684825999999998,1.08349225,0.328501045,-3.0684943,1.7880464,-4.939099,860
1747533622670,-0.7602383,1.4038173,0.42587993,-3.639476,2.5550368,-4.7500143,861
1747533622680,-0.69434285,1.6981503,0.6284474,-3.5654402,2.604039,-4.5396247,862
1747533622690,-0.18450728,2.45314135,1.35500585,-3.0945933,2.1933794,-4.2514706,863
1747533622700,0.16303024,2.7600434,1.6032121,-1.1930962,0.71958613,-3.2453282,864
1747533622710,0.4195344,3.025822,1.5871042,0.521446965,-0.066312715,-2.1699437,865
1747533622720,0.78806084,3.2413242,1.4953387,1.0887003,-0.2775014,-1.8093517,866
1747533622730,1.1687900999999998,3.6247382,1.12864275,2.0410466,-0.5928197,-1.2660668,867
1747533622740,1.2825208,3.7911851,0.916679,2.1734058,-0.0950748349999999,-0.6178533900000001,868
1747533622750,1.4082103,4.3844886,0.32288775,1.8487664,0.45007423,-0.25832662,869
1747533622760,1.38709935,4.5406853,0.371333095,1.5361114,0.95660746,0.41225734,870
1747533622770,1.32266825,4.739225749999999,0.5813443549999999,1.5523567,1.04848653,0.84928212,871
1747533622780,1.1692783,4.74911,1.1560992,1.9856529,0.8149273,2.237588,872
1747533622790,1.1690342,4.6009674,1.4558015,2.6423886,0.084155895,3.1579764,873
1747533622800,0.96768695,4.1445804,1.3823403,3.830691,-1.8546255,4.8890314,874
1747533622810,0.904110045,3.9942409,1.2670232,4.0021985,-2.22347335,5.26746655,875
1747533622820,0.66017485,3.5529857,0.89080894,4.434163,-3.1462586,6.3313994,876
1747533622830,0.1836530825,3.1116078,0.468956,4.624313,-3.5388086,7.197459,877
1747533622840,0.017328065,2.9321036,0.3277689,4.699947,-3.6863477,7.8131824,878
1747533622850,-0.6294237,2.318788,-0.06321083,4.784635,-3.5324168,8.759137,879
1747533622860,-0.8217408,2.2138433,-0.171206155,4.74095935,-3.3225598,8.966331,880
1747533622870,-1.4558015,1.8177384,-0.44662476,4.4304347,-2.406965,9.523464,881
1747533622880,-1.9080396,1.5888127,-0.3219115,4.1199102,-1.7923075,9.809487,882
1747533622890,-2.818617,1.2708061,0.0319715,3.7241645,-1.3273195,10.4838,883
1747533622900,-3.1324747,1.1534146,0.13545178,3.614975,-1.3054816,10.9732895,884
1747533622910,-3.381169,1.0001466,0.2421048,3.6208339,-1.2953615,11.326957,885
1747533622920,-3.75494265,0.8266218599999999,0.439180985,3.81364675,-1.36593535,11.74347525,886
1747533622930,-3.8739207,0.76170266,0.51666915,3.9068575,-1.4098775,11.8340225,887
1747533622940,-3.935179,0.4502856,0.9410847,4.7452207,-1.9702066,11.58049,888
1747533622950,-3.895886,0.5379022,0.9030118,5.2411010000000005,-1.7153421,11.275824,889
1747533622960,-3.8136387,0.61844105,0.80685323,5.302354,-1.5116103,11.168765,890
1747533622970,-3.74017725,0.810392115,0.929247985,4.87278575,-0.77338202,10.8387995,891
1747533622980,-3.7477431,0.88934463,0.9952655,4.6205845,-0.5811018,10.718691,892
1747533622990,-4.0054675,0.976229,1.41602015,3.942011,-0.5086638,10.500312,893
1747533623000,-4.0688005,0.88129075,1.5462247,3.934288,-0.6937534750000001,10.4009755,894
1747533623010,-4.0199892,0.77402755,1.5535464,3.961186,-0.79894835,10.343185,895
1747533623020,-3.9695914,0.7228975,1.5280424,3.963849,-1.0652645,10.1168165,896
1747533623030,-3.3794608,0.70142055,0.6635916,3.073288,-0.47137952,9.19696,897
1747533623040,-3.04009905,0.7243619,0.37255338,1.9755329,0.4788364,8.47045,898
1747533623050,-2.9591941000000004,0.758651945,0.44381813,0.0801611499999999,1.73877785,7.41290915,899
1747533623060,-2.9367409,0.77195305,0.5266756,-0.5885586,2.133192,7.073889,900
1747533623070,-2.8791435,0.7482795,0.81246656,-1.2868395,2.347843,6.7521787,901
1747533623080,-2.68182315,0.66139513,1.2867918,-1.5393071,1.58511347,6.40676665,902
1747533623090,-2.5726075,0.6135599,1.470933,-1.4764565,0.98377174,6.2525697,903
1747533623100,-2.4154346,0.5712159800000001,1.5291407,-1.1851068,0.099069595,6.084258,904
1747533623110,-2.31927595,0.5793919000000001,1.25103745,-0.87298423,-0.78989357,5.946839,905
1747533623120,-2.2567973,0.59183884,0.9959976,-0.66632295,-1.5345135,5.850965,906
1747533623130,-2.1052377,0.5610876,0.673598,-1.1206582,-1.892975,5.7630806,907
1747533623140,-1.9683217,0.48689422,0.4080637,-1.690042,-1.4492923,5.624596,908
1747533623150,-1.8218873,0.34753752,0.30629185,-2.3222766,-0.9177253,5.3215284,909
1747533623160,-1.8296971,0.28725538,0.34851375,-2.8815403,-0.45859635,4.999286,910
1747533623170,-2.5572319,0.0490555035,0.87848403,-2.91376465,-0.9622001,4.8876996,911
1747533623180,-2.6480212,-0.043930303,0.9942892,-2.6557043,-1.3539511,4.9215217,912
1747533623190,-2.9689565,-0.15595257,1.061405,-1.6932379,-2.3888555,5.148956,913
1747533623200,-3.15199935,-0.53363116,0.8916631500000001,0.41971422,-3.68741285,5.53990795,914
1747533623210,-3.1212482,-0.70166457,0.7690244,1.2634037,-4.046407,5.6405754,915
1747533623220,-3.840607,-1.4412801000000002,-0.4960463499999999,2.03412255,-2.6149579000000003,5.5111456,916
1747533623230,-4.096989,-1.5885686,-0.72118914,1.8988339,-1.514806,5.3982277,917
1747533623240,-4.4066978,-2.0427592,-0.99111646,0.9890981,-0.17310548,4.8187237,918
1747533623250,-4.9184856,-2.6577835,-0.95377576,-0.087884314,0.7089335,4.0021987,919
1747533623260,-5.4976335,-3.099283,-0.74193406,-1.0333065,0.9890981,3.1771512,920
1747533623270,-6.2317576,-3.7575054,-0.37828872,-1.99843605,-0.472977415,0.746217755,921
1747533623280,-6.637502899999999,-3.8058286,-0.8893445499999999,-2.060754,-0.9139969,0.09427591,922
1747533623290,-6.7030325,-3.8399966,-1.177088,-2.3004386,-1.1105382,-0.92464954,923
1747533623300,-6.53756175,-3.8179095,-1.3180311,-2.3004386,-1.1105382,-0.92464954,924
1747533623310,-5.7883058,-3.3606684,-1.4274908,-2.4341292,-0.46232477,-3.8589206,925
1747533623320,-5.155953500000001,-1.3376778,-0.7009324,-1.00507702,0.44821,-5.6339173,926
1747533623330,-4.8242795,-0.87433513,-0.444916375,-0.17097494,0.50466902,-5.5465655,927
1747533623340,-4.643677,-0.72582626,-0.31483385,0.24714136,0.49801114,-5.4664044,928
1747533623350,-4.416704,-0.6460195,-0.111046046,1.0002834,0.3787015,-5.3913035,929
1747533623360,-4.3041935,-0.59061855,-0.01513155,1.7238642,0.0,-5.744704949999999,930
1747533623370,-4.320545,-0.3648656,0.17620933,1.7536916,-0.117445405,-6.140717049999999,931
1747533623380,-4.327379,-0.3109289,0.26748675,1.6772588,-0.09054748,-6.2962456,932
1747533623390,-4.288086,-0.28701133,0.41880223,1.29189945,-0.0412789975,-7.0461918,933
1747533623400,-4.2429354,-0.22904773,0.6002588,1.1435614,-0.056991648,-7.395066,934
1747533623410,-4.2119403,-0.19744232,0.6245425,0.7366304,-0.21252026,-7.395066,935
1747533623420,-3.8812423,0.0078098318,0.5474204,-0.35739622,-0.32117724,-7.8446074,936
1747533623430,-3.692098,0.07297312,0.4429639,-1.2964269,0.010652645,-8.081096,937
1747533623440,-3.483429,0.13105874,0.38927132,-2.1209416,0.39574575,-8.283497,938
1747533623450,-3.3533466,0.16107778,0.40098605,-2.9145637,0.8159926,-8.505072,939
1747533623460,-3.1456538,0.221481955,0.4478450349999999,-3.6005938,1.2447615,-8.730375,940
1747533623470,-3.0621862,0.25674823,0.46810177,-4.4629254,2.273807,-9.1676655,941
1747533623480,-3.0485191,0.2604091,0.5400987,-4.604073,2.8522456,-9.371664,942
1747533623490,-3.0846395,0.28749946,0.6272271,-4.585164499999999,3.1220238,-9.474196,943
1747533623500,-3.1993463,0.31483385,0.7438865,-4.3430834,3.8748994,-9.771671,944
1747533623510,-3.3382149,0.47078642,1.0636015,-3.4748926,4.177967,-9.916547,945
1747533623520,-3.559453,0.65626995,1.30570625,-2.9933932,3.9249668,-9.723734,946
1747533623530,-3.606434,0.707766,1.3674527,-2.52734,3.4269557,-9.399361,947
1747533623540,-3.5790997,0.7473033,1.4518965,-2.0676782,2.8591697,-9.094695,948
1747533623550,-3.4648807,0.75486904,1.4401819,-1.6468989,2.356365,-8.864065,949
1747533623560,-3.337727,0.80172807,1.1138773,-1.3899038,2.0820594,-8.618255999999999,950
1747533623570,-3.3203988,0.77659017,0.77134293,-1.4892397,2.227468,-8.629175,951
1747533623580,-3.3269882,0.76243484,0.6980037,-1.9989687,2.910835,-8.753278,952
1747533623590,-3.3867826,0.7687803,0.7145996,-2.4367924,3.3811493,-8.862468,953
1747533623600,-3.4324212,0.75340474,0.91253006,-3.0711575,3.4946,-8.804943,954
1747533623610,-3.3574958,0.77634615,0.98477095,-3.2213597,3.2714272,-8.590825,955
1747533623620,-3.1705477,0.80392456,0.942305,-3.3273535,2.9433258,-8.309063,956
1747533623630,-2.903793,0.7914777,0.82857436,-3.438141,2.731338,-8.008125,957
1747533623640,-2.6795044,0.7924539,0.65114474,-4.0216396,3.3550504,-7.50878275,958
1747533623650,-2.251184,0.65944266,0.40000984,-4.1875544,3.625095,-7.4653735,959
1747533623660,-2.1560016,0.6411384,0.36559775,-4.438957,4.144944,-7.445133,960
1747533623670,-2.101577,0.616854665,0.454678635,-4.6568036,4.544951,-7.375891,961
1747533623680,-2.080344,0.6135599,0.49226347,-4.836301,4.80381,-7.258179,962
1747533623690,-1.65373185,0.6429688200000001,0.7905013750000001,-4.9617355,4.9998188,-6.892793599999999,963
1747533623700,-1.4958268,0.65968674,0.84248555,-4.961469,4.988101,-6.831541,964
1747533623710,-1.01588825,0.878240025,1.0068582,-4.99502515,4.52657475,-6.59052485,965
1747533623720,-0.8964222,0.9791577,1.0518868,-4.996623,4.3308325,-6.4816017,966
1747533623730,-0.543149375,1.6442137,1.34194875,-3.84587105,3.3135052,-5.3473615,967
1747533623740,-0.3133695,2.041783,1.5097381,-2.9470541,2.9134984,-4.710067,968
1747533623750,0.41587354,2.3751651000000003,1.8123692,-1.4919028,2.7249465,-4.1241713,969
1747533623760,0.8465125499999999,2.63984525,1.94904125,0.094808534,2.433064,-3.7278929,970
1747533623770,1.0457853,2.800801,1.9924834,1.9574235,1.59922825,-3.23334385,971
1747533623780,1.3338949000000002,3.61961295,1.77087945,2.424542,1.2538162,-3.0365362,972
1747533623790,1.5019283,4.0440283,1.6290822,2.683401,0.14168017,-1.7353158,973
1747533623800,1.6820425,4.2734423,1.4428664,2.1502364,-0.13422333,-0.7041398,974
1747533623810,1.6383562,4.4093823,1.343047,1.5739282,-0.06231797,0.29188246,975
1747533623820,1.7069364,4.267585,1.5319474,1.220793,-0.0958738,1.1829761,976
1747533623830,1.7269491,3.5625036,1.9719826,1.6410398,-0.6263755,2.340386,977
1747533623840,1.6808223,3.2393718,2.1586864,2.404302,-1.037035,2.6141589,978
1747533623850,1.5019283,2.971885,2.2658274,3.3012545,-1.6058862,2.829875,979
1747533623860,1.3005811,2.840094,2.2074978,4.1225734,-2.2897859,3.0945933,980
1747533623870,1.0806855,2.7610197,2.0054183,5.021390500000001,-3.50551915,3.9627838,981
1747533623880,0.60941094,2.5743158,1.5607461,5.299158,-4.0922136,4.5034056,982
1747533623890,0.37413976,2.4808419,1.3576905,5.3055496,-4.537494,5.147358,983
1747533623900,0.1718163,2.4078689,0.93327487,4.9944925,-4.689827,5.7529607,984
1747533623910,-0.01854835,2.3143947,0.2979939,4.1252365,-4.276504,6.247776,985
1747533623920,-0.619661345,1.9217068,0.027334415,1.7475663,-2.7100327,6.83953035,986
1747533623930,-1.0287013,1.700835,0.1867038,0.6359629,-2.018676,7.0547137,987
1747533623940,-1.5558649,1.4745939,0.4685899,0.12623383,-1.8817897,7.251255,988
1747533623950,-2.0195737,1.2883781,0.6653,0.010652645,-2.1401162,7.5740304,989
1747533623960,-2.4825501,1.1194906,0.75267255,0.21411815,-2.5278726,7.8456726,990
1747533623970,-2.843267,1.0030752,0.77854264,0.6135923,-2.9577067,8.10826,991
1747533623980,-3.4338853,0.90423214,0.7987994,1.6825852,-3.845072,8.759669,992
1747533623990,-3.7557971,0.8293065,0.8969103,2.3265376,-4.427239,9.20495,993
1747533624000,-4.082346,0.6157564,0.9772052,3.057309,-5.015265,9.696569,994
1747533624010,-4.1540985,0.4002539,0.954996,3.7534592,-5.6070194,10.055031,995
1747533624020,-4.1284723,0.117391534,0.7487676,4.57770775,-6.0163473,9.95649425,996
1747533624030,-3.78654825,0.1308146849999999,0.29323478,4.488492,-5.797169,9.8228035,997
1747533624040,-3.6100948,0.1461903,0.14228538,3.8125815,-4.8469534,9.377523,998
1747533624050,-3.3269882,0.25089085,0.039781332,2.867692,-3.6724992,8.861935,999
1747533624060,-3.244497,0.43661842,0.24674188,1.984055,-2.6450517,8.439558,1000
