id,timestamp,acc_x,acc_y,acc_z,gyro_x,gyro_y,gyro_z
1,1747532778290,0.16010156,0.2111095,1.1319375,-0.0479369,-0.07563378,-0.28549087
2,1747532778300,3.240104,-1.5658714,0.27383223,1.4626081,1.6096146,-8.631838
3,1747532778310,3.0194762,-1.6598334,0.23112221,1.7923075,1.5169365,-8.305334
4,1747532778320,2.3766296,-1.7464737,0.162786185,2.47780515,0.74248935,-7.5010595
5,1747532778330,2.2362967,-1.7398841,0.15033926,2.5699506,0.5949502,-7.3545856
6,1747532778340,2.0039542,-1.7450093,0.102259986,2.6738138,0.39734364,-7.0674973
7,1747532778350,1.7642899,-1.75648,0.055645052,2.700978,0.29134983,-6.77668
8,1747532778360,1.5375606,-1.8050474,-0.0134231495,2.6354642,0.257794,-6.433132
9,1747532778370,1.0634794,-1.97344695,-0.077244117,2.2264028,0.256995055,-5.24802525
10,1747532778380,0.9867234,-1.9966323,-0.082735404,2.13479,0.25885928,-4.9753175
11,1747532778390,0.83809257,-2.0395863,-0.11519502,2.0224046,0.2857572,-4.6850331
12,1747532778400,0.70996255,-2.0718021,-0.14228538,1.6357136,0.40533313,-3.8237667
13,1747532778410,0.4751795,-2.0869334,-0.1342315,0.9869675,0.6956177,-2.7281423
14,1747532778420,0.33826336,-2.0739985,-0.117147475,0.7653925,0.80533993,-2.360626
15,1747532778430,0.1598575,-2.0486166,-0.123004854,0.56725335,0.86872315,-1.9973708
16,1747532778440,-0.040269446,-2.017133,-0.1398448,0.3717773,0.8831042,-1.5962988
17,1747532778450,-0.27505252,-1.9702741,-0.16522676,0.1736381,0.86606,-1.117995
18,1747532778460,-0.6221019,-1.8704547,-0.1849954,-0.20879184,0.74089146,0.094808534
19,1747532778470,-0.74632704,-1.8387274,-0.18963248,-0.39095205,0.64341974,0.79894835
20,1747532778480,-0.8139309,-1.8467811,-0.19719826,-0.6247776,0.51292485,1.7235979
21,1747532778490,-0.8659151,-1.8614246,-0.21428227,-0.8319715,0.39574575,2.487925
22,1747532778500,-0.87250465,-1.8941283,-0.22599702,-1.0705907,0.25300032,3.2852757
23,1747532778510,-0.7141115,-1.952458,-0.16425052,-1.582983,-0.22264028,4.928446
24,1747532778520,-0.5227706,-1.986626,-0.1044565,-1.824798,-0.4575311,5.7939734
25,1747532778530,-0.28335047,-2.0622838,-0.056377225,-2.0682108,-0.62264705,6.6595006
26,1747532778540,0.347171452,-2.2337339,0.0511299905149999,-2.45277145,-0.539822755,8.275240700000001
27,1747532778550,0.67530644,-2.335872,0.10323621,-2.6120284,-0.35792887,9.08351
28,1747532778560,1.0836142,-2.4366674,0.17132819,-2.6514432,0.00958738,9.656622
29,1747532778570,1.7871092,-2.44581975,0.2206277549999999,-2.6264095,0.27643612,10.027867
30,1747532778580,2.0469081,-2.433739,0.22135992,-2.5635588,0.36005938,10.151438
31,1747532778590,2.588227,-2.3788261,0.17938207,-2.5007083,0.3206446,10.064618
32,1747532778600,3.4927032,-2.028848,-0.014643434,-2.4778051,0.11717909,9.831326
33,1747532778610,3.6664722,-1.8362867,-0.10372432,-2.7057717,-0.21624869,9.330651
34,1747532778620,3.8143709,-1.709377,-0.04807928,-2.9087045,-0.25300032,9.404687
35,1747532778630,3.9232204,-1.6137065,0.18377511,-2.9822078,-0.060720075,9.84837
36,1747532778640,4.1067514,-1.4460392,0.52789587,-2.7601001,0.18109496,10.182863
37,1747532778650,4.352029,-1.3176651,0.81149036,-2.2849922,0.3110572,10.385263
38,1747532778660,4.873457,-1.03492475,0.96366005,-0.659931315,0.09667275,10.50830125
39,1747532778670,4.971202,-0.97208,0.9225364,-0.36325517,0.03355583,10.4694195
40,1747532778680,5.3145905,-0.7524285,0.73632073,0.066046394,-0.0058589545,10.160492
41,1747532778690,5.555719,-0.5215503,0.47591165,0.23116238,0.020772656,9.5373125
42,1747532778700,5.5867147,-0.24942651,0.3333822,0.20879184,-0.015446335,8.66859
43,1747532778710,4.67760135,0.436008275,0.752184425,1.067395,-0.21012342,6.73859665
44,1747532778720,4.4908977,0.54839665,0.80514485,1.3725933,-0.26525086,6.4816017
45,1747532778730,4.1753316,0.7426662,0.7148437,1.9931098,-0.330232,5.9894495
46,1747532778740,3.9390838,0.9071608,0.5288721,2.5081651,-0.37550572,5.423794
47,1747532778750,3.2632895,1.2908187,-0.053692598,2.9838057,-0.29507825,4.2152514
48,1747532778760,2.9177043,1.411627,-0.34900185,2.72148435,-0.192280235,3.6871465
49,1747532778770,2.6038468,1.5029045,-0.59916055,2.459163,-0.08948222,3.1590416
50,1747532778780,2.3771176,1.5846636,-0.7897693,1.8903117,0.032490566,2.6999128
51,1747532778790,2.1972475,1.6849711,-0.9449896,0.9965549,0.19121496,2.0916467
52,1747532778800,1.8306733,1.7367114,-0.97403246,-0.5486112,0.5086638,1.1840415
53,1747532778810,1.6727684,1.730854,-0.86323047,-1.1606057,0.6359629,0.8346347
54,1747532778820,1.5922295,1.6881441,-0.7556012,-1.6325178,0.6988135,0.51452273
55,1747532778830,1.5324354,1.6044323,-0.50934744,-1.9675435,0.65194184,0.15286545
56,1747532778840,1.48179355,1.5709965,-0.2957973849999999,-2.2280007,0.21917817,-0.82664523
57,1747532778850,1.4643435,1.5595258,-0.22258021,-2.202967,0.12996227,-1.0114686
58,1747532778860,1.4597064,1.5270662,-0.062478654,-2.0074909,-0.072970614,-1.448227
59,1747532778870,1.5109584,1.5119346,0.03465613,-1.7779263,-0.20879184,-1.7853832
60,1747532778880,1.5744133,1.4848443,0.059794027,-1.555286,-0.29188246,-2.1060278
61,1747532778890,1.8292091,1.394055,0.032215554,-1.2650015,-0.3334278,-2.751578
62,1747532778900,2.0595992,1.3376778,0.058085624,-1.1382351,-0.3089267,-3.1478565
63,1747532778910,2.285352,1.2805684,0.117635585,-0.9901633,-0.29614353,-3.5910065
64,1747532778920,2.523796,1.2488409,0.20500809,-0.8000136,-0.2727077,-4.0847564
65,1747532778930,2.9264903,1.1473131,0.25528386,-0.5475459,-0.2130529,-4.6413574
66,1747532778940,2.9914095,1.0379754,0.19939478,-0.05912218,-0.16298546,-5.8040934
67,1747532778950,3.0912292,0.93571544,0.1181237,0.05912218,-0.1917476,-6.1737404
68,1747532778960,3.1779915,0.87738577,0.079562659,0.08628642,-0.2498045099999999,-6.3500417
69,1747532778970,3.456583,0.7038611,-0.024405725,0.101200126,-0.43675843,-6.8826737
70,1747532778980,4.0245037,0.5344854,0.016107777,-0.13315806,-0.7824367,-7.6134453
71,1747532778990,4.34788,0.47688788,0.11348662,-0.31691617,-0.8538095,-8.001202
72,1747532779000,4.6453857,0.36974674,0.24527754,-0.4878911,-0.72491246,-8.419317
73,1747532779010,4.8067074,0.22697324,0.35827604,-0.6125271,-0.23861924,-8.838499
74,1747532779020,5.0031734,-0.11373068,0.49397188,-0.62264705,0.69295454,-9.121326
75,1747532779030,5.1432624,-0.25406358,0.8937377,-0.32597092,0.7350325,-9.224658
76,1747532779040,5.2882323,-0.33655494,0.9969738,0.050600063,0.70680296,-9.304552
77,1747532779050,5.4156303,-0.60819066,1.0889834,0.56459016,0.6689861,-9.547965
78,1747532779060,5.368771,-0.99111646,1.0684826,1.1169298,0.62371236,-9.892578
79,1747532779070,4.7112813,-1.6349396,0.8332114,1.5952336,0.59867865,-10.172211
80,1747532779080,4.288818,-1.9370824,0.68433654,2.359028,0.48682585,-10.141317
81,1747532779090,3.8136387,-2.1916342,0.49860895,2.5070999,0.32384038,-9.910155
82,1747532779100,3.3792167,-2.3510034,0.3807293,2.5577,0.1784318,-9.613479
83,1747532779110,2.9557774,-2.4269052,0.30873242,2.5198832,0.075101145,-9.220396
84,1747532779120,2.15246285,-2.3347735,0.247107965,2.218946,-0.0058589545,-8.29841
85,1747532779130,2.0303123,-2.3270857,0.26480213,2.0367856,0.06551377,-7.8637824
86,1747532779140,1.824572,-2.3204963,0.30092257,1.8897791,0.221575,-7.459514
87,1747532779150,1.6034561,-2.3344076,0.3287451,1.7821875,0.4346279,-7.073356
88,1747532779160,1.4387175,-2.3893204,0.3275248,1.7097495,0.6103965,-6.71809
89,1747532779170,1.2315128,-2.4827945,0.2882316,1.6271914,0.58962387,-6.3132896
90,1747532779180,0.7492558,-2.6716948,0.16254212,1.397627,0.33768883,-5.5058193
91,1747532779190,0.46834585,-2.7134285,0.1044565,1.2026836,0.18109496,-4.9971557
92,1747532779200,0.1803583,-2.732465,0.029774986,0.95607483,0.10066749,-4.4261737
93,1747532779210,-0.4249037,-2.738078,-0.10152781,0.37337518,0.24767399,-3.1851406
94,1747532779220,-0.4249037,-2.738078,-0.10152781,0.37337518,0.24767399,-3.1851406
95,1747532779230,-1.0079564,-2.6965885,-0.21306199,-0.23329292,0.46924898,-1.6698021
96,1747532779240,-1.291551,-2.6480212,-0.25528386,-0.5725796,0.5454154,-0.49055427
97,1747532779250,-1.5628206,-2.61531745,-0.3339923449999999,-0.91639375,0.46072686,1.12172345
98,1747532779260,-1.6054085,-2.6292286,-0.36730617,-1.0199907,0.40426785,1.6666062
99,1747532779270,-1.5404893,-2.613121,-0.38512233,-1.3379722,-0.00958738,3.901531
100,1747532779280,-1.5404893,-2.613121,-0.38512233,-1.3379722,-0.00958738,3.901531
101,1747532779290,-1.5404893,-2.613121,-0.38512233,-1.3379722,-0.00958738,3.901531
102,1747532779300,-0.6175868499999999,-2.59017965,-0.380729305,-1.51959975,-0.60480389,6.3441825000000005
103,1747532779310,0.3053156,-2.5672383,-0.37633628,-1.7012273,-1.2000204,8.786834
104,1747532779320,0.9027678,-2.600186,-0.41611758,-1.9228023,-1.2085425,9.310944
105,1747532779330,1.5116906,-2.5630891,-0.3704789,-2.15503,-1.1973573,9.585782
106,1747532779340,2.0781474,-2.467419,-0.3109289,-2.3419838,-1.170193,9.660351
107,1747532779350,3.1529756,-2.097916,-0.14179726,-2.6565032,-1.0508834,9.431318999999998
108,1747532779360,3.7584815,-1.8519063,-0.05222825,-2.7121632,-1.0120013,9.31627
109,1747532779370,4.250013,-1.581491,0.06638357,-2.775014,-0.84581995,8.963135
110,1747532779380,4.3883934,-1.295944,0.27505252,-2.6615632,-0.49641323,8.791628
111,1747532779390,4.385953,-1.0816617,0.43466598,-2.2684808,-0.047404267,9.019061
112,1747532779400,4.62232265,-0.544369695,0.7091083499999999,-1.06100342,-0.3131877629999999,9.79777
113,1747532779410,4.7146983,-0.26821893,0.8546885,-0.32437304,-0.5432849,10.253703
114,1747532779420,5.0468597,-0.18011424,0.8991069,0.54648066,-0.51665324,10.452374
115,1747532779430,5.3353353,-0.049543623,0.83028275,1.4040185,-0.21731395,10.385796
116,1747532779440,5.290185,0.077122085,0.6799435,2.1145499,0.11930962,10.175406
117,1747532779450,5.0534496,0.12007617,0.4720067,2.6098979,0.34301516,9.965016
118,1747532779460,4.863207,0.398423465,-0.1723044125,2.8794098,0.45806372,9.412144
119,1747532779470,4.960952,0.4932397,-0.3184947,2.5134914,0.45167214,8.522116
120,1747532779480,4.7949924,0.7485236,-0.5232587,1.965413,0.6668556,7.5852156
121,1747532779490,4.2805204,0.94303715,-0.5864696,1.2575446,1.0519487,6.868293
122,1747532779500,3.70064,1.0433447,-0.49934113,0.53316486,1.448227,6.460296
123,1747532779510,3.0065413,1.2251674,0.11617125,0.007989483,2.0154803,5.9361863
124,1747532779520,2.7432034,1.3591548,0.28042176,0.34834146,2.016013,5.628325
125,1747532779530,2.4910922,1.4846002,0.25284332,0.8522116,1.7310548,5.2885056
126,1747532779540,2.30365635,1.8192027,-0.2474740299999999,1.33957,1.1787151,4.8091364
127,1747532779550,2.1974914,2.0217702,-0.5637722,1.6879115,-0.28868666,3.0929954
128,1747532779560,1.8826576,2.1760144,-0.88934463,1.267132,-0.6514092,2.4703484
129,1747532779570,1.6354275,2.3136628,-1.1153417,0.5539375,-0.700944,2.0532973
130,1747532779580,1.5473229,2.438132,-1.2488409,-0.33289513,-0.49481535,1.7278589
131,1747532779590,1.7115735,2.4827945,-1.1861182,-2.1598237,0.18855181,0.813862
132,1747532779600,1.7852788,2.4740083,-0.9684192,-2.8320055,0.48682585,0.21784659
133,1747532779610,1.8597162,2.4430132,-0.71045065,-3.2778187,0.6098639,-0.4261058
134,1747532779620,1.8993755,2.4208039,-0.566456855,-3.36650195,0.62397865,-0.84022735
135,1747532779630,2.0786357,2.2231174,0.045394648,-3.0583742,0.53529537,-2.4623587
136,1747532779640,2.1591744,2.0915706,0.14423785,-2.7036412,0.43782368,-3.07169
137,1747532779650,2.1850445,1.9217068,0.20403185,-2.3212113,0.3089267,-3.6256275
138,1747532779660,2.2177482,1.7457415,0.30751213,-1.8865833,0.13262543,-4.0911484
139,1747532779670,2.2741253,1.6295702,0.3734076,-1.3997575,-0.01438107,-4.4645233
140,1747532779680,2.4410605,1.5124228,0.38048524,-0.9347696,-0.11930962,-4.7920923
141,1747532779690,3.2637775,1.3567142,0.31532198,-0.23702134,-0.30519825,-5.9154134
142,1747532779700,3.7501836,1.295944,0.27773714,-0.090014845,-0.30146983,-6.6973176
143,1747532779710,4.072339,1.1787965,0.22502078,-0.08841695,-0.25406557,-7.471765
144,1747532779720,4.252087,1.0909358500000002,0.226485125,-0.12809805,-0.231162385,-7.876032500000001
145,1747532779730,4.677845,0.6706693,0.4915313,0.0031957934,-0.21145499,-9.611881
146,1747532779740,4.7205553,0.507395,0.64089435,0.2806972,-0.30040458,-9.88885
147,1747532779750,4.880169,0.38658667,0.7321718,0.66152924,-0.37230992,-10.01029
148,1747532779760,5.159614,0.29311275,0.72655845,1.0226538,-0.43356264,-10.123741
149,1747532779770,5.4292974,0.19158493,0.6745742,1.3518206,-0.48363006,-10.410296
150,1747532779780,5.6357703,-0.09225364,0.400742,1.4982945,-0.4463458,-10.908308
151,1747532779790,5.54132,-0.32508424,0.25430766,1.355549,-0.30519825,-11.019629
152,1747532779800,5.426857,-0.60648227,0.19963883,1.1893678,-0.08575379,-11.087273
153,1747532779810,5.238689,-0.89056486,0.2523552,1.1275824,0.13688648,-11.147992
154,1747532779820,4.6051164,-1.3340169,0.43368974,1.4508902,0.36112466,-10.98767
155,1747532779830,4.2236547,-1.5338998,0.4600479,1.7619474,0.31691617,-10.700048
156,1747532779840,3.7723927,-1.6910727,0.4515059,2.1688783,0.18056233,-10.152503
157,1747532779850,3.3096604,-1.7889396,0.39317623,2.4074976,0.00958738,-9.608152
158,1747532779860,2.9726174,-1.8443406,0.3065359,2.499643,-0.19068234,-8.993495
159,1747532779870,2.396154,-2.0015135,0.17230442,2.12626785,-0.2649845349999999,-7.47549315
160,1747532779880,2.114024,-2.0268953,0.17742962,2.0192087,-0.1768339,-7.194796
161,1747532779890,1.8289651,-2.066921,0.21916342,1.8152106,0.0777643,-6.656305
162,1747532779900,1.6490947,-2.12403,0.26504618,1.6463662,0.23382555,-6.2190137
163,1747532779910,1.14523865,-2.18174985,0.25857866,1.2977584,0.269245595,-5.3140717
164,1747532779920,0.8678676,-2.2155519,0.22575295,1.077515,0.25992453,-4.777711
165,1747532779930,0.70166457,-2.2736373,0.2294138,0.8021441,0.2711098,-4.192881
166,1747532779940,0.56645685,-2.3309908,0.25479576,0.54648066,0.33502567,-3.6336172
167,1747532779950,0.43491003,-2.396154,0.26943922,0.30679616,0.46498793,-3.1089742
168,1747532779960,0.29042813,-2.4866993,0.26455808,0.09374327,0.6801714,-2.6349316
169,1747532779970,-0.24283697,-2.5943284,0.16351835,-0.30679616,1.2218584,-1.6373115
170,1747532779980,-0.56816524,-2.5987215,0.08908089,-0.5049353,1.4636734,-0.9784454
171,1747532779990,-0.8788501,-2.5855424,0.00024405724,-0.70680296,1.6330504,-0.19228023
172,1747532780000,-1.1646413,-2.553083,-0.10909359,-0.9603359,1.7129452,0.94755274
173,1747532780010,-1.28081235,-2.5131795,-0.2496705599999999,-1.3566143,1.30548165,3.4517231
174,1747532780020,-1.2266316,-2.502563,-0.264314,-1.4082797,1.1510183,3.9457395
175,1747532780030,-1.0506665,-2.4718118,-0.2967736,-1.4945661,0.7840346,4.896488
176,1747532780040,-0.7170402,-2.433739,-0.3585201,-1.6303873,0.42237735,5.7700047
177,1747532780050,-0.3692586,-2.387368,-0.4183141,-1.8263959,0.13369069,6.5439196
178,1747532780060,0.5720702,-2.2995074,-0.4556549,-2.3712788,-0.26205507,7.574563
179,1747532780070,1.0140579,-2.1926103,-0.42441553,-2.7483823,-0.4282363,7.8723044
180,1747532780080,1.415532,-2.1208575,-0.34290043,-3.0019152,-0.5028048,8.034758
181,1747532780090,1.7674625,-2.0613074,-0.27651685,-3.2117724,-0.5571333,8.131697
182,1747532780100,2.3427056,-1.98564975,-0.087006413,-3.43174945,-0.84395575,8.4443515
183,1747532780110,2.6018944,-1.9109682,0.042221904,-3.4748926,-1.0450244,8.652078
184,1747532780120,2.9994636,-1.7825942,0.1867038,-3.3688989,-1.230913,8.893893
185,1747532780130,3.3528585,-1.6349396,0.33777523,-3.1270838,-1.2420983,9.178319
186,1747532780140,3.6425543,-1.5182801,0.44101146,-2.8224182,-1.1504856,9.551694
187,1747532780150,4.352273,-1.1024066,0.595743745,-2.0895162,-1.0263823,10.230268
188,1747532780160,4.389858,-1.0413923,0.65065664,-1.6772588,-0.8676579,10.679276
189,1747532780170,4.5050526,-0.98525906,0.80294836,-1.1361046,-0.5454154,11.2183
190,1747532780180,4.5050526,-0.98525906,0.80294836,-1.1361046,-0.5454154,11.2183
191,1747532780190,5.0253827,-0.9486505,1.10191845,0.0857537849999999,-0.0908137974999999,11.86891
192,1747532780200,5.900084,-0.64309084,1.0545714,2.59658215,0.086020105,11.951468
193,1747532780210,6.611755,-0.3973252,0.7582859,2.8948562,0.09321064,11.6737
194,1747532780220,6.7794223,-0.09664667,0.43027294,3.3593116,0.2908172,10.208429
195,1747532780230,6.1485343,0.22599702,0.2238005,3.5963328,0.47137952,9.25342
196,1747532780240,5.4639535,0.44564855,0.05027579,3.7209687,0.515588,8.623848
197,1747532780250,5.01366805,0.61746484,-0.135695835,3.7209687,0.515588,8.623848
198,1747532780260,4.1382346,0.97037166,-0.5972081,3.3350767,0.38029942,6.797186
199,1747532780270,3.794114,1.108508,-0.83028275,3.0882018,0.39627838,6.508233
200,1747532780280,3.5742183,1.2200422,-0.9693954,2.360626,0.6109292,5.857889
201,1747532780290,2.9644412,1.48606465,-0.96219565,0.7105313575,1.3137374,4.3553339
202,1747532780300,2.5699227,1.6098017,-0.9274175,-0.118776985,1.6628778,3.6266928
203,1747532780310,2.15880835,1.7768587999999998,-0.7912336,-0.749147235,1.51320815,2.8277445
204,1747532780320,1.9389127,1.89254185,-0.6895837499999999,-0.960335915,1.1749867,2.33825555
205,1747532780330,1.8411678,1.9446481,-0.64138246,-1.0247844,0.9709886,2.1065605
206,1747532780340,1.671304,2.0159128,-0.5691415,-1.0610034,0.53529537,1.6953684
207,1747532780350,1.5358523,2.0835168,-0.50788313,-1.1105382,-0.068176925,0.9438243
208,1747532780360,1.6085813999999998,2.07948975,-0.526553515,-1.3619406500000002,-0.14327807,0.252733995
209,1747532780370,1.6529999,2.084493,-0.52496713,-1.4887071,-0.13688648,-0.04527374
210,1747532780380,1.6656908,2.0908384,-0.47273886,-1.7150757,-0.07882957,-0.53476274
211,1747532780390,1.739274,1.99382575,-0.2883536399999999,-1.9254655,-0.0037284256,-0.99229383
212,1747532780400,1.8089523,1.9292725,-0.17401282,-2.1236048,0.14434333,-1.9366508
213,1747532780410,1.98577175,1.80529145,0.1250793415,-1.9302592,0.141680175,-2.6589002
214,1747532780420,2.0451996,1.764778,0.21769907,-1.8226675,0.12250541,-2.8975194
215,1747532780430,2.1728418,1.649583,0.36437747,-1.4945661,0.09374327,-3.3704967
216,1747532780440,2.3540542,1.37721505,0.45980385,-1.0913634,0.10013486,-3.7982004
217,1747532780450,2.4488704,1.2590914,0.45126185,-0.20186761,0.17630127,-4.5753107
218,1747532780460,2.6180022,1.1429201,0.3338703,0.0908137899999999,0.18455706,-5.09063245
219,1747532780470,2.8283794,1.0589644,0.26504618,0.1555286,0.17736652,-5.2794504
220,1747532780480,3.4160695,0.9298581,0.28408262,0.2908172,-0.03195793,-6.1907845
221,1747532780490,3.8449999,0.7900133300000001,0.3543711149999999,0.29348035,-0.15419703,-6.9018484
222,1747532780500,3.9717877,0.73290396,0.40220633,0.2977414,-0.17949706,-7.137272
223,1747532780510,4.187046,0.59672,0.54668826,0.35952675,-0.17789917,-7.5543227
224,1747532780520,4.1292045,0.284326685,0.73229378,0.55606806,-0.07669904,-7.992679
225,1747532780530,3.840973,0.11861181,0.7473033,0.96086854,0.12463594,-8.111989
226,1747532780540,5.4407682,-0.2306341,1.4001565,1.5052186,-0.16884442,-8.806541
227,1747532780550,5.63345145,-0.219407475,1.0922782,2.02906245,-0.122505415,-9.6600845
228,1747532780560,5.6125846,-0.3900035,1.1712307,2.1805964,-0.17630127,-9.894709
229,1747532780570,5.451263,-0.7475473,1.1863623,2.495382,-0.35792887,-10.183395
230,1747532780580,4.9953637,-0.92497694,0.9659786,2.615757,-0.89109373,-10.061422
231,1747532780590,4.946308,-1.0599406,0.87079626,2.5182853,-1.0705907,-9.862751
232,1747532780600,4.621346,-1.43908355,0.540220725,2.3600934,-0.91985583,-9.867545
233,1747532780610,4.463563,-1.5360963,0.4368625,1.9912455,-0.490021645,-9.827597
234,1747532780620,3.6454833,-1.7933327,0.45931572,1.8647454,-0.38402784,-9.778595
235,1747532780630,3.298678,-1.8955926,0.5127643,1.5808525,-0.30786142,-9.225723
236,1747532780640,2.8177629,-2.05191125,0.59794027,1.57446085,-0.3371561899999999,-8.7199885
237,1747532780650,2.6726708,-2.0915706,0.63918597,1.6042882,-0.33609092,-8.556204
238,1747532780660,2.4266613,-2.1298876,0.74510676,1.7789917,-0.3637878,-8.22757
239,1747532780670,1.939767,-2.259726,0.7236297,2.0671456,-0.41438788,-7.8185086
240,1747532780680,1.7103533,-2.340753,0.64089435,2.3222766,-0.33182988,-7.1111727
241,1747532780690,1.3402404,-2.43642345,0.61172945,2.3646208,-0.15632756,-6.41954995
242,1747532780700,1.210524,-2.4466739,0.6020892,2.3712788,-0.09640643,-6.1673484
243,1747532780710,1.0094208,-2.4693713,0.51691324,2.312689,-0.05965481,-5.6810555
244,1747532780720,0.61209553,-2.5750482,0.255772,1.8961707,-0.096939065,-4.850682
245,1747532780730,0.39488465,-2.6365504,0.13398743,1.5733956,0.05912218,-4.4757085
246,1747532780740,-0.0383169999999999,-2.7264856,-0.05784156638,0.8687231,0.4945490299999999,-3.71004975
247,1747532780750,-0.2169669,-2.745156,-0.11592719,0.6535397,0.60560286,-3.4450653
248,1747532780760,-0.5535218,-2.757603,-0.17718557,0.2263687,0.6876282,-2.7441213
249,1747532780770,-1.1888028,-2.6631527,-0.25015867,-0.50813115,0.57098174,-0.79255676
250,1747532780780,-1.347196,-2.6079957,-0.25748038,-0.7930894,0.37923414,0.34301516
251,1747532780790,-1.3523211,-2.570899,-0.26187342,-1.0178602,0.16618125,1.4535533
252,1747532780800,-1.2344415,-2.5506425,-0.29116032,-1.2250541,-0.02396845,2.466087
253,1747532780810,-0.8849516,-2.485723,-0.35461518,-1.7864485,-0.27537087,4.4277716
254,1747532780820,-0.61892915,-2.438132,-0.3607166,-2.0772657,-0.39787626,5.193697
255,1747532780830,-0.37536004,-2.3898087,-0.34290043,-2.3670175,-0.551807,5.8941083
256,1747532780840,-0.15619664,-2.340509,-0.32508424,-2.6589,-0.6918893,6.568953
257,1747532780850,0.342778415,-2.35478625,-0.237833775,-3.3097767,-0.95634113,7.886419
258,1747532780860,0.63357264,-2.3871238,-0.16717921,-3.75266045,-1.16859505,8.810003
259,1747532780870,1.0111293,-2.4427688,-0.051740136,-3.8727689,-1.2436962,9.091499
260,1747532780880,1.4755701,-2.5010989,0.054668825,-4.0224385,-1.4269217,9.511213
261,1747532780890,1.9480649,-2.5052476,0.17254847,-4.0602555,-1.6516925,9.764214
262,1747532780900,1.9480649,-2.5052476,0.17254847,-4.0602555,-1.6516925,9.764214
263,1747532780910,1.9480649,-2.5052476,0.17254847,-4.0602555,-1.6516925,9.764214
264,1747532780920,3.210817,-2.21347715,0.3125153,-3.77742775,-1.6809873,10.0606235
265,1747532780930,3.7213848,-2.016157,0.21037734,-3.893009,-1.1041466,10.168482
266,1747532780940,4.0411,-1.9314691,0.3018988,-3.9854206,-0.2231728925,10.3013735
267,1747532780950,4.6527076,-1.5807588,0.6828722,-3.83947935,-0.0013315775,10.5120295
268,1747532780960,4.98853,-1.3718457,0.9862353,-3.7033918,-0.10865697,10.599381
269,1747532780970,5.444185,-1.1404796,1.3113196,-2.9598372,-0.75633776,10.439591
270,1747532780980,5.6047745,-0.8891005,1.5546447,-2.0793962,-1.2490226,10.148774
271,1747532780990,5.6247873,-0.69336665,1.633231,-1.1616709,-1.5856462,9.881926
272,1747532781000,5.503979,-0.4288086,1.394055,-0.3392867,-1.6714,9.602826
273,1747532781010,5.4080644,-0.22843759,1.2051547,0.85700524,-1.3214606,8.976451
274,1747532781020,5.28628,0.05344854,1.0450531,1.2783173,-1.0908308,8.635034
275,1747532781030,5.1496077,0.3660859,0.9096014,1.6357136,-0.8836369,8.275507
276,1747532781040,5.045883,1.0040516,0.5706058,2.2588933,-0.608266,6.792126
277,1747532781050,4.8755317,1.2949678,0.31776255,2.3787355,-0.61678815,5.769472
278,1747532781060,4.507005,1.5214529,-0.040513504,2.02054035,-0.6215818,4.21525135
279,1747532781070,3.9329827,1.6505592,-0.43979117,1.7837853,-0.5970807,3.7449372
280,1747532781080,3.2876954,1.7140139,-0.74510676,0.9912286,-0.4079963,3.0770164
281,1747532781090,2.254601,1.7520871,-0.87274873,-1.3829796,0.498011125,2.18459105
282,1747532781100,1.85251655,1.76563215,-0.49336174,-1.7880464,0.6780408,2.0351877
283,1747532781110,1.7359792,1.7701472,-0.34460884,-2.283927,0.9416938,1.7406421
284,1747532781120,1.4970472,1.7403722,-0.051007964,-2.470881,1.0966897,1.4098775
285,1747532781130,1.325475,1.7025435,0.16571487,-2.328668,1.0546118,1.1845741
286,1747532781140,1.2551864,1.6717921,0.31532198,-1.78751375,0.735298825,0.777909375
287,1747532781150,1.1656175,1.6913167,0.39878955,-1.5707325,0.59867865,0.62264705
288,1747532781160,1.0816617,1.6698397,0.31385764,-0.7952199,0.012250541,0.021837922
289,1747532781170,1.0855666,1.619808,0.20281157,-0.6151902,-0.21624869,-0.2561961
290,1747532781180,1.0989897,1.5927176,0.12544543,-0.5699165,-0.38029942,-0.5368933
291,1747532781190,1.1421878,1.5546447,0.10006347,-0.6215818,-0.47990164,-0.7888283
292,1747532781200,1.3921026,1.4653198,0.20232345,-0.7536746,-0.42397526,-1.3305153
293,1747532781210,1.547811,1.4130914,0.26504618,-0.75633776,-0.27537087,-1.6287893
294,1747532781220,1.7169427,1.3410946,0.3380193,-0.7105314,-0.09960223,-1.9813919
295,1747532781230,1.8533708,1.2647047,0.41050428,-0.60773337,0.07882957,-2.3707461
296,1747532781240,1.9941918,1.1661055,0.48103684,-0.46711847,0.23861924,-2.7712855
297,1747532781250,2.2289748,1.0033194,0.62259,0.037284255,0.43089947,-3.610714
298,1747532781260,2.4077467500000003,0.8942257499999999,0.6030654200000001,0.592553345,0.4362258,-4.2022018
299,1747532781270,2.4866993,0.861278,0.5854933,1.09988557,0.20053604,-4.7987499
300,1747532781280,2.8496125,0.7302193,0.47664383,1.387507,-0.00958738,-5.1633368
301,1747532781290,3.13101055,0.61172945,0.39586086,1.6303872,-0.335824625,-5.7697384
302,1747532781300,3.2166746,0.5688974,0.3612047,1.67805785,-0.4162520899999999,-6.1359232
303,1747532781310,3.5512768,0.418802235,0.273832235,1.619202,-0.393881525,-6.45656785
304,1747532781320,3.675746,0.37658033,0.25870067,1.567004,-0.360592,-6.6073027
305,1747532781330,4.0232835,0.29482117,0.2723679,1.4402375,-0.23382555,-6.932741
306,1747532781340,4.887002450000001,0.0231854395,0.373041485,1.2061457,-0.1272990975,-8.200672
307,1747532781350,5.0275793,-0.041977845,0.42124277,1.1989552,-0.17736652,-8.447547
308,1747532781360,5.0259928,-0.2399082699999999,0.52033005,1.2713931500000002,-0.368315185,-8.9362375
309,1747532781370,5.00537,-0.31239328,0.5383903,1.2942963,-0.43303,-9.052085
310,1747532781380,4.9338613,-0.6274712,0.5635282,1.32945,-0.55766594,-9.391372
311,1747532781390,4.8152494,-0.7770783,0.54839665,1.3177321,-0.4644553,-9.522932
312,1747532781400,4.6607614,-0.9193637,0.54864067,1.2980248,-0.31052458,-9.634252
313,1747532781410,4.4262223,-1.0660421,0.56645685,1.3230585,-0.14114754,-9.72693
314,1747532781420,4.0821013,-1.2041785,0.58280873,1.4397049,0.017576864,-9.73492
315,1747532781430,3.2532833,-1.4609268,0.49226347,1.6687368,0.20133498,-9.382317
316,1747532781440,2.9269786,-1.5568411,0.44027928,1.7710022,0.25566345,-9.091499
317,1747532781450,2.6692543,-1.6517794,0.41904628,1.8993665,0.25086978,-8.754343
318,1747532781460,2.4086008,-1.7386639,0.4148973,2.0426445,0.175236,-8.394284
319,1747532781470,2.1916342,-1.7789333,0.41758195,2.1955101,0.060720075,-8.033692
320,1747532781480,2.0129843,-1.8343343,0.40513504,2.347843,-0.048469532,-7.697068
321,1747532781490,1.6137065,-1.940011,0.34387666,2.5331988,-0.10333065,-7.0493875
322,1747532781500,1.3620834,-1.9570951,0.3109289,2.5294704,-0.076166406,-6.751646
323,1747532781510,1.2046666,-1.9941918,0.25162303,2.4458473,-0.13475595,-6.464557
324,1747532781520,0.8744571,-2.1420906,0.08151512,2.2647521,-0.21252026,-6.181197
325,1747532781530,0.6794554,-2.1930983,-0.0053692595,1.6399746,-0.050600063,-5.567072
326,1747532781540,0.47347105,-2.2692444,-0.08419975,1.2106731,0.11345066,-5.1899686
327,1747532781550,0.2865232,-2.331723,-0.119588055,0.76485986,0.31372038,-4.7766457
328,1747532781560,0.05832968,-2.352712,-0.12813005,0.35473305,0.4910869,-4.317517
329,1747532781570,-0.41148052,-2.3319669,-0.08078295,-0.3552657,0.5251754,-2.9289446
330,1747532781580,-0.5989165,-2.3195202,-0.08297946,-0.57577544,0.45540056,-2.1976407
331,1747532781590,-0.77292925,-2.2821794,-0.079562664,-0.753142,0.35952675,-1.4109428
332,1747532781600,-0.91253006,-2.2350764,-0.07736614,-0.9150622,0.21837921,-0.5581986
333,1747532781610,-1.0111293,-2.136233,-0.07590181,-1.0610034,0.08575379,0.32863408
334,1747532781620,-0.9664667,-2.1088986,-0.102748096,-1.3225259,0.06977482,2.0005667
335,1747532781630,-0.92156017,-2.0820522,-0.13569583,-1.4812502,0.17949706,2.7712855
336,1747532781640,-0.8820229,-2.0351934,-0.15302388,-1.7028252,0.3153183,3.7321541
337,1747532781650,-0.79660285,-1.990531,-0.15863721,-1.865278,0.35153726,4.5034056
338,1747532781660,-0.5520575,-1.9644167,-0.13960074,-2.1598237,0.18748654,6.072007
339,1747532781670,-0.36437747,-1.9478209,-0.117147475,-2.290851,-0.00479369,6.852846
340,1747532781680,-0.060038086,-1.9578272,-0.09811102,-2.408563,-0.2615224,7.5591164
341,1747532781690,0.42392743,-1.9978526,-0.08590815,-2.5246768,-0.50600064,8.100271
342,1747532781700,0.8815348,-2.0124962,-0.054668825,-2.6088326,-0.6759103,8.445416
343,1747532781710,1.6642264,-1.931713,-0.0061014313,-2.7036412,-0.9102685,8.70108
344,1747532781720,1.9605118,-1.8228635,0.027090356,-2.683401,-1.1371698,8.759669
345,1747532781730,2.161127,-1.75648,0.0,-2.6876621,-1.2591426,8.9199915
346,1747532781740,2.3473425,-1.7486702,-0.028066583,-2.735599,-1.2964269,9.1666
347,1747532781750,2.54088,-1.7472057,-0.01415532,-2.7856665,-1.1920309,9.525063
348,1747532781760,3.0172799,-1.6944895,0.046614934,-2.8799424,-0.63862604,10.679276
349,1747532781770,3.3450487,-1.6129744,0.14277348,-2.8889973,-0.46711847,11.4393425
350,1747532781780,3.8263295,-1.5812469,0.31751847,-2.7680898,-0.52624065,12.100339
351,1747532781790,4.522625,-1.6034561,0.46151224,-2.4485104,-0.72917354,12.352274
352,1747532781800,5.303608,-1.5094941,0.49250755,-1.8546255,-0.9060074,11.800467
353,1747532781810,5.6516337,-1.1067996,0.49299565,-0.8426242,-0.85700524,9.714679
354,1747532781820,5.265047,-1.0413923,0.6274712,-0.23489082,-0.7840346,8.9285145
355,1747532781830,4.7798615,-0.9610975,0.7597502,0.51665324,-0.7041398,8.656339
356,1747532781840,4.433056,-0.86249834,0.80587703,1.2916331,-0.6348976,8.8235855
357,1747532781850,4.391566,-0.7399816,0.6587105,1.9078887,-0.5800365,9.118131
358,1747532781860,4.5558167,-0.31703037,0.13862452,2.1656826,-0.31318775,9.207081
359,1747532781870,4.5592337,-0.12520137,-0.0026846298,1.7811222,-0.05486112,8.8528805
360,1747532781880,4.5449562,-0.044662477,0.0345341001,1.63038725,0.0308926699999999,8.619587249999999
361,1747532781890,4.506517,0.20061506,0.26675457,1.3693974,0.15286545,7.69334
362,1747532781900,4.330552,0.78635246,0.45687518,1.7773937,0.111852765,5.5942364
363,1747532781910,3.9168746,1.087275,0.3956168,2.1257353,0.15393071,4.503938
364,1747532781920,3.45341,1.2468885,0.2135501,2.3659523,0.23755397,3.5968654
365,1747532781930,3.0028803,1.3608632,-0.07443746,2.3787355,0.39574575,2.8698225
366,1747532781940,2.6184902,1.4597064,-0.4002539,2.0921793,0.5997439,2.2588933
367,1747532781950,1.8438525,1.6073611,-0.89715445,0.45060685,0.8793758,1.3390374
368,1747532781960,1.5495194,1.6263975,-0.9488945,-0.4495416,0.9443569,1.1430287
369,1747532781970,1.3818521,1.658369,-0.8507836,-1.2202604,0.9832391,1.0034791
370,1747532781980,1.3586667,1.7118175,-0.626739,-1.7038904,0.98590225,0.87511474
371,1747532781990,1.4448189,1.7206036,-0.44613665,-1.9286613,0.97418433,0.6823019
372,1747532782000,1.7667305,1.6910727,-0.2306341,-1.9457055,0.78083885,-0.09321064
373,1747532782010,1.8914437,1.6864356,-0.15863721,-1.8407769,0.598146,-0.63915867
374,1747532782020,1.9453802,1.6420171,-0.10396838,-1.7310548,0.42290998,-1.3225259
375,1747532782030,1.9406212,1.60272395,-0.0726070265,-1.6969663,0.40320259,-1.5528893
376,1747532782040,1.9793042,1.4809394,0.043198135,-1.5861788,0.3685815,-2.1869879
377,1747532782050,2.3031683,1.330112,0.3380193,-1.1265172,0.26525086,-3.1265512
378,1747532782060,2.4413047,1.2144289,0.46761367,-0.7089335,0.16405073,-3.619236
379,1747532782070,2.5196471,1.1109486,0.5181335,-0.2396845,0.0314253,-4.0799627
380,1747532782080,2.5818818,1.0042956,0.48274526,0.18269286,-0.11824436,-4.4810348
381,1747532782090,2.6965885,0.88934463,0.42661208,0.5267733,-0.2428803,-4.8437576
382,1747532782100,2.8630354,0.7909895,0.34607318,0.8426242,-0.35420042,-5.3114085
383,1747532782110,3.3240597,0.5850052,0.29774985,1.2144015,-0.63649553,-6.1716094
384,1747532782120,3.5205257,0.46932206,0.25723633,1.3688648,-0.8586032,-6.652044
385,1747532782130,3.9571443,0.1803583,0.18816814,1.4721955,-1.3928332,-7.704525
386,1747532782140,4.012545,0.051252022,0.19500175,1.4413028,-1.5606124,-8.141816
387,1747532782150,4.037195,-0.052716363,0.21477039,1.4413028,-1.5606124,-8.141816
388,1747532782160,4.171182,-0.12373702,0.23917611,1.1419635,-1.7422401,-8.421448
389,1747532782170,4.4159718,-0.19548985,0.32630453,0.90014845,-1.7614148,-8.444884
390,1747532782180,4.928004,-0.39878955,0.5874458,0.87618,-1.5201324,-8.741028
391,1747532782190,5.038562,-0.5281399,0.6633476,0.9768475,-1.3752564,-8.956211
392,1747532782200,5.0297756,-0.7038611,0.70337296,1.1323761,-1.2239889,-9.1666
393,1747532782210,4.9099436,-0.92131615,0.69507504,1.3177321,-1.0924287,-9.353022
394,1747532782220,4.6409926,-1.1722069,0.6042857,1.4689997,-0.9901633,-9.469135
395,1747532782230,4.3156643,-1.3823403,0.5122762,1.5563514,-0.912399,-9.496833
396,1747532782240,3.5966718,-1.6998588,0.33142975,1.5574167,-0.81439465,-9.27366
397,1747532782250,3.2120373,-1.8453168,0.23868799,1.4397049,-0.75154406,-8.965798
398,1747532782260,2.8840246,-1.9346417,0.21013328,1.3214606,-0.7206514,-8.671785
399,1747532782270,2.2953584,-1.9663693,0.24454537,1.154214,-0.7819041,-7.9980054
400,1747532782280,2.0342171,-1.956363,0.24527754,1.0588728,-0.8410263,-7.610249
401,1747532782290,1.8157859,-1.9370824,0.29189247,0.96939063,-0.9235843,-7.203318
402,1747532782300,1.6461661,-1.9165816,0.34607318,0.90281165,-1.0072075,-6.820356
403,1747532782310,1.4697127,-1.888271,0.40611124,0.8671253,-1.0588728,-6.4773407
404,1747532782320,1.4697127,-1.888271,0.40611124,0.8671253,-1.0588728,-6.4773407
405,1747532782330,0.9813542,-2.0278716,0.40513504,0.69029135,-0.7749799,-5.2672
406,1747532782340,0.86201024,-2.0932791,0.37487194,0.56245965,-0.7004114,-5.0466905
407,1747532782350,0.6657882,-2.1040175,0.35607952,0.4463458,-0.6263755,-4.845888
408,1747532782360,0.44564855,-2.1091428,0.336799,0.3073288,-0.57577544,-4.5827675
409,1747532782370,-0.0134231495,-2.1152442,0.28286234,-0.02396845,-0.43995422,-3.8557248
410,1747532782380,-0.23942018,-2.0749748,0.25772443,-0.19387813,-0.32330775,-3.3923347
411,1747532782390,-0.4544346,-2.0276275,0.22990192,-0.35792887,-0.18961707,-2.8613002
412,1747532782400,-0.65919864,-1.9727148,0.21769907,-0.5384912,-0.013848438,-2.108691
413,1747532782410,-0.8095379,-1.9207305,0.23380683,-0.6221144,0.11717909,-1.4594123
414,1747532782420,-1.0472497,-1.8018748,0.23942018,-0.59761333,0.32170987,-0.09054748
415,1747532782430,-1.1436522,-1.7628256,0.20574026,-0.561927,0.39361522,0.65247446
416,1747532782440,-1.240543,-1.7076685,0.14350566,-0.5448828,0.43782368,1.4455639
417,1747532782450,-1.2730026,-1.6656908,0.0707766,-0.5773733,0.4708469,2.282329
418,1747532782460,-1.10911815,-1.6484847,-0.0657734265,-0.90494215,0.46125951,4.0578585
419,1747532782470,-0.9686632,-1.6500711,-0.11495096,-1.1270498,0.43303,4.97585
420,1747532782480,-0.7656076,-1.6549523,-0.102748096,-1.3363743,0.4250405,5.691708
421,1747532782490,-0.54986095,-1.6754531,-0.079562664,-1.5259913,0.4644553,6.3468456
422,1747532782500,-0.2979939,-1.7074246,-0.037828874,-1.6889768,0.5294364,6.9348717
423,1747532782510,0.31581008,-1.7860109,0.0012202862,-1.9419771,0.59761333,7.8925443
424,1747532782520,0.68409246,-1.836775,-0.012690976,-2.0703416,0.54914385,8.175372
425,1747532782530,1.0684826,-1.8714309,-0.0319715,-2.1933794,0.44368264,8.289355
426,1747532782540,1.3428029,-1.9041346,-0.061746486,-2.3094933,0.32650355,8.3575325
427,1747532782550,1.5317032,-1.9456245,-0.079318605,-2.4804683,0.17150758,8.531703
428,1747532782560,2.0427592,-2.0715578,-0.0776102,-2.764894,-0.31318775,9.1847105
429,1747532782570,2.4308102,-2.094011,-0.06369894,-2.8336034,-0.5629923,9.659818
430,1747532782580,2.9423542,-2.1027973,-0.018304294,-2.845854,-0.727043,10.173808
431,1747532782590,3.5092993,-2.042515,0.09615856,-2.7553065,-0.6828345,10.6356
432,1747532782600,4.3549576,-1.6781375,0.3392396,-2.505502,-0.45007423,11.039335
433,1747532782610,4.8535666,-1.5387809,0.35607952,-1.7779263,0.022370555,11.16983
434,1747532782620,5.0067124,-1.26995185,0.364377485,-1.0831076350000002,0.0535295405,10.381535
435,1747532782630,4.9890184,-1.1736712,0.38902727,-0.86233157,-0.002130529,10.174341
436,1747532782640,4.8870025,-1.0670183,0.46419686,-0.33822146,-0.29667616,9.903764
437,1747532782650,4.753503,-0.9669548,0.5452239,0.30679616,-0.7105314,9.749833
438,1747532782660,4.753503,-0.9669548,0.5452239,0.30679616,-0.7105314,9.749833
439,1747532782670,4.835506,-0.70020026,0.6067263,1.7891116,-1.5579493,9.457951
440,1747532782680,4.928004,-0.3275248,0.26577836,2.7638285,-1.5723304,8.121043
441,1747532782690,4.7249484,-0.117147475,0.10470056,2.8794098,-1.2447615,7.197992
442,1747532782700,3.9717877,0.27212384,-0.030019043,2.7723508,-0.09853696,5.2576127
443,1747532782710,3.5642118,0.40049794,-0.025870068,2.7654266,0.37390783,4.640292
444,1747532782720,3.5642118,0.40049794,-0.025870068,2.7654266,0.37390783,4.640292
445,1747532782730,2.9220974,0.62600684,-0.119343996,2.8953888,1.0120013,3.7236319
446,1747532782740,2.7800561000000004,0.6788452700000001,-0.184141198,2.9060415,1.0815098,3.5561191
447,1747532782750,2.0525215,1.0262607,-0.6770148,2.5901904,0.9763149,3.0349383
448,1747532782760,1.8963249,1.1983211,-0.8768977,2.2024343,0.727043,2.9550436
449,1747532782770,1.8936402,1.3833165,-1.0130817,1.7454358,0.4527374,2.817092
450,1747532782780,1.9732029,1.50070805,-1.0637235,1.4508901500000002,0.256196105,2.6114959
451,1747532782790,2.2316594,1.8275007,-1.2488409,0.62371236,-0.25566345,1.8279938
452,1747532782800,2.331723,2.0007813,-1.5253577,-0.85540736,-0.57151437,0.36591834
453,1747532782810,2.3053648,1.9793042,-1.5221851,-1.7821875,-0.42876893,-0.31052458
454,1747532782820,2.2050574,1.9124327,-1.376971,-2.6919234,-0.053263225,-0.84422207
455,1747532782830,2.1564898,1.7945529,-1.1858741,-3.5254927,0.44421527,-1.2879047
456,1747532782840,2.1459954,1.6595892,-0.9081371,-4.172641,1.0492855,-1.7214674
457,1747532782850,2.1391618,1.4555575,-0.2936009,-4.6147256,1.75236,-2.6610305
458,1747532782860,2.370284,1.3396302,0.04368625,-4.322843,1.496164,-3.2160335
459,1747532782870,2.561869,1.283497,0.41636166,-3.6490633,0.9784454,-3.9127164
460,1747532782880,2.625934,1.2531119,0.5795139300000001,-3.175287,0.602140735,-4.2498727
461,1747532782890,2.8278913,1.1570754,0.99087244,-2.17127525,-0.17736654,-4.8799765
462,1747532782900,3.0955001,1.1157077000000002,0.99343502,-0.759000877,-0.971521175,-5.6229982
463,1747532782910,3.6559777,1.0157663,0.78659654,0.5113269,-1.267132,-6.4144897
464,1747532782920,3.9822822,0.9117979,0.5112999,0.52144694,-0.85966843,-6.720221
465,1747532782930,4.18179895,0.8452923000000001,0.39805735,0.336623565,-0.53982277,-6.9447255
466,1747532782940,5.333627,0.37487194,0.46590528,-0.25885928,0.4415521,-8.37937
467,1747532782950,5.5862265,0.082247294,0.665056,-0.099069595,0.5289038,-9.173525
468,1747532782960,5.601358,-0.24015234,0.82125264,0.2428803,0.44368264,-9.8941765
469,1747532782970,5.2707825,-0.7969689799999999,0.88617188,0.90174635,0.2263686999999999,-10.49898025
470,1747532782980,5.135697,-0.95279956,0.87030816,1.1249193,0.1555286,-10.6079035
471,1747532782990,4.671744,-1.534632,0.5957437,1.7145431,-0.048469532,-10.599914
472,1747532783000,4.4025483,-1.768683,0.43100512,1.814678,-0.14807177,-10.538661
473,1747532783010,4.011569,-1.9775959,0.28042176,1.7401094,-0.22583607,-10.416156
474,1747532783020,3.6320598,-2.135501,0.19475769,1.5648735,-0.2609898,-10.198842
475,1747532783030,2.9496758,-2.331235,0.22233616,1.1366372,-0.21038973,-9.5330515
476,1747532783040,2.6201985,-2.3885884,0.33045352,1.0205233,-0.16085494,-9.115468
477,1747532783050,2.6201985,-2.3885884,0.33045352,1.0205233,-0.16085494,-9.115468
478,1747532783060,2.059111,-2.4535077,0.42978483,0.99229383,-0.05912218,-8.258463
479,1747532783070,1.7891837,-2.5335584,0.43295756,1.0301107,0.0026631611,-7.770039
480,1747532783080,1.0889834,-2.584566,0.37169918,0.9555422,0.47031426,-6.357498
481,1747532783090,1.003563365,-2.5660178,0.37316354,0.928644265,0.51585433,-6.038185
482,1747532783100,0.8491971650000001,-2.5340465,0.380119165,0.87751159,0.5302354,-5.427788700000001
483,1747532783110,0.7145996,-2.5550354,0.36706212,0.7946873,0.46392268,-4.6525426
484,1747532783120,0.43320164,-2.7410069,0.22916976,0.7094661,0.515588,-4.3308325
485,1747532783130,0.17425688,-2.8693812,0.122760795,0.4261058,0.69295454,-3.8301582
486,1747532783140,-0.21623473,-2.9574857,0.0046370877,0.20080236,0.76272935,-3.4477284
487,1747532783150,-0.64943635,-2.976766,-0.07590181,-0.11717909,0.8330368,-2.6636937
488,1747532783160,-0.873358825,-2.971641,-0.107263165,-0.2412823949999999,0.848483125,-2.2237395
489,1747532783170,-1.5580615,-2.8493683,-0.16058967,-0.57364494,0.8607337,-0.73822826
490,1747532783180,-1.560502,-2.7910388,-0.14936304,-0.8165252,0.7669904,1.5286545
491,1747532783190,-1.441158,-2.7092795,-0.12056428,-0.8277105,0.6924219,2.621616
492,1747532783200,-1.2813005,-2.6292286,-0.12861817,-0.7845673,0.55340487,3.6815538
493,1747532783210,-0.479694524,-2.43862,-0.17864991,-0.7318367,0.32863408,4.6743803
494,1747532783220,0.024649782,-2.3219607,-0.21403822,-0.5075985,-0.4878911,6.0704093
495,1747532783230,0.5383903,-2.1789432,-0.3121492,-0.46179214,-0.80800307,6.362292
496,1747532783240,0.85493255,-2.051057,-0.40123013,-0.52144694,-0.9720538,6.599846
497,1747532783250,1.1011863,-1.9815009,-0.46761367,-0.6982809,-0.97045594,6.894924
498,1747532783260,1.4199251,-1.854591,-0.4036707,-1.1302456,-0.64714813,7.8499336
499,1747532783270,1.7332945,-1.8589841,-0.340948,-1.355549,-0.42557314,8.459265
500,1747532783280,2.1330605,-1.8216432,-0.2626056,-1.5531555,-0.23276028,8.989767
501,1747532783290,2.6565633,-1.701323,-0.16229807,-1.6687368,-0.11984225,9.374328
502,1747532783300,3.2532833,-1.5190123,-0.08688438,-1.6740631,-0.10226539,9.517605
503,1747532783310,3.9490902,-1.1236396,0.08712844,-1.442368,-0.07882957,9.40309
504,1747532783320,4.065994,-0.9864794,0.18109047,-1.2010857,-0.0058589545,9.462212
505,1747532783330,4.087471,-0.41416514,0.21672285,-0.9715212,0.09427591,9.628393
506,1747532783340,4.4096265,-0.92961407,0.1415532,-0.8697884,0.14274544,9.280051
507,1747532783350,4.47723,-0.8576172,0.2633378,-0.3371562,0.65673554,8.9956255
508,1747532783360,4.123103,-0.6804316,0.413677,0.67058396,0.022903185,8.6723175
509,1747532783370,4.284181,-0.6384538,0.41416514,1.3646038,-0.19867182,8.5380945
510,1747532783380,4.3293314,-0.45052966,0.27041543,2.130529,-0.39840892,8.2803
511,1747532783390,4.249281,-0.2604091,0.1598575,2.543319,-0.6034723,7.985755
512,1747532783400,4.122859,-0.039781332,-0.13447554,2.747317,-0.50387007,7.6810894
513,1747532783410,3.7196765,0.2323425,-0.4283205,2.5470474,0.049002163,6.984939
514,1747532783420,3.4595115,0.3397277,-0.5764632,2.126268,0.4213121,6.6451197
515,1747532783430,3.2154543,0.41172457,-0.5793919,1.6575515,0.721184,6.3175507
516,1747532783440,2.9277108,0.5020258,-0.5188657,1.216532,0.9241169,6.0427127
517,1747532783450,2.65851555,0.89044285,-0.380851335,0.3728425664999999,1.12944665,5.31700115
518,1747532783460,2.6919515,1.0296775,-0.3692586,-0.039947417,1.2096078,4.8192563
519,1747532783470,2.6079957,1.3247427,-0.3660859,-0.29933932,1.2522184,4.1673145
520,1747532783480,2.4764488,1.582223,-0.36364532,-0.51771855,1.1243867,3.6000612
521,1747532783490,2.45179905,1.69131665,-0.36388937,-0.60400495,0.98563598,3.3278861
522,1747532783500,2.5516186,2.1520967,-0.3145898,-0.74728304,0.49854377,2.427205
523,1747532783510,2.5333142,2.2768102,-0.44491637,-0.9038769,-0.09853696,0.96140116
524,1747532783520,2.4449656,2.314883,-0.647972,-1.320928,-0.105993815,0.2775014
525,1747532783530,2.3419733,2.2999957,-0.77756643,-2.1805964,0.15286545,-0.479369
526,1747532783540,2.19675925,2.10462775,-0.60294341,-3.589675,0.94142752,-1.4647386
527,1747532783550,2.1550255,1.9729588,-0.41245672,-4.194479,1.3587449,-1.9196066
528,1747532783560,2.19139,1.8228635,-0.09274176,-4.324441,1.7257284,-2.4160197
529,1747532783570,2.2704647,1.6571487,0.31507793,-4.032026,1.8546255,-2.9885995
530,1747532783580,2.327574,1.4989996,0.5876899,-3.7108488,1.7419737,-3.2914009
531,1747532783590,2.2921855,1.3676969,0.7817154,-2.5347967,1.1158645,-4.138552
532,1747532783600,2.2738814,1.1841658,0.8102701,-0.8580705,-0.09640643,-4.680772
533,1747532783610,2.4876757,1.1480453,0.6016011,-0.60240704,-0.13262543,-4.7457533
534,1747532783620,2.78811,1.104603,0.34949,-0.7749799,0.18002969,-4.81393
535,1747532783630,3.1581008,1.0174747,0.14692247,-1.2602079,0.81918836,-4.9822416
536,1747532783640,3.6157079,0.8812907,0.050763905,-1.8354506,1.6474315,-5.3103433
537,1747532783650,4.1039445,0.285424945,0.549616935,-2.2455776,2.6770096,-6.3047676
538,1747532783660,4.118466,0.10494461,0.64821607,-1.9888487,2.706837,-6.698383
539,1747532783670,4.3133457,-0.34900187,1.021989725,-0.8450210199999999,2.22187535,-7.37669015
540,1747532783680,4.356422,-0.42661208,1.1009423,-0.36591834,2.0112193,-7.6129127
541,1747532783690,4.339338,-0.8505395,1.2686096,0.92464954,1.3049489,-8.159393
542,1747532783700,4.1582475,-1.1399914,0.86518294,2.7451866,0.45912898,-8.539693
543,1747532783710,4.267097,-1.3171769,0.61673266,2.9939258,0.3089267,-8.545019
544,1747532783720,4.4157276,-1.3481722,0.4085518,3.0407975,0.21784659,-8.600412
545,1747532783730,4.373018,-1.3567142,0.23795582,3.0194921,0.25566345,-8.643556
546,1747532783740,4.3725295,-1.4806952,0.11177822,2.8447888,0.2545982,-8.7058735
547,1747532783750,4.034266,-1.8868065,-0.053936653,2.6136262,0.35420042,-8.892295
548,1747532783760,3.6984434,-2.094011,-0.012202863,2.1539648,0.81066626,-9.1048155
549,1747532783770,3.3284528,-2.207742,-0.00024405724,2.0138824,0.9518138,-9.000952
550,1747532783780,2.91221305,-2.3300146,0.00719968838,1.8841865,1.02078965,-8.6448875
551,1747532783790,2.4959733,-2.4522872,0.014643434,1.7544906,1.0897655,-8.288823
552,1747532783800,1.6361598,-2.4591208,0.17572121,1.690042,0.9805759,-7.0744214
553,1747532783810,1.360131,-2.433251,0.25772443,1.7939054,0.8378305,-6.469351
554,1747532783820,1.1431642,-2.4312983,0.2723679,1.8983012,0.7052051,-5.8967714
555,1747532783830,0.8158834,-2.4459417,0.27383223,2.0532973,0.62584287,-4.829909
556,1747532783840,0.6909261,-2.4869432,0.234539,2.0570257,0.7041398,-4.476241
557,1747532783850,0.54986095,-2.5757802,0.1666911,2.0106866,0.8362326,-4.1433463
558,1747532783860,0.182066711,-2.6995173,-0.0200126925,1.84583695,1.013599115,-3.6751624
559,1747532783870,0.021965152,-2.7305126,-0.094206095,1.7726,1.0396981,-3.5132422
560,1747532783880,-0.8190561,-2.8098311,-0.39415246,1.2117383,0.7163904,-2.3451798
561,1747532783890,-1.168058,-2.7771275,-0.45760733,0.85061365,0.5139901,-1.4956313
562,1747532783900,-1.4250503,-2.7173333,-0.46224442,0.51984906,0.3584615,-0.5406217
563,1747532783910,-1.551472,-2.6165376,-0.45907167,0.15286545,0.24714136,0.67218184
564,1747532783920,-1.6005274,-2.5084205,-0.45760733,-0.12463594,0.25832662,1.6160061
565,1747532783930,-1.5480552,-2.3729687,-0.5095915,-0.6860303,0.34088463,3.4823494
566,1747532783940,-1.4021089,-2.3544204,-0.54253924,-0.9805759,0.32277513,4.3904877
567,1747532783950,-1.03638912,-2.35503055,-0.5710939349999999,-1.2687299,0.23595607,5.264004
568,1747532783960,-0.90423214,-2.3605218,-0.57329047,-1.546764,0.10226539,6.094378
569,1747532783970,-0.32581642,-2.4088452,-0.5603554,-2.0772657,-0.2615224,7.6288915
570,1747532783980,0.09542638,-2.4591208,-0.47078642,-2.2983081,-0.5022722,8.377772
571,1747532783990,0.67677075,-2.4801097,-0.32508424,-2.3382554,-0.62744075,8.738897
572,1747532784000,1.1207108,-2.452043,-0.2796896,-2.3062975,-0.6631271,8.931177
573,1747532784010,1.4941185,-2.3788261,-0.26626647,-2.2855248,-0.74302197,9.049421
574,1747532784020,2.1674724,-2.186753,-0.1969542,-2.2386532,-1.0913634,9.346098
575,1747532784030,2.616782,-2.1167085,-0.13496366,-2.1859226,-1.284709,9.473397
576,1747532784040,3.137112,-2.0222585,-0.05051985,-2.0889835,-1.3859091,9.462744
577,1747532784050,3.5466397,-1.8648415,0.016351834,-1.9499665,-1.3076121,9.29603
578,1747532784060,3.7733693,-1.7171869,0.12568948,-1.726261,-1.0503508,9.005213
579,1747532784070,3.734564,-1.5631866,0.5130083,-0.8809737,-0.7121293,8.728777
580,1747532784080,3.6591504,-1.5151074,0.72729063,-0.16458336,-0.7307714,8.979115
581,1747532784090,3.798751,-1.547567,0.79709095,0.69774824,-0.7850999,9.244365
582,1747532784100,4.053303,-1.5155954,0.61111933,1.4791197,-0.7813715,9.36687
583,1747532784110,4.445747,-1.3274274,0.12861817,2.143312,-0.4261058,9.203352
584,1747532784120,4.5628943,-1.1617125,-0.102259986,1.9765981,-0.10333065,8.898686
585,1747532784130,4.6751604,-0.942305,-0.20818083,1.4721955,0.25885928,8.334629
586,1747532784140,4.74911,-0.6655441,-0.22819352,0.95660746,0.51665324,7.758321
587,1747532784150,4.703227,-0.447601,-0.08078295,0.52144694,0.73822826,7.134076
588,1747532784160,4.500904,0.07590181,0.54815257,0.82557994,0.8362326,5.667207
589,1747532784170,4.257579,0.38853914,0.68360436,1.4604776,0.63383234,4.861867
590,1747532784180,3.858057,0.76267886,0.56645685,2.1395836,0.31372038,4.0757017
591,1747532784190,3.478304,1.0465174,0.2421048,2.634399,-0.07403588,3.3763556
592,1747532784200,3.227169,1.2693417,-0.2020794,2.7622306,-0.49854377,2.7142937
593,1747532784210,2.729048,1.7415925,-1.044565,1.4263891,-0.67697555,1.2399678
594,1747532784220,2.4679067,1.8982773,-1.2173575,0.30200246,-0.32597092,0.7233146
595,1747532784230,2.2794945,1.9724706,-1.2383465,-0.8788432,0.18322548,0.31265512
596,1747532784240,2.21079255,1.986748,-1.19710085,-1.4154701,0.45353634,0.143810703
597,1747532784250,2.0657005,2.0112758,-0.9723241,-2.801113,1.2303804,-0.35420042
598,1747532784260,2.127203,1.9163376,-0.32801294,-3.614975,1.5776566,-1.3214606
599,1747532784270,2.160395,1.8394594,0.06418706,-3.4807515,1.3203954,-1.9361181
600,1747532784280,2.1323283,1.7315861,0.40659937,-3.0104373,0.9257148,-2.541721
601,1747532784290,2.127203,1.598819,0.643823,-2.1134846,0.36751625,-3.187804
602,1747532784300,2.1711333,1.4882611,0.7072779,-1.2841763,-0.07563378,-3.6517265
603,1747532784310,2.2838876,1.2402989,0.38975942,0.020772656,-0.85061365,-4.389955
604,1747532784320,2.4354472,1.1326697,0.15717287,0.32650355,-1.1227888,-4.7164583
605,1747532784330,2.6760879,1.0082005,-0.093473926,0.39041942,-1.3017532,-5.1084757
606,1747532784340,2.8935425,0.873725,-0.27212384,0.24873926,-1.3480922,-5.587845
607,1747532784350,3.2052038,0.55108124,-0.37316352,-0.41705105,-1.1867046,-6.543387
608,1747532784360,3.3648171,0.3961049,-0.2443013,-0.7616641,-1.0492855,-7.079215
609,1747532784370,3.5380976,0.25528386,-0.02831064,-0.85487473,-0.96939063,-7.450992
610,1747532784380,3.6989317,0.12935033,0.1803583,-0.7685883,-0.9235843,-7.776963
611,1747532784390,3.7760538,0.0622345925,0.27602874,-0.6410229000000001,-0.8908274,-7.917844
612,1747532784400,4.21255015,-0.33020947,0.48677222,0.483097435,-0.780039905,-8.751147499999998
613,1747532784410,4.2651443,-0.3912238,0.43832684,0.66365975,-0.79042625,-8.882708
614,1747532784420,4.2694153,-0.57634118,0.190486685,0.892159,-0.7637946,-9.111739
615,1747532784430,4.252209,-0.64479923,0.11592719,0.99762017,-0.6956177,-9.275258
616,1747532784440,4.195344,-0.7614586,0.030507157,1.0210559,-0.66365975,-9.340772
617,1747532784450,4.0391474,-0.96402615,-0.033191785,0.9635317,-0.67697555,-9.310944
618,1747532784460,3.8607419,-1.0299215,-0.04881145,0.91133374,-0.6508766,-9.22306
619,1747532784470,3.6867287,-1.1024066,-0.05588911,0.8213189,-0.6125271,-9.070726
620,1747532784480,3.4861135,-1.1912434,-0.039781332,0.721184,-0.55606806,-8.9136
621,1747532784490,3.2547474,-1.2527459,-0.017328065,0.6354303,-0.45912898,-8.746886
622,1747532784500,2.71172,-1.3337729,0.058817793,0.5209143,-0.25300032,-8.272843
623,1747532784510,2.477425,-1.3615954,0.09396204,0.48469532,-0.13369069,-7.8733697
624,1747532784520,2.2287307,-1.3757507,0.12007617,0.46818373,-0.009054748,-7.549529
625,1747532784530,2.0112758,-1.381364,0.14545812,0.46871635,0.12037488,-7.2336783
626,1747532784540,1.5924735,-1.4235859,0.25650415,0.5752428,0.28229508,-6.5875955
627,1747532784550,1.3559821,-1.4267586,0.33899552,0.7344999,0.2759035,-6.243515
628,1747532784560,1.1478013,-1.4550693,0.38853914,0.94542223,0.24554345,-5.907424
629,1747532784570,0.9408407,-1.4743499,0.41221267,1.1792477,0.16192019,-5.5489626
630,1747532784580,0.75535715,-1.5053451,0.38268176,1.3752564,0.056459017,-5.1143346
631,1747532784590,0.5181335,-1.5963784,0.21989559,1.4753913,-0.07563378,-4.049603
632,1747532784600,0.40391475,-1.6185876,0.12886222,1.3347764,0.03781689,-3.5782232
633,1747532784610,0.352052585,-1.6392105,0.085175975,1.20694465,0.135288585,-3.34945775
634,1747532784620,0.20525214,-1.7215798,-0.036608588,0.7435546,0.4607269,-2.7350664
635,1747532784630,0.08542004,-1.7579445,-0.08371163,0.3930826,0.67058396,-2.4133565
636,1747532784640,-0.07175283,-1.8008984,-0.09811102,0.06924219,0.79255676,-2.1108215
637,1747532784650,-0.3961049,-1.9038906,-0.11543907,-0.44847633,0.73343455,-1.4618092
638,1747532784660,-0.6118515,-1.9273201,-0.16058967,-0.6844324,0.664725,-1.1052119
639,1747532784670,-0.8288184,-1.9590476,-0.22648512,-1.0322412,0.561927,-0.406931
640,1747532784680,-1.1121689,-2.0525215,-0.28749946,-1.6618125,0.5811018,1.0791129
641,1747532784690,-1.2300485,-2.0657005,-0.24186075,-1.9190739,0.64714813,1.9829898
642,1747532784700,-1.2756872,-2.077171,-0.1598575,-2.0943098,0.71319455,2.9598372
643,1747532784710,-1.1539028,-2.0749748,-0.030507157,-2.156628,0.7536746,3.9201732
644,1747532784720,-0.90520835,-2.0254312,0.114462845,-2.1054952,0.727043,4.770787
645,1747532784730,-0.14692247,-1.9641727,0.15668476,-1.8157432,0.51771855,5.909022
646,1747532784740,0.19451363,-1.8755801,0.15741692,-1.5536882,0.3334278,6.252037
647,1747532784750,0.50788313,-1.8174944,0.117391534,-1.361408,0.16777915,6.4555025
648,1747532784760,0.77097684,-1.786255,0.039537273,-1.2490226,-0.033023197,6.6190205
649,1747532784770,1.0526189,-1.6354275,-0.11031388,-1.2053467,-0.23755397,6.7420588
650,1747532784780,1.5053451,-1.6034561,-0.14545812,-1.3081448,-0.47404268,7.137272
651,1747532784790,1.6878998,-1.5622104,-0.14472595,-1.4231933,-0.52144694,7.4302197
652,1747532784800,1.8021187,-1.4538491,-0.11861181,-1.5350461,-0.46658584,7.8573904
653,1747532784810,1.9978526,-1.3891739,-0.08371163,-1.6602147,-0.29614353,8.428905
654,1747532784820,2.8586426,-1.2947236,0.0026846298,-1.9084213,0.294013,9.466473
655,1747532784830,3.3299172,-1.227608,-0.006833603,-1.95076555,0.404267865,9.518138
656,1747532784840,3.7638507,-1.0950848,-0.011226633,-2.088451,0.5699165,9.494702
657,1747532784850,4.0467134,-0.9650024,0.0012202862,-2.1784658,0.48043427,9.282715
658,1747532784860,4.1894865,-0.86274236,0.06687169,-2.209891,0.30146983,8.975919
659,1747532784870,4.1411633,-0.8073414,0.2801777,-1.9425098,-0.05539375,8.43796
660,1747532784880,4.10467665,-0.78281365,0.334114365,-1.6447684,-0.2561961,8.3154545
661,1747532784890,3.9927766,-0.6994681,0.4949481,-1.1627362,-0.48043427,8.350608
662,1747532784900,3.9271251,-0.522526565,0.5350955,-0.57604176,-0.55979645,8.4427535
663,1747532784910,3.9039397,-0.43491003,0.5142286,-0.39840892,-0.5411543,8.459265
664,1747532784920,3.815103,-0.34851375,0.4334457,-0.025033714,-0.24074976,8.424111
665,1747532784930,3.7880125,-0.27822527,0.33484653,-0.06338324,-0.022903185,8.345815
666,1747532784940,4.008396,-0.17962612,0.27310005,-0.20133498,0.15286545,8.001734
667,1747532784950,3.98789525,0.23929814638,0.21843123,-0.38935417,0.31478566,7.2768216
668,1747532784960,3.795578,0.47884035,0.23014598,-0.82398206,0.60507023,5.3652043
669,1747532784970,3.4216826,0.74486274,0.3385074,-0.78563255,0.69721556,4.7888966
670,1747532784980,3.1468742,0.96402615,0.42002252,-0.55606806,0.70627034,4.2892876
671,1747532784990,2.9150198,1.1873385,0.4385709,-0.21731395,0.56459016,3.7997983
672,1747532785000,2.7156248,1.3845367,0.37121108,0.14061491,0.32863408,3.2959282
673,1747532785010,2.2643633,1.6544641,0.025626011,0.43516052,-0.25672874,2.2466428
674,1747532785020,2.058379,1.7235322,-0.12154051,0.2876214,-0.531567,1.7710022
675,1747532785030,1.9204865,1.7940649,-0.22404456,-0.029294772,-0.70840085,1.335309
676,1747532785040,1.8357986,1.8645973,-0.29823795,-0.5858955,-0.6716492,0.8586032
677,1747532785050,1.7742962,1.91829,-0.3321619,-1.0961571,-0.44528055,0.5294364
678,1747532785060,1.7520871,1.9380586,-0.22843759,-2.05383,0.2050634,-0.06231797
679,1747532785070,1.7796655,1.9314691,-0.110801995,-2.424542,0.5470133,-0.35952675
680,1747532785080,1.8663057,1.8799729,0.044174362,-2.6796727,0.8607337,-0.69348717
681,1747532785090,2.1939526000000003,1.75586995,0.486650155,-2.7467844,1.107875,-1.1201255
682,1747532785100,2.361986,1.6847272,0.70361704,-2.2732744,1.1286477,-2.2759376
683,1747532785110,2.4569242,1.636892,0.90130347,-1.7235979,0.9006811,-2.8975194
684,1747532785120,2.4754727,1.5739251,0.9418169,-0.96992326,0.5917544,-3.5111117
685,1747532785130,2.5245283,1.4931422,0.7641432,-0.59601545,0.44101948,-3.8472025
686,1747532785140,2.7036662,1.4421343,0.507395,-0.51984906,0.46818373,-4.094344
687,1747532785150,3.5267491,1.13401195,0.09286378,-1.1824435,1.0972224,-4.7681236
688,1747532785160,3.7382247,1.0211354,0.1181237,-1.6271914,1.587244,-5.3199306
689,1747532785170,3.980574,0.83077085,0.40269446,-1.8152106,2.0671456,-5.963883
690,1747532785180,4.126764,0.6079466,0.78635246,-1.71694,2.2248048,-6.27840235
691,1747532785190,4.2341495,0.35827604,1.1741594,-1.0024139,2.4687505,-7.1798825
692,1747532785200,4.6502666,-0.20061506,1.6141946,1.572863,1.7544906,-8.5673895
693,1747532785210,4.745205,-0.44467232,1.5773419,2.8740835,1.1217234,-9.214538
694,1747532785220,4.7730274,-0.6887296,1.3925906,3.9633164,0.4032026,-9.774867
695,1747532785230,4.7090845,-0.8459024,1.0457853,4.667989,-0.22690132,-10.121078
696,1747532785240,4.6304984,-0.97354436,0.5774395,4.9263153,-0.6375608,-10.234529
697,1747532785250,4.644409,-1.1089962,-0.1598575,4.200338,-0.6530071,-10.157296
698,1747532785260,4.634403,-1.177088,-0.3785328,3.4887412,-0.33449304,-10.156231
699,1747532785270,4.506029,-1.2974083,-0.48738232,2.5363946,0.17630127,-10.2217455
700,1747532785280,4.2236547,-1.4853324,-0.45736328,1.8732675,0.5811018,-10.235061
701,1747532785290,3.901255,-1.6476305,-0.30873242,1.4130733,0.87564737,-10.13972
702,1747532785300,3.1749408,-1.952702,-0.06833603,1.0183928,1.1009508,-9.595369
703,1747532785310,2.8034856,-2.059355,0.057109397,1.0082728,1.063134,-9.21507
704,1747532785320,2.4798658,-2.1052377,0.18450728,1.1110709,0.9571401,-8.796421
705,1747532785330,2.31537115,-2.09205865,0.25381954,1.2210594,0.88230527,-8.572982
706,1747532785340,1.8182266,-2.0315325,0.4300289,1.635181,0.6087986,-7.847803
707,1747532785350,1.2512815,-1.9617321,0.532777,2.3840618,-0.006924219,-6.5295386
708,1747532785360,1.0328503,-1.956363,0.49397188,2.6322684,-0.2263687,-5.9271317
709,1747532785370,0.86664724,-1.974423,0.39976576,2.7483823,-0.39840892,-5.3423014
710,1747532785380,0.76853627,-2.016889,0.27993366,2.6881948,-0.5539375,-4.840562
711,1747532785390,0.6562699,-2.0981603,0.13740423,2.4527714,-0.5997439,-4.491155
712,1747532785400,0.4441841649999999,-2.1463615000000003,-0.00841997,1.9718045,-0.46418899,-4.2418831
713,1747532785410,0.061502427,-2.28462,-0.24332508,0.819721,-0.098004326,-3.7284255
714,1747532785420,-0.14228538,-2.3924932,-0.30726805,0.10333065,0.19014971,-3.465838
715,1747532785430,-0.73778504,-2.5557675,-0.31483385,-0.648213425,0.525708005,-3.0509174000000003
716,1747532785440,-1.0509106,-2.6065314,-0.23258655,-1.8359833,1.0476876,-2.0213394
717,1747532785450,-1.313028,-2.643384,-0.12715383,-2.0527647,1.0881677,-1.230913
718,1747532785460,-1.5107143,-2.6511939,-0.013911263,-2.0458405,0.95607483,-0.29134983
719,1747532785470,-1.6434816,-2.6297169,0.07224095,-1.8503643,0.67697555,0.7771104
720,1747532785480,-1.5724608,-2.5552793,0.09030118,-1.1989552,-0.0974717,3.187804
721,1747532785490,-1.3911263,-2.5159862,0.0353883,-0.86392945,-0.396811,4.416054
722,1747532785500,-1.0394398,-2.5015867,-0.055645052,-0.561927,-0.62371236,5.8435082
723,1747532785510,-0.83760445,-2.50219685,-0.100307531,-0.5028048199999999,-0.6673882,6.3244751
724,1747532785520,-0.20671648,-2.5047596,-0.24942651,-0.45593318,-0.6743124,7.601727
725,1747532785530,0.69165826,-2.5289211,-0.4170938,-0.88949585,-0.50813115,8.723983
726,1747532785540,1.1314493,-2.5001225,-0.49934113,-1.2634037,-0.30839407,9.063803
727,1747532785550,1.4816716,-2.4503348,-0.5347294,-1.6969663,-0.049002163,9.313607
728,1747532785560,1.765022,-2.3942015,-0.51520485,-2.1576931,0.1933455,9.511746
729,1747532785570,2.3046324,-2.2948701,-0.36462155,-3.0120351,0.34621096,9.664079
730,1747532785580,2.5345345,-2.2414217,-0.26455808,-3.1382692,0.24234766,9.792443
731,1747532785590,2.7776155,-2.2282426,-0.15595257,-3.0876691,-0.014913702,10.025737
732,1747532785600,3.1234446,-2.247523,-0.06028214,-2.882073,-0.52411014,10.2217455
733,1747532785610,3.5027096,-2.2028608,0.06199054,-2.4980452,-1.0684602,10.32188
734,1747532785620,4.221458,-2.0127401,0.4876264,-1.8695391,-1.3981596,10.432135
735,1747532785630,4.4660034,-1.8694785,0.5623079,-0.13209279,-1.4460965,10.582337
736,1747532785640,4.684679,-1.7313421,0.45736328,0.72278196,-1.3907027,10.674482
737,1747532785650,4.846977,-1.5282865,0.19109683,1.3672669,-1.412008,10.792194
738,1747532785660,5.252356,-1.437009,-0.4170938,1.3901701,-1.026915,10.68407
739,1747532785670,5.430762,-1.3122959,-0.60062486,0.9305085,-0.81066626,10.575413
740,1747532785680,5.564505499999999,-1.2384686,-0.61929528,0.34940675,-0.5837649,10.203103
741,1747532785690,5.794163,-0.9174112,-0.5254553,0.34940675,-0.5837649,10.203103
742,1747532785700,5.7143564,-0.6765267,-0.3265486,-0.70680296,-0.017576864,8.906676
743,1747532785710,5.5391235,-0.38585448,-0.06882414,-0.958738,0.29348037,8.126903
744,1747532785720,4.9763274,0.32215557,0.49982923,-0.0628506,0.88843054,6.258961
745,1747532785730,4.4738135,0.68482465,0.5618198,0.6247776,0.5885586,5.4403057
746,1747532785740,3.994241,0.93473923,0.3995217,1.135572,0.03888215,4.6855655
747,1747532785750,3.590326,1.1141213,0.10006347,1.3171995,-0.5251754,3.9750342
748,1747532785760,2.7517455,1.3789234,-0.29506522,0.6988135,-1.0849719,2.7457192
749,1747532785770,2.3324552,1.4806952,-0.27212384,0.14061491,-0.9491506,2.3877902
750,1747532785780,2.0688734,1.5412215,-0.18426323,-0.41438788,-0.57151437,2.1534321
751,1747532785790,1.9168257,1.6012596,-0.04515059,-0.85327685,-0.029294772,1.9441077
752,1747532785800,1.8736275,1.637258,0.04209987,-0.986701175,0.296676139,1.79017695
753,1747532785810,1.7730759,1.7542835,0.29897013,-1.0902982,0.9986854,1.3278521
754,1747532785820,1.7977256,1.8916876,0.3372871,-0.71585774,1.0540792,0.58056915
755,1747532785830,1.8975451,1.909992,0.26065314,-0.5587312,0.8186557,0.118776985
756,1747532785840,2.055694,1.9258556,0.1381364,-0.4841627,0.45593318,-0.47191215
757,1747532785850,2.2031047,1.7835704,0.048323333,-0.53263223,0.021837922,-1.1089402
758,1747532785860,2.1970034,1.6817985,0.19744232,-0.66206187,-0.69987875,-2.2897859
759,1747532785870,2.2028608,1.5834434,0.3590082,-0.5613944,-0.783502,-2.7196202
760,1747532785880,2.2799828,1.4311516,0.44808912,-0.30519825,-0.582167,-3.1957934
761,1747532785890,2.4059165,1.3276714,0.42661208,-0.08628642,-0.30466563,-3.6330845
762,1747532785900,2.7639482,1.1048472,0.12349297,0.13795175,0.18482338,-4.6615973
763,1747532785910,2.9897013,0.95792466,-0.030751213,0.101200126,0.2428803,-5.2592106
764,1747532785920,3.3448045,0.78635246,-0.059305906,0.0777643,0.087884314,-5.9825253
765,1747532785930,3.696003,0.6294237,0.00048811449,0.1438107,-0.32330775,-6.834204
766,1747532785940,3.9854548,0.46736962,0.11495096,0.27377295,-0.8655274,-7.759386
767,1747532785950,4.003027,0.13886857,0.3077562,0.39734364,-1.2761868,-8.514659
768,1747532785960,4.1206627,0.012202863,0.3648656,0.5613944,-1.0887003,-9.076586
769,1747532785970,4.247084,-0.024405725,0.38585448,0.56618804,-0.6269081,-9.004681
770,1747532785980,4.5714364,-0.07248501,0.3824377,0.5635249,-0.1304949,-8.904013
771,1747532785990,5.048324,-0.13203497,0.3734076,0.582167,0.28495824,-8.981245
772,1747532786000,5.5840297,-0.54937285,0.42465958,0.8378305,0.77391464,-9.667808
773,1747532786010,5.6116085,-0.8471227,0.40220633,1.0844392,0.7616641,-10.1461115
774,1747532786020,5.3726764,-1.1346222,0.35315084,1.3768543,0.66525763,-10.517356
775,1747532786030,5.2163577,-1.25957945,0.337165085,1.5371766,0.5523396150000001,-10.544254
776,1747532786040,4.7278767,-1.5544006,0.25333142,1.8716697,0.25086978,-10.312825
777,1747532786050,4.4071856,-1.7884516,0.10494461,1.9899141,0.011717909,-9.859022
778,1747532786060,4.1592236,-1.9290285,0.022697324,1.9275961,0.015978966,-9.758887
779,1747532786070,4.1592236,-1.9290285,0.022697324,1.9275961,0.015978966,-9.758887
780,1747532786080,3.3396795,-2.2021286,-0.022697324,1.6186694,0.048469532,-9.38498
781,1747532786090,2.53307,-2.344902,0.093473926,1.4301175,0.08468852,-9.046226
782,1747532786100,2.1640556,-2.336848,0.19426957,1.180313,0.0644485,-8.058725
783,1747532786110,1.7594087,-2.2831554,0.2762728,1.1627362,0.056459017,-7.576161
784,1747532786120,1.4067459,-2.2389812,0.32044718,1.1712582,0.04474111,-7.028615
785,1747532786130,1.1016744,-2.2050574,0.34949,1.1877699,0.06551377,-6.4134245
786,1747532786140,0.8395569,-2.1647878,0.41245672,1.2436962,0.10759171,-5.7758636
787,1747532786150,0.5515694,-2.1369653,0.4183141,1.4269217,-0.04261058,-4.7947555
788,1747532786160,0.42026657,-2.1725976,0.31776255,1.407747,-0.12516858,-4.4714475
789,1747532786170,0.2889638,-2.2358084,0.20085911,1.2602079,-0.1257012,-4.2040663
790,1747532786180,0.1415532,-2.2995074,0.08151512,0.91985583,0.00479369,-3.895672
791,1747532786190,-0.22306833,-2.3937135,-0.10152781,0.10972224,0.31478566,-3.2213597
792,1747532786200,-0.39830142,-2.417387,-0.13179092,-0.3206446,0.44368264,-2.7840686
793,1747532786210,-0.56987363,-2.4200716,-0.12080834,-0.6993461,0.551807,-2.2897859
794,1747532786220,-0.7597502,-2.4073806,-0.10030753,-1.0077401,0.6487461,-1.7401094
795,1747532786230,-1.210768,-2.3170795,-0.06272271,-1.2378373,0.72171664,-1.1153319
796,1747532786240,-1.3679409,-2.2624106,-0.04075756,-1.51906715,0.6703177,1.0804445
797,1747532786250,-1.4748379,-2.2138433,-0.029530926,-1.5361114,0.624245,1.68152
798,1747532786260,-1.5287746,-2.1621032,-0.039537273,-1.5249261,0.49321744,2.7435887
799,1747532786270,-1.4787428,-2.1218338,-0.051740136,-1.4913702,0.3355583,3.850931
800,1747532786280,-0.99550945,-2.054718,-0.056133166,-1.355549,-0.08735169,5.88026
801,1747532786290,-0.6269831,-2.0610635,-0.079318605,-1.2751216,-0.3685815,6.7058396
802,1747532786300,-0.10982577,-2.105726,-0.10396838,-1.2010857,-0.6311692,7.306116
803,1747532786310,0.311173,-2.1018212,-0.1415532,-1.1163971,-0.84581995,7.6853504
804,1747532786320,1.1287647,-2.0178654,-0.26187342,-1.041296,-1.242631,7.9458075
805,1747532786330,1.633231,-1.9051108,-0.3482697,-1.1483551,-1.5052186,7.7258306
806,1747532786340,1.7536733,-1.83470035,-0.38463421,-1.2159994,-1.5651397500000002,7.618505
807,1747532786350,1.9452583,-1.692415,-0.418436125,-1.3707291,-1.63038725,7.4800205
808,1747532786360,2.1979795,-1.5324354,-0.41196862,-1.6852484,-1.5387745,7.4941354
809,1747532786370,2.4369116,-1.4399377,-0.40952805,-1.9504992,-1.371528,7.5458007
810,1747532786380,2.70525255,-1.3183972000000002,-0.2693171649999999,-2.1214741,-1.16113825,7.70585685
811,1747532786390,3.18653345,-1.18465385,-0.08322352,-2.3020364,-0.82398203,7.946873
812,1747532786400,3.759702,-1.0706791,0.0017084008,-2.2626216,-0.36645097,8.093347
813,1747532786410,4.025236,-0.8190561,0.16595893,-2.0474384,-0.061252706,8.292019
814,1747532786420,4.6365995,-0.3904916,0.38829508,-1.7518274,-0.029827405,8.554073
815,1747532786430,4.81305285,-0.30372925,0.41599558,-1.326786865,-0.1717738925,8.4624605
816,1747532786440,5.1432624,-0.06711575,0.5862255,-0.27483824,-0.5289038,8.058725
817,1747532786450,5.1614447000000006,-0.009274179,0.6884855,0.1368864799999999,-0.6282397,7.8659125
818,1747532786460,5.09115625,0.087982636,0.814785125,1.0194581,-0.745152475,7.4882765
819,1747532786470,4.339338,0.19719826,0.61770886,3.1174965,-0.3882889,6.9311433
820,1747532786480,4.027189,0.25284332,0.37243137,3.6794233,0.011717909,6.9386
821,1747532786490,3.7675118,0.34680536,0.031239327,3.750796,0.3749731,6.9732213
822,1747532786500,3.6352324,0.4698102,-0.26504618,3.4748926,0.7344999,6.960438
823,1747532786510,3.56567645,0.7436424500000001,-0.646385635,1.97579925,1.2479573,6.43552895
824,1747532786520,3.5229664,0.8839754,-0.7648754,1.073254,1.474326,6.0517673
825,1747532786530,3.3391914,0.9652464,-0.61892915,0.19600865,1.659682,5.5180697
826,1747532786540,3.0965981,1.00576,-0.36803833,-0.44421527,1.8423749,4.97585
827,1747532786550,2.7981162,1.0218678,-0.06589546,-0.72970617,2.0314593,4.4645233
828,1747532786560,2.0322647,1.2293164,0.51618105,0.072970614,2.0192087,3.5734296
829,1747532786570,1.7118175,1.3335288,0.54717636,0.77604514,1.7129452,3.329484
830,1747532786580,1.4680043,1.3867333,0.42075467,1.4306501,1.3166668,3.1531827
831,1747532786590,1.2498171,1.4428664,0.19256116,1.8998991,0.92944324,3.03121
832,1747532786600,1.1365746,1.5290186,-0.15107143,2.0905814,0.5363607,2.918292
833,1747532786610,1.2710502,1.7245085,-0.72777873,2.0122845,0.23222765,2.7308054
834,1747532786620,1.3796556,1.8148097,-0.9313224,1.2213258,0.0053263223,1.8684739
835,1747532786630,1.4052817,1.8943723,-1.0411482,0.50653327,0.07350325,1.1888351
836,1747532786640,1.3437792,1.9661252,-1.1463369,-0.12037488,0.24767399,0.73822826
837,1747532786650,1.2773956,1.9495293,-1.2525018,-0.83037364,0.49055427,0.39095205
838,1747532786660,1.3784354,1.8445847,-1.1407236,-2.1534321,0.82824314,-0.23382555
839,1747532786670,1.5265781,1.790404,-0.93059033,-2.5843315,0.8346347,-0.6269081
840,1747532786680,1.6400647,1.683263,-0.7556012,-2.8671594,0.74675035,-1.0626013
841,1747532786690,1.70486195,1.6160251,-0.6605409250000001,-2.93506995,0.6460828750000001,-1.3057479
842,1747532786700,1.8736275,1.428467,-0.31703037,-2.935336,0.24181503,-2.05383
843,1747532786710,2.0085912,1.2659249,0.13691612,-2.0192087,-0.624245,-2.9758162
844,1747532786720,2.1298876,1.1643971,0.19500175,-1.5153387,-0.90707266,-3.3103094
845,1747532786730,2.3638166,1.0970373,0.219773545,-1.055677,-1.1488878,-3.6607814
846,1747532786740,2.4583888,1.0726316,0.20451997,-0.7099988,-1.2937636,-4.030428
847,1747532786750,2.9821355,0.8859278,0.04148973,-0.37550572,-1.1568772,-5.0408316
848,1747532786760,3.1995907,0.7465711,-0.033923957,-0.36005938,-0.94595486,-5.6128783
849,1747532786770,3.619369,0.63162017,-0.053936653,-0.39574575,-0.80747044,-6.318616
850,1747532786780,4.1877785,0.5261874,-0.020988923,-0.40053943,-0.71532506,-7.304518
851,1747532786790,4.400596,0.35119838,0.17596528,-0.24021713,-0.68389976,-8.655807
852,1747532786800,3.8402407,0.08688438,0.6550496,0.5161206,-0.9155948,-9.544769
853,1747532786810,3.6083865,0.013179091,0.7822035,1.0391655,-0.9709886,-9.381251
854,1747532786820,3.6593943,-0.05515694,0.7480355,1.5430355,-0.93796533,-9.035573
855,1747532786830,3.9163866,-0.016107777,0.78757274,2.0516994,-1.0125339,-8.654741
856,1747532786840,4.48748065,-0.0945721805,0.335944795,2.3499734,-0.96459696,-8.443818749999998
857,1747532786850,4.6756487,-0.17767367,0.17328064,2.350506,-0.96619487,-8.471516
858,1747532786860,4.5870557,-0.2762728,0.012202863,1.9686087,-1.0082728,-8.525844
859,1747532786870,4.432324,-0.460536,-0.036608588,1.591505,-1.0082728,-8.531171
860,1747532786880,4.2109637,-0.6384538,-0.030019043,1.1899004,-0.98750013,-8.477374
861,1747532786890,3.8841712,-0.77024466,-0.013911263,0.78563255,-0.90494215,-8.320781
862,1747532786900,3.2166746,-1.0889834,0.13496366,0.09374327,-0.5704491,-7.8440747
863,1747532786910,2.9274666,-1.2034464,0.28457075,-0.06764429,-0.43196473,-7.5415397
864,1747532786920,2.6463127,-1.2778838,0.42002252,-0.09321064,-0.33289513,-7.199057
865,1747532786930,2.3939576,-1.3442672,0.52350277,-0.011717909,-0.24927188,-6.812366
866,1747532786940,2.2236056,-1.4296874,0.64138246,0.2247708,-0.15339808,-6.340454
867,1747532786950,2.0102994,-1.6359158,0.7314396,0.77870834,-0.017576864,-5.81155
868,1747532786960,1.850442,-1.7035197,0.7831797,1.1265172,0.07989483,-5.641108
869,1747532786970,1.722556,-1.7821059,0.8175918,1.4924355,0.091080114,-5.5058193
870,1747532786980,1.43627695,-2.1115832,0.591960875,1.8034927,0.051665325,-5.449893
871,1747532786990,1.2939916,-2.2838876,0.4322254,1.9819245,0.025033714,-5.4722633
872,1747532787000,1.0474937,-2.4444773,0.21989559,1.7369137,0.0037284256,-5.569735
873,1747532787010,0.6999562,-2.5899355,-0.0026846298,1.123854,0.041012682,-5.44723
874,1747532787020,0.375116,-2.6948802,-0.14423785,0.47564057,0.14913702,-5.2086105
875,1747532787030,0.041245673,-2.7890863,-0.23600335,-0.22690132,0.31798145,-4.80381
876,1747532787040,-0.88666,-2.9059898000000004,-0.221481965,-1.76567585,0.5366269699999999,-3.01256785
877,1747532787050,-1.1146095,-2.9120913,-0.19109683,-2.000034,0.5384912,-2.5118935
878,1747532787060,-1.4760582,-2.9260023,-0.093717985,-2.3132217,0.46232477,-1.226652
879,1747532787070,-1.7037637,-2.9089184,0.077122085,-2.4016387,0.30360037,0.2860235
880,1747532787080,-1.551472,-2.8178852,0.3145898,-1.9078887,0.05219796,3.8312237
881,1747532787090,-1.1429201,-2.7783477,0.27944556,-1.6128104,0.15286545,5.210741
882,1747532787100,-0.6557818,-2.6663256,0.2323425,-1.3401027,0.26045716,6.3356605
883,1747532787110,-0.062478654,-2.527945,0.20110317,-1.0482203,0.32170987,7.1814804
884,1747532787120,0.7065457,-2.3802903,0.10128376,-0.7819041,0.1587244,7.6331525
885,1747532787130,1.7125497,-1.8340902,-0.22648512,-0.46552056,-0.6695187,7.7444725
886,1747532787140,1.8379952,-1.6085813,-0.3116611,-0.4676511,-1.0290455,7.958058
887,1747532787150,1.9605118,-1.4438426,-0.3704789,-0.5635249,-1.1968247,8.406534
888,1747532787160,2.2553332,-1.3069266,-0.41221267,-0.7861652,-1.117995,9.111739
889,1747532787170,3.4819648,-0.93181056,-0.4139211,-0.97471696,-0.83942837,9.512812
890,1747532787180,3.7992392,-0.7280228,-0.33020946,-1.1030813,-0.4575311,9.505355
891,1747532787190,3.7965546,-0.545712,-0.153512,-1.00880543,-0.18082865,9.2398375
892,1747532787200,3.725778,-0.35193056,0.054668825,-0.5006743,0.2050634,8.976451
893,1747532787210,3.747255,-0.27993366,0.1065309925,-0.20373183,0.206394985,9.029714
894,1747532787220,3.9586084,-0.061258372,0.04637088,0.757403,0.12836437,9.159143
895,1747532787230,4.071363,0.06369894,-0.11568313,1.9787288,0.26897928,9.067531
896,1747532787240,4.1287165,0.255772,-0.3912238,2.1694112,0.45167214,8.863533
897,1747532787250,4.1448245,0.40830776,-0.6677406,2.1038973,0.7099988,8.601478
898,1747532787260,4.198761,0.40196228,-0.8161274,1.7901769,0.9331717,8.175904
899,1747532787270,3.5471282,0.73461235,-0.8254016,0.82824314,1.3518206,7.8978705
900,1747532787280,3.4341296,0.756699525,-0.82772015,0.522778545,1.49749555,7.91784425
901,1747532787290,3.1493149,0.79709095,-0.7992875,-0.48043427,2.034655,8.000136
902,1747532787300,3.0128868,0.80368054,-0.6535853,-1.1723236,2.3744745,8.082694
903,1747532787310,2.9643192,0.797335,-0.15448824,-2.1683457,2.6615632,7.894142
904,1747532787320,3.0851278,0.8510276,0.1164153,-2.2434468,2.6274748,7.5292892
905,1747532787330,3.385806,1.0340706,0.3909797,-1.9574234,2.5177526,6.764429
906,1747532787340,3.504906,1.3398743,0.6457755,-1.9574234,2.5177526,6.764429
907,1747532787350,3.483307,1.4830139,0.73656475,-1.128115035,2.1249363,5.610481500000001
908,1747532787360,3.0775619,1.88461,0.82808626,0.71958613,0.85753787,3.2927325
909,1747532787370,2.2375169,2.0264072,0.37169918,2.0948424,-0.8948221,1.6468989
910,1747532787380,2.003222,2.0483723,0.049543623,2.2322617,-1.375789,1.0865698
911,1747532787390,1.8428763,2.0693614,-0.24820623,1.8743328,-1.4711303,0.47617322
912,1747532787400,1.7393959,2.072534,-0.5110559,1.252751,-1.1707256,0.05273059
913,1747532787410,1.6588572,1.999561,-0.68604493,-0.3089267,0.053795855,-0.8186557
914,1747532787420,1.5958903,1.9187781,-0.64309084,-1.0141318,0.63862604,-1.2495552
915,1747532787430,1.5131549,1.8223755,-0.49812084,-1.5355787,1.0157297,-1.639442
916,1747532787440,1.4738617,1.7140139,-0.3499781,-1.8578212,1.1408982,-2.0128171
917,1747532787450,1.461903,1.6112659,-0.18475133,-1.9899141,1.0173275,-2.3792682
918,1747532787460,1.5580615,1.4499441,0.14106509,-1.7512947,0.1555286,-3.1446607
919,1747532787470,1.6610537,1.3650122,0.24576566,-1.5318503,-0.1438107,-3.4594464
920,1747532787480,1.7708794,1.2822767,0.29213652,-1.3257216,-0.3158509,-3.7486656
921,1747532787490,1.9212188,1.189535,0.33753118,-1.1259845,-0.34780884,-4.026167
922,1747532787500,2.1293995,1.1099724,0.3660859,-0.9289106,-0.2806972,-4.3425508
923,1747532787510,2.6619325,0.95670444,0.4356422,-0.505468,-0.09534117,-5.156945
924,1747532787520,2.8762147,0.87616557,0.43246946,-0.29241508,-0.02609898,-5.583051
925,1747532787530,3.0846395,0.7829357,0.4131889,-0.11451593,-0.011185277,-5.970807
926,1747532787540,3.3194227,0.6994681,0.3961049,0.08468852,-0.05965481,-6.451774
927,1747532787550,3.8033884,0.4217309,0.3431445,0.34754252,-0.3600594,-7.426224700000001
928,1747532787560,3.9241965,0.29701766,0.3392396,0.37603834,-0.4261058,-7.597466
929,1747532787570,4.003759,0.16132185,0.3590082,0.39894155,-0.53103435,-7.8051925
930,1747532787580,4.127008,-0.015375607,0.41465324,0.44687843,-0.5635249,-7.939416
931,1747532787590,4.260507,-0.1969542,0.44467232,0.5470133,-0.5320996,-8.082162
932,1747532787600,4.275395,-0.609655,0.39024755,0.7946873,-0.28549087,-8.360728
933,1747532787610,4.1931477,-0.8112463,0.3499781,0.928378,-0.120907515,-8.483767
934,1747532787620,4.0306053,-1.0367552,0.29213652,1.0120013,-0.017576864,-8.54129
935,1747532787630,3.801924,-1.227608,0.24527754,1.0791129,0.06391586,-8.533301
936,1747532787640,3.5305321,-1.4033291,0.21428227,1.1275824,0.10705908,-8.451808
937,1747532787650,2.95895,-1.654708,0.21257387,1.2410331,0.16298546,-8.073107
938,1747532787660,2.6448483,-1.7454975,0.20305562,1.3017532,0.17257284,-7.7620497
939,1747532787670,2.3863916,-1.7960173,0.20256752,1.3704628,0.19973709,-7.3822827
940,1747532787680,2.25594305,-1.7951631,0.2074486549999999,1.40987755,0.209590785,-7.17801835
941,1747532787690,1.8768003,-1.7664863,0.23405088,1.5494272,0.21252026,-6.5758777
942,1747532787700,1.3947871,-1.7203596,0.28213018,1.8141453,0.08362326,-5.652826
943,1747532787710,1.1636649,-1.6759411,0.28335047,1.9132149,0.07882957,-5.2118063
944,1747532787720,0.9230245,-1.6276178,0.26065314,1.9803267,0.15339808,-4.751612
945,1747532787730,0.72582626,-1.607117,0.22477673,1.991512,0.27217507,-4.2892876
946,1747532787740,0.45394647,-1.6664228,0.09054524,1.8759307,0.46658584,-3.6005938
947,1747532787750,0.45394647,-1.6664228,0.09054524,1.8759307,0.46658584,-3.6005938
948,1747532787760,0.06809197,-1.7476939,-0.10177187,1.4679344,0.7222493,-3.0562437
949,1747532787770,-0.1564407,-1.8123692,-0.20647243,1.0610034,0.86233157,-2.676477
950,1747532787780,-0.35485923,-1.8743596,-0.27480847,0.68816084,0.9289106,-2.3323965
951,1747532787790,-0.7912336,-1.9688098,-0.3773125,0.29454562,0.9518138,-1.9286613
952,1747532787800,-1.00576,-1.9983407,-0.3951287,-0.479369,0.82078624,-0.799481
953,1747532787810,-1.2127205,-2.029824,-0.39342028,-0.8367652,0.6711166,-0.051665325
954,1747532787820,-1.3359693,-2.0434911,-0.36559775,-1.1531488,0.5006743,0.8127968
955,1747532787830,-1.3687950999999998,-2.04336915,-0.33460249,-1.27831735,0.41944788,1.29802475
956,1747532787840,-1.4005226,-2.02799365,-0.25906678,-1.4892397,0.2902845599999999,2.30949335
957,1747532787850,-1.2605556,-1.9732028,-0.107629254,-1.6777915,0.2231729,4.1800976
958,1747532787860,-0.7192367,-1.9173138,0.039781332,-1.6405072,0.112918034,6.152435
959,1747532787870,-0.54095289,-1.90620915,0.052106221,-1.6050872,0.040480052,6.5532406
960,1747532787880,0.020012695,-1.8863186,0.067847915,-1.4764565,-0.25033715,7.588944
961,1747532787890,0.9864794,-1.846049,0.0053692595,-1.3081448,-0.91985583,8.26805
962,1747532787900,1.4350566,-1.7728319,-0.093717985,-1.2612731,-1.4045511,8.291486
963,1747532787910,1.7930887,-1.658613,-0.19304928,-1.2793826,-1.8237327,8.141284
964,1747532787920,2.0705817,-1.5673357,-0.2523552,-1.3773869,-2.0453076,7.91385
965,1747532787930,2.1928544,-1.5094941,-0.25137895,-1.4993597,-1.8439728,7.9021316
966,1747532787940,2.4120178,-1.5009521,-0.15570852,-1.7640779,-0.69029135,8.360195
967,1747532787950,2.540392,-1.5236495,-0.0707766,-1.8301244,-0.08681905,8.739963
968,1747532787960,2.7241669,-1.5661154,0.05832968,-1.7971011,0.3653857,9.1804495
969,1747532787970,3.58032,-1.5387809,0.030019043,-1.520665,0.9262474,9.602826
970,1747532787980,3.9112613,-1.411139,-0.03929322,-1.3960291,0.9933591,9.448895
971,1747532787990,4.2110857500000005,-1.12827665,-0.063332855,-1.3134711,0.663393425,9.245963
972,1747532788000,4.293455,-0.9974619,-0.0622346,-1.28897,0.545948,9.247028
973,1747532788010,4.49285,-0.8773858,-0.058085624,-1.2921658,0.26525086,9.129849
974,1747532788020,4.586812,-0.6289356,0.027334413,-1.303351,0.18109496,8.534899
975,1747532788030,4.5926695,-0.40000984,0.1564407,-1.2490226,0.1635181,8.194547
976,1747532788040,4.4924835000000005,-0.1021379555,0.28554699,-1.18377515,0.18801917,7.4560524
977,1747532788050,4.439157,-0.025626011,0.32532832,-1.1515509,0.23595607,7.166567
978,1747532788060,4.2863774,0.10982577,0.44662476,-1.0327739,0.3669836,6.4863954
979,1747532788070,3.6379173,0.38878322,0.67628264,-0.49375007,0.56245965,4.923652
980,1747532788080,3.2586522,0.48445365,0.72582626,-0.16937704,0.60560286,4.322843
981,1747532788090,2.8681607,0.54839665,0.72485006,0.16724652,0.6327671,3.8333542
982,1747532788100,2.5233078,0.5950116,0.70190865,0.4878911,0.59601545,3.4200315
983,1747532788110,2.2319036,0.65090066,0.6706693,0.80747044,0.50387007,3.064766
984,1747532788120,1.6930252,0.8088057,0.57329047,1.4173343,0.20026971,2.5443842
985,1747532788130,1.4999758,0.9017916,0.5086153,1.6767262,0.048469532,2.3845944
986,1747532788140,1.3803878,0.9947773,0.44882128,1.9137475,-0.05539375,2.2413163
987,1747532788150,1.3330406,1.1136333,0.38829508,2.2248049,-0.092145376,2.011752
988,1747532788160,1.3591548,1.2947236,0.22526483,2.7249465,-0.12783173,1.4029533
989,1747532788170,1.4033291,1.3437792,0.10348027,2.9049761,-0.17310548,0.98803276
990,1747532788180,1.4013767,1.3820962,-0.056377225,3.005111,-0.22849922,0.52411014
991,1747532788190,1.3230344,1.4001565,-0.255772,2.9763489,-0.32490566,0.0777643
992,1747532788200,1.2564068,1.4077222,-0.41880223,2.8069718,-0.47990164,-0.3057309
993,1747532788210,1.1407236,1.424074,-0.7907455,2.0746026,-0.8319715,-0.7803062
994,1747532788220,1.1626887,1.415044,-0.98452693,1.2937636,-0.9470201,-0.97471696
995,1747532788230,1.295944,1.4099188,-1.0887394,0.5795039,-0.94542223,-1.176052
996,1747532788240,1.4763023,1.3916144,-1.1392592,-0.1587244,-0.88843054,-1.4466292
997,1747532788250,1.6222485,1.3159567,-1.1878266,-0.9257148,-0.799481,-1.7763284
998,1747532788260,1.8448287,1.0718994,-1.1265682,-2.47674,-0.47244477,-2.5539715
999,1747532788270,1.8870505,0.95524013,-1.0118613,-3.1739554,-0.30040458,-2.9172268
1000,1747532788280,1.9375705,0.79709095,-0.87348086,-3.798733,-0.10279802,-3.244263
1001,1747532788290,1.9932156,0.6530972,-0.6887296,-4.3004727,0.06711166,-3.518036
