timestamp,acc_x,acc_y,acc_z,gyro_x,gyro_y,gyro_z,id
1747532701420,0.082125265,0.178893945,1.0345587,-0.6562028999999999,-1.1385014,-2.593120035,1
1747532701430,3.3899553,0.18523945,0.060038086,1.1206582,0.36804888,6.3793364,2
1747532701440,3.0554748,0.33618884,0.079440635,1.1302455500000002,0.382163625,5.92074,3
1747532701450,2.7103777,0.51081179,0.0129350349999999,1.0381002,0.35606464,5.35694865,4
1747532701460,2.3684535,0.6776249249999999,-0.0832235249999999,0.8314389,0.3933489,4.79475515,5
1747532701470,2.20823005,0.746937175,-0.16107779,0.5616606749999999,0.52197956,4.40966215,6
1747532701480,2.084981,0.84907514,-0.260165,0.049534798,0.8069378,3.7486656,7
1747532701490,1.8499539,1.0472497,-0.31190515,-0.62104917,1.1765846,2.7606328,8
1747532701500,1.7705133000000002,1.0793432,-0.330697575,-0.7981493850000001,1.22532045,2.5592978000000004,9
1747532701510,1.62749575,1.13596445,-0.354493165,-1.19096565,1.30681315,2.1611552,10
1747532701520,1.51791405,1.1822133,-0.3398497299999999,-1.5488945,1.34223315,1.8301243,11
1747532701530,1.4232198500000002,1.2389566,-0.244545375,-1.8532938,1.2351741,1.4327806500000002,12
1747532701540,1.38953995,1.29508975,-0.126421655,-2.0389161500000004,1.0130665,1.012267515,13
1747532701550,1.47007885,1.3354812,-0.046981019,-2.0530309,0.78057255,0.65993133,14
1747532701560,1.58088085,1.3812419500000002,0.0213550075,-2.00349605,0.5683186100000001,0.232493965,15
1747532701570,1.6433595,1.4343245,0.0795626665,-1.9017633,0.40480051,-0.245010825,16
1747532701580,1.6900965,1.4680043,0.09030118,-1.6628778,0.19547603,-1.5249261,17
1747532701590,1.7158445,1.4310296500000002,0.0850539499999999,-1.6674052,0.22077606,-1.7323863,18
1747532701600,1.77844515,1.3509789,0.1036023,-1.67113365,0.305997215,-2.1433121,19
1747532701610,1.8555672,1.2651928,0.19756434,-1.61467465,0.418915245,-2.54305255,20
1747532701620,2.0195737,1.1294970000000002,0.41111445,-1.20667835,0.569650175,-3.0988542,21
1747532701630,2.1433108,1.0365112,0.5544981,-0.8543421,0.6673882,-3.458381,22
1747532701640,2.3787039,0.89227335,0.57011775,-0.34780885,0.6476808000000001,-3.881291,23
1747532701650,2.6873143500000003,0.68738725,0.56901945,0.63383234,0.4282363,-4.776113,24
1747532701660,2.826427,0.567555115,0.5299702749999999,0.8697884199999999,0.22050973675,-5.050418499999999,25
1747532701670,2.96834625,0.440157235,0.4835994249999999,1.2397014999999998,-0.16857810325,-5.51274335,26
1747532701680,3.3066096,0.25687025,0.43966912,1.52945345,-0.61492391,-6.05203365,27
1747532701690,3.9080887,0.022453265,0.3402158,1.6881778500000002,-0.91852427,-6.5945196500000005,28
1747532701700,4.06599355,-0.0389271325,0.27248991,1.6080167,-0.920921125,-6.99532535,29
1747532701710,4.2238984,-0.10030753,0.20476402,1.5249261,-0.88470215,-7.204916,30
1747532701720,4.605116349999999,-0.337043065,0.0281886135,0.96246643,-0.6245113,-7.894408499999999,31
1747532701730,4.796091,-0.54900678,0.1112901025,0.25113609,-0.45300373,-8.4613955,32
1747532701740,4.961684,-0.7659737,0.382315675,-0.34594463,-0.34008568,-8.9665975,33
1747532701750,5.0401483,-0.8895887,0.6995901200000001,-0.432231055,-0.3422161999999999,-9.2305165,34
1747532701760,5.07651255,-0.94682012,0.97012757,-0.248206628,-0.301469835,-9.384181,35
1747532701770,5.0951831,-1.24456997,1.3507348,0.157392817,-0.09241169,-9.589777,36
1747532701780,4.5441017,-1.3847809,1.3613514,1.21786353,0.196541295,-9.958092,37
1747532701790,4.37472605,-1.4107729999999998,1.2515256,2.2711438,0.381897315,-10.065151,38
1747532701800,4.097355,-1.4877729999999998,1.07702465,2.71056545,0.406132065,-9.867012,39
1747532701810,3.8252312,-1.56404085,0.91118775,3.0352048,0.385625715,-9.751431,40
1747532701820,3.4174116000000003,-1.56038,0.7261923299999999,3.2527850000000003,0.36005938,-9.595103,41
1747532701830,2.96029235,-1.5709965,0.51264223,3.31909765,0.33768883,-9.2744585,42
1747532701840,2.5913998,-1.6315227,0.34936794,3.2336102,0.26312032,-8.939167,43
1747532701850,2.2444724000000003,-1.6255433,0.31300342,3.1830101,0.1691107325,-8.817194,44
1747532701860,1.8792408,-1.55989195,0.30299707,3.0834078500000004,-0.01837581,-8.5178545,45
1747532701870,1.5378048,-1.49997585,0.26980529,2.9766152000000003,-0.1720402075,-8.1404845,46
1747532701880,1.31205185,-1.4799631,0.246741885,2.7726171,-0.271642425,-7.55112685,47
1747532701890,1.1942942,-1.48630855,0.282862355,2.5744779,-0.32330775,-6.94871985,48
1747532701900,1.0753163,-1.48960335,0.31227124,2.4975126000000003,-0.31105721,-6.575611,49
1747532701910,0.95499602,-1.50558915,0.285669,2.42853665,-0.237553965,-6.257896000000001,50
1747532701920,0.791965755,-1.58344345,0.2256309249999999,2.2402512000000003,-0.15739282,-5.8557587,51
1747532701930,0.593181165,-1.66581285,0.148508835,2.00402885,-0.110521182,-5.5202002,52
1747532701940,0.398179415,-1.7041298,0.05235028205,1.76540955,-0.084155892,-5.3148705,53
1747532701950,0.20769272,-1.7385419,-0.06308880045,1.4106765,-0.046072689,-5.067463,54
1747532701960,-0.0754136999999999,-1.8018747,-0.1962220275,0.6317018375000001,0.148071766,-4.59421935,55
1747532701970,-0.362058925,-1.87594595,-0.27139166,-0.1802960125,0.400006815,-4.08928395,56
1747532701980,-0.567921205,-1.92182875,-0.251012875,-0.612527075,0.535029065,-3.72736025,57
1747532701990,-0.7840338950000001,-1.9505055,-0.20293359,-0.935568525,0.59335228,-3.27728605,58
1747532702000,-1.08214983,-1.9990729,-0.15107143,-1.1470235,0.5803028,-2.7100328,59
1747532702010,-1.35073485,-2.029336,-0.112998505,-1.26526785,0.438356325,-1.56087875,60
1747532702020,-1.45897425,-2.0035879000000003,-0.085542065,-1.27858365,0.2210423799999999,-0.2394181699999999,61
1747532702030,-1.47178725,-1.9590475,-0.0607702525,-1.2074772500000002,0.0298274049999999,0.7398261300000001,62
1747532702040,-1.325963,-1.8677702,-0.051007964,-1.0535465,-0.21891184,2.4106934,63
1747532702050,-1.11082655,-1.7801536,-0.0361204725,-1.0279802,-0.26498452,2.8434571,64
1747532702060,-0.7429102750000001,-1.6550742,-0.0090301185,-0.9302422,-0.39228363,4.003796400000001,65
1747532702070,-0.42441556,-1.58637215,0.010982576,-0.797084125,-0.51745223,4.9918292,66
1747532702080,-0.070898625,-1.52023265,0.013545177,-0.656202925,-0.60826603,5.42619085,67
1747532702090,0.24930447,-1.45262875,-0.0142773505,-0.48522797,-0.684965045,5.687446850000001,68
1747532702100,0.5147167450000001,-1.4013767499999998,-0.1315468585,-0.285224555,-0.79175779,5.8810587000000005,69
1747532702110,0.686166935,-1.3902721,-0.303241135,-0.252467675,-0.933437975,6.10849285,70
1747532702120,0.7820814,-1.4128474,-0.464929065,-0.50147324,-1.07724865,6.35483535,71
1747532702130,0.8760434800000001,-1.4327380500000002,-0.5931811650000001,-0.9187906,-1.22505405,6.64858185,72
1747532702140,0.93925433,-1.42431805,-0.6418706000000001,-1.4556839,-1.3233247,7.0536485,73
1747532702150,1.13840505,-1.3984480499999998,-0.54790854,-2.3292007,-1.2977584,7.92636615,74
1747532702160,1.4734956499999998,-1.3867333,-0.366696015,-3.1558459,-1.176052,8.897621000000001,75
1747532702170,1.88656255,-1.3940549999999998,-0.1841411899999999,-3.5739622,-0.994957035,9.5104145,76
1747532702180,2.4305661,-1.3841707,0.015009525,-3.81497835,-0.686562935,9.9399825,77
1747532702190,3.12027195,-1.22016425,0.251501,-3.7313551,0.0319579499999999,10.0217415,78
1747532702200,3.691488,-0.99087245,0.43613031,-3.4266894,0.68310085,9.8283955,79
1747532702210,3.9554357,-0.82991668,0.55352185,-3.0282805,0.845021035,9.5865805,80
1747532702220,4.0539127,-0.68482463,0.6910480999999999,-2.4338629000000003,0.8282431050000001,9.381784,81
1747532702230,4.0044913,-0.5974521500000001,0.7911116,-1.6676715,0.65327342,9.258746,82
1747532702240,3.7318792,-0.76194674,0.7192367,0.4575311,-0.12836437,9.4366455,83
1747532702250,3.6823356,-0.81795785,0.6576122499999999,0.82797685,-0.253799255,9.58471725,84
1747532702260,3.632792,-0.87396896,0.5959878,1.1984226,-0.37923414,9.732789,85
1747532702270,3.7241917,-1.0715334,0.32776889,1.98458775,-0.562193325,10.3003085,86
1747532702280,4.12847245,-1.1152196,0.085542065,2.2799323,-0.57284595,10.4968495,87
1747532702290,4.425734,-1.091424,-0.05222825,2.3744745,-0.50600064,10.272878,88
1747532702300,4.522258750000001,-0.94584385,-0.1792600499999999,2.17846585,-0.401072085,9.8283965,89
1747532702310,4.569850000000001,-0.6936107,-0.3392395849999999,1.8189391,-0.178698118,9.1157345,90
1747532702320,4.45758375,-0.494093915,-0.34168016,1.5379756,0.091346422,8.591358,91
1747532702330,4.309319,-0.318372685,-0.26419198,1.4005564499999998,0.421578425,8.1071953,92
1747532702340,3.9367655,-0.0508859299999999,-0.30165476,1.3203953,0.790159925,7.3982618,93
1747532702350,3.4908729000000003,0.218675305,-0.48140293,1.0325076,0.898816875,6.67281675,94
1747532702360,3.1975161,0.380729305,-0.6589546,0.428768945,0.7046724499999999,6.152435049999999,95
1747532702370,2.9391814500000004,0.52801784,-0.76585165,-0.4103931349999999,0.549676485,5.583051299999999,96
1747532702380,2.6882906,0.7004443,-0.60697035,-1.67725893,0.630902885,4.6599995,97
1747532702390,2.5124473500000004,0.832845375,-0.290550145,-2.69032545,0.90068105,3.690875,98
1747532702400,2.3996929,0.89227331,-0.03490019,-2.96915845,1.18936775,3.0096385000000003,99
1747532702410,2.3351398,0.92156017,0.08786061,-3.038667,1.3326459,2.667955,100
1747532702420,2.0382441,1.002099075,0.31873876,-2.79125915,1.6205335,1.6935042,101
1747532702430,1.72560675,1.05237485,0.39537274,-2.3036343500000003,1.57632505,0.95740642,102
1747532702440,1.4456731,1.08556665,0.40379273,-1.82399905,1.34889115,0.42184472,103
1747532702450,1.3285256,1.1011863,0.39415246,-1.52173025,1.07911292,0.1733717874999999,104
1747532702460,1.2864257,1.1119248,0.39464056,-1.3688648,0.93423694,0.060720075,105
1747532702470,1.2157712,1.14560475,0.36254704,-0.8942895,0.49508167,-0.2300971249999999,106
1747532702480,1.21186625,1.1320595,0.2920145,-0.5536711999999999,0.106792755,-0.51638694,107
1747532702490,1.2503053,1.11888045,0.24247088,-0.288952975,-0.2101234149999999,-0.87884315,108
1747532702500,1.3074146999999998,1.11997875,0.2190413849999999,-0.184823375,-0.32330775,-1.196292,109
1747532702510,1.3509789,1.1009422,0.18279888,-0.1608549249999999,-0.39175099,-1.5100124,110
1747532702520,1.36598845,1.0653098,0.1659589249999999,-0.1944107649999999,-0.45113949,-1.82240115,111
1747532702530,1.4359109,1.006003925,0.241860735,-0.2524676799999999,-0.5368933,-2.2114890000000003,112
1747532702540,1.602724,0.936935775,0.368282375,-0.23489081,-0.6362292,-2.5992453,113
1747532702550,1.7980918,0.8787281499999999,0.452726185,-0.088683264,-0.7542072200000001,-2.94492365,114
1747532702560,1.97942635,0.809171835,0.49177536,0.121173831,-0.94249272,-3.3603767,115
1747532702570,2.2544788,0.653219235,0.425391775,0.33156356,-1.21120565,-3.87196985,116
1747532702580,2.5319718,0.4884806,0.32337585,0.438356325,-1.61067985,-4.5912897,117
1747532702590,2.7413729,0.39939969,0.276638895,0.40506682,-1.9398466,-5.22219255,118
1747532702600,2.967736,0.337531165,0.26358183,0.31691618,-2.0711404,-5.63311835,119
1747532702610,3.2098408000000003,0.283594525,0.2414946499999999,0.18748654,-2.11188675,-6.04271265,120
1747532702620,3.46134185,0.20439795,0.18743597,-0.0284958249999999,-2.0213393,-6.45523615,121
1747532702630,3.78850075,0.0228193524999999,0.124957315,-0.54168699,-1.43491125,-7.091199,122
1747532702640,4.13786875,-0.1875579975,0.0988431824999999,-1.144626625,-0.4719121739999999,-7.7948065,123
1747532702650,4.36484195,-0.3618148599999999,0.1339874225,-1.4788533,0.371777276,-8.304802,124
1747532702660,4.47661995,-0.55657253,0.201713315,-1.62772405,1.08577075,-8.71413,125
1747532702670,4.5179875,-0.80526689,0.38353599,-1.44503125,1.82985795,-9.0390355,126
1747532702680,4.553376,-1.00466167,0.5990385,-0.96592855,2.33266285,-9.174856,127
1747532702690,4.57839215,-1.0806855,0.74254413,-0.37177728,2.4836642,-9.1154675,128
1747532702700,4.5868121,-1.1076538500000002,0.85529861,0.351004635,2.5574337,-9.012137,129
1747532702710,4.5958421000000005,-1.10240665,0.90349993,1.140898265,2.546781,-8.924519,130
1747532702720,4.5852255,-1.1063115,0.869942065,2.0008329500000004,2.4407872,-8.9026815,131
1747532702730,4.44623485,-1.14255395,0.733514065,3.0027141000000004,2.0975057,-9.003349,132
1747532702740,4.16154215,-1.1456047,0.54302738,3.69167395,1.6527578,-9.081912,133
1747532702750,3.8385323,-1.0867869,0.35546938,3.87703,1.34303215,-8.99935425,134
1747532702760,3.5367555,-1.04822585,0.1906087149999999,3.8381479,1.02052332,-8.84409175,135
1747532702770,3.39386,-1.0433447,0.12032023,3.7577205,0.82557994,-8.759669,136
1747532702780,3.09903895,-1.1224193,0.0250158674999999,3.61976865,0.72384717,-8.863,137
1747532702790,2.8182511000000003,-1.2154051,-0.0179382075,3.4818168,0.6221144,-8.966331,138
1747532702800,2.4737642500000003,-1.3151025,-0.0080538885,3.2746229,0.566188025,-8.95168375,139
1747532702810,2.277054,-1.3581786,0.012202863,3.067429,0.51026165,-8.9370365,140
1747532702820,1.4925321,-1.38319445,0.06577343,2.7345339,0.39894155,-8.192949,141
1747532702830,1.3735542,-1.3757507,0.07565775,2.6716833,0.3717773,-7.985755,142
1747532702840,1.17001045,-1.3783133,0.128862225,2.51056205,0.30146983,-7.3753583,143
1747532702850,1.00075675,-1.42883315,0.244789415,2.5076326,0.259125575,-6.930877,144
1747532702860,0.8925173,-1.46654,0.32337585,2.56196105,0.20692762,-6.54924615,145
1747532702870,0.7202129500000001,-1.6591011999999998,0.20098115,2.5116273,0.154995975,-6.26375515,146
1747532702880,0.6577343,-1.7459855,0.12861817,2.4431841,0.1257012,-6.100237,147
1747532702890,0.33753118,-1.89669095,-0.0826133735,1.9337213,0.1984055,-5.5758605,148
1747532702900,0.21550256,-1.9265879,-0.14985114,1.7086842,0.23116238,-5.3652043,149
1747532702910,-0.200981155,-2.11780685,-0.2267291699999999,0.2886866735,0.35286885,-4.10765975,150
1747532702920,-0.352784765,-2.199566,-0.132401055,-0.1592570365,0.3270361899999999,-3.65865085,151
1747532702930,-0.5233807699999999,-2.2359305000000003,-0.003904916,-0.4444816099999999,0.1600559849999999,-3.19526075,152
1747532702940,-0.70483732,-2.2559433,0.0966466739999999,-0.608266,-0.25353295,-2.386725,153
1747532702950,-0.96036525,-2.2614346,0.185605535,-0.571780685,-0.553671225,-1.51187658,154
1747532702960,-1.15939395,-2.229463,0.2739542499999999,-0.45806371,-0.95208015,-0.1725728499999999,155
1747532702970,-1.2073512000000002,-2.1603948,0.33557871,-0.2695119099999999,-1.1233214,0.77551253,156
1747532702980,-1.1844098500000002,-2.08851995,0.381339445,-0.027696875,-1.2295815,1.7398432499999998,157
1747532702990,-0.93339695,-1.97222655,0.40684342,0.42450786,-1.20960775,3.08181015,158
1747532703000,-0.601235,-1.8539809,0.3773124949999999,0.91905685,-1.0567423,4.2903527,159
1747532703010,-0.366329935,-1.79199045,0.283228435,1.2290488,-0.82904205,4.9137988,160
1747532703020,-0.24454537,-1.7667305,0.22258021,1.3662016,-0.700944,5.1899686,161
1747532703030,-0.030019043,-1.7240205,0.071020655,1.5488945,-0.3110572,5.749765,162
1747532703040,0.3819496049999999,-1.6130964,-0.21989559,1.29642685,0.3904194155,6.536462500000001,163
1747532703050,0.6943429,-1.50497905,-0.3768244,0.87032105,0.98616855,7.07016,164
1747532703060,0.94987085,-1.4039393,-0.4344219,0.4759068899999999,1.4397049000000002,7.374825850000001,165
1747532703070,1.3659884,-1.2075952,-0.48909074,-0.13688648,2.0905814,7.7130475,166
1747532703080,1.5485432,-1.03309433,-0.50300199,-0.51372379,2.41415545,7.94793825,167
1747532703090,1.811881,-0.82247296,-0.51923177,-1.1092066,2.92867825,8.391088,168
1747532703100,2.01335025,-0.79269793,-0.5155708999999999,-1.47778805,3.28873765,8.7548755,169
1747532703110,2.2172601,-0.81795787,-0.48347739,-1.7427726,3.59580015,9.0723245,170
1747532703120,2.40835685,-0.84553637,-0.412334725,-1.9185413,3.8048583,9.4185355,171
1747532703130,2.6940258000000004,-0.83662825,-0.319715005,-1.96860875,3.90925415,9.7738015,172
1747532703140,3.2064241,-0.7520624,-0.17938208,-1.73931055,3.75851925,10.163156,173
1747532703150,3.6373073,-0.6548056,-0.05003173475,-1.32252585,3.3571809000000004,10.43613,174
1747532703160,3.88648975,-0.61502425,0.01976863525,-0.8942895500000001,2.8581045,10.4760775,175
1747532703170,4.0393915,-0.605506,0.05296042,-0.6641924,2.576342,10.46143,176
1747532703180,4.1758194,-0.65004645,0.0967687,0.382429955,1.6301209,9.75089825,177
1747532703190,3.8270617,-0.7941623,0.10470056,1.3012205,1.154214,9.331717,178
1747532703200,3.74103155,-0.8424856199999999,0.102137958,1.4660702,1.1851067,9.4006925,179
1747532703210,3.6031392,-0.92497697,0.097500868,1.7805895500000002,1.2908342,9.5943045,180
1747532703220,3.5756827,-0.97476467,0.100307525,2.0844562,1.47352705,9.856626,181
1747532703230,3.8727002,-0.95011485,-0.094206095,2.4133566,1.81254745,10.0883205,182
1747532703240,4.0219411,-0.924854925,-0.1537560675,2.57847265,2.0660804,10.0579605,183
1747532703250,4.31005065,-0.81844597,-0.26126328,2.54944415,2.00189825,9.476326,184
1747532703260,4.41048015,-0.59476751,-0.33728711,2.5422536,1.7632789999999998,8.522381500000002,185
1747532703270,4.000708100000001,-0.2014692579999999,-0.38268177,2.55769995,1.111603475,7.1987908,186
1747532703280,3.6293752,0.049299564,-0.40000984,2.5608957,0.61199445,6.3718796,187
1747532703290,3.2563338,0.193781462,-0.49189739,2.38059975,0.481233225,5.9066253,188
1747532703300,2.7673652000000004,0.389393345,-0.62051557,2.0106867,0.4181163,5.261341,189
1747532703310,2.651438,0.44052333,-0.6572462,1.8210696,0.4857606,5.081311,190
1747532703320,2.35551855,0.5491288000000001,-0.7493777699999999,0.996821215,0.8386294299999999,4.567853899999999,191
1747532703330,2.10670225,0.62197988,-0.70325093,-0.0258326849999999,1.42292705,4.11485025,192
1747532703340,1.97832805,0.6836043199999999,-0.5720701800000001,-0.94675375,2.0357204,3.67942345,193
1747532703350,2.02433275,0.73729694,-0.46041399,-1.2665994,2.30683015,3.3081788000000003,194
1747532703360,2.007981,0.81820192,-0.3585200899999999,-1.39363225,2.4290693,2.82667925,195
1747532703370,1.8467812,0.93559345,-0.216844865,-1.3683322,2.36834915,2.33825555,196
1747532703380,1.6788698,1.0056379,-0.100673615,-1.1158644999999998,1.95529285,1.7619474,197
1747532703390,1.6255433,1.00673615,-0.050885935,-0.766724085,1.42532385,1.26393625,198
1747532703400,1.6191978,1.0094208,-0.006467518,-0.41998051,0.964064315,0.90148005,199
1747532703410,1.628716,1.01479005,0.024649782,-0.047404265,0.480966895,0.5139901,200
1747532703420,1.63591575,1.00734625,0.029652956,0.27430561,0.04740427,0.1613875632499999,201
1747532703430,1.6415291,0.8773858,-0.061746486,0.6048039,-0.49401641,-0.33023196675,202
1747532703440,1.63579375,0.8465125499999999,-0.056377225,0.8098672849999999,-0.933438,-0.7749798800000001,203
1747532703450,1.6526336499999998,0.785498225,-0.0359984435,0.850347335,-1.14089825,-1.02851285,204
1747532703460,1.7454974,0.7205790000000001,0.0009762299999999,0.86339685,-1.31986265,-1.30601425,205
1747532703470,1.8997416,0.649558325,0.0417337915,0.8583368499999999,-1.4647386,-1.6519588500000002,206
1747532703480,2.1165865,0.547542415,0.10872751,0.78589885,-1.6652746500000002,-2.32600495,207
1747532703490,2.3001176,0.4600479349999999,0.20598431,0.7065366500000001,-1.85915275,-2.9816752,208
1747532703500,2.39468975,0.407209535,0.3094645849999999,0.706004015,-1.99018025,-3.3177661,209
1747532703510,2.5680924,0.333382205,0.500195335,0.879908465,-2.2596922,-3.83175615,210
1747532703520,2.81202755,0.24478942,0.6419926,1.0402308,-2.4538367,-4.1859565,211
1747532703530,3.0308248000000004,0.14570218,0.6092889,1.1550129999999998,-2.4975126000000003,-4.634965749999999,212
1747532703540,3.2447410000000003,0.041367705,0.52691958,1.20907515,-2.51748635,-5.346562499999999,213
1747532703550,3.5805638,-0.097134784,0.43515408,0.8655274,-2.442119,-6.162022,214
1747532703560,3.701128,-0.139600747,0.458705605,0.623179725,-2.4125578,-6.5018415,215
1747532703570,4.149339100000001,-0.2606531549999999,0.755723315,0.13582122,-2.33452705,-7.337808,216
1747532703580,4.6806517,-0.417459935,1.1830675,-0.081759048,-2.2365227,-8.0930805,217
1747532703590,5.1001862,-0.6024553149999999,1.43334815,0.050333747,-2.0796625,-8.646485,218
1747532703600,5.4827462,-0.94730823,1.5814909,0.39068574,-1.80855275,-9.551427,219
1747532703610,5.6025782,-1.2770296,1.63591575,0.7036071749999999,-1.5997609000000002,-10.383665,220
1747532703620,5.4882372,-1.43163985,1.67032785,0.859668405,-1.5100123,-10.725615,221
1747532703630,5.40354945,-1.5896669,1.7714895,1.11346768,-1.37419115,-10.92428675,222
1747532703640,5.3605955000000005,-1.80553555,1.9289064,1.50122395,-1.29749215,-11.11550175,223
1747532703650,5.3348475,-1.9263439,2.016889,1.7140105,-1.3118732,-11.22842,224
1747532703660,4.76265525,-1.93232325,1.9075514,2.58806005,-1.0175939,-10.87129,225
1747532703670,3.960073,-1.9915071,1.67008375,3.6037897,-0.76539252,-10.469153,226
1747532703680,3.45011535,-1.98943265,1.453605,3.7742319,-0.95261277,-10.3067005,227
1747532703690,2.9450388,-1.854469,1.2612879,3.7377466,-1.15075195,-9.945842,228
1747532703700,2.66901005,-1.7467177500000002,0.946454025,3.27701975,-0.82611257,-9.277921,229
1747532703710,2.54258835,-1.6708159500000002,0.715453825,2.675678,-0.35073833,-8.76286525,230
1747532703720,2.3922491,-1.59308365,0.70825412,2.30576485,-0.18322549,-8.58496625,231
1747532703730,2.2638751,-1.56818985,0.73046332,2.0125508,-0.0290284549999999,-8.421714999999999,232
1747532703740,2.14501915,-1.5864942,0.75401485,1.6708673,0.2247708,-8.191884,233
1747532703750,1.95380025,-1.6706939,0.810270075,1.5374429,0.51532168,-8.03289315,234
1747532703760,1.70412975,-1.7718556,0.87836206,1.3968280000000002,1.00108228,-7.82356865,235
1747532703770,1.44945605,-1.83079545,0.901547465,1.4133396500000002,1.39416485,-7.70186215,236
1747532703780,1.20539875,-1.9147512,0.84053318,1.4362428500000002,1.71827155,-7.506652349999999,237
1747532703790,0.93364095,-2.0422711,0.72899903,1.4178670000000002,1.8889802,-7.2611089,238
1747532703800,0.7746377,-2.114512,0.67555046,1.4002901,1.933455,-7.1394024,239
1747532703810,0.075413689,-2.30475465,0.4084297799999999,1.0671287,1.8375812,-5.9737367,240
1747532703820,-0.115317046,-2.3596676,0.30067852,0.82797682,1.83838015,-5.33457805,241
1747532703830,-0.32044718,-2.370528,0.18938842,0.42770368,1.9414445,-4.315919,242
1747532703840,-0.414409205,-2.32903825,0.1342314849999999,0.17417074,2.04903625,-3.68102135,243
1747532703850,-0.554620085,-2.2718068,0.0408795899,-0.41545314,2.3158848,-2.334527,244
1747532703860,-0.66456789,-2.23153745,-0.0374627851,-0.56166067,2.3824639000000003,-2.04424245,245
1747532703870,-0.78037307,-2.1830921,-0.098111005,-0.98856544,2.5667548,-1.1435614,246
1747532703880,-0.9225364,-2.1067023,-0.13935669,-0.98856544,2.5667548,-1.1435614,247
1747532703890,-1.0633575,-1.9917512,-0.16010156,-1.6186694,2.7089674,1.0956244,248
1747532703900,-1.0378535,-1.95258005,-0.14460392,-1.67992205,2.6674222,1.5217302,249
1747532703910,-0.9438914,-1.8781426,-0.102137955,-1.7659421,2.5553031500000003,2.34810915,250
1747532703920,-0.78781678,-1.80077635,-0.048689419,-1.77952425,2.40403555,3.1140343,251
1747532703930,-0.5863475300000001,-1.72694905,0.005369261,-1.71907055,2.2290659,3.87090465,252
1747532703940,-0.241738688,-1.6190758,0.0466149349999999,-1.4780545,2.103631,4.6919572,253
1747532703950,0.091155377,-1.51974445,0.0212329804999999,-1.2077436,2.0442425,5.2807822,254
1747532703960,0.299824325,-1.48472225,-0.0662615395,-1.08843395,1.9430424,5.5633437,255
1747532703970,0.53302103,-1.4404259,-0.20842488,-1.0306433,1.6580842,5.9441757,256
1747532703980,0.619173215,-1.40369525,-0.27920149,-1.06952545,1.56247665,6.12447165,257
1747532703990,0.7848881,-1.3647681,-0.36169285,-1.32652055,1.31000895,6.811301,258
1747532704000,1.0287012999999998,-1.3719678000000002,-0.363523275,-1.70309155,1.07511817,7.579623,259
1747532704010,1.4809394,-1.3781913,-0.297871875,-2.01814355,0.93237272,8.0185118,260
1747532704020,1.99406975,-1.3563482,-0.182554827,-2.228267,0.88736528,8.22757,261
1747532704030,2.5058577,-1.312906,-0.0528383945,-2.29511225,1.23783733,8.37218,262
1747532704040,2.9102605500000003,-1.2710502,0.0654073424999999,-2.25889325,1.80562325,8.6574045,263
1747532704050,3.1578568,-1.2321231,0.20940111,-2.05995515,2.1928469,9.05980775,264
1747532704060,3.38666045,-1.20698515,0.386830725,-1.6309199,2.3835293,9.56128125,265
1747532704070,3.62168755,-1.24835285,0.507883125,-0.9832391,2.34597865,10.113621,266
1747532704080,4.2309766,-1.3622056,0.50617472,0.33422675,1.7968348,10.520552,267
1747532704090,4.78913545,-1.44530705,0.354737205,1.62053355,1.0740529,10.531205,268
1747532704100,4.84209585,-1.48691875,0.1088495355,2.14650785,0.63995765,10.357034,269
1747532704110,4.797067200000001,-1.5378047,-0.1359398945,2.38406185,0.39547945,10.324809,270
1747532704120,4.8187883,-1.56513915,-0.291648425,2.3989755,0.368048885,10.3825995,271
1747532704130,5.001221149999999,-1.4295653,-0.279445555,2.3023027000000003,0.585629135,10.3644905,272
1747532704140,5.17657635,-1.17110865,-0.182554825,2.2559638,0.89136005,10.15916075,273
1747532704150,5.1472895,-0.93217663,-0.10958171,2.31828175,1.1116035,9.78258925,274
1747532704160,4.97827985,-0.701298505,-0.05674331,2.45570085,1.2689963,9.2627405,275
1747532704170,4.56240635,-0.3863426299999999,-0.11238836,2.620817,1.3108079,8.711732999999999,276
1747532704180,4.118466,-0.08834872525,-0.24161668,2.6780749,1.1108045,7.8741687,277
1747532704190,3.824621,0.08920292475,-0.3483917199999999,2.56036305,0.8250473,6.960438,278
1747532704200,3.670865,0.17303659,-0.3995217,2.4586303,0.721184,6.6323366,279
1747532704210,3.1596871,0.348025635,-0.48530786,1.9390476,0.5946838999999999,5.6799903,280
1747532704220,2.71086595,0.452970235,-0.3995217399999999,1.4535533,0.68176925,4.90554285,281
1747532704230,2.3031681500000003,0.5357056250000001,-0.266022415,1.0841729,0.824781,4.203799699999999,282
1747532704240,2.10047865,0.5663348500000001,-0.176331365,1.0253171,0.88816425,3.81124985,283
1747532704250,1.94232965,0.59391332,-0.1065309899999999,1.1211909,0.85700525,3.4746263500000003,284
1747532704260,1.76929305,0.63039985,-0.078098318,1.3203953,0.7305051,3.1630365,285
1747532704270,1.50497905,0.64321288,-0.148142753,1.67539465,0.39175101,2.8834046,286
1747532704280,1.31400425,0.64553145,-0.264558055,2.01974145,-0.013582115,2.7068371,287
1747532704290,1.2515256,0.707522,-0.39464056,2.2264028,-0.327568825,2.6114959,288
1747532704300,1.2296825,0.7407137500000001,-0.4333236299999999,2.40350295,-0.6508766,2.4921862,289
1747532704310,1.1889249,0.8039245500000001,-0.50959153,2.5422536,-1.00694125,2.35556605,290
1747532704320,1.1986872,0.861278,-0.62002745,2.58513055,-1.4130733,2.1640848,291
1747532704330,1.28117855,0.9099674,-0.7272906,2.427205,-1.7113473,1.8492991,292
1747532704340,1.4104068,0.9499928,-0.804900795,2.3129555,-1.73185365,1.695901,293
1747532704350,1.5418316,0.99197065,-0.892395315,2.0349215000000003,-1.7755295,1.3401027,294
1747532704360,1.6409188,1.03285025,-0.95511803,1.66207885,-1.8370485,0.8990832500000001,295
1747532704370,1.70791255,1.0579882,-0.98049998,1.2098741,-1.9140139,0.41465421,296
1747532704380,1.7415925,1.04493115,-0.9067947,0.38695732,-2.0461067,-0.31691619,297
1747532704390,1.75281915,0.99514345,-0.7532827,-0.41784998,-2.19923845,-0.9731191,298
1747532704400,1.82078915,0.88788025,-0.524234965,-0.85114625,-2.33292915,-1.3070795,299
1747532704410,1.9498955,0.7811052,-0.22965787,-1.33584155,-2.53772625,-1.86101705,300
1747532704420,2.0804660000000004,0.7132573,0.08786062,-1.63411565,-2.7236149000000003,-2.4786041,301
1747532704430,2.1484358,0.6740861,0.26699865,-1.6559536,-2.7787423,-2.7057717,302
1747532704440,2.24837735,0.54363752,0.74022565,-1.38191435,-2.82295085,-3.3694315,303
1747532704450,2.3460002,0.39183392,1.104115,-1.03064337,-2.76942135,-3.7300235,304
1747532704460,2.47388625,0.236735535,1.3437792000000002,-0.16618124,-2.5624937,-4.12923135,305
1747532704470,2.56321125,0.128618165,1.31168565,0.7363640650000001,-2.3835292,-4.45174,306
1747532704480,2.6276423,0.0373407579999999,1.1630547999999998,1.130245585,-2.41016075,-4.60327385,307
1747532704490,2.7281938500000003,-0.036120472,0.9855032,1.3078784,-2.5534389,-4.76865635,308
1747532704500,3.00971405,-0.122882825,0.89446985,1.210673,-2.8711541,-5.165201,309
1747532704510,3.3538347,-0.228071505,0.94584385,0.9904296,-3.15637865,-5.6381783,310
1747532704520,3.6286432,-0.34253435,1.10533525,0.82850942,-3.26583445,-6.0075588,311
1747532704530,3.89295725,-0.47371512,1.32388855,0.74435352,-3.2937976,-6.45443725,312
1747532704540,4.13896675,-0.6534632650000001,1.5641629,0.760332485,-3.23733865,-6.88453795,313
1747532704550,4.2799098,-0.901913515,1.8314056,0.8554073600000001,-3.0439932,-7.25471735,314
1747532704560,4.3052918,-1.0902037,2.0215263,0.975782225,-2.7079023,-7.50825015,315
1747532704570,4.3034615,-1.1940501,2.08949625,1.1060107499999998,-2.3049660000000003,-7.670703,316
1747532704580,4.2055945,-1.2776397,2.12708105,1.29030155,-1.87033805,-7.8480695,317
1747532704590,3.93713145,-1.4043054,2.10291935,1.5334482500000002,-1.45035755,-7.952998,318
1747532704600,3.7553089,-1.4997318,2.0637481,1.81148225,-1.08124345,-7.97590125,319
1747532704610,3.54529775,-1.5385368499999998,2.02896995,2.24025115,-0.8756474000000001,-7.80972,320
1747532704620,3.23924995,-1.6000393,2.0028559,2.6493127000000003,-0.8958874,-7.5633776,321
1747532704630,3.1432133,-1.6227367,2.01152,2.773416,-0.9555422,-7.4808197,322
1747532704640,2.775663,-1.58100285,1.9256116,3.41284095,-0.8562063,-6.952448499999999,323
1747532704650,2.4920684,-1.56184435,1.7147462999999998,3.82190255,-0.646881825,-6.538327,324
1747532704660,2.24654685,-1.4611707,1.5631867,3.9832902,-0.53156695,-6.213954,325
1747532704670,2.0963296500000004,-1.31046535,1.4084544,4.07809875,-0.3986752249999999,-5.850166,326
1747532704680,2.07521865,-1.2300485,1.19038925,4.06451665,-0.1328917435,-5.55801725,327
1747532704690,1.98699195,-1.18880285,0.9170451,3.76730785,0.2426139765,-5.42698975,328
1747532704700,1.8080981,-1.10936225,0.7347343500000001,3.40112315,0.380832045,-5.4341802,329
1747532704710,1.6743548,-1.0457853,0.6695710500000001,3.1848744,0.214384475,-5.509281400000001,330
1747532704720,1.5551328,-1.0254065,0.5942794,2.9547772,0.0047936869999999,-5.5961007,331
1747532704730,1.3507349,-1.04834785,0.57353455,2.6964506000000004,-0.284691928,-5.613144999999999,332
1747532704740,1.1482894,-1.0655539,0.61624455,2.2109563,-0.6306366,-5.490373,333
1747532704750,1.0177187,-1.0733638,0.6160005,2.0511668,-0.6945524,-5.3652043,334
1747532704760,0.9928249,-1.09337645,0.5973301499999999,1.90336135,-0.644485,-5.30981065,335
1747532704770,0.92912597,-1.12730035,0.55718275,1.60988095,-0.4913532499999999,-5.23151375,336
1747532704780,0.7789087,-1.1733052000000002,0.486040035,1.3025521,-0.22370554,-5.1774516,337
1747532704790,0.591228665,-1.223215,0.397447235,0.77151777,0.299072995,-5.05547885,338
1747532704800,0.4263679999999999,-1.2586033,0.32862309,0.205329728,0.797084135,-4.8988848,339
1747532704810,0.2668766,-1.30387585,0.286767275,-0.1672465219999999,1.04316025,-4.756405600000001,340
1747532704820,0.14972912,-1.37684895,0.255771995,-0.34301516,1.1494204,-4.6797066,341
1747532704830,-0.0067115749999999,-1.5173039,0.18670379,-0.6540724,1.293231,-4.528439,342
1747532704840,-0.20427592,-1.6702058,0.09750087,-1.3848438,1.4058827,-4.15959135,343
1747532704850,-0.375360045,-1.78173995,0.01940255,-1.6439694,1.3518206,-3.9084553,344
1747532704860,-0.562918035,-1.8671599,-0.0428320499999999,-1.91534555,1.26287105,-3.5278896,345
1747532704870,-0.8754333,-1.9219507,-0.07004443,-2.15929105,1.17072565,-2.9893983,346
1747532704880,-1.0195491,-1.93403155,-0.08163715,-2.4013723,1.0423613,-1.86128325,347
1747532704890,-1.1772100499999998,-1.92988265,-0.095548415,-2.5790052,0.912399025,-0.58083543,348
1747532704900,-1.1490215,-1.8953486,-0.096158555,-2.63945905,0.826378925,0.34541202,349
1747532704910,-1.1072878,-1.8770443,-0.09445015,-2.656237,0.7861652,0.8090684,350
1747532704920,-0.542905315,-1.74000615,-0.1239810775,-2.60137585,0.541686965,2.29564495,351
1747532704930,-0.02660224,-1.590033,-0.155586495,-2.4932516,0.15978967,3.2346754,352
1747532704940,0.240884495,-1.4954608,-0.221481955,-2.51215995,0.0836232604999999,3.38833985,353
1747532704950,0.41538544,-1.43310415,-0.348757805,-2.7643614,-0.051665325,3.9329565,354
1747532704960,0.535217555,-1.4144338,-0.44991954,-2.9353362,-0.0418116275,4.18995155,355
1747532704970,0.9349833,-1.4028411,-0.27505252,-3.6309538,0.058056913,5.7779946,356
1747532704980,1.2456682,-1.3359693,-0.09689073,-3.6602488,0.092145376,6.515157,357
1747532704990,1.790892,-1.1971008,0.15400012,-3.3763556,-0.016511599,7.32103,358
1747532705000,2.0999905,-1.11546365,0.2545517,-3.1316111,-0.1384843795,7.5354145,359
1747532705010,2.66315265,-0.92888187,0.423805415,-2.55370525,-0.36964678,7.893876000000001,360
1747532705020,3.418998,-0.6113634,0.42368335,-0.91186637,-0.23062976,8.888567,361
1747532705030,3.5515212,-0.62393235,0.399277645,-0.611195475,-0.01784318,9.1796505,362
1747532705040,4.0830774,-0.65090066,0.31434575,0.0058589599999999,0.34461306,9.729593,363
1747532705050,4.32408405,-0.6296676999999999,0.288231615,0.6567355500000001,0.46871636,10.144247,364
1747532705060,4.79474855,-0.53717001,0.23710161,1.3249227,0.26471821,10.354104,365
1747532705070,5.289330700000001,-0.18401916,0.138502483,2.24184905,-0.118244355,10.262225,366
1747532705080,5.5699965,0.21257386,0.0106164879999999,3.0349383,-0.1257012,9.833456,367
1747532705090,5.589643000000001,0.409894155,-0.119710085,3.04665625,0.0495347999999999,9.63798,368
1747532705100,5.555475,0.559135175,-0.2650461699999999,2.98487095,0.374706785,9.1767205,369
1747532705110,5.25809135,0.81783585,-0.44284186,2.7795413,0.615456555,8.5713845,370
1747532705120,4.4911413,1.1436522,-0.64431113,1.8658108,0.85540736,6.828878,371
1747532705130,4.24500975,1.18087095,-0.6794553649999999,1.59203775,0.88949583,6.581204,372
1747532705140,3.6564658,1.3020455,-0.7148437,0.5997439,0.9960223,5.8083544,373
1747532705150,3.5202818,1.3602531,-0.6944649,0.3265035625,0.98883175,5.573729999999999,374
1747532705160,3.26450965,1.4639774,-0.64016215,-0.2005360375,0.9520801,5.07891465,375
1747532705170,2.5748038,1.5380487,-0.47054234,-1.3592775,0.7728494,3.8253646,376
1747532705180,2.4129939,1.51913435,-0.41367702,-1.54889455,0.74275565,3.60165905,377
1747532705190,2.11390185,1.48350205,-0.3131254599999999,-1.8983013,0.70041137,3.1731565,378
1747532705200,1.86264495,1.43542275,-0.2504027399999999,-2.19737425,0.70653665,2.77155185,379
1747532705210,1.6481186,1.38661125,-0.183286985,-2.41522085,0.76033248,2.376605,380
1747532705220,1.2982625,1.37404225,-0.057231422,-2.3872577,0.76699038,1.76194745,381
1747532705230,0.960487275,1.38282835,0.030629185,-2.1704763,0.625576555,1.15687725,382
1747532705240,0.87201655,1.3867333,0.040513504,-2.0602214,0.51292485,0.9683254,383
1747532705250,0.4425978,1.4700788,0.12764194,-1.4367754,-0.03701794,0.466053185,384
1747532705260,0.19658811,1.5326795,0.176331365,-0.912399,-0.36085834,0.26471822,385
1747532705270,0.15204766,1.56428495,0.1943916,-0.554470135,-0.48842375,0.178165485,386
1747532705280,0.134841625,1.5918633999999998,0.203055625,-0.222640265,-0.5765743999999999,0.0567253354999999,387
1747532705290,0.12813005,1.6068729,0.20525214,-0.06391586,-0.6109292,-0.016511599,388
1747532705300,0.10714114,1.6232247,0.17498904,0.19281286,-0.65673554,-0.20026971,389
1747532705310,0.0616244585,1.6324989,0.102992155,0.27909928,-0.6388923550000001,-0.407729955,390
1747532705320,0.0538146235,1.6887541,-0.00597940225,0.274039275,-0.46498795,-0.83383575,391
1747532705330,0.1508273749999999,1.7124277,0.00780983225,0.2159823699999999,-0.37417415,-1.00720755,392
1747532705340,0.3839020549999999,1.72048155,0.0937179835,0.158724405,-0.342748835,-1.22638575,393
1747532705350,0.6307659649999999,1.7146241999999998,0.228925715,0.09693907,-0.446079485,-1.6133431,394
1747532705360,0.792087785,1.7002248999999998,0.3646215499999999,0.064182185,-0.59095545,-2.01255095,395
1747532705370,1.0943527,1.7115735,0.6557818,0.17949706,-0.6498113,-2.4788704,396
1747532705380,1.21992015,1.7385418,0.76756,0.27643612,-0.6098639,-2.62134945,397
1747532705390,1.9993169,1.7628256,1.1016744,0.8681905,-0.31372038,-3.5361454,398
1747532705400,1.9993169,1.7628256,1.1016744,0.8681905,-0.31372038,-3.5361454,399
1747532705410,1.9993169,1.7628256,1.1016744,0.8681905,-0.31372038,-3.5361454,400
1747532705420,2.82618285,1.69253695,1.31998365,1.6610136,-0.12996226,-4.73004055,401
1747532705430,3.3164937,1.6215163,1.385513,2.102832,-0.0793622,-5.332714,402
1747532705440,4.1929035,1.5636748,1.4738617,2.25756165,-0.1014664399999999,-5.5202005,403
1747532705450,4.4141414,1.47630225,1.4318838,2.6889938,-0.29161614,-6.22061185,404
1747532705460,4.78230165,1.2841072,1.35244315,2.9901974,-0.5395564500000001,-6.9756181,405
1747532705470,4.929224,1.1792847,1.3149804,3.0146985,-0.6194513,-7.2176995,406
1747532705480,4.929224,1.1792847,1.3149804,3.0146985,-0.6194513,-7.2176995,407
1747532705490,4.929224,1.1792847,1.3149804,3.0146985,-0.6194513,-7.2176995,408
1747532705500,4.929224,1.1792847,1.3149804,3.0146985,-0.6194513,-7.2176995,409
1747532705510,4.929224,1.1792847,1.3149804,3.0146985,-0.6194513,-7.2176995,410
1747532705520,4.929224,1.1792847,1.3149804,3.0146985,-0.6194513,-7.2176995,411
1747532705530,4.929224,1.1792847,1.3149804,3.0146985,-0.6194513,-7.2176995,412
1747532705540,4.929224,1.1792847,1.3149804,3.0146985,-0.6194513,-7.2176995,413
1747532705550,4.929224,1.1792847,1.3149804,3.0146985,-0.6194513,-7.2176995,414
1747532705560,4.7974336,-0.786108375,1.47532605,3.87010575,0.9861686,-9.621735,415
1747532705570,4.2706358,-0.925709125,1.2743449,3.8440068,0.9520801,-9.5650095,416
1747532705580,3.7507939,-1.06945885,1.0886174,3.70445705,1.03490445,-9.338907,417
1747532705590,3.3145417,-1.2073512,0.92985815,3.4807515,1.20934155,-8.9708585,418
1747532705600,2.3141508,-1.441158,0.62063754,3.09432685,1.62799045,-8.2131892,419
1747532705610,2.3141508,-1.441158,0.62063754,2.8336034,1.9350529,-7.6683064,420
1747532705620,2.3141508,-1.441158,0.62063754,2.8336034,1.9350529,-7.6683064,421
1747532705630,2.3141508,-1.441158,0.62063754,2.8336034,1.9350529,-7.6683064,422
1747532705640,2.3141508,-1.441158,0.62063754,2.8336034,1.9350529,-7.6683064,423
1747532705650,2.3141508,-1.441158,0.62063754,2.8336034,1.9350529,-7.6683064,424
1747532705660,2.3141508,-1.441158,0.62063754,2.8336034,1.9350529,-7.6683064,425
1747532705670,2.3141508,-1.441158,0.62063754,2.8336034,1.9350529,-7.6683064,426
1747532705680,2.3141508,-1.441158,0.62063754,2.8336034,1.9350529,-7.6683064,427
1747532705690,1.372699985,-1.68728975,0.376580315,2.24557745,1.7235979,-5.5207332,428
1747532705700,0.36510965,-1.9369603,0.10225999,1.57712405,1.5339808499999998,-3.1638355,429
1747532705710,0.2403963949999999,-1.9296386,0.040757561,1.4013554,1.56993355,-2.7451865,430
1747532705720,0.14277349,-1.92378125,-0.029408899,1.1984225,1.6045546000000002,-2.345446,431
1747532705730,0.10372432,-1.9287844,-0.06833603,1.0908308,1.6250609,-2.15503,432
1747532705740,-0.026358182,-2.0520332,-0.183287,0.66632295,1.7081516,-1.5808525,433
1747532705750,-0.026358182,-2.0520332,-0.183287,0.66632295,1.7081516,-1.5808525,434
1747532705760,-0.026358182,-2.0520332,-0.183287,0.66632295,1.7081516,-1.5808525,435
1747532705770,-0.026358182,-2.0520332,-0.183287,0.66632295,1.7081516,-1.5808525,436
1747532705780,-0.026358182,-2.0520332,-0.183287,0.66632295,1.7081516,-1.5808525,437
1747532705790,-0.026358182,-2.0520332,-0.183287,0.66632295,1.7081516,-1.5808525,438
1747532705800,-0.026358182,-2.0520332,-0.183287,0.66632295,1.7081516,-1.5808525,439
1747532705810,-0.026358182,-2.0520332,-0.183287,0.66632295,1.7081516,-1.5808525,440
1747532705820,0.010860549,-1.95880335,-0.191829,-1.193096175,1.3704627500000002,1.11133705,441
1747532705830,0.11848979,-1.8453168,-0.151071435,-2.994192,0.8471515700000001,4.0434773,442
1747532705840,0.2567482199999999,-1.803461,-0.066749655,-2.80856965,0.4362258,4.53216735,443
1747532705850,0.4324694449999999,-1.76001875,-0.0280665825,-2.52787255,-0.03515373,5.0267165,444
1747532705860,0.6483380750000001,-1.71157335,-0.0734612345,-2.25303435,-0.50759851,5.51008035,445
1747532705870,0.98708955,-1.68875405,-0.292014492,-2.2461101,-1.15021925,6.334861500000001,446
1747532705880,1.2178457,-1.692537,-0.46151224,-2.360626,-1.5664713,6.9220886,447
1747532705890,1.2178457,-1.692537,-0.46151224,-2.360626,-1.5664713,6.9220886,448
1747532705900,1.2178457,-1.692537,-0.46151224,-2.360626,-1.5664713,6.9220886,449
1747532705910,1.2178457,-1.692537,-0.46151224,-2.360626,-1.5664713,6.9220886,450
1747532705920,1.2178457,-1.692537,-0.46151224,-2.360626,-1.5664713,6.9220886,451
1747532705930,1.2178457,-1.692537,-0.46151224,-2.360626,-1.5664713,6.9220886,452
1747532705940,1.2178457,-1.692537,-0.46151224,-2.360626,-1.5664713,6.9220886,453
1747532705950,1.2178457,-1.692537,-0.46151224,-2.360626,-1.5664713,6.9220886,454
1747532705960,4.1378685,-1.09215624,0.510445725,-3.0610374,-1.01146859,10.3024385,455
1747532705970,5.679456399999999,-0.44930939,1.37782515,-1.541703925,-0.296143515,11.2763565,456
1747532705980,6.03224115,-0.359374285,1.37062545,0.445014225,-0.256995035,11.605257,457
1747532705990,6.3831954,-0.15717287,1.2090596,2.3422502,-0.34647726,11.69633725,458
1747532706000,6.63555065,0.00903012,0.9928249,3.25305125,-0.45593319,11.35864825,459
1747532706010,6.76063,0.08615221,0.8717725,3.6565201,-0.47723848,11.105914,460
1747532706020,6.76063,0.08615221,0.8717725,3.6565201,-0.47723848,11.105914,461
1747532706030,6.76063,0.08615221,0.8717725,3.6565201,-0.47723848,11.105914,462
1747532706040,6.76063,0.08615221,0.8717725,3.6565201,-0.47723848,11.105914,463
1747532706050,6.76063,0.08615221,0.8717725,3.6565201,-0.47723848,11.105914,464
1747532706060,6.76063,0.08615221,0.8717725,3.6565201,-0.47723848,11.105914,465
1747532706070,6.76063,0.08615221,0.8717725,3.6565201,-0.47723848,11.105914,466
1747532706080,6.76063,0.08615221,0.8717725,3.6565201,-0.47723848,11.105914,467
1747532706090,6.76063,0.08615221,0.8717725,3.6565201,-0.47723848,11.105914,468
1747532706100,1.9902868,1.57856235,-0.476033665,-2.1939121,1.654622,1.72040205,469
1747532706110,1.41748445,1.4396937,-0.26272763,-2.7758129,1.67326415,1.16220355,470
1747532706120,1.11997865,1.36061915,-0.103114184,-2.9097699,1.6002936,0.89828425,471
1747532706130,0.8773858000000001,1.2952118,0.0612583709999999,-2.8535771,1.4767229,0.6884271500000001,472
1747532706140,0.6961733000000001,1.2482307499999998,0.19963882,-2.63839375,1.3297164,0.53103434,473
1747532706150,0.626739,1.2305366,0.25528386,-2.4991105,1.2500879,0.45593318,474
1747532706160,0.626739,1.2305366,0.25528386,-2.4991105,1.2500879,0.45593318,475
1747532706170,0.626739,1.2305366,0.25528386,-2.4991105,1.2500879,0.45593318,476
1747532706180,0.626739,1.2305366,0.25528386,-2.4991105,1.2500879,0.45593318,477
1747532706190,0.626739,1.2305366,0.25528386,-2.4991105,1.2500879,0.45593318,478
1747532706200,0.626739,1.2305366,0.25528386,-2.4991105,1.2500879,0.45593318,479
1747532706210,0.626739,1.2305366,0.25528386,-2.4991105,1.2500879,0.45593318,480
1747532706220,0.626739,1.2305366,0.25528386,-2.4991105,1.2500879,0.45593318,481
1747532706230,0.345585055,1.38563505,0.1610777749999999,-1.12704984,0.65993136,-0.51851746,482
1747532706240,0.1065309899999999,1.5788064,0.069068202,0.4902879599999999,-0.1672465149999999,-1.7813884,483
1747532706250,0.177185565,1.6304244,0.028554697,0.801078875,-0.508930075,-2.23918585,484
1747532706260,0.208180825,1.66471445,-0.06467517,0.865527375,-0.6716492350000001,-2.5483789000000003,485
1747532706270,0.231610315,1.6869237,-0.16949776,0.78616515,-0.7246461500000001,-2.7742149,486
1747532706280,0.25259924,1.688388,-0.2238005,0.7078682,-0.71958613,-2.860235,487
1747532706290,0.25259924,1.688388,-0.2238005,0.7078682,-0.71958613,-2.860235,488
1747532706300,0.25259924,1.688388,-0.2238005,0.7078682,-0.71958613,-2.860235,489
1747532706310,0.25259924,1.688388,-0.2238005,0.7078682,-0.71958613,-2.860235,490
1747532706320,0.25259924,1.688388,-0.2238005,0.7078682,-0.71958613,-2.860235,491
1747532706330,0.25259924,1.688388,-0.2238005,0.7078682,-0.71958613,-2.860235,492
1747532706340,0.25259924,1.688388,-0.2238005,0.7078682,-0.71958613,-2.860235,493
1747532706350,0.25259924,1.688388,-0.2238005,0.7078682,-0.71958613,-2.860235,494
1747532706360,0.8013619700000001,1.71096325,0.0528383899999999,0.299871927,-0.450340545,-3.4320158000000003,495
1747532706370,3.1444335,1.69924865,0.7570655749999999,1.3579459,-0.705471375,-6.234193749999999,496
1747532706380,3.88880815,1.68277475,0.9973399,1.41360595,-0.85860315,-6.4419202,497
1747532706390,4.63940625,1.5655052,1.19405005,1.6181367,-0.65487132,-6.90610935,498
1747532706400,5.01195985,1.36733075,1.1820913,1.8482338,-0.1976065495,-7.43874165,499
1747532706410,5.20622925,1.17855245,1.17220695,1.949434,0.0631169185,-7.7910778,500
1747532706420,5.2513795,1.0953289,1.1858741,1.9803267,0.113983296,-7.9484706,501
1747532706430,5.2513795,1.0953289,1.1858741,1.9803267,0.113983296,-7.9484706,502
1747532706440,5.2513795,1.0953289,1.1858741,1.9803267,0.113983296,-7.9484706,503
1747532706450,5.2513795,1.0953289,1.1858741,1.9803267,0.113983296,-7.9484706,504
1747532706460,5.2513795,1.0953289,1.1858741,1.9803267,0.113983296,-7.9484706,505
1747532706470,5.2513795,1.0953289,1.1858741,1.9803267,0.113983296,-7.9484706,506
1747532706480,5.2513795,1.0953289,1.1858741,1.9803267,0.113983296,-7.9484706,507
1747532706490,4.58217455,0.2042758999999999,1.12998505,3.27488935,0.894023198,-7.687214600000001,508
1747532706500,3.9129696,-0.6867771,1.074096,4.569452,1.6740631,-7.4259586,509
1747532706510,3.48989655,-0.87165045,0.81393095,4.6520098,1.4293186,-7.312507800000001,510
1747532706520,2.860351,-1.11985665,0.470908465,4.643754,1.034638125,-7.12422225,511
1747532706530,1.9146291,-1.3352373,0.17791773,3.8679752,0.49428272,-6.5801387,512
1747532706540,1.7462296,-1.34597575,0.147654632,3.64906335,0.462591095,-6.449111,513
1747532706550,1.5778301,-1.3567142,0.117391534,3.4301515,0.43089947,-6.3180833,514
1747532706560,1.5778301,-1.3567142,0.117391534,3.4301515,0.43089947,-6.3180833,515
1747532706570,1.5778301,-1.3567142,0.117391534,3.4301515,0.43089947,-6.3180833,516
1747532706580,1.5778301,-1.3567142,0.117391534,3.4301515,0.43089947,-6.3180833,517
1747532706590,1.5778301,-1.3567142,0.117391534,3.4301515,0.43089947,-6.3180833,518
1747532706600,1.5778301,-1.3567142,0.117391534,3.4301515,0.43089947,-6.3180833,519
1747532706610,1.5778301,-1.3567142,0.117391534,3.4301515,0.43089947,-6.3180833,520
1747532706620,0.78879302138,-1.4619029,0.213306027,2.5888589,0.479635315,-5.12871565,521
1747532706630,-0.24015233,-1.53817085,0.19365942,1.6860472999999998,0.15632756,-2.9425268,522
1747532706640,-0.32215558,-1.5072976,0.097988983,1.4322481,-0.22743396,-1.952097,523
1747532706650,-0.3011666699999999,-1.50595525,0.037340758,1.262871,-0.27137613,-1.69803145,524
1747532706660,-0.265168225,-1.5070535,-0.014643435,0.92331795,-0.2961435249999999,-1.28044785,525
1747532706670,-0.28213018,-1.5556209,-0.11592719,0.3427488549999999,-0.1004011719999999,-0.8503473500000001,526
1747532706680,-0.307268065,-1.5705084,-0.12556745,-0.302002495,0.172306528,-0.437024735,527
1747532706690,-0.36986874,-1.5918634,-0.134841625,-0.763528325,0.367516245,-0.11877699,528
1747532706700,-0.454800665,-1.5995512,-0.1333772899999999,-1.204814075,0.56139437,0.26418558,529
1747532706710,-0.529726235,-1.6041883,-0.12813006,-1.61946825,0.7313040500000001,0.729439835,530
1747532706720,-0.55718267,-1.6076051,-0.12398108,-1.8200043,0.8064052,0.9832391,531
1747532706730,-0.55718267,-1.6076051,-0.12398108,-1.8200043,0.8064052,0.9832391,532
1747532706740,-0.55718267,-1.6076051,-0.12398108,-1.8200043,0.8064052,0.9832391,533
1747532706750,-0.55718267,-1.6076051,-0.12398108,-1.8200043,0.8064052,0.9832391,534
1747532706760,-0.55718267,-1.6076051,-0.12398108,-1.8200043,0.8064052,0.9832391,535
1747532706770,-0.55718267,-1.6076051,-0.12398108,-1.8200043,0.8064052,0.9832391,536
1747532706780,-0.55718267,-1.6076051,-0.12398108,-1.8200043,0.8064052,0.9832391,537
1747532706790,-0.55718267,-1.6076051,-0.12398108,-1.8200043,0.8064052,0.9832391,538
1747532706800,0.481769,-1.5395131000000002,0.0170840099999999,-2.21575015,0.0111852899999999,5.5276572,539
1747532706810,0.74461865,-1.5622104,-0.088348724,-2.336125,-0.26738137,6.199839,540
1747532706820,0.74461865,-1.5622104,-0.088348724,-2.336125,-0.26738137,6.199839,541
1747532706830,1.95111575,-1.46702815,0.035754387,-3.3204293,-1.80402535,7.75033135,542
1747532706840,2.4980481,-1.42871115,0.15009521,-3.54227065,-1.88791495,7.96764585,543
1747532706850,2.8081229,-1.4077222,0.21501444,-3.6405413,-1.8951055,8.039019,544
1747532706860,2.8081229,-1.4077222,0.21501444,-3.6405413,-1.8951055,8.039019,545
1747532706870,2.8081229,-1.4077222,0.21501444,-3.6405413,-1.8951055,8.039019,546
1747532706880,2.8081229,-1.4077222,0.21501444,-3.6405413,-1.8951055,8.039019,547
1747532706890,2.8081229,-1.4077222,0.21501444,-3.6405413,-1.8951055,8.039019,548
1747532706900,2.8081229,-1.4077222,0.21501444,-3.6405413,-1.8951055,8.039019,549
1747532706910,2.8081229,-1.4077222,0.21501444,-3.6405413,-1.8951055,8.039019,550
1747532706920,2.8081229,-1.4077222,0.21501444,-3.6405413,-1.8951055,8.039019,551
1747532706930,4.5739988,-0.85456645,0.83345547,-2.249039585,-0.85833685,9.1543505,552
1747532706940,6.6819215,0.62356626,0.75401485,1.4626081,0.144875966,8.7458215,553
1747532706950,6.14841215,1.05542555,0.3219114855,1.241832,0.69508503,7.4693682,554
1747532706960,5.34070465,1.36879505,-0.0486894214999999,0.59734705,1.3339774,6.2562982,555
1747532706970,4.422073,1.4948506,-0.08639627,-0.34621096,1.8892465,5.431251,556
1747532706980,4.1698399,1.51071435,-0.044784507,-0.61758706,2.03012775,5.224323249999999,557
1747532706990,3.5041742,1.4831358,0.10836142,-1.303351,2.406965,4.629639,558
1747532707000,3.06596935,1.42871105,0.23026801,-1.47592385,2.52387785,4.2794334,559
1747532707010,2.4433792,1.34744005,0.36913658,-1.6548883,2.63333385,3.78887925,560
1747532707020,2.10816655,1.300093,0.38475625,-1.64716515,2.59365265,3.52229685,561
1747532707030,1.84861165,1.27190435,0.36218097,-1.62053355,2.5004419,3.22828385,562
1747532707040,1.5030266,1.28020225,0.2403963999999999,-1.64024095,2.23599005,2.7710191,563
1747532707050,1.2661691,1.296188,0.1398448,-1.6724652,2.0325246,2.4815335,564
1747532707060,0.9476743,1.317055,-0.0302630991,-1.9339876,1.6157399,2.1425132,565
1747532707070,0.803192425,1.3508569,-0.0854200375,-2.1473068,1.3952301,1.90948655,566
1747532707080,0.665910225,1.3995463,-0.1140967625,-2.36275665,1.2727247,1.65355675,567
1747532707090,0.48128092,1.46654005,-0.1183677629999999,-2.6232138000000003,1.3334448,1.242631,568
1747532707100,0.31654227,1.51901235,-0.101405788,-2.7755466,1.5225292,0.7725830499999999,569
1747532707110,0.1926832,1.55244815,-0.09859913,-2.7324033,1.65408935,0.438090015,570
1747532707120,0.0572314207,1.57795215,-0.13630597,-2.64638315,1.6892431,0.171507583,571
1747532707130,-0.0394152443,1.57844025,-0.18560553,-2.5574336,1.63491465,-0.074302197,572
1747532707140,-0.08761655,1.5871043,-0.16803341,-2.3691483,1.0482203,-0.6982809,573
1747532707150,-0.097988985,1.60845925,-0.128862225,-2.1387848,0.8665927,-0.83436842,574
1747532707160,-0.09432813,1.61919775,-0.15155955,-1.8192054,0.51585434,-1.10441297,575
1747532707170,-0.085908155,1.60528655,-0.210743435,-1.69243895,0.21784658,-1.35901115,576
1747532707180,-0.0695563179999999,1.57368115,-0.2610192249999999,-1.6799221,-0.01837581,-1.6048209,577
1747532707190,0.046614932,1.5326795,-0.30995271,-1.89830125,-0.129962265,-1.9052255,578
1747532707200,0.212207775,1.49924365,-0.34314451,-2.24131635,-0.037816893,-2.1659490000000003,579
1747532707210,0.3386294199999999,1.4894813999999998,-0.341924225,-2.56382515,0.1619202019999999,-2.32414075,580
1747532707220,0.49470404,1.49948775,-0.309586625,-2.90204665,0.37470678,-2.4586304,581
1747532707230,0.58329684,1.5112025,-0.2796896,-3.067429,0.4841627,-2.5204158,582
1747532707240,1.6630061,1.7340268,0.16473864,-3.2330775,0.87831056,-3.3704967,583
1747532707250,1.8469032,1.7799095,0.2022014349999999,-3.13134475,0.85780421,-3.6290897,584
1747532707260,2.21872435,1.84922175,0.263093715,-2.8818066,0.82398206,-4.2421495,585
1747532707270,2.55796395,1.8719191,0.28505886,-2.63386635,0.79175783,-4.88024285,586
1747532707280,3.0430277500000003,1.7760046,0.26150735,-2.44584715,0.6905577,-5.74816705,587
1747532707290,3.51832925,1.58698225,0.248572305,-2.3704797,0.57790595,-6.60384085,588
1747532707300,3.8303566,1.36318175,0.3241080149999999,-2.39391555,0.532365885,-7.1106403,589
1747532707310,4.11956435,1.13840505,0.468956,-2.37926815,0.557665935,-7.5154408,590
1747532707320,4.442086,0.9034999,0.73558855,-2.1917815,0.8186557,-7.897338,591
1747532707330,4.87724,0.6343048,1.2847173,-1.6290556,0.9936254,-8.0611225,592
1747532707340,5.084201,0.5015376,1.4416462,-0.16937704,1.325189,-8.367652,593
1747532707350,5.1253245,0.41977845,1.4698348,0.34168358,1.3462279499999998,-8.437693,594
1747532707360,5.13825935,0.245643625,1.46824835,1.3598101,1.3094763,-8.534631999999998,595
1747532707370,4.9031105,-0.2238005,1.1626887,2.737197,0.9784454,-8.528507,596
1747532707380,4.7112813,-0.31434575,1.0587204,3.382481,0.75633775,-8.462727000000001,597
1747532707390,4.68406865,-0.28957394,0.9215602,4.214719,0.47484162,-8.3692505,598
1747532707400,4.656856,-0.26480213,0.7844,4.401673,0.41545314,-8.341554,599
1747532707410,4.3254263,-0.195001725,0.280543805,4.373443,0.5613944,-8.179633,600
1747532707420,3.7069855,-0.19500175,0.087616555,4.0514669,0.85594,-7.8368842,601
1747532707430,3.5708015,-0.231732375,0.0956704375,3.6972666,1.2671321,-7.40518595,602
1747532707440,3.27866495,-0.30372926,0.1389906,3.69673395,1.4226607,-7.25125525,603
1747532707450,3.1227124,-0.33899552,0.17425688,3.7284255,1.4615428,-7.186274,604
1747532707460,2.6557089,-0.498364895,0.285669,4.1231062000000005,1.40827955,-7.01529905,605
1747532707470,2.1549034,-0.69885792,0.2347830699999999,4.5968825,1.16486663,-6.8025124,606
1747532707480,1.4340804,-0.9196077,0.07590181,4.9862365,0.7624630299999999,-6.44804565,607
1747532707490,1.2555525,-0.937423915,0.03014107325,5.07278915,0.37523941,-6.048038849999999,608
1747532707500,0.949260635,-0.95560619,-0.05039782175,5.02778165,-0.001597895,-5.61474285,609
1747532707510,0.7224094350000001,-0.945477775,-0.11214431,4.8946237,-0.361923605,-5.161473,610
1747532707520,0.516425125,-0.924488865,-0.1773076,4.519917,-0.8330368000000001,-4.49701415,611
1747532707530,0.3983014099999999,-0.9177773,-0.2162347299999999,4.05199955,-1.2346415,-3.85678995,612
1747532707540,0.39415245,-0.944989685,-0.20708258,3.69087505,-1.4114754,-3.4615768,613
1747532707550,0.41379908,-0.99050635,-0.1658369,3.33560945,-1.5603461,-3.08687005,614
1747532707560,0.435032055,-1.03968385,-0.097012756,2.9872678500000003,-1.7084179000000002,-2.7004454,615
1747532707570,0.464440955,-1.15744145,0.008664029,2.70763585,-1.84850015,-2.3526366000000003,616
1747532707580,0.4645629799999999,-1.2847173,0.09017915,2.44930935,-2.1017667,-2.0335898500000003,617
1747532707590,0.3964709899999999,-1.35988695,0.0900571225,2.2120217,-2.40563345,-1.8048243,618
1747532707600,0.26797485,-1.43700905,0.0261141249999999,1.98911505,-2.62294745,-1.67725885,619
1747532707610,0.1097037315,-1.50644335,-0.0800507774999999,1.6359799000000002,-2.78353605,-1.4916364999999998,620
1747532707620,-0.1014057785,-1.594426,-0.153145925,0.902545315,-2.9393309,-1.01786018,621
1747532707630,-0.252965335,-1.6958318,-0.16144387,0.0647148049999999,-3.11323535,-0.3672499299999999,622
1747532707640,-0.275906725,-1.7949190499999998,-0.11690342,-0.47031426,-3.2381376,0.1520665,623
1747532707650,-0.2976278249999999,-1.87265125,-0.0303851269999999,-0.85434205,-3.31749975,0.63569655,624
1747532707660,-0.338263365,-1.9069413,0.065651401,-1.14675715,-3.3654367,1.16912775,625
1747532707670,-0.357787935,-1.9131648,0.192805228,-1.3662017,-3.3523872,1.76567585,626
1747532707680,-0.30702402,-1.89961965,0.3103188,-1.54436715,-3.18753755,2.74518655,627
1747532707690,-0.18633771,-1.87643415,0.36962472,-1.6197346,-2.9843384,3.722034,628
1747532707700,-0.0108605499999999,-1.84946575,0.40184027,-1.58085245,-2.8983183,4.308994500000001,629
1747532707710,0.31227126,-1.79308855,0.35827604,-1.49350075,-2.97554995,5.00301425,630
1747532707720,0.610143125,-1.7387858,0.2468638999999999,-1.48444605,-3.13427435,5.55934875,631
1747532707730,0.72326365,-1.7254847,0.1259335349999999,-1.6519589,-3.21470175,5.85043235,632
1747532707740,0.79111156,-1.72487455,0.01159272,-1.96354875,-3.2077775,6.20303485,633
1747532707750,0.991360535,-1.80736595,-0.0667496549999999,-2.40829665,-3.13054585,6.644853299999999,634
1747532707760,1.32950185,-1.9430618,-0.0307512114999999,-2.93879835,-3.0477216,7.15751195,635
1747532707770,1.6675211,-2.0179873500000003,0.1349636685,-3.61018135,-3.0378679,7.94261215,636
1747532707780,2.05361975,-2.0467862,0.31642023,-4.09327865,-3.07461955,8.748751,637
1747532707790,2.5626012,-2.06850725,0.487382325,-4.23522495,-3.14945435,9.4022905,638
1747532707800,2.8552258,-2.080588,0.58134437,-4.2871566,-3.2085764,9.765812,639
1747532707810,4.37277385,-1.79857995,1.03394845,-3.77103625,-3.49646425,10.8153635,640
1747532707820,4.98389315,-1.64750845,1.05261885,-3.49087165,-3.39739465,11.0952615,641
1747532707830,5.2887206,-1.564651,1.040416,-3.3742251,-3.3140378,11.203918,642
1747532707840,5.809416499999999,-1.1817252,0.94694213,-3.2788841,-2.7427897000000003,11.4497285,643
1747532707850,6.190146,-1.0811736,0.95938903,-3.43334735,-2.1270668,11.626296,644
1747532707860,6.603335250000001,-1.036023,1.07873305,-3.65518875,-1.64716515,11.61085,645
1747532707870,6.72768235,-0.96463628,1.2629963,-3.7534594,-1.46180915,11.431353,646
1747532707880,6.7508676,-0.91179788,1.44689335,-3.7755635,-1.30122055,11.3189675,647
1747532707890,6.9566075000000005,-0.721433225,1.8257923,-3.7244308,-1.2141352,11.204718,648
1747532707900,7.130132,-0.54839665,2.1164646,-3.4754252,-1.069791835,10.9583755,649
1747532707910,6.90010825,-0.220505727,2.2532586,-2.59977785,-0.47351005275,10.358365,650
1747532707920,6.51413175,0.202567523,2.2774202,-1.61733775,0.22770028225,9.6089515,651
1747532707930,6.13633125,0.40232836,2.05020285,-1.09242865,0.62371235,8.956743,652
1747532707940,5.48189175,0.691414135,1.6526336,-0.668187115,0.97391805,8.26006,653
1747532707950,4.9408168,0.9740324,1.25555255,-0.302801425,1.2673984,7.24512975,654
1747532707960,4.6956613,1.19368395,0.99306898,-0.115847515,1.37578905,6.1899855,655
1747532707970,4.3655738500000005,1.4100407499999998,0.66212733,-0.174437055,1.3483585,5.39529825,656
1747532707980,3.65817405,1.6128523,0.132401055,-0.4609932,1.29509525,4.66079835,657
1747532707990,2.93283585,1.7314641,-0.298726075,-1.40774705,1.18617195,3.80006455,658
1747532708000,2.7214823,1.7420806,-0.38268176,-2.1481059,1.1073424,3.2810144,659
1747532708010,2.2788845,1.66886345,-0.31629819,-3.46903365,1.0663298,2.5843315,660
1747532708020,2.02860385,1.59650045,-0.1376482895,-4.1840925,1.10095085,2.0884509,661
1747532708030,1.58747035,1.534754,0.1333773005,-4.600611,1.15954035,1.6471651,662
1747532708040,1.10594535,1.5081517999999998,0.34534102,-4.827512349999999,1.17285615,1.065264425,663
1747532708050,0.7969689200000001,1.4758142,0.45431257,-4.841360849999999,1.0863034,0.558198575,664
1747532708060,0.50593067,1.4425002999999998,0.637721575,-4.6373625,0.929176915,0.315318275,665
1747532708070,0.251134905,1.45116435,0.82588971,-4.25653025,0.782969385,0.153131763,666
1747532708080,0.02562601,1.4977793,0.859813665,-3.782487750000001,0.68975875,0.052730591,667
1747532708090,-0.124347165,1.5707524,0.77427158,-3.099387,0.5179848549999999,-0.067377982,668
1747532708100,-0.1355738,1.6357937,0.6489482200000001,-2.5640916,0.3225088149999999,-0.20186761,669
1747532708110,-0.07931861,1.67813765,0.50300202,-2.4543693,0.256995045,-0.329433025,670
1747532708120,0.070532545,1.6910727,0.3372871,-2.48952295,0.287088775,-0.4990764,671
1747532708130,0.1947576925,1.69241495,0.383291915,-2.6272085,0.44261737,-0.8452873,672
1747532708140,0.3636453,1.6932691000000002,0.461024165,-2.7483823,0.6583334,-1.3960291,673
1747532708150,0.458339495,1.6953437,0.53228885,-2.73266965,0.70280822,-1.54250295,674
1747532708160,0.575364945,1.7065704,0.6195393,-2.65011165,0.79495362,-1.83891275,675
1747532708170,0.72729058,1.72060365,0.689339675,-2.45170615,0.89428953,-2.20722795,676
1747532708180,0.95377576,1.700591,0.5208182,-1.8977686,1.2799152,-3.0493195,677
1747532708190,1.00075673,1.69631995,0.43234743,-1.85569065,1.40242065,-3.16117225,678
1747532708200,1.0477377,1.6920489,0.34387666,-1.8136127,1.5249261,-3.273025,679
1747532708210,1.34682995,1.7807637,0.14753261,-1.7137442,1.81041695,-3.66158025,680
1747532708220,1.76184925,1.86923445,-0.1709621,-1.67273155,1.8953718,-3.9699742,681
1747532708230,2.2786404,1.91170035,-0.4766438249999999,-1.91081815,1.7473,-4.6464172,682
1747532708240,2.71586895,1.91170035,-0.5333871299999999,-2.3337281,1.48657655,-5.600628,683
1747532708250,3.04339385,1.854713,-0.49763271,-2.6325348,1.44742805,-6.34258465,684
1747532708260,3.2449852000000003,1.7257288000000002,-0.3882950699999999,-2.81922245,1.66447565,-6.86003685,685
1747532708270,3.4741549000000003,1.53353375,-0.047835215,-2.86369715,2.0245351,-7.25098895,686
1747532708280,3.6811154,1.39515325,0.373163555,-2.3515712,2.4908546,-7.6408756,687
1747532708290,3.83865445,1.35415165,0.640772315,-1.4199975,2.73772965,-7.88828335,688
1747532708300,3.9337149,1.3327967,0.75194037,-0.9752496,2.7190876,-7.918111,689
1747532708310,4.2616055,1.2861817000000002,0.8613999999999999,0.6474144749999999,2.36222385,-7.98868465,690
1747532708320,4.6827264,1.2537221,0.667740615,2.1377194,1.7733989,-8.0315615,691
1747532708330,5.17157315,1.1986872000000002,0.384634225,3.3409356,1.1669971499999998,-8.147143,692
1747532708340,5.4678585,1.12608015,0.152291725,3.74333935,0.91319795,-8.3860285,693
1747532708350,5.6319870000000005,1.0566458,-0.104822585,3.92683115,0.77897463,-8.720255,694
1747532708360,5.677137500000001,0.9484064,-0.40232835,3.9649143,0.73343456,-8.900285,695
1747532708370,5.675795,0.8756774,-0.5603554,3.8184404,0.67697555,-9.257148,696
1747532708380,4.501392,0.35583547,-0.79318607,2.8831382,0.8724516,-9.512279,697
1747532708390,4.315542300000001,0.2833504599999999,-0.7413238849999999,2.75690435,0.904409525,-9.385246,698
1747532708400,3.9670285,0.096280578,-0.614902225,2.58752735,0.8863000249999999,-9.171927,699
1747532708410,3.6218096,-0.125445422,-0.475057425,2.5534389,0.7725830499999999,-9.00281625,700
1747532708420,3.0530342,-0.430761075,-0.33789725,2.6109631,0.506266935,-8.674448250000001,701
1747532708430,2.48230625,-0.72436197,-0.2488163649999999,2.6634274500000004,0.21518342,-8.262191000000001,702
1747532708440,2.1840682,-0.91582482,-0.20439795,2.6770096,0.045007423,-7.90852325,703
1747532708450,1.9605118,-1.10277265,-0.1593693849999999,2.71269585,-0.1190433019999999,-7.53861025,704
1747532708460,1.72414245,-1.25726095,-0.1292283099999999,2.7648939,-0.30866037,-7.1697625,705
1747532708470,1.1543908,-1.5177921,-0.14887492,2.7292075,-0.9235843,-6.0017,706
1747532708480,1.0625032,-1.5596478500000002,-0.180968455,2.6373285,-0.9321064,-5.7830545,707
1747532708490,0.87299275,-1.62529915,-0.25674823,2.38832295,-0.8929579,-5.348693000000001,708
1747532708500,0.67823512,-1.6717921,-0.32471816,2.0263993,-0.764327215,-4.9236525,709
1747532708510,0.49555826,-1.7022993,-0.35156445,1.5928366500000002,-0.624511265,-4.4874265,710
1747532708520,0.315810085,-1.7529411,-0.27932351,0.963265375,-0.5507417,-3.8309572,711
1747532708530,0.1666911,-1.8848541,-0.087616555,0.30146983,-0.59228706,-3.0418627,712
1747532708540,0.133133228,-1.92780825,-0.021843126,0.237021335,-0.66658926,-2.8831383,713
1747532708550,-0.040757557,-2.0445897,0.0840777215,0.180296005,-0.93397063,-2.3640882000000003,714
1747532708560,-0.271147585,-2.15673385,0.0874945225,0.17097494,-1.1848404,-1.79736745,715
1747532708570,-0.4620003499999999,-2.21079255,-0.0008541999999999,0.088683264,-1.28391,-1.32359105,716
1747532708580,-0.65468355,-2.23190355,-0.1017718675,-0.096939066,-1.3542175,-0.72118404,717
1747532708590,-0.80038575,-2.2414217,-0.190242615,-0.384560475,-1.4008228,0.0141147499999999,718
1747532708600,-0.78147133,-2.2403235500000003,-0.18084642,-0.7297061499999999,-1.4327807,0.83836314,719
1747532708610,-0.63894188,-2.2134772,-0.0774881819999999,-1.14329505,-1.4831145,2.0351877,720
1747532708620,-0.46944412,-2.1470936,0.0273344079999999,-1.4266554,-1.5811188500000002,3.2136365,721
1747532708630,-0.266022405,-2.0735104,0.088592777,-1.5036208,-1.7012274,3.89540575,722
1747532708640,-0.0274564369999999,-2.0253091,0.104700562,-1.5659388,-1.81068325,4.39128625,723
1747532708650,0.322155598,-1.9229271,0.1350856899999999,-1.59363565,-1.93851495,4.88876475,724
1747532708660,0.619295285,-1.8131013,0.132156995,-1.5952335,-2.0434436,5.2741244,725
1747532708670,0.73119551,-1.7548936,0.0621125644999999,-1.64077355,-2.07540155,5.50395515,726
1747532708680,0.8061210750000001,-1.71084125,-0.0318494705,-1.77845895,-2.08205935,5.7697385,727
1747532708690,1.0160103,-1.72389835,-0.11458488,-2.2303974,-2.1268004,6.242183499999999,728
1747532708700,1.3356033,-1.7731979,-0.109703735,-2.71828855,-2.22027745,6.7196885,729
1747532708710,1.5829553,-1.7860109,-0.017938209,-2.9393309,-2.34411445,7.06909525,730
1747532708720,1.850442,-1.7110853,0.13252309,-3.08314165,-2.48925665,7.565508400000001,731
1747532708730,2.0151806,-1.6904625,0.157783015,-3.19313025,-2.63999165,8.19055215,732
1747532708740,3.231806,-1.4892373,0.2438132,-3.37662195,-2.9419942,9.1149355,733
1747532708750,3.4881882500000003,-1.394055,0.27261195,-3.60858335,-3.22855035,9.9596905,734
1747532708760,4.02145325,-1.24151925,0.32593846,-3.84587115,-3.248524,10.393253,735
1747532708770,4.6035297,-1.16634955,0.38670871,-4.15746085,-2.96036985,10.620420500000002,736
1747532708780,5.2166017,-0.9743985,0.62832535,-4.4147222,-2.452505,10.6063055,737
1747532708790,5.5656035,-0.69690545,1.01076305,-4.3689160000000005,-1.92440025,10.6079035,738
1747532708800,5.707034500000001,-0.5407088250000001,1.37526255,-3.93322275,-1.6567526,10.7509155,739
1747532708810,5.935106,-0.430639025,1.73280645,-3.14253005,-1.6322515,10.84093,740
1747532708820,6.1363313,-0.32264368,1.9420855,-2.08791825,-1.5544872,10.7581055,741
1747532708830,6.1448733,-0.272245855,1.7496463,-0.98590223,-1.46607025,10.54958,742
1747532708840,6.03639,-0.242958995,1.32364445,0.14354439,-1.2753879,10.1900535,743
1747532708850,5.992826,-0.21330604,1.1292529,0.74248934,-1.1185277,9.950103,744
1747532708860,5.930713000000001,0.1710841235,0.63418275,0.55287225,-0.6942861,9.4038885,745
1747532708870,5.7789095,0.4644409349999999,0.453336325,0.1946770844999999,-0.386690995,8.966597,746
1747532708880,5.388418,0.779396825,0.383169875,-0.4436826355,0.0633832349999999,8.14501175,747
1747532708890,4.859301800000001,1.011739325,0.44869925,-0.98909802,0.46631953,7.30238795,748
1747532708900,4.4068198,1.0922782,0.54851867,-1.18164455,0.62877235,6.81423045,749
1747532708910,4.006688,1.13364595,0.6251526199999999,-1.28311105,0.69188925,6.37480875,750
1747532708920,3.6684245,1.17293915,0.6920242999999999,-1.29855745,0.69002505,5.9316587,751
1747532708930,3.193123,1.2478647,0.70154255,-1.2508868,0.63702815,5.086637700000001,752
1747532708940,2.6913413000000004,1.31925145,0.6529751500000001,-1.2298477499999998,0.6269081350000001,4.224306,753
1747532708950,2.3241571,1.3462198,0.5948895000000001,-1.272991,0.7259777350000001,3.776096,754
1747532708960,1.9849175,1.3669647,0.55584035,-1.3198627,0.8841695,3.39579675,755
1747532708970,1.7066922999999998,1.42797895,0.576341175,-1.3217269,1.05860655,3.01709535,756
1747532708980,1.40088865,1.4858205,0.644433175,-1.03224125,1.1667309,2.4184166,757
1747532708990,1.1139993,1.50107415,0.6711574499999999,-0.522245885,1.1422298,1.86288115,758
1747532709000,0.90630655,1.5235274,0.5909846000000001,0.0119842299999999,1.05061705,1.5598135000000002,759
1747532709010,0.728999,1.55073975,0.3995217,0.473243745,0.98616857,1.31933005,760
1747532709020,0.54961693,1.5718507000000002,0.0017083999999999,0.62797341,0.89801794,1.0410297,761
1747532709030,0.394152465,1.586006,-0.366085875,0.4830974299999999,0.7819041,0.76539252,762
1747532709040,0.31056285,1.59723265,-0.494459975,0.189617065,0.703074545,0.593884945,763
1747532709050,0.266388475,1.6055306,-0.53814622,-0.114249615,0.66818714,0.43809001,764
1747532709060,0.27566266,1.59723265,-0.53033637,-0.38242993,0.658067105,0.284958235,765
1747532709070,0.4095281,1.59052105,-0.468345825,-0.6215818,0.597613365,-0.08868327,766
1747532709080,0.5681653,1.6005274,-0.41843614,-0.75660408,0.476705865,-0.5563343700000001,767
1747532709090,0.64479923,1.6022359,-0.46419686,-0.8234494299999999,0.3307646199999999,-0.89322425,768
1747532709100,0.674208135,1.6060188,-0.48274523,-0.9520801,0.2109223599999999,-1.20614565,769
1747532709110,0.75669947,1.61212025,-0.5120321,-1.12518555,0.18295917,-1.4927018,770
1747532709120,0.9645142,1.6334752,-0.50153765,-1.3853764,0.2852245599999999,-1.93931395,771
1747532709130,1.3613514,1.6266416,-0.46883395,-1.6178704,0.41731735,-2.43279775,772
1747532709140,1.6847272,1.58564,-0.4588276,-1.73185375,0.47564058,-2.85331095,773
1747532709150,1.8357986,1.5598919,-0.442231735,-1.7939054,0.46072689,-3.42029785,774
1747532709160,2.1800414,1.4566556,-0.360472575,-1.7832527,0.34914044,-4.00832375,775
1747532709170,2.44752825,1.35659215,-0.226973245,-1.62639255,-0.05992111,-4.669852949999999,776
1747532709180,2.736858,1.2649487,0.007321717,-1.2729911,-0.8032094,-5.403554,777
1747532709190,2.9190467,1.2278519499999998,0.1062869285,-1.1233214,-1.00694125,-5.550826799999999,778
1747532709200,3.3246698500000003,1.1739153,0.303241135,-0.7693872500000001,-1.4045512,-5.8352523000000005,779
1747532709210,3.78520585,1.14597075,0.480670735,-0.299339315,-1.75635475,-6.1194115,780
1747532709220,4.461854450000001,1.0143019,0.48701622,0.47697215,-2.17447105,-6.70983435,781
1747532709230,5.0737059,0.769024415,0.280421785,1.038632815,-2.51935045,-7.38840785,782
1747532709240,5.37475065,0.518987745,0.056377227,1.0463559999999998,-2.696717,-7.857922999999999,783
1747532709250,5.5698745,0.302264905,-0.055767078,0.92944325,-2.88074145,-8.3056005,784
1747532709260,5.67616125,0.0992092655,-0.079806717,0.762196725,-3.03999845,-8.677911,785
1747532709270,5.7167969,-0.0994533295,-0.113364597,0.24181503,-2.7979171,-9.225723,786
1747532709280,5.7188716500000005,-0.222580205,-0.1276419475,0.0007989499999999,-2.66502535,-9.185243,787
1747532709290,5.7149665,-0.335578695,-0.0837116375,-0.444747915,-2.2887206,-9.181248,788
1747532709300,5.709719,-0.41245672,-0.05662128,-0.87671265,-1.6980314500000002,-9.1229245,789
1747532709310,5.434667,-0.35119837,0.01317909125,-1.2530173,-1.051416,-9.04516,790
1747532709320,5.26748765,-0.574754815,0.14545813,-1.48364705,-0.32943303,-9.2020205,791
1747532709330,4.93105465,-0.801850115,0.31922689,-1.4911039,0.20479709,-9.446499,792
1747532709340,4.5332413,-1.00014665,0.440279265,-1.2727247,0.396544695,-9.614278,793
1747532709350,3.7555529,-1.261776,0.5900083700000001,-0.6990798,0.6170544250000001,-9.6017615,794
1747532709360,3.0055651,-1.48716285,0.6778689950000001,-0.029561085,0.82265045,-9.4004265,795
1747532709370,2.613243,-1.5701423,0.6768927600000001,0.454335315,0.96619485,-9.111473,796
1747532709380,2.101089,-1.6049205,0.62063754,0.97604855,1.1329088,-8.705340750000001,797
1747532709390,1.98882265,-1.59198545,0.57963595,1.4357101,1.28124685,-8.256331750000001,798
1747532709400,1.5878365,-1.5544006,0.34973404,1.75209365,1.3888385,-7.862983,799
1747532709410,1.52316135,-1.55476675,0.301654755,1.8865833,1.4365091,-7.675763,800
1747532709420,1.3614734,-1.56282065,0.19012059,2.1022995,2.0271983,-6.9061093,801
1747532709430,1.1778203,-1.59161935,0.0791965749999999,2.0389162,2.21122275,-6.78280495,802
1747532709440,0.9509691,-1.71584445,-0.01879241,1.8085527,2.7324034,-6.3726783000000005,803
1747532709450,0.8107582,-1.8189586,-0.06931226,1.6415725,3.0695596,-6.085856,804
1747532709460,0.63369465,-1.93793645,-0.15131549,1.46314075,3.1768849,-5.837383,805
1747532709470,0.337531175,-2.09706185,-0.282862335,1.16912775,3.25811125,-5.43790885,806
1747532709480,0.089691045,-2.165398,-0.377312475,0.9062737,3.18514075,-5.061870600000001,807
1747532709490,-0.17364673,-2.20871805,-0.4660273,0.58935754,3.0714238,-4.5361624,808
1747532709500,-0.4978768,-2.2018843500000003,-0.5263094500000001,0.086819045,2.7268107,-3.53108525,809
1747532709510,-0.7130132499999999,-2.16503175,-0.50959154,-0.351004635,2.25303435,-2.4879251,810
1747532709520,-0.73363607,-2.15734395,-0.4567531649999999,-0.518251165,1.87326755,-1.83891275,811
1747532709530,-0.7309514699999999,-2.1706451,-0.436374375,-0.641555525,1.51933345,-1.153947735,812
1747532709540,-0.7791528000000001,-2.136111,-0.471884675,-0.83356945,1.1691278,-0.125434905,813
1747532709550,-0.82552365,-2.0625277000000004,-0.529604195,-1.06712865,0.8889632000000001,0.88683263,814
1747532709560,-0.79574865,-1.99236135,-0.56548065,-1.29402995,0.67830715,1.60748405,815
1747532709570,-0.68702117,-1.9102361,-0.57743948,-1.55581875,0.42530685,2.3124228,816
1747532709580,-0.4995851999999999,-1.82115515,-0.5519354999999999,-1.82213485,0.09880327,2.94945095,817
1747532709590,0.08956901,-1.5885686,-0.3743838,-2.2786007,-0.912399,3.981426,818
1747532709600,0.178039765,-1.54634675,-0.34119202,-2.3222765,-1.10867395,4.110322849999999,819
1747532709610,0.33338221,-1.4725194,-0.298604045,-2.39737765,-1.38244695,4.33003355,820
1747532709620,0.432835525,-1.4293212,-0.30922054,-2.4921862,-1.47113025,4.530037200000001,821
1747532709630,0.53167871,-1.4287111,-0.33887349,-2.7635623,-1.4458302,4.9287125,822
1747532709640,0.6318642350000001,-1.45177455,-0.344730875,-3.0788806,-1.39656175,5.396097,823
1747532709650,0.7237518000000001,-1.5063213,-0.3450969699999999,-3.2945966,-1.4018881,5.771869000000001,824
1747532709660,0.8615221,-1.6004054,-0.33899552,-3.50471995,-1.4884408,6.20117075,825
1747532709670,1.05054445,-1.6929032,-0.30775617,-3.69327175,-1.70974945,6.71169875,826
1747532709680,1.5849078,-1.7940649,-0.1707180324999999,-3.8400119,-2.4402546000000003,7.6709695,827
1747532709690,2.2999955,-1.85178435,-0.0141553214999999,-3.8626488,-3.28154715,8.598815,828
1747532709700,2.8856109,-1.83018525,0.062722714,-3.7779603,-3.70765285,9.028649,829
1747532709710,3.4662232,-1.7838144,0.135817858,-3.69087495,-3.8834215,9.337309,830
1747532709720,4.02047705,-1.713648,0.226973235,-3.60272435,-3.76730775,9.5447695,831
1747532709730,4.55776885,-1.5009521,0.374017715,-3.4013894,-3.0951259,9.844641500000002,832
1747532709740,4.87687385,-1.28374105,0.527651765,-3.12948065,-2.2698122,10.3098955,833
1747532709750,5.0660185,-1.1999073999999998,0.670669325,-2.82082025,-1.8066885,10.8470555,834
1747532709760,5.409407,-1.13645255,0.839800975,-2.26075745,-1.51107765,11.369035,835
1747532709770,5.857495849999999,-1.08007535,1.0164984,-1.5190671,-1.35821225,11.66677625,836
1747532709780,6.24530285,-1.0064921,1.0976474,-0.33715622,-1.289769,11.63428575,837
1747532709790,6.4493348,-0.91972975,1.0412702,0.84954843,-1.2298478,11.2734275,838
1747532709800,6.46141555,-0.80929385,0.90960135,1.5267903,-1.1755193,10.692326,839
1747532709810,6.30790355,-0.64272475,0.7236297,2.04610665,-1.06340025,10.068347,840
1747532709820,5.835774799999999,-0.322887735,0.3360668025,2.355566,-0.84661895,9.4968325,841
1747532709830,5.286524,-0.0017083999999999,-0.0866403275,2.1054952,-0.34274885,8.779111,842
1747532709840,5.102749,0.09835507,-0.22404456,1.7640779,0.0314253,8.328238,843
1747532709850,5.102749,0.09835507,-0.22404456,1.7640779,0.0314253,8.328238,844
1747532709860,4.439279300000001,0.5573047,-0.3736516549999999,0.3211772285,0.690025075,7.219297,845
1747532709870,3.98630915,0.816981635,-0.25015869,-0.3680488615,0.853543175,6.356965499999999,846
1747532709880,3.4980726000000004,1.062137135,-0.094694212,-0.90307792,0.91639377,5.4232615,847
1747532709890,3.10269975,1.19612455,-0.030995272,-1.13424035,0.89189267,4.7779775,848
1747532709900,2.886709,1.2559186,-0.00707766,-1.23837,0.8724516,4.463458,849
1747532709910,2.26802395,1.368429,0.02306341,-1.5369103000000002,0.796285185,3.6858151,850
1747532709920,1.83384615,1.4017428,0.114584874,-1.69616735,0.72278195,3.14306285,851
1747532709930,1.51242275,1.4185827,0.23100019,-1.70788525,0.6514092300000001,2.7182886,852
1747532709940,1.3822182,1.4277348,0.30202085,-1.5909725,0.5869607299999999,2.4503745,853
1747532709950,1.2787379,1.4310296,0.35546938,-1.4109428,0.506266935,2.16008995,854
1747532709960,1.2005176,1.44213425,0.38378004,-1.1840415,0.4079962849999999,1.8322549,855
1747532709970,1.05823225,1.4615368,0.35852011,-0.7989483799999999,0.2258360629999999,1.314802675,856
1747532709980,0.8850736,1.4682484,0.28322844,-0.42850263,0.046605318,0.820786275,857
1747532709990,0.800995925,1.4603165,0.1981744899999999,-0.26977822,-0.0255663475,0.55074174,858
1747532710000,0.7595061750000001,1.45946225,0.1309367075,-0.1917476,-0.0564590175,0.31079091,859
1747532710010,0.73143957,1.46824835,0.0811490305,-0.154463345,-0.075101145,0.0772316735,860
1747532710020,0.769268455,1.47349565,0.0101283749999999,-0.17417074,-0.049002165,-0.2809634965,861
1747532710030,0.8426076849999999,1.46446555,-0.070166458,-0.24634241,0.031957935,-0.6727145,862
1747532710040,0.88800235,1.43310415,-0.151071435,-0.37630467,0.115581195,-0.97738015,863
1747532710050,0.92095003,1.3851469,-0.2340509,-0.57950385,0.17949706,-1.3070795,864
1747532710060,0.927295505,1.33609145,-0.287743495,-0.8641957650000001,0.2447445,-1.67699255,865
1747532710070,0.944867675,1.2805684,-0.30080056,-1.15927405,0.326769855,-2.01947505,866
1747532710080,1.0255286,1.21979805,-0.264802115,-1.42985125,0.50733219,-2.4309335,867
1747532710090,1.1067996,1.1728171,-0.22868164,-1.614142,0.68842715,-2.82108665,868
1747532710100,1.1664716,1.1402355,-0.205984315,-1.6737968,0.7419566799999999,-3.05224905,869
1747532710110,1.30326575,1.1105825,-0.16473864,-1.6841830999999998,0.74781563,-3.2666335,870
1747532710120,1.9214628,1.0208915,-0.099819414,-1.5180018,0.7866978,-3.8834217,871
1747532710130,2.0736325,0.98672345,-0.120564277,-1.49243545,0.77764305,-4.11271985,872
1747532710140,2.3952999,0.9097234,-0.148020715,-1.4612764500000002,0.7390272,-4.5739793,873
1747532710150,2.6842637,0.8371164,-0.134475542,-1.43437855,0.6785734299999999,-5.059739799999999,874
1747532710160,2.8972036,0.77610207,-0.0755357205,-1.3608753500000002,0.61971758,-5.552158349999999,875
1747532710170,3.1471181,0.6817739199999999,0.0525943315,-1.1387677,0.50546798,-6.13112985,876
1747532710180,3.4419394,0.584151015,0.218553265,-0.8514126,0.35100463,-6.5692197,877
1747532710190,3.74847535,0.514716745,0.38182756,-0.57257965,0.21624868,-6.7681577,878
1747532710200,4.241837,0.38121742,0.5836629,0.4213121,-0.007989483,-7.3694997,879
1747532710210,4.76119065,0.190486675,0.7022747,0.67085028,0.0311589865,-7.56151335,880
1747532710220,5.089691650000001,0.025259925,0.6932446,1.09562453,0.113450663,-7.9298285,881
1747532710230,5.27139235,-0.11092402,0.66468995,1.4218617999999998,0.17603495,-8.258728999999999,882
1747532710240,5.31947185,-0.22904772,0.619783415,1.67353045,0.164317045,-8.503207,883
1747532710250,5.35974115,-0.50385616,0.700078215,1.8967033,-0.058589545,-8.7375655,884
1747532710260,5.26675525,-0.58341884,0.6041637,2.0040287,-0.1933455,-8.8938935,885
1747532710270,5.0687029500000005,-0.63967404,0.44430622,1.9374497,-0.11584751,-8.964466999999999,886
1747532710280,4.7567977,-0.7141115,0.55962327,1.8482338,-0.167512835,-8.9365035,887
1747532710290,4.417802200000001,-0.566945,0.583052785,1.7454358,-0.1603222975,-8.659002000000001,888
1747532710300,4.26551055,-0.66017487,0.45077376,1.53105135,0.3957457525,-8.513061,889
1747532710310,4.06318725,-0.8036805199999999,0.392322025,1.3467606,0.97578225,-8.5788415,890
1747532710320,3.7531123,-0.86640323,0.4181920799999999,1.31959635,1.144893,-8.5916245,891
1747532710330,3.4044764,-0.96658878,0.41660571,1.3659353,1.2554142,-8.5732485,892
1747532710340,2.92978525,-1.1404796,0.42368339,1.55155765,1.35261955,-8.4944185,893
1747532710350,2.49084825,-1.29216115,0.42185296,1.7968348500000002,1.42292695,-8.372445500000001,894
1747532710360,2.1954169,-1.35842265,0.40940602,2.02267095,1.42772065,-8.208927500000001,895
1747532710370,1.9171917,-1.4095526,0.402450395,2.2572954,1.3861754,-7.98735265,896
1747532710380,1.6921709,-1.45397105,0.39036956,2.4754082,1.33131425,-7.7612505,897
1747532710390,1.39527525,-1.4532389,0.30677995,2.74385485,1.24316355,-7.424360549999999,898
1747532710400,1.09313238,-1.4520186,0.1513154925,2.8796761,1.1859056,-7.076817999999999,899
1747532710410,0.91240798,-1.49424055,0.0062234585,2.7646276,1.23623935,-6.83180715,900
1747532710420,0.77988492,-1.54366215,-0.108483449,2.5193504,1.31746575,-6.5963838500000005,901
1747532710430,0.65736822,-1.6011376,-0.204275915,2.1787321,1.38324585,-6.374276200000001,902
1747532710440,0.367550225,-1.6684973,-0.32252166,1.43784075,1.5486282,-5.8831892,903
1747532710450,0.063943,-1.7263389,-0.39805739,0.62211445,1.732919,-5.2592105,904
1747532710460,-0.075779775,-1.7705133,-0.385488435,0.121972785,1.80668855,-4.7643952,905
1747532710470,-0.15924736,-1.82908695,-0.33496858,-0.30226879,1.8234664,-4.2741072,906
1747532710480,-0.358032,-2.017133,-0.15497635,-0.697748225,1.74729995,-3.58168525,907
1747532710490,-0.41794806,-2.04288115,-0.136550025,-0.953678,1.6146745500000002,-2.85757185,908
1747532710500,-0.53155671,-2.0860794,-0.1028701274999999,-1.0282464999999998,1.4695323,-2.2812638,909
1747532710510,-0.639185935,-2.10633615,-0.0767560075,-1.05594335,1.298291,-1.5353124,910
1747532710520,-0.747059235,-2.0963298,-0.065651398,-1.04422545,1.1582087,-0.708400865,911
1747532710530,-0.82039845,-2.04080675,-0.0896910354999999,-1.02398545,1.04848652,0.4908205849999999,912
1747532710540,-0.8036805,-1.9616102,-0.1276419375,-1.0365023,0.94968327,1.68950945,913
1747532710550,-0.67420813,-1.8781426,-0.151559545,-1.08923295,0.83862945,2.4333303,914
1747532710560,-0.4792064099999999,-1.78405845,-0.161443865,-1.1536815,0.67990505,3.0956584,915
1747532710570,-0.271635715,-1.6958317,-0.162298065,-1.20854255,0.514522735,3.66850445,916
1747532710580,0.044540445,-1.5921074000000002,-0.18426322,-1.3140037,0.29108352,4.397678,917
1747532710590,0.3714551299999999,-1.50925005,-0.24600971,-1.46873335,0.093743276,5.02298835,918
1747532710600,0.4881145,-1.4889933,-0.28701133,-1.64183885,0.005060006,5.320996,919
1747532710610,0.73180565,-1.4201691,-0.35620156,-1.85648965,-0.071106405,5.5849150000000005,920
1747532710620,0.85871545,-1.3846588,-0.34473085,-2.0772656,-0.146473865,5.86108485,921
1747532710630,1.3567142,-1.432372,-0.23307467,-2.4176178,-0.30253512,6.7820063,922
1747532710640,1.47361765,-1.406624,-0.221603975,-2.38805665,-0.369646775,6.9844065,923
1747532710650,1.68973035,-1.31705495,-0.21940746,-2.3049660000000003,-0.595216515,7.420632149999999,924
1747532710660,1.90852765,-1.17220695,-0.25503982,-2.23545755,-1.01093595,7.895473799999999,925
1747532710670,2.37968015,-0.9116759,-0.331185685,-2.39737775,-1.58910825,8.6155925,926
1747532710680,2.9393034,-0.6768928000000001,-0.39525071,-2.73852865,-1.6397083,9.2598115,927
1747532710690,3.35847175,-0.596842,-0.421364845,-3.12468695,-0.919056875,9.48405,928
1747532710700,3.73065915,-0.54961695,-0.3698687699999999,-3.54280325,-0.015446335,9.5271925,929
1747532710710,3.964466,-0.48408758,-0.1530238927549999,-3.80565725,0.75820199,9.50322375,930
1747532710720,4.04232015,-0.351686495,0.320935287245,-3.5009916,0.93077483,9.66860625,931
1747532710730,4.15983365,-0.235393205,0.75572328,-2.71376125,0.4418184249999999,9.977266749999998,932
1747532710740,4.599869,-0.1216625325,0.92168222,-1.68391685,-0.291882455,10.12294175,933
1747532710750,5.12898515,0.0912774125,0.96366007,-0.6072007500000001,-0.8594020499999999,9.9652825,934
1747532710760,5.30592665,0.387928985,0.8828771,0.5520733,-0.955009535,9.2861765,935
1747532710770,4.928248,0.6023333,0.6657882,1.7028252,-0.46019423,8.428905,936
1747532710780,4.71884685,0.62185788,0.5851272750000001,1.850098,-0.2322276439999999,8.317052,937
1747532710790,4.359716649999999,0.6589545800000001,0.43503205,1.9973708,-0.004261058,8.205199,938
1747532710800,4.09625695,0.6966614,0.293234775,2.1140173,0.256196091,8.0848245,939
1747532710810,3.79936135,0.7781765,0.0815151175,2.08791835,0.474308985,7.7543265,940
1747532710820,3.6161964,0.8395569,-0.057841565,1.9451729,0.43196473,7.544203,941
1747532710830,3.4082595,0.92070595,-0.1333772825,1.60135875,0.480434265,7.294132,942
1747532710840,3.1751847,1.0772687,-0.22624107,0.81918836,0.64395237,6.631804,943
1747532710850,3.1386982,1.1366966500000002,-0.19963883,0.62424498,0.694818735,6.33725835,944
1747532710860,2.91050485,1.2964321,-0.08419975115,0.170442325,0.7835019999999999,5.32445815,945
1747532710870,2.454728,1.4367651,0.023673553,-0.25832662,0.8367652,3.9207058,946
1747532710880,2.3056089,1.4360328999999998,0.03465613,-0.32597092,0.839961,3.6173718,947
1747532710890,2.01347225,1.4260265,0.0673597985,-0.44048685,0.8178567800000001,3.0072416,948
1747532710900,1.5975987,1.3910043,0.10470056,-0.492951125,0.7518104,2.5094968,949
1747532710910,1.21259845,1.34756215,0.1292283149999999,-0.48948902,0.62424499,2.0679447,950
1747532710920,0.998316225,1.31632275,0.16315227,-0.443150015,0.49028797,1.74863165,951
1747532710930,0.70288485,1.2556745,0.22819352,-0.30200246,0.3472762,1.6202673,952
1747532710940,0.626738995,1.236272,0.23161032,-0.245010815,0.309193,1.6341157000000002,953
1747532710950,0.537047955,1.19038925,0.24527753,-0.12516857,0.230363435,1.67992205,954
1747532710960,0.578659715,1.14206585,0.273710205,0.0229031879999999,0.13422332,1.69536835,955
1747532710970,0.75352675,1.1268123,0.386342635,0.4636563529999999,-0.1699096799999999,1.3520869000000002,956
1747532710980,0.88604982,1.1404795,0.51984195,1.05141603,-0.60214074,0.8050736300000001,957
1747532710990,0.88604982,1.1393812,0.5728023499999999,1.5203987,-0.964064325,0.37417413,958
1747532711000,0.7998976449999999,1.08324805,0.5308245199999999,2.09377725,-1.39123535,-0.10839066,959
1747532711010,0.70239675,0.9684192,0.41611758,2.5222798500000003,-1.68844415,-0.4490089849999999,960
1747532711020,0.69812575,0.9527995,0.38561043,2.6631610500000003,-1.7305221,-0.564590175,961
1747532711030,0.7189926499999999,0.9213161,0.32715873,2.7118969,-1.68178625,-0.64688185,962
1747532711040,0.7912336,0.890808985,0.3209352749999999,2.6911243,-1.6221314,-0.7502125,963
1747532711050,0.910577575,0.8495633,0.4512618349999999,2.71349485,-1.62106615,-0.8924253,964
1747532711060,1.05322905,0.7989214149999999,0.570727875,2.91190035,-1.7465011,-1.16886145,965
1747532711070,1.2088156,0.759628215,0.60050285,3.2458608,-1.9718045,-1.690042,966
1747532711080,1.34829435,0.733025935,0.6297897100000001,3.3350767,-2.01920875,-1.8580875,967
1747532711090,1.4379852999999998,0.69861385,0.6169767349999999,3.47515895,-2.09830465,-2.1646174,968
1747532711100,1.599063,0.63052188,0.6201495,3.51191055,-2.19178165,-2.50097465,969
1747532711110,1.8254262,0.5653585999999999,0.7397375500000001,3.55532015,-2.336924,-2.84345725,970
1747532711120,2.03958645,0.5247231,0.950725,3.7366815,-2.5196169,-3.115366,971
1747532711130,2.153073,0.5042223,1.0684826,3.8605185,-2.6189528,-3.242665,972
1747532711140,2.4657104,0.41514137,1.2313909,4.3334959,-2.91243305,-3.6314865,973
1747532711150,2.8455855000000003,0.312637335,1.21089005,4.6109972,-3.1462586000000003,-4.09540915,974
1747532711160,3.2700011,0.205984325,1.1362084499999998,4.6794403,-3.34626195,-4.6125951,975
1747532711170,3.5666527,0.14558015,1.0975254,4.4900897,-3.43734205,-4.97771455,976
1747532711180,3.8794119,0.10177187,1.1242497,4.16598295,-3.5103127,-5.330317,977
1747532711190,4.45502085,0.043076102,1.2140628,3.3976610000000003,-3.3566483,-5.9457737,978
1747532711200,5.0070783500000005,-0.0358764129999999,1.2633623,2.4647557,-2.97448465,-6.6903935,979
1747532711210,5.20159215,-0.118001675,1.3270612000000002,1.74410425,-2.56222735,-7.310643499999999,980
1747532711220,5.2344179,-0.23136627,1.53536415,1.109739265,-2.05675935,-7.907192,981
1747532711230,5.16217675,-0.43552013,1.8184706,0.710265065,-1.4333133,-8.418785,982
1747532711240,4.73349015,-0.8184459500000001,2.29340605,0.8250473,-0.59122175,-8.8896315,983
1747532711250,4.18448355,-1.035779,2.5359989,1.3608753500000002,0.24554345,-8.938634,984
1747532711260,3.9911902,-1.0834922,2.362474,1.91854125,0.7632619650000001,-8.6211855,985
1747532711270,3.8700156,-1.20027355,2.192,2.5483788,0.988831715,-8.494419,986
1747532711280,3.5620154,-1.1829455,2.0017575,3.1649007,0.8580705,-8.428372,987
1747532711290,3.0341197,-1.10045415,1.534754,3.55878225,0.4679174,-8.1564632,988
1747532711300,2.5907898,-1.0211355,1.018084785,3.572098,0.201601295,-7.847803199999999,989
1747532711310,2.3652809,-0.93595955,0.735954615,3.2362734,0.16298546,-7.6704367,990
1747532711320,2.17223155,-0.889222635,0.504588355,2.74864865,0.219444485,-7.56018185,991
1747532711330,1.845927,-0.858837455,0.309098505,1.846636,0.536094355,-7.441671149999999,992
1747532711340,1.50546715,-0.84883112,0.22135993,0.91160008,1.003479135,-7.272826699999999,993
1747532711350,1.27385675,-0.8670134,0.252233165,0.42876895,1.35235325,-7.0989222000000005,994
1747532711360,1.04371075,-0.8808025749999999,0.312759355,0.16005599,1.60348935,-6.9005167,995
1747532711370,0.8428517,-0.8891005249999999,0.37755654,0.0378168905,1.7824537500000002,-6.6565714,996
1747532711380,0.57072788,-0.8881243,0.4668815,0.1531317705,1.85728855,-6.20170355,997
1747532711390,0.334846555,-0.8797043499999999,0.5307025000000001,0.42344262,1.8263959,-5.70422505,998
1747532711400,0.22746135,-0.88129075,0.54156305,0.70334087,1.7435716,-5.35694885,999
1747532711410,0.1441158,-0.890564925,0.55156938,1.02664865,1.49536495,-4.796087,1000
