timestamp,acc_x,acc_y,acc_z,gyro_x,gyro_y,gyro_z,id
1747533251270,-0.44223174,0.28725538,0.75194037,0.20133498,0.41918156,0.120907515,1
1747533251280,-0.54864067,0.21940747,0.95621634,0.7978831,0.07084008,-0.39521313,2
1747533251290,-0.18206671,0.52399087,-0.69214636,2.5092304,0.850081,0.84688526,3
1747533251300,-0.2362474,0.5530337,-0.73510045,2.320146,0.7366304,0.8511463,4
1747533251310,-0.25992095,0.5459561,-0.75364876,2.118811,0.5635249,0.86499476,5
1747533251320,-0.21208574,0.46151224,-0.7175283,1.973935,0.40053943,0.87351686,6
1747533251330,-0.1028701274999999,0.31007474,-0.580490175,1.9579561,0.32490566,0.89801794,7
1747533251340,-0.0744374635,0.3331381399999999,-0.585981455,2.309227,0.315584585,0.94915065,8
1747533251350,-0.061258372,0.353883,-0.59745216,2.3829966,0.30146983,0.9406285,9
1747533251360,-0.00964026125,0.3723093349999999,-0.72741261,2.4724789,0.27643612,0.87618,10
1747533251370,-0.0684580585,0.380973365,-0.8466346,2.4714136,0.35260254,0.77870834,11
1747533251380,-0.123004854,0.38463423,-0.90642864,2.369681,0.5299691,0.7850999,12
1747533251390,-0.15753895,0.3653536899999999,-0.85810527,1.9920446,0.50173956,0.8335694,13
1747533251400,-0.16303024,0.35656762,-0.82076454,1.8535602,0.43303,0.8900285,14
1747533251410,-0.0001220294999999,0.148508831,-0.6192952700000001,1.95103185,0.49401638,0.93849798,15
1747533251420,0.1128764764999999,-0.000488114,-0.5875678,2.47167995,0.8362325799999999,0.972586455,16
1747533251430,0.16473864,-0.0622346,-0.6123396,2.8900626,1.1057445,0.99921805,17
1747533251440,0.2156245749999999,0.0076878014999999,-0.88202285,3.40112305,1.31240585,0.97232015,18
1747533251450,0.2294138,0.041977845,-0.9964857,3.4690337,1.3134711,0.9464875,19
1747533251460,0.2255089,0.12837411,-1.2283401,3.3832798,1.1696603,0.8692558,20
1747533251470,0.09554840975,0.257846485,-1.5153515,2.56142825,0.74142405,0.7803062199999999,21
1747533251480,-0.0137892342499999,0.2745644,-1.5158396,1.80109585,0.4854942599999999,0.804541,22
1747533251490,-0.041001618,0.25406358,-1.4387175,1.5595472,0.43516052,0.8426242,23
1747533251500,-0.011714748,0.17254847,-1.2312689,1.2618058,0.41545314,0.9400959,24
1747533251510,0.033923958,0.126299625,-1.1091182000000002,1.2285162500000002,0.43595947,0.97524965,25
1747533251520,0.1889003,0.006833603,-0.76926845,1.3603427,0.53263223,1.0327739,26
1747533251530,0.2853029,-0.042954076,-0.64089435,1.8072212,0.68656296,0.97258645,27
1747533251540,0.3441207,-0.067359805,-0.7038611,2.6221485,0.89588743,0.7840346,28
1747533251550,0.27895743,-0.036120474,-0.84858704,2.8607676,0.87990844,0.7073356,29
1747533251560,0.21403822,0.0036608586,-0.9925808,2.935336,0.76485986,0.6609966,30
1747533251570,0.081759177,0.11373068,-1.2813005,2.57580935,0.47590688,0.64022395,31
1747533251580,-0.009152147,0.10836142,-1.2328552,2.1779331,0.30839406,0.691356635,32
1747533251590,-0.010006348,0.09054524,-1.1841658,2.0426445,0.2806972,0.7254451,33
1747533251600,0.08688438,-0.014887493,-1.0387076,1.9089539,0.34780884,0.79415464,34
1747533251610,0.24015234,-0.15570852,-0.92497694,1.94836865,0.4924185,0.8141283699999999,35
1747533251620,0.31727442,-0.22331238,-0.895202,2.181129,0.9827065,0.82344943,36
1747533251630,0.30092257,-0.21281794,-0.99502134,2.5566347,1.2980248,0.74248934,37
1747533251640,0.25943285,-0.18206671,-1.1155857,2.632801,1.2149341,0.7099988,38
1747533251650,0.2294138,-0.14277348,-1.2649487,2.5928538,1.0274476,0.6801714,39
1747533251660,0.2140382,-0.1164153,-1.3264511,2.5086979,0.8988168999999999,0.67005135,40
1747533251670,0.12459122,-0.0187924075,-1.43102965,2.1337247,0.49747851,0.64714813,41
1747533251680,0.14558015,-0.074803546,-1.3024114999999998,1.2596752,0.162452825,0.7358313999999999,42
1747533251690,0.19475769,-0.14008886,-1.2212625,1.1744541,0.19121496,0.7621967,43
1747533251700,0.25882272,-0.2101332799999999,-1.1529264499999998,1.2138689,0.386691,0.7882957,44
1747533251710,0.40098605,-0.33435842,-0.98428285,1.417867,0.66525763,0.7728494,45
1747533251720,0.4253918,-0.3162982,-0.96304995,1.6852484,0.88843054,0.7206514,46
1747533251730,0.367184135,-0.22331238,-1.24383775,2.0256004,0.780306225,0.522245895,47
1747533251740,0.322643685,-0.17108413,-1.39564135,1.9664782,0.614923925,0.46845004,48
1747533251750,0.29555333,-0.14106509,-1.4770344,1.9036276,0.5299691,0.45007423,49
1747533251760,0.179015985,-0.06040417,-1.61712335,1.6330504,0.37550572,0.4644553,50
1747533251770,0.15400012,-0.04807928,-1.6337193,1.1680624,0.21784659,0.52411014,51
1747533251780,0.27334413,-0.1398448,-1.4196811,0.6940198,0.14647387,0.57098174,52
1747533251790,0.3607166,-0.22013964,-1.3159567,0.7078682,0.21411815,0.5161206,53
1747533251800,0.3031191,-0.19085276,-1.4660518,0.8628642,0.551807,0.2396845,54
1747533251810,0.21745501,-0.13593988,-2.327574,0.65886605,1.7060211,0.44315,55
1747533251820,0.21891935,-0.10494461,-2.8430228,-0.12836437,2.9864688,0.6849651,56
1747533251830,0.29482117,-0.059794027,-2.550398,-1.103614,3.1894019,0.8042747,57
1747533251840,0.4322254,-0.06369894,-1.9678336,-1.6160061,2.466087,0.74728304,58
1747533251850,0.6282034,-0.122516744,-1.2429836,-0.7451525,-0.050600063,0.06498113,59
1747533251860,0.54156303,-0.084931925,-1.1822133,0.018109497,-1.037035,-0.1965413,60
1747533251870,0.4737151,-0.08786061,-1.2549424,0.6593987,-1.7757958,-0.34408042,61
1747533251880,0.4639528,-0.13569583,-1.4106508,0.9960223,-2.360626,-0.42983422,62
1747533251890,0.40171823,-0.11665936,-2.0017576,0.63862604,-2.2903185,-0.31691617,63
1747533251900,0.3577879,-0.041733786,-2.2055452,0.03834952,-1.7374463,-0.17257284,64
1747533251910,0.38951537,-0.016839951,-2.264851,-0.68389976,-1.0599382,-0.05752428,65
1747533251920,0.44369608,-0.020988923,-2.1938305,-1.5164039,-0.24767399,-0.019707393,66
1747533251930,0.47225076,-0.056133166,-1.9871141,-1.9835224,0.20453078,-0.061252706,67
1747533251940,0.4960463499999999,-0.237955815,-1.5362182999999998,-2.2311964,0.39414784,-0.12037488,68
1747533251950,0.4937278,-0.25992095,-1.4831358,-2.1843247,0.11132014,-0.31478566,69
1747533251960,0.47786412,-0.24112856,-1.432372,-2.0128171,-0.1933455,-0.40746364,70
1747533251970,0.47444725,-0.1889003,-1.4387175,-1.8423749,-0.51718587,-0.48735848,71
1747533251980,0.47932845,-0.16571487,-1.5038807,-1.7704695,-0.7707188,-0.57151437,72
1747533251990,0.47444725,-0.14472595,-1.6268855,-1.952097,-0.91186637,-0.6854977,73
1747533252000,0.46395281,-0.146434355,-1.6345733,-2.0631509,-0.8407599649999999,-0.6918892999999999,74
1747533252010,0.45052966,-0.17742962,-1.6442136,-2.3744745,-0.61572284,-0.71958613,75
1747533252020,0.39878955,-0.18743597,-1.620052,-2.5662222,-0.46711847,-0.74302197,76
1747533252030,0.342412305,-0.264069945,-1.4676383,-2.7190876,-0.39041942,-0.7584683,77
1747533252040,0.335090605,-0.26614444,-1.4093086,-2.8455878,-0.5270395999999999,-0.8402273499999999,78
1747533252050,0.33826336,-0.26480213,-1.3916144,-2.843191,-0.6125271,-0.8655274,79
1747533252060,0.30800025,-0.2455216,-1.38246225,-2.8506477500000003,-0.7827031,-0.901746365,80
1747533252070,0.27773714,-0.22624107,-1.3733101,-2.8581045,-0.9528791,-0.93796533,81
1747533252080,0.26553428,-0.22233616,-1.3542737,-2.9379995,-1.0748519,-0.922519,82
1747533252090,0.3219115,-0.21672285,-1.2830089,-3.0498521,-0.9938917,-0.9219864,83
1747533252100,0.3416801299999999,-0.2113535799999999,-1.26860955,-3.07675005,-0.9390306,-0.936633765,84
1747533252110,0.36291313,-0.18597162,-1.2456682,-3.1388017,-0.82105257,-0.976048565,85
1747533252120,0.33240595,-0.20329969,-1.1634209,-3.319364,-0.70840085,-1.087635,86
1747533252130,0.27578469,-0.18084642,-1.08227185,-3.3164346,-0.767789325,-1.11000555,87
1747533252140,0.24405725,-0.1581491,-1.052863,-3.3135052,-0.8271778,-1.1323761,88
1747533252150,0.2613853,-0.16791138,-1.001855,-3.2820797,-0.92518216,-1.1142666,89
1747533252160,0.28505886,-0.16034561,-1.002099,-3.235741,-1.0077401,-1.1371698,90
1747533252170,0.219773535,-0.048201304,-0.98318463,-3.2447956,-1.0482203,-1.1558119,91
1747533252180,0.20574025,-0.029530925,-0.92741753,-3.4163032,-1.2631373,-1.18936775,92
1747533252190,0.20598431,-0.026358182,-0.8973985,-3.4615768,-1.28071415,-1.20241725,93
1747533252200,0.19475769,-0.00707766,-0.8110022,-3.4754252,-1.2809805,-1.2074772,94
1747533252210,0.15033926,0.024893839,-0.7228975,-3.4855454,-1.2815131,-1.206412,95
1747533252220,0.15668476,0.025626011,-0.63332856,-3.4764905,-1.2926984,-1.206412,96
1747533252230,0.11836776,0.053204484,-0.56645685,-3.3963294,-1.185373,-1.2410331,97
1747533252240,0.093717985,0.06711575,-0.51398456,-3.3795514,-1.1520835,-1.2341089,98
1747533252250,0.06467517,0.09640261,-0.472250775,-3.3523872,-1.0812434,-1.2314457,99
1747533252260,0.03807293,0.12373702,-0.4595598,-3.3348105,-0.99229383,-1.2255868,100
1747533252270,0.004148973015,0.173158625,-0.34936796,-3.294863,-0.9400959,-1.2386363,101
1747533252280,0.009274175,0.17718557,-0.29116032,-3.2607746,-0.9400959,-1.2634037,102
1747533252290,-0.016351834,0.21013328,-0.25796852,-3.1728902,-0.9321064,-1.3054816,103
1747533252300,-0.0184263225,0.187557995,-0.2216039799999999,-2.9862026,-0.8309062700000001,-1.34862485,104
1747533252310,-0.051374049,0.21599067,-0.2458876749999999,-2.7403928,-0.58136807,-1.34223325,105
1747533252320,-0.082491346,0.26284966,-0.27310005,-2.5704832,-0.386691,-1.3235911,106
1747533252330,-0.038194958,0.301654755,-0.286035105,-2.3821976,-0.12916332,-1.37312585,107
1747533252340,-0.0262361539999999,0.337165085,-0.328012945,-2.2439795,0.062051655,-1.42559015,108
1747533252350,-0.028798755,0.36755022,-0.36218095,-2.179531,0.15978967,-1.4498249,109
1747533252360,0.022697324,0.41684976,-0.47664383,-2.1454427,0.30626354,-1.5382419,110
1747533252370,-0.051374051,0.5375361000000001,-0.647972,-2.5542378,0.2908172,-1.73824525,111
1747533252380,-0.059671995,0.5472984,-0.56499255,-2.9241509,0.22050974,-1.9046928,112
1747533252390,-0.06345488,0.532777,-0.4927516,-3.0232205,0.221575,-1.9744676,113
1747533252400,-0.16303024,0.55767083,-0.28505886,-3.167564,0.21038973,-2.0921793,114
1747533252410,-0.27017137,0.541319,-0.082491346,-3.286341,0.16884442,-2.1555626,115
1747533252420,-0.422219,0.52374685,0.14985114,-3.400324,0.12516858,-2.240251,116
1747533252430,-1.029189415,0.4156294849999999,0.9794017,-3.54866225,-0.17976338,-2.1835258,117
1747533252440,-1.1690342,0.3773125,1.1892909,-3.522297,-0.23808661,-2.1273332,118
1747533252450,-1.4013767,0.31019676,1.6381122,-3.283145,-0.34141725,-1.9036276,119
1747533252460,-1.5531803,0.24625377,2.084737,-2.7840686,-0.4101268,-1.6101472,120
1747533252470,-1.55684115,0.12324891,2.51122705,-0.792024135,-0.15845809,-1.01732755,121
1747533252480,-1.5024164,0.06980037,2.5757802,0.42344263,0.05752428,-0.721184,122
1747533252490,-1.4802072,0.09567044,2.1860206,1.3603427,0.3888215,-0.47191215,123
1747533252500,-1.4733735,0.17254847,1.7193834,2.0096214,0.75101143,-0.1736381,124
1747533252510,-1.3947871,0.21525851,1.2371262,2.3803334,1.1520835,0.12996227,125
1747533252520,-1.1402354,0.3355787,0.3397277,2.3776703,1.6586168,0.67484504,126
1747533252530,-1.020647425,0.414409215,0.0529604199,2.0509004,1.53584505,1.002680175,127
1747533252540,-0.98330665,0.42636803,0.0026846298,1.9419771,1.4104102,1.1004182,128
1747533252550,-0.80343646,0.42075467,0.031483386,1.8120148,0.9289106,1.2820457,129
1747533252560,-0.64235866,0.39366436,0.07834238,1.8988339,-0.17417073,1.5867114,130
1747533252570,-0.49384983,0.36132677,0.08273541,2.0807277500000003,-0.176567585,1.61866935,131
1747533252580,-0.29506521,0.3532728699999999,0.063820972,2.35689755,-0.024501085,1.6474315000000002,132
1747533252590,-0.24478942,0.37755656,0.040513504,2.4511735,0.12996227,1.6442357,133
1747533252600,-0.12007617,0.46761367,-0.114218794,2.6780748,0.8724516,1.5712651,134
1747533252610,-0.107629254,0.49177536,-0.20866893,2.7196202,1.1446266,1.5217303,135
1747533252620,-0.151925635,0.5909846000000001,-0.409039945,2.6298717,1.2069446,1.47512495,136
1747533252630,-0.17401282,0.6272271,-0.46956614,2.56782,1.1835088,1.4610102,137
1747533252640,-0.22160399,0.68433654,-0.6216138,2.3206787,1.0029465,1.4231933,138
1747533252650,-0.228559615,0.68189597,-0.616366565,1.8817897,0.66525763,1.4157364,139
1747533252660,-0.18645973,0.6089228849999999,-0.48542987,1.736381,0.5028048,1.412008,140
1747533252670,-0.12385905,0.559257225,-0.354127065,1.830657,0.30386669,1.325189,141
1747533252680,-0.09567044,0.53985465,-0.29262465,1.9164108,0.25086978,1.2799152,142
1747533252690,-0.1249573149999999,0.48530784,-0.3106848749999999,2.4277377,0.22050974,1.1195929,143
1747533252700,-0.13471961,0.47737598,-0.3487578,2.6168222,0.33449304,1.0887003,144
1747533252710,-0.10372432,0.45785138,-0.48957884,2.721218,0.5933523,1.0897655,145
1747533252720,-0.070532545,0.4729829,-0.6987359,2.5803368,1.20028675,1.0799118,146
1747533252730,-0.06418706,0.52423495,-0.878118,2.4863272,1.3518206,1.0759171,147
1747533252740,-0.09445015,0.55620646,-1.0164984,1.9089539,1.4588797,1.1009508,148
1747533252750,-0.09493827,0.53350914,-0.93376297,1.7150757,1.180313,1.0940266,149
1747533252760,-0.097134784,0.50788313,-0.75657743,1.6724652,0.71958613,1.0753845,150
1747533252770,-0.10884953,0.47347105,-0.6128277,1.7710022,0.21678132,1.0482203,151
1747533252780,-0.10470056,0.41221267,-0.4893348,1.9616845,-0.18375812,1.0253171,152
1747533252790,0.0302631,0.28042176,-0.38194957,2.5566347,-0.21092236,1.0040118,153
1747533252800,0.12398108,0.20232345,-0.5010495,2.7888622,0.3392867,1.0173275,154
1747533252810,0.1435056599999999,0.1982965099999999,-0.57841565,2.84452235,0.6868291999999999,1.0263823,155
1747533252820,0.2169669,0.21574661,-0.7834238,2.9039109,1.5361114,1.0333065,156
1747533252830,0.217332985,0.29299072,-1.08690895,2.8490498,1.7608821,1.0029465,157
1747533252840,0.1264216575,0.353883,-1.2689756,2.5124261,1.4674017,0.87138635,158
1747533252850,0.070532545,0.3692586,-1.2981404,2.218946,0.9816412,0.8447547,159
1747533252860,-0.034900185,0.36779428,-1.2642165,1.9052255,0.48842376,0.8655274,160
1747533252870,-0.07858644,0.32630453,-1.1622007,1.6341157,0.13102753,0.9262474,161
1747533252880,0.176087305,0.130692655,-0.66224935,1.4689997,-0.07084008,1.0162623,162
1747533252890,0.278103245,0.056255197,-0.55022708,1.7555559,0.27004454,1.0263823,163
1747533252900,0.3277689,0.014643434,-0.51398456,2.0719395,0.7190535,0.9800433,164
1747533252910,0.3615708199999999,-0.025015869,-0.59354723,2.4021714,1.1728562,0.92464954,165
1747533252920,0.32911121,0.0051252025,-0.801117935,2.79125915,1.4120080499999998,0.832237875,166
1747533252930,0.292990735,0.061746485,-1.054815485,2.85916985,1.1984225,0.7337009000000001,167
1747533252940,0.27822527,0.09322987,-1.154879,2.8160267,1.0295781,0.6924219,168
1747533252950,0.23624742,0.127397885,-1.2324891,2.66103065,0.80214415,0.6615292500000001,169
1747533252960,0.11592719,0.1513155,-1.3794116,2.1395836,0.38615838,0.64555025,170
1747533252970,0.116293282,-0.000244057,-1.1601260999999998,1.784318,0.43782368,0.7206514,171
1747533252980,0.14374973,-0.029042812,-1.0789771,1.417867,0.7771104,0.93903065,172
1747533252990,0.29384494,-0.09884319,-0.8671354,1.5211977,0.8724516,0.9502159,173
1747533253000,0.42856455,-0.17279254,-0.7568215,1.820537,0.95927066,0.88044107,174
1747533253010,0.46614933,-0.19475769,-0.78659654,2.1976407,1.0221212,0.77391464,175
1747533253020,0.34729347,-0.14350566,-1.0945967,2.6519759,1.0167949,0.6514092,176
1747533253030,0.272367895,-0.0761458625,-1.37745915,2.41948185,1.00268017,0.677508175,177
1747533253040,0.24820623,-0.043198135,-1.4731296,2.2849922,0.99442434,0.69029135,178
1747533253050,0.19963883,0.013179091,-1.5458585,1.9190739,0.9038769,0.7185209,179
1747533253060,0.16425052,-0.017084005,-1.3218141,1.4484933,0.541686985,0.75873462,180
1747533253070,0.16608095,-0.106408953,-1.0776348,1.3289174,0.340352,0.79548625,181
1747533253080,0.192317105,-0.183042935,-0.97232407,1.4162691,0.33662358,0.8431568199999999,182
1747533253090,0.20451997,-0.21257387,-0.94865054,1.5041534,0.36432046,0.87032104,183
1747533253100,0.24552159,-0.22575295,-0.9508471,1.7049558,0.4825648,0.9214538,184
1747533253110,0.29726174,-0.21599068,-1.022844,1.8679413,0.58056915,0.94808537,185
1747533253120,0.39769126,-0.159735475,-1.30363175,1.959554,0.6306366,0.91452956,186
1747533253130,0.405257045,-0.1099477899999999,-1.5047349,1.7113473,0.628239725,0.7464840699999999,187
1747533253140,0.38951537,-0.09445015,-1.5666034,1.6026903,0.61412495,0.716923,188
1747533253150,0.29530928,-0.082735404,-1.6163912,1.16806245,0.5456817,0.7483483,189
1747533253160,0.21464834,-0.1425294375,-1.43822935,0.86659262,0.42077945,0.86179893,190
1747533253170,0.2561380749999999,-0.17852788,-1.2390786,0.71798825,0.28655615,0.95021588,191
1747533253180,0.3274028,-0.193903485,-1.1314494000000002,0.78936098,0.27963192,0.9273127,192
1747533253190,0.36388937,-0.20500809,-1.0938646,0.8538095,0.31638354,0.8974853,193
1747533253200,0.32947728,-0.21135357,-1.5792944,0.8111989,1.1393003,0.92518216,194
1747533253210,0.22184804,-0.1164153,-2.1003566,-0.051132685,2.55237365,1.23730465,195
1747533253220,0.16107778,-0.025870068,-1.850442,-0.43569317,2.8842034,1.3582122,196
1747533253230,0.27993366,-0.10055158,-1.2859375,-1.1227888,2.1907163,1.3422332,197
1747533253240,0.3990336,-0.14228538,-0.75218445,-0.64075655,1.0301107,1.1057445,198
1747533253250,0.47591165,-0.16107778,-0.5623079,0.22583607,-0.034621093,0.82877576,199
1747533253260,0.367062105,-0.138990605,-0.850661565,1.78778005,-1.2082762,0.36218992,200
1747533253270,0.25406359,-0.109337645,-1.08715305,1.7158747,-1.1928299,0.43382895,201
1747533253280,0.22941381,-0.10543273,-1.25579655,1.3843111499999998,-0.8210526,0.57977017,202
1747533253290,0.3422903,-0.103480275,-1.21174415,0.949150625,-0.09161275,0.7318366700000001,203
1747533253300,0.43491003,-0.09811102,-1.1207108,0.70840085,0.3818973,0.80747044,204
1747533253310,0.494215935,-0.112876478,-1.0183288,0.5523396,0.653806075,0.75021249,205
1747533253320,0.49592432,-0.11836776,-1.0003906,0.509729,0.67697555,0.71958613,206
1747533253330,0.54632215,-0.19573391,-0.99697385,0.48975532,0.632500775,0.62664181,207
1747533253340,0.571338,-0.22819352,-1.014546,0.5044027,0.61412495,0.59601545,208
1747533253350,0.56987363,-0.18060236,-1.163909,0.5800365,0.45486793,0.51665324,209
1747533253360,0.5735345,-0.1632743,-1.2371262,0.53103435,0.30519825,0.48149952,210
1747533253370,0.65578185,-0.158637205,-1.3462198,0.39468047,0.0894822135,0.353401485,211
1747533253380,0.6875093,-0.15546446,-1.3894179,0.34834146,0.033023197,0.30253512,212
1747533253390,0.731927725,-0.1292283075,-1.5076636,0.29454561,0.0095873795,0.2431466199999999,213
1747533253400,0.7560893,-0.097134784,-1.7176749,-0.1768339,0.018109497,-0.096939065,214
1747533253410,0.722043365,-0.156562725,-1.8095626,-0.595216525,0.0644484999999999,-0.2322276449999999,215
1747533253420,0.7016645699999999,-0.19426956,-1.8207892,-0.8426241999999999,0.0247673984999999,-0.313187745,216
1747533253430,0.657490185,-0.216234725,-1.79077005,-1.062335,-0.2215750115,-0.42104578,217
1747533253440,0.6218578,-0.22282428,-1.7659982,-1.1664646,-0.42344263,-0.48629323,218
1747533253450,0.59159476,-0.21599068,-1.735003,-1.2532836,-0.63383234,-0.54914385,219
1747533253460,0.54058677,-0.188046115,-1.67142605,-1.40614905,-0.83862945,-0.6114618,220
1747533253470,0.50580864,-0.163518355,-1.6163911,-1.5203987,-0.8942895,-0.6399576,221
1747533253480,0.4552888,-0.14814274,-1.52340535,-1.6929715500000002,-0.8599346999999999,-0.67085027,222
1747533253490,0.417703975,-0.14606826,-1.4273688,-1.83198855,-0.7704525,-0.694818735,223
1747533253500,0.41538543,-0.14936304,-1.3977158,-1.8594191,-0.727043,-0.70147663,224
1747533253510,0.38268177,-0.1295944,-1.3296239,-1.8796591,-0.6008091600000001,-0.7400924799999999,225
1747533253520,0.3912237699999999,-0.13618395,-1.29899475,-1.8823223,-0.58056915,-0.75154406,226
1747533253530,0.4075756,-0.1461903,-1.2852055,-1.8684739,-0.5448828,-0.83729786,227
1747533253540,0.39976576,-0.14350566,-1.2976524,-1.8642128,-0.50387007,-0.86872315,228
1747533253550,0.43722856,-0.163152265,-1.39991235,-1.9361182,-0.41065945,-0.90467583,229
1747533253560,0.4429639,-0.1581491,-1.4431105,-1.9808593,-0.37710363,-0.92305166,230
1747533253570,0.40489095,-0.14228538,-1.487773,-2.1273332,-0.3291667,-0.95447695,231
1747533253580,0.3311857,-0.17291456,-1.3842927,-2.5039041,-0.54514909,-0.955009565,232
1747533253590,0.3214234,-0.17498904,-1.3325526,-2.5305357,-0.61891866,-0.9539443,233
1747533253600,0.336798995,-0.166202985,-1.2146729,-2.52760625,-0.684166105,-0.95128115,234
1747533253610,0.35876414,-0.17328064,-1.1805049,-2.5001757,-0.8538095,-0.9603359,235
1747533253620,0.3848782699999999,-0.144725955,-1.1420658,-2.4682178,-0.87618,-0.9965549,236
1747533253630,0.38231566,-0.12935034,-1.12742245,-2.5041704,-0.6796386999999999,-1.0503508,237
1747533253640,0.38683072,-0.13838045,-1.1199788,-2.5177526,-0.6402239,-1.0604708,238
1747533253650,0.35705575,-0.11031388,-1.0792211,-2.5049694,-0.5629923,-1.0578076,239
1747533253660,0.34338856,-0.08371163,-1.040416,-2.4698157,-0.5368933,-1.0503508,240
1747533253670,0.3950066399999999,-0.0388051025,-1.12412775,-2.4442494,-0.5965481,-1.0780476,241
1747533253680,0.37609221,0.0133011205,-1.1739154,-2.5622274,-0.62291339,-1.2122709,242
1747533253690,0.34753752,0.031483386,-1.1856301,-2.6312032,-0.61678815,-1.2191951,243
1747533253700,0.33045352,0.008542004,-1.1526824,-2.7920582,-0.63649553,-1.2250541,244
1747533253710,0.3226437,0.009030119,-1.0240642,-2.873551,-0.7057377,-1.2522184,245
1747533253720,0.32239962,-0.00707766,-0.78366786,-2.705239,-0.9139969,-1.3321131,246
1747533253730,0.33448043,-0.002562601,-0.8256456999999999,-2.49351775,-0.86313055,-1.3946975,247
1747533253740,0.33631086,0.012202863,-0.869576,-2.4357271,-0.7930894,-1.4130733,248
1747533253750,0.33313814,0.07785426,-0.9957536,-2.483664,-0.628506,-1.4407701,249
1747533253760,0.35315084,0.10518867,-1.0928884,-2.6354642,-0.43409526,-1.4892397,250
1747533253770,0.354493155,0.101405785,-1.08385825,-2.71882115,-0.36245623,-1.5278554999999998,251
1747533253780,0.36974674,0.0976229,-0.9442575,-2.8852687,-0.4079963,-1.7369137,252
1747533253790,0.36340126,0.09298581,-0.89398164,-2.7851338,-0.6412892,-1.8578212,253
1747533253800,0.27212384,0.13105874,-0.90447617,-2.6951191,-0.8330368,-1.9169434,254
1747533253810,0.264314,0.13032657,-0.94206095,-2.6823359,-0.9305085,-1.9009644,255
1747533253820,0.28383857,0.19451363,-1.0518868,-2.7382622,-0.8772453,-1.8732675,256
1747533253830,0.18426323,0.21525851,-0.9967298,-3.042928,-0.7126619,-1.8359833,257
1747533253840,0.18645974,0.14985114,-0.9867234,-3.160107,-0.71479243,-1.8562233,258
1747533253850,0.102748096,0.183287,-0.95987713,-3.2618399,-0.73982614,-1.8785939,259
1747533253860,0.041001618,0.20061506,-0.8664033,-3.3475935,-0.8410263,-1.8807244,260
1747533253870,-0.0089080879999999,0.1249573149999999,-0.812832655,-3.365703,-0.86526105,-1.8453043,261
1747533253880,-0.1123883599999999,0.192683205,-0.8053889000000001,-3.4354779,-0.89455583,-1.78165475,262
1747533253890,-0.13569583,0.21403822,-0.77903074,-3.4935348,-0.9518138,-1.7491642,263
1747533253900,-0.09200958,0.18133454,-0.71093875,-3.6075182,-1.0881677,-1.7150757,264
1747533253910,-0.117147475,0.18963248,-0.6233222,-3.6362803,-1.1302456,-1.6980315,265
1747533253920,-0.107873306,0.15888128,-0.39268813,-3.617638,-1.1920309,-1.653823,266
1747533253930,-0.107019105,0.239176105,-0.328501045,-3.47436015,-1.29003525,-1.5978967000000002,267
1747533253940,-0.0873725,0.26870704,-0.29555333,-3.4610443,-1.3070794,-1.5973641,268
1747533253950,-0.041977845,0.30360723,-0.268463,-3.4956653,-1.2761868,-1.6490294,269
1747533253960,-0.08151512,0.3397277,-0.1969542,-3.5872781,-1.1792477,-1.7326527,270
1747533253970,-0.16229807,0.34680536,-0.03734076,-3.6863477,-1.081776,-1.7859159,271
1747533253980,-0.538146215,0.265534285,0.5471763700000001,-3.6290897,-0.69508505,-1.70175995,272
1747533253990,-0.61038715,0.24723,0.6887296,-3.567038,-0.61625546,-1.6484967,273
1747533254000,-0.7604824,0.20159128,0.9520673,-3.3566482,-0.47990164,-1.5227956,274
1747533254010,-0.9027678,0.19768637,1.1841658,-3.0791469,-0.3685815,-1.3752564,275
1747533254020,-1.11692795,0.230756125,1.7015672,-2.13372465,-0.351537275,-1.013332775,276
1747533254030,-1.15622115,0.247840125,1.79662745,-1.6636768,-0.39414786,-0.8759136750000001,277
1747533254040,-1.1917315,0.254551705,1.8364088,-0.81705788,-0.3336941,-0.58855859,278
1747533254050,-1.2073512,0.24942651,1.8511744,-0.21252026,-0.2593919,-0.37017938,279
1747533254060,-1.1168059,0.2255089,1.7835704,0.41225734,-0.06711166,-0.16245283,280
1747533254070,-1.0492021,0.2443013,1.598819,1.0098706,0.17949706,0.034088463,281
1747533254080,-0.929980125,0.307756185,1.2084495,1.66367675,0.544083815,0.32437302,282
1747533254090,-0.88055855,0.32337585,1.0714114,1.8402443,0.664725,0.41598576,283
1747533254100,-0.6879974,0.42587993,0.47884035,2.1454427,0.9310411,0.6961503,284
1747533254110,-0.5954997,0.48396555,0.26626647,2.133192,0.8516789,0.79202414,285
1747533254120,-0.5217944,0.5208182,0.09567044,2.0809941,0.7456851,0.87618,286
1747533254130,-0.48274526,0.5603554,-0.0319715,1.9936424,0.67963874,0.96086854,287
1747533254140,-0.38487828,0.6262509,-0.082003236,1.8477012,0.628506,1.0684602,288
1747533254150,-0.33972769,0.6246645,-0.0428320472999999,1.80855275,0.63516393,1.1092066,289
1747533254160,-0.23197641,0.62503062,0.058207655,1.98645195,0.7765778,1.1408982,290
1747533254170,-0.2272173,0.6325964,0.0622346,2.0756679,0.8293084,1.1393003,291
1747533254180,-0.21623473,0.6343048,0.004881145,2.2343922,0.9235843,1.144094,292
1747533254190,-0.21355009,0.65248705,-0.1023820125,2.27913335,0.9904296,1.1358382,293
1747533254200,-0.22502078,0.6977597,-0.31190515,2.245045,1.0828413,1.1227888,294
1747533254210,-0.20964517,0.69312257,-0.37413976,2.03518775,1.11666345,1.12811505,295
1747533254220,-0.19085276,0.66090703,-0.43368974,1.9787288,1.1393003,1.1302456,296
1747533254230,-0.21184167,0.6616392,-0.45638704,1.8801918,1.1504856,1.1451592,297
1747533254240,-0.23185438,0.66237134,-0.43881494,1.7880464,1.0956244,1.1648667,298
1747533254250,-0.22355644,0.6242984,-0.36315718,1.7065537,0.9038769,1.1749867,299
1747533254260,-0.20696054,0.59549967,-0.31324749,1.75049585,0.84395575,1.16619825,300
1747533254270,-0.18267684,0.54998302,-0.232342515,1.8903118,0.73343455,1.14489295,301
1747533254280,-0.13057062,0.47932842,-0.221970075,2.4884578,0.67218185,1.1001519000000002,302
1747533254290,-0.11836776,0.45589894,-0.2889638,2.7302728,0.7222493,1.0892329,303
1747533254300,-0.073217176,0.45907167,-0.46883395,2.72388125,1.00534335,1.0863034,304
1747533254310,-0.057841565,0.47103047,-0.6487042,2.6818032,1.1270498,1.0908308,305
1747533254320,-0.04637088,0.4893348,-0.8075854,2.22800055,1.4658039500000002,1.1518172,306
1747533254330,-0.053692598,0.5027579,-0.95524013,1.9760655,1.5840483,1.1968247,307
1747533254340,-0.045882765,0.5020258,-0.93571544,1.7805896,1.4796523,1.2447615,308
1747533254350,-0.033191785,0.50446635,-0.8681116,1.6777915,1.2474247,1.2767195,309
1747533254360,-0.008786061,0.4881145,-0.76853627,1.6745957,0.8878979,1.2708606,310
1747533254370,0.051496081,0.413677025,-0.53058047,2.2676817,-0.069774822,1.09802135,311
1747533254380,0.084931925,0.3619369,-0.4356422,2.4335966,-0.103863284,1.0855045,312
1747533254390,0.14985114,0.29433304,-0.49446,2.7542412,0.16298546,1.1270498,313
1747533254400,0.23527117,0.24771811,-0.6543175,2.9800773,0.68869346,1.186172,314
1747533254410,0.2860351,0.24869433,-0.82149667,3.0887344,1.2362394,1.2442288,315
1747533254420,0.341558135,0.44784504,-1.4095527,2.782737,1.58378195,1.1901666999999998,316
1747533254430,0.33875147,0.4846977,-1.5104704,2.5044367,1.6069515,1.1297129,317
1747533254440,0.29091623,0.541319,-1.6080933,2.0266657,1.2442288,1.0231866,318
1747533254450,0.135329747,0.55181342,-1.4200471,1.2756542,0.33981935,0.92172008,319
1747533254460,0.143261602,0.4411334799999999,-1.0620151,1.08790135,-0.0561927,0.933437965,320
1747533254470,0.19768637,0.34680536,-0.8171036,1.0647318,-0.2082592,0.95128113,321
1747533254480,0.26162934,0.29091623,-0.609655,1.3171995,-0.08681905,0.9358348,322
1747533254490,0.32069123,0.2255089,-0.49616838,1.7012273,0.18375812,0.9102685,323
1747533254500,0.38707477,0.13496366,-0.5405868,2.139051,0.5811018,0.8948221,324
1747533254510,0.40000984,0.11348662,-0.70410514,2.5182853,0.9528791,0.908138,325
1747533254520,0.400741995,0.29555332,-1.317299,2.66475905,0.9715212,0.7984157249999999,326
1747533254530,0.38805103,0.35632357,-1.4738617,2.5225463,0.8404937,0.7254451,327
1747533254540,0.31678632,0.44003522,-1.5919853,2.1049626,0.4628574,0.6125271,328
1747533254550,0.22135992,0.45419052,-1.5807588,1.639442,0.087884314,0.5336975,329
1747533254560,0.13398743,0.40781966,-1.4299314,1.2618058,-0.096939065,0.5305017,330
1747533254570,0.09493827,0.2443013,-1.0067362,1.0018812,0.015446335,0.6982809,331
1747533254580,0.1668131199999999,0.1701078999999999,-0.8012399699999999,1.13850135,0.38189731,0.804274675,332
1747533254590,0.20305562,0.1432616,-0.7480355,1.2186625,0.515588,0.8277105,333
1747533254600,0.27310005,0.09615856,-0.7082541,1.4647386,0.74675035,0.82185155,334
1747533254610,0.2853029,0.09542638,-0.75316066,1.8034927,0.84155893,0.777643,335
1747533254620,0.25284332,0.11275445,-0.8744571,2.0005667,0.7568704,0.74675035,336
1747533254630,0.154610265,0.214160235,-1.2669012,1.86714235,0.19201392,0.657534525,337
1747533254640,0.12324891,0.23307467,-1.3249868,1.7555559,0.0628506,0.6487461,338
1747533254650,0.0605262,0.24405725,-1.3547617,1.4530207,-0.13954964,0.66206187,339
1747533254660,0.0683360335,0.1341094609999999,-1.14462845,1.1653993,-0.2231729,0.7121293,340
1747533254670,0.119099945,0.051252022,-1.0262607,0.9214538,0.08681905,0.91825795,341
1747533254680,0.19963883,0.009518232,-0.9584128,0.9528791,0.39894155,0.9965549,342
1747533254690,0.26187342,-0.0021965152,-0.9188756,1.0727214,0.7888283,1.0647318,343
1747533254700,0.283960595,-0.0080538891,-0.91911965,1.1310446,0.861,1.0727213,344
1747533254710,0.32850106,0.03380193,-0.995021415,1.2942963,0.8745821,1.063134,345
1747533254720,0.342656375,0.065895457,-1.0618931,1.43224805,0.28602352,0.91852425,346
1747533254730,0.34778157,0.07687803,-1.0894716,1.4359765,0.16085494,0.8745821,347
1747533254740,0.2702934,0.081149035,-1.1334018,1.2247878,0.0255663465,0.7805725299999999,348
1747533254750,0.22916976,0.0656514,-1.1207108,1.0828413,0.037284255,0.773382,349
1747533254760,0.22916976,0.0656514,-1.1207108,1.0828413,0.037284255,0.773382,350
1747533254770,0.257968515,-0.055034911,-1.0200373,0.924649525,0.668453425,0.9552759,351
1747533254780,0.26748675,-0.066749661,-0.98501505,0.9539443,0.74142405,1.00747385,352
1747533254790,0.2757847,-0.07224095,-0.9701275,0.9768475,0.73609775,1.0279802,353
1747533254800,0.303607225,-0.074803545,-0.9504809,1.06766125,0.566188065,1.00241385,354
1747533254810,0.3385074,-0.07687803,-0.9271735,1.2575446,0.20186761,0.908138,355
1747533254820,0.29384492,-0.093962035,-0.97586289,1.3177321,0.061252706,0.83250415,356
1747533254830,0.26406994,-0.10372432,-0.99502134,1.3230585,0.0031957934,0.80747044,357
1747533254840,0.21599068,-0.1313028,-1.0452971,1.170193,0.099069595,0.87351686,358
1747533254850,0.2111095,-0.16205402,-1.0452971,1.0881677,0.25513083,0.9337043,359
1747533254860,0.22331238,-0.18548352,-1.0238202,1.0226538,0.42077947,0.9938917,360
1747533254870,0.27236788,-0.23283061,-0.973788445,1.0082727500000002,0.63063655,1.0668624,361
1747533254880,0.2967736,-0.25552794,-0.95621634,1.0226538,0.6844324,1.0849719,362
1747533254890,0.33045351,-0.25137897,-0.949870795,1.1060108,0.6628608,1.0657971,363
1747533254900,0.3743838,-0.24649782,-0.9647583,1.2751216,0.5022722,0.98430437,364
1747533254910,0.380729285,-0.25223317,-0.9881878,1.3110743,0.4285026249999999,0.953145385,365
1747533254920,0.3953727449999999,-0.25345345,-1.16378695,1.36646795,0.33236252,0.88390317,366
1747533254930,0.39830142,-0.24845028,-1.2393227,1.3411679,0.3797668,0.88843054,367
1747533254940,0.41758195,-0.2111095,-1.3745304,0.9416938,0.5683186,0.9353022,368
1747533254950,0.4350320399999999,-0.20403185,-1.3543957,0.8506137,0.5696501700000001,0.928111675,369
1747533254960,0.51166602,-0.186703795,-1.1958805,0.660996615,0.4474110599999999,0.831172585,370
1747533254970,0.5342413,-0.18865626,-1.150974,0.65460503,0.38562572,0.78723043,371
1747533254980,0.5405868,-0.20232345,-1.1160738,0.68816084,0.28549087,0.6924219,372
1747533254990,0.5213063,-0.21672285,-1.1756238,0.813862,0.21891184,0.58696073,373
1747533255000,0.507273,-0.172060365,-1.25250185,0.777376735,0.139815965,0.5635249,374
1747533255010,0.5263094500000001,-0.146800435,-1.283253,0.705205085,0.089482215,0.5416869799999999,375
1747533255020,0.60355358,-0.134231485,-1.334627,0.56698701,0.1536644,0.46472162,376
1747533255030,0.66700846,-0.13252309,-1.3764828,0.47137952,0.23808661,0.40213734,377
1747533255040,0.7192367,-0.14692247,-1.4560456,0.36591834,0.46019423,0.34194988,378
1747533255050,0.76463133,-0.15302388,-1.5678238,0.23595607,0.69029135,0.27057716,379
1747533255060,0.7895252,-0.127519907,-1.68851005,-0.0191747619999999,0.78962727,0.127299105,380
1747533255070,0.7987994,-0.117391534,-1.722556,-0.112918034,0.77604514,0.07350325,381
1747533255080,0.76853628,-0.09945333,-1.75770035,-0.55739962,0.041279,-0.2527339899999999,382
1747533255090,0.76219076,-0.09689073,-1.7579445,-0.63383234,-0.11824436,-0.304133,383
1747533255100,0.7509641499999999,-0.101405785,-1.73451485,-0.8245147,-0.3685815,-0.41864893,384
1747533255110,0.73290393,-0.113120535,-1.69387935,-1.13823505,-0.50014165,-0.552605955,385
1747533255120,0.72485006,-0.12129646,-1.6700838,-1.2415657,-0.50387007,-0.58749336,386
1747533255130,0.6782351,-0.174745,-1.5434179,-1.5891083,-0.202400245,-0.70014508,387
1747533255140,0.6386978,-0.18621568,-1.4745939,-1.6341157,-0.13741912,-0.7089335,388
1747533255150,0.6147802,-0.19158493,-1.4291992,-1.6847157,-0.058589544,-0.72651035,389
1747533255160,0.6037976,-0.16913168,-1.4047935,-1.726261,-0.008522116,-0.7669904,390
1747533255170,0.605506,-0.13520771,-1.376971,-1.8301244,-0.07190535,-0.89109373,391
1747533255180,0.6035536,-0.13227904,-1.3674527,-1.91854125,-0.167779155,-1.002680185,392
1747533255190,0.6101431,-0.13105874,-1.3647681,-1.9473034,-0.20080236,-1.0391655,393
1747533255200,0.6130718,-0.12398108,-1.380876,-2.0208068,-0.24714136,-1.1121361,394
1747533255210,0.59842837,-0.12764193,-1.3872215,-2.1182783,-0.28122982,-1.1771172,395
1747533255220,0.58305275,-0.14936304,-1.3657444,-2.223207,-0.35899413,-1.2463595,396
1747533255230,0.55974531,-0.17340268,-1.32608505,-2.2405175,-0.4247742,-1.28790475,397
1747533255240,0.52679757,-0.1683995,-1.2947237500000002,-2.2863239,-0.419980525,-1.3630059,398
1747533255250,0.5357057,-0.15668476,-1.3159567,-2.3238745,-0.376571,-1.383246,399
1747533255260,0.5065408,-0.1140967599999999,-1.3669646000000002,-2.475142,-0.20293288,-1.4503576,400
1747533255270,0.458461515,-0.112754445,-1.3170549,-2.9611689,0.316649865,-1.5683356,401
1747533255280,0.4465027299999999,-0.13057063,-1.20332425,-3.0391996,0.38296258,-1.5904398,402
1747533255290,0.44906533,-0.13935669,-1.1390152,-3.0945933,0.4048005,-1.649562,403
1747533255300,0.49470404,-0.15424417,-1.0077124,-3.0216227,0.32756883,-1.7417074,404
1747533255310,0.5208182,-0.13447554,-0.92229235,-2.8453214,0.21891184,-1.871137,405
1747533255320,0.50568664,-0.052716363,-0.9828185,-2.6136262,0.11132014,-2.0256004,406
1747533255330,0.443818075,0.0058573741,-1.11778215,-2.6889938,0.59148809,-2.1326594,407
1747533255340,0.42099872,0.01952458,-1.1463369,-2.7814054,0.8229168,-2.1060278,408
1747533255350,0.39756927,0.029042812,-1.1624447,-3.0594394,1.4881744,-2.0090888,409
1747533255360,0.39817939,0.0590618515,-1.04639545,-3.3396041,2.3185482,-1.9185413,410
1747533255370,0.45589892,0.0306291824999999,-0.876409525,-3.5744948,2.9784794,-1.856756,411
1747533255380,0.444306195,-0.025259925,-0.754991075,-3.6647761,3.9111185,-2.0658141,412
1747533255390,0.41807005,-0.026114125,-0.7370529,-3.5862129,3.9910133,-2.0793962,413
1747533255400,0.37194324,0.029774986,-0.6728658,-3.3001893,4.0448093,-2.0399814,414
1747533255410,0.490921135,0.0957924699999999,-0.6272271300000001,-2.9148298500000003,3.8671763,-2.0844562,415
1747533255420,0.581466375,0.15119347,-0.58268668,-2.7281423,3.7689056,-2.1427794,416
1747533255430,0.60184515,0.17108414,-0.5679212,-2.5220137,3.755057,-2.21575,417
1747533255440,0.6655441,0.20818083,-0.5366819,-2.3318639,3.8152447,-2.2903185,418
1747533255450,0.7089863,0.23356278,-0.53887844,-2.1763353,3.9718385,-2.3771377,419
1747533255460,0.74583894,0.24967057,-0.5630401,-2.0703416,4.290353,-2.4522388,420
1747533255470,0.7687803,0.27871338,-0.54156303,-1.9995013,4.6599994,-2.5427864,421
1747533255480,0.5856153500000001,0.294455065,-0.4922634649999999,-1.816276,5.2032843,-2.7457192,422
1747533255490,0.5137405,0.298482,-0.48176903,-1.7278589,5.271461,-2.7126958,423
1747533255500,0.44930938,0.3077562,-0.4378387,-1.6266588,5.143097,-2.6429212,424
1747533255510,0.451017785,0.3576659,-0.256626205,-1.25408255,4.43043485,-2.6045716,425
1747533255520,0.47176263,0.37023485,-0.15058333,-0.87058735,3.79926565,-2.614159,426
1747533255530,0.52496713,0.38439015,-0.084931925,-0.7190535,3.5942023,-2.62854,427
1747533255540,0.55571836,0.40952805,-0.04905551,-0.4165184,3.2634377,-2.698315,428
1747533255550,0.56426036,0.4195344,-0.04905551,-0.1555286,3.0328078,-2.7499802,429
1747533255560,0.61221757,0.4772539449999999,-0.074193403,0.28655612,3.0115025,-2.7350664,430
1747533255570,0.6145361,0.49860895,-0.099575356,0.41278997,3.1782165,-2.803776,431
1747533255580,0.5618198,0.54961693,-0.2037878,0.4415521,3.3518546,-2.8991172,432
1747533255590,0.33753118,0.58329684,-0.38194957,0.26738137,3.6485307,-2.9555762,433
1747533255600,0.2403964,0.5859815,-0.36584184,0.1736381,3.6602488,-2.8815403,434
1747533255610,0.21477039,0.57377857,-0.25748038,0.175236,3.5318842,-2.7867317,435
1747533255620,0.21257387,0.5422952,-0.13471961,0.3009372,3.2969935,-2.692456,436
1747533255630,0.21989559,0.5227706,-0.0036608586,0.767523,2.64638335,-2.5563685,437
1747533255640,0.23771177,0.5198419,0.06809197,0.9262474,2.442119,-2.51722,438
1747533255650,0.3121492,0.56816524,-0.03929322,1.4215955,1.9792614,-2.4266725,439
1747533255660,0.36730617,0.601113,-0.14082102,1.4940335,1.9835224,-2.424542,440
1747533255670,0.4041588,0.63503695,-0.2238005,1.484446,2.0437098,-2.4628913,441
1747533255680,0.4228291899999999,0.634670885,-0.215258485,1.52625765,2.1070931,-2.62667585,442
1747533255690,0.40708748,0.6216138,-0.21184167,1.5792545,2.1273332,-2.7292075,443
1747533255700,0.24991462,0.6291796,-0.2626056,1.5893745,2.2237396,-2.722816,444
1747533255710,0.18011424,0.63454884,-0.29433304,1.5494272,2.3499734,-2.656237,445
1747533255720,0.1206863099999999,0.622223945,-0.33692102,1.5137408,2.6165559,-2.66449275,446
1747533255730,-0.00549129,0.56426032,-0.366329925,1.5068166,2.7158918,-2.6652918,447
1747533255740,-0.09786696,0.5191097,-0.37877685,1.5659387,3.0029805,-2.5513084,448
1747533255750,-0.16571487,0.4790844,-0.42783237,1.6362462,2.9667616,-2.5086977,449
1747533255760,-0.28042176,0.47005424,-0.53643787,1.6820526,2.884736,-2.4580977,450
1747533255770,-0.36803833,0.47932845,-0.6389419,1.695901,2.786199,-2.4037693,451
1747533255780,-0.6334505850000001,0.43576424,-1.073851875,1.4080133,2.69565175,-2.1531658,452
1747533255790,-0.6936107,0.42587993,-1.1800168,1.2793826,2.7238812,-2.0596888,453
1747533255800,-0.86042386,0.412456735,-1.41638615,0.82984103,2.7792749,-1.75502315,454
1747533255810,-0.95279953,0.40867385,-1.5246256,0.6668556,2.781938,-1.6522251,455
1747533255820,-1.12046685,0.41209066,-1.5768539,0.33289513,2.7031085,-1.4450313,456
1747533255830,-1.2632403,0.422219055,-1.55415655,-0.416518385,1.79710115,-0.645283935,457
1747533255840,-1.2871579,0.42685616,-1.5234053,-0.5475459,1.510545,-0.43888897,458
1747533255850,-1.2822767,0.4566311,-1.4306636,-0.833569435,0.4394215849999999,0.21252025,459
1747533255860,-1.2073512,0.49348375,-1.2981404,-0.91133374,0.05965481,0.4250405,460
1747533255870,-1.0555476,0.50544256,-1.1861182,-1.073254,-0.8085357,0.9054748,461
1747533255880,-0.62551874,0.55401,-0.93278676,-1.2740563,-1.7736653,1.4471618,462
1747533255890,-0.4368625,0.5703618,-0.80416864,-1.3363743,-1.9989687,1.6218652,463
1747533255900,-0.24527754,0.5891542,-0.7063017,-1.3880396,-2.0527647,1.7097495,464
1747533255910,-0.102259986,0.6113634,-0.63064396,-1.448227,-1.9425098,1.7310548,465
1747533255920,-0.041733786,0.6294237,-0.5181335,-1.5563514,-1.4349113,1.7193369,466
1747533255930,-0.0756577465,0.64540938,-0.47164065,-1.62506095,-1.0093381,1.7142768,467
1747533255940,-0.0924977,0.65138876,-0.45687518,-1.6490294,-0.8671253,1.71188,468
1747533255950,-0.1231268849999999,0.65382933,-0.440645355,-1.6788567,-0.76485986,1.7401094,469
1747533255960,-0.19939478,0.66139513,-0.3909797,-1.68551465,-0.7771104,1.76807265,470
1747533255970,-0.196588125,0.65675804,-0.3798751,-1.6817863,-0.97338537,1.8881813,471
1747533255980,-0.198784635,0.649680375,-0.3687705,-1.70069475,-1.2386362,2.0509005,472
1747533255990,-0.2037878,0.6472398,-0.3687705,-1.7299895,-1.3198626,2.1214743,473
1747533256000,-0.1871919,0.6384538,-0.3048275,-1.7811222,-1.5472966,2.2876554,474
1747533256010,-0.079196575,0.56389423,-0.039049157,-1.42559015,-2.37154495,2.5249431,475
1747533256020,-0.032703671,0.50104953,0.041733791,-1.1361046,-2.8336034,2.624279,476
1747533256030,0.0275784665,0.489944935,-0.040757557,-0.785632525,-3.1079091,2.77794335,477
1747533256040,0.077122085,0.49226347,-0.10494461,-0.71319455,-3.0999196,2.824016,478
1747533256050,0.13545178,0.49128726,-0.2757847,-0.76485986,-2.7190876,2.9390647,479
1747533256060,0.15936938,0.4888467,-0.42954078,-1.29882365,-1.897236,3.401922,480
1747533256070,0.27810324,0.435886235,-0.1432616095,-1.5899072,-1.6112125,3.6767602,481
1747533256080,0.33777523,0.40440285,-0.009030119,-1.5611451,-1.768339,3.7460024,482
1747533256090,0.37316352,0.36242503,0.17230442,-1.2783173,-2.3068302,3.6788907,483
1747533256100,0.30116665,0.3448529,0.2208718,-0.84688526,-3.1350732,3.5862129,484
1747533256110,0.18706987,0.30043447,-0.0750476075,0.0351537299999999,-5.021656699999999,3.7297572,485
1747533256120,0.3671841299999999,0.28493683,-0.35010013,0.340352,-5.729525,3.8743668,486
1747533256130,0.6590765999999999,0.28798756,-0.4749354,0.350472,-5.754026,4.035754,487
1747533256140,0.8151512,0.29116032,-0.51740134,0.19547603,-5.342834,4.085289,488
1747533256150,1.0660421,0.29433304,-0.5427833,-0.03355583,-4.566256,4.0139165,489
1747533256160,1.1654954,0.287377405,-0.230512061,-0.20985709,-3.716175,3.9116511,490
1747533256170,1.0792212,0.30592576,-0.03636453,-0.046871636,-2.8597023,3.4791536,491
1747533256180,0.88336525,0.32191152,-0.070898634,0.41545315,-3.0064426500000003,3.0751522,492
1747533256190,0.7668279,0.3277689,-0.12032023,0.5368933,-3.0897996,2.9901974,493
1747533256200,0.605262,0.31898284,-0.2677308,0.67271453,-3.180347,2.9481194,494
1747533256210,0.5181335,0.28920785,-0.4275883,0.6791061,-3.1409323,3.0434606,495
1747533256220,0.67506236,0.20793676,-0.6289356,0.4149205,-2.6844664,3.3529198,496
1747533256230,0.8815348,0.1632743,-0.5469323,0.32170987,-2.489523,3.4365432,497
1747533256240,1.1175382,0.16058967,-0.39781332,0.40852892,-2.492719,3.3364084,498
1747533256250,1.3796556,0.22282428,-0.30922052,0.63862604,-2.4815335,3.0924628,499
1747533256260,1.3796556,0.22282428,-0.30922052,0.9038769,-2.2988408,2.7585022,500
1747533256270,1.091668,0.3121492,-0.55571836,0.96166745,-1.22185835,2.206429,501
1747533256280,0.8380925699999999,0.33081961,-0.6567580399999999,0.783502,-0.87697895,2.17793325,502
1747533256290,0.7678041,0.31605414,-0.66871685,0.6876282,-0.7318367,2.1789985,503
1747533256300,0.712281085,0.22782744,-0.643334895,0.6010754650000001,-0.8428905,2.3036344,504
1747533256310,0.7990434,0.033679903,-0.59061855,0.561394365,-1.0860371,2.52254625,505
1747533256320,0.99233675,0.019280521,-0.6169767,0.77604514,-1.4221281,2.7073696,506
1747533256330,1.1687901,0.09127741,-0.6582224,0.9321064,-1.5435683,2.6652918,507
1747533256340,1.3208379,0.16132185,-0.6828722,1.0615361,-1.5808525,2.4399881,508
1747533256350,1.2564068,0.27139166,-0.780007,1.0641992,-1.2080098,1.9845877,509
1747533256360,1.0884954,0.2928687,-0.8102701,0.94755274,-0.9784454,1.8769959,510
1747533256370,0.87958235,0.284082635,-0.79501645,0.70733558,-0.71772194,1.8381138,511
1747533256380,0.822717,0.27651685,-0.7807391,0.6317018,-0.65460503,1.8333201,512
1747533256390,0.7787867,0.10933765,-0.6128277,0.6492787,-1.0274476,1.8924423,513
1747533256400,0.7946504,0.06467517,-0.5742667,0.8607337,-1.5504924,1.9126823,514
1747533256410,0.89666635,0.087006405,-0.5919608199999999,1.1653993,-2.2770028,1.8860507,515
1747533256420,0.93229866,0.10396838,-0.6238103,1.5558188,-2.99073,1.7635453,516
1747533256430,0.88373125,0.2087909599999999,-0.87079622,1.67139995,-3.16063965,1.5579493,517
1747533256440,0.8195442,0.260165,-0.9876996,1.6112125,-3.0525153,1.4828482,518
1747533256450,0.7947724,0.255527925,-1.01503405,1.3624732,-2.5742116,1.4876418,519
1747533256460,0.724728025,0.200126945,-0.9809881,1.0833739,-2.000034,1.5094798,520
1747533256470,0.6977597,0.18401916,-0.9369358,0.965928525,-1.72226635,1.52465975,521
1747533256480,0.70166457,0.12056428,-0.80465674,0.8732504999999999,-0.8380967850000001,1.55422085,522
1747533256490,0.8432178,-0.18645974,-0.66749656,1.019458,-0.64395237,1.5446335,523
1747533256500,0.87079626,-0.18084641,-0.7541369,1.4125407,-0.8362326,1.4727281,524
1747533256510,0.8583493,-0.11348662,-0.91521466,1.6458336,-1.0221212,1.4114754,525
1747533256520,0.8871481,-0.06931226,-1.0833701,1.55928085,-1.5558187499999998,1.1358382,526
1747533256530,0.8023382400000001,0.04710305,-1.24774265,1.3230585,-1.74117475,0.9369001,527
1747533256540,0.77756643,0.04612682,-1.2422514,1.2213258,-1.7092168,0.892159,528
1747533256550,0.7167961,0.03636453,-1.1778203,0.9369001,-1.3491574,0.8295747,529
1747533256560,0.6191732,0.010738519,-1.091668,0.8580705,-1.1936288,0.82877576,530
1747533256570,0.50983557,-0.054668824,-0.87836206,0.77577885,-0.675910315,0.8708537000000001,531
1747533256580,0.44833316,-0.0894469805,-0.74803546,0.7946873,-0.4788364,0.8878979,532
1747533256590,0.43613032,-0.094206095,-0.71948075,0.87138635,-0.41065946,0.8852348,533
1747533256600,0.42636803,-0.12837411,-0.68262815,0.9731191,-0.35153726,0.8815063,534
1747533256610,0.46932206,-0.2294138,-0.6621273,1.135572,-0.38562572,0.8793758,535
1747533256620,0.5720702,-0.27529657,-0.8295506,1.3677995,-0.49481535,0.87351686,536
1747533256630,0.608434715,-0.23429496,-1.0892274999999998,1.7020263,-0.483630075,0.8583368499999999,537
1747533256640,0.61111933,-0.22184804,-1.177088,1.6729978,-0.44528055,0.8522116,538
1747533256650,0.629301615,-0.179626135,-1.3232783499999998,1.31986265,-0.173105474,0.8657936850000001,539
1747533256660,0.6465077,-0.17084008,-1.3606192,1.1579424,-0.023435818,0.87564737,540
1747533256670,0.7185045,-0.136428,-1.346952,0.6040049,0.42344263,0.8633968,541
1747533256680,0.713501375,-0.147044485,-1.198199,0.42077947,0.47244477,0.8186557,542
1747533256690,0.7004443,-0.15424417,-1.1395032,0.31851408,0.44741106,0.7595336,543
1747533256700,0.69556314,-0.17352471,-0.9786696,0.32969934,0.21731395,0.67963874,544
1747533256710,0.68458056,-0.16913168,-0.89080894,0.44101948,-0.037284255,0.5858955,545
1747533256720,0.67384208,-0.187313935,-0.920339865,0.6484797250000001,-0.149935975,0.453802665,546
1747533256730,0.721555265,-0.210987485,-0.975496815,0.652208175,0.0479369,0.4183826149999999,547
1747533256740,0.75950617,-0.23209843,-1.0157663,0.64821345,0.20559604,0.4000068,548
1747533256750,0.8090498,-0.2362474,-1.1104605,0.61678815,0.5683186,0.3749731,549
1747533256760,0.7997756,-0.20525214,-1.2012497,0.53795856,0.87298423,0.350472,550
1747533256770,0.76243484,-0.16034561,-1.3096112,0.28336033,0.7520767,0.24021713,551
1747533256780,0.7507201,-0.13667206,-1.3247427,0.15180019,0.38029942,0.16298546,552
1747533256790,0.73583263,-0.12032023,-1.3154685,0.04474111,-0.05965481,0.076166406,553
1747533256800,0.77829856,-0.14789869,-1.2903306,-0.044208474,-0.40959418,-0.007989483,554
1747533256810,0.852492,-0.18816814,-1.2844733,-0.1107875,-0.5523396,-0.082558,555
1747533256820,0.957680625,-0.16815544,-1.31070945,-0.17949706,-0.41172472,-0.18216023,556
1747533256830,0.9930689,-0.15424417,-1.3318204,-0.36645097,0.15925704,-0.39521313,557
1747533256840,0.9510911,-0.15692882,-1.355738,-0.431698415,0.29640984,-0.444747925,558
1747533256850,0.8866599,-0.16595893,-1.3535415,-0.6130597,0.5523396,-0.5613944,559
1747533256860,0.8341876,-0.16180995,-1.3318204,-0.784833565,0.33103095,-0.68975875,560
1747533256870,0.79318607,-0.14911897,-1.3464638,-0.8681905,0.1486044,-0.7547399,561
1747533256880,0.8019721,-0.14521407,-1.3686731,-0.9784454,0.015978966,-0.8165252,562
1747533256890,0.8061211,-0.12837411,-1.3696493,-1.1121361,-0.029294772,-0.8676579,563
1747533256900,0.80941587,-0.12422514,-1.3606192,-1.2061457,0.0063915874999999,-0.89402318,564
1747533256910,0.82711005,-0.13716017,-1.3042419,-1.4215955,0.16777915,-0.95234644,565
1747533256920,0.915336715,-0.152901865,-1.1197346,-1.4620755,0.50280483,-1.0695255499999998,566
1747533256930,0.954751925,-0.13276714,-1.08751905,-1.41413855,0.5837649300000001,-1.1715246,567
1747533256940,0.96768695,-0.11543907,-1.0804414,-1.3891048,0.6114618,-1.2314457,568
1747533256950,0.94669807,-0.088836834,-1.1119248,-1.387507,0.6450176,-1.3443637,569
1747533256960,0.9159469,-0.08005078,-1.1695224,-1.4636734,0.71585774,-1.4226607,570
1747533256970,0.87994837,-0.08029483,-1.16964435,-1.84876645,0.93743275,-1.5278555,571
1747533256980,0.909723345,-0.088836835,-1.1163178,-1.9020296,0.9715212,-1.5504924,572
1747533256990,0.92546505,-0.09469421,-1.0877631,-1.963815,1.0519487,-1.6218652,573
1747533257000,0.9543859,-0.10579882,-1.019915225,-1.99737085,1.3022858,-1.8117485,574
1747533257010,0.96366005,-0.098721155,-0.996119675,-2.01548035,1.61041355,-1.94810235,575
1747533257020,0.9696394,-0.09542638,-1.0008788,-2.05409625,1.94037925,-2.0330572,576
1747533257030,0.9855032,-0.082247294,-0.989164,-2.0756679,2.1209416,-2.0772657,577
1747533257040,0.9618296,-0.07858644,-0.9342511,-2.1108215,2.7510455,-2.2844596,578
1747533257050,0.933641,-0.08432178,-0.911309735,-2.07912995,2.850914,-2.3166839,579
1747533257060,0.8642067,-0.09127741,-0.87323684,-1.9664782,2.9976542,-2.3670175,580
1747533257070,0.8295506,-0.07028849,-0.87348086,-1.8988339,2.9342709,-2.382464,581
1747533257080,0.8283303,-0.05344854,-0.8561529,-1.8492991,2.6993802,-2.4106934,582
1747533257090,0.8583493,-0.013179091,-0.76926845,-1.7044232,1.9851203,-2.5454495,583
1747533257100,0.88788027,0.0034168016,-0.7050814,-1.6085494,1.5733956,-2.6471822,584
1747533257110,0.8925173,0.007565775,-0.6667644,-1.5036207,1.2799152,-2.751578,585
1747533257120,0.8876362,-0.0021965152,-0.6496804,-1.3997575,1.1451592,-2.8176246,586
1747533257130,0.9246109,0.0375848173,-0.694952995,-1.3076121,1.1930962,-2.8405278,587
1747533257140,0.9374239,0.08175918,-0.72167724,-1.3006879,1.6884441,-2.8495824,588
1747533257150,0.9257092,0.111290105,-0.7482795,-1.39842595,1.99204455,-2.8644961,589
1747533257160,0.8788501,0.13325526,-0.7292431,-1.496164,2.295645,-2.8794098,590
1747533257170,0.7349784,0.1381364,-0.59037448,-1.5148061,2.3776702,-2.8234834500000003,591
1747533257180,0.70361703,0.143017545,-0.45553285,-1.4945661,2.3425164,-2.8000476,592
1747533257190,0.71996886,0.14472595,-0.38048524,-1.2341089,1.8881812,-2.7387948,593
1747533257200,0.75486908,0.173646735,-0.35986242,-1.16406775,1.8186727,-2.7593012,594
1747533257210,0.7897693,0.20256752,-0.3392396,-0.9635317,1.6863136,-2.8367991,595
1747533257220,0.79879935,0.206838525,-0.376702365,-0.87671265,2.0037624,-2.8453213,596
1747533257230,0.7878168,0.21599068,-0.38805103,-0.83543365,2.4538367,-2.8091023,597
1747533257240,0.75340474,0.24308102,-0.34680536,-0.8117315,2.7451866,-2.7798076,598
1747533257250,0.74535084,0.27724904,-0.3243521,-0.7717841,3.0216227,-2.7867317,599
1747533257260,0.7165521,0.3031191,-0.3231318,-0.7483483,3.2735577,-2.8325381,600
1747533257270,0.67042524,0.3338703,-0.36047253,-0.7595336,3.4056504,-2.9012477,601
1747533257280,0.50641881,0.360960675,-0.33460249,-0.8061388700000001,3.4527885,-2.87275185,602
1747533257290,0.48201308,0.36706212,-0.30507156,-0.79415464,3.459979,-2.8581045,603
1747533257300,0.496900555,0.33911755,-0.25821258,-0.73529877,3.7436056,-2.7097665,604
1747533257310,0.51447266,0.3385074,-0.25284332,-0.7126619,3.9169774,-2.6541064,605
1747533257320,0.59269305,0.41416514,-0.22258019,-0.6426207500000001,4.83603425,-2.5851305,606
1747533257330,0.6047739,0.41684976,-0.2111095,-0.6066681,5.2682652,-2.58806,607
1747533257340,0.55693865,0.43368974,-0.17962612,-0.51505536,5.523396,-2.6226811,608
1747533257350,0.46126821,0.44869925,-0.172304415,-0.40053943,5.594769,-2.6232138,609
1747533257360,0.37950902,0.4964124399999999,-0.266266445,-0.33422673,5.6419067,-2.49724625,610
1747533257370,0.32239962,0.53863436,-0.3441207,-0.3435478,5.676794,-2.4256072,611
1747533257380,0.329355275,0.611363385,-0.282862355,-0.5853628,5.998504,-2.102832,612
1747533257390,0.3443648,0.6157564,-0.23942018,-0.64555025,6.0629525,-2.036253,613
1747533257400,0.38463423,0.5959878,-0.136428,-0.64182186,6.091182,-1.9483687,614
1747533257410,0.45077375,0.59794027,0.021965152,-0.52357745,6.1204767,-1.9371834,615
1747533257420,0.532777,0.5981843,0.17987019,0.0226368715,6.1170147,-2.1049626,616
1747533257430,0.51349646,0.6079466,0.14570218,0.101200126,6.160957,-2.108691,617
1747533257440,0.51618105,0.6355251,0.09127741,0.1486044,6.378271,-2.088451,618
1747533257450,0.5374141,0.67140144,0.0622346,0.13635385,6.825682,-2.0730047,619
1747533257460,0.5191097,0.6953191,0.056377225,0.1304949,7.3154373,-2.082592,620
1747533257470,0.4208767,0.6978816999999999,0.0832235225,0.14274544,7.400392,-2.0703416,621
1747533257480,0.30385128,0.70874226,0.19207305,0.2828277,7.206514,-2.0703416,622
1747533257490,0.24478942,0.6936107,0.22233616,0.46179214,6.964166,-2.0687435,623
1747533257500,0.22331238,0.6706693,0.260165,0.6844324,6.7042418,-2.069276,624
1747533257510,0.10494461,0.60697037,0.24234885,0.9715212,6.5061026,-2.027731,625
1747533257520,0.019280521,0.5603554,0.1632743,1.2926984,5.9905148,-1.6671388,626
1747533257530,0.029042812,0.5547421,0.0741934,1.9925772,5.727927,-1.5808525,627
1747533257540,-0.019768637,0.5383903,-0.033679903,2.2775354,5.372661,-1.4530207,628
1747533257550,-0.052472305,0.56523657,-0.1615659,2.5118935,4.996623,-1.3070794,629
1747533257560,-0.0976229,0.6169767,-0.36974674,2.6056368,4.6637278,-1.1675298,630
1747533257570,-0.12422514,0.65944266,-0.6450433,2.637062,4.081028,-0.9528791,631
1747533257580,-0.16620298,0.6892177,-0.74339837,2.6306705,3.7934067,-0.8383631,632
1747533257590,-0.19280522,0.6962953,-0.7946504,2.6093652,3.4274883,-0.7536746,633
1747533257600,-0.29652956,0.6823841,-0.9108216,2.5529063,2.984871,-0.64341974,634
1747533257610,-0.33435844,0.6983698,-0.97207995,2.46076095,2.700978,-0.53929013,635
1747533257620,-0.4471129,0.8361401,-1.2720264,1.8221349,1.3571469,-0.15393071,636
1747533257630,-0.45248213,0.8588374,-1.27886,1.4935007,0.8357,0.013315806,637
1747533257640,-0.45248213,0.8588374,-1.27886,1.4935007,0.8357,0.013315806,638
1747533257650,-0.44027928,0.84809893,-1.3183973,0.8133294,-0.090014845,0.3584615,639
1747533257660,-0.209035035,0.8707963,-1.21735755,0.45540056,-0.57577544,0.47510794,640
1747533257670,-0.0940840699999999,0.8588374999999999,-1.09898975,-0.27989825,-1.29642685,0.388821535,641
1747533257680,-0.097988988,0.83150307,-1.0240642,-0.4111921,-1.3560816,0.37124467,642
1747533257690,-0.099087246,0.81271064,-0.9813542,-0.7755125,-1.3864417,0.3898868,643
1747533257700,-0.0688241424999999,0.77109887,-0.81149032,-1.0173275,-1.3789848,0.39840892,644
1747533257710,-0.0876165555,0.7520624,-0.6705473200000001,-1.2705942,-1.4980281,0.4356931699999999,645
1747533257720,-0.108239393,0.742056075,-0.5647485,-1.3923007,-1.67938945,0.49774482,646
1747533257730,-0.10945968,0.7493777749999999,-0.5163031149999999,-1.4258565,-1.7555559,0.525708,647
1747533257740,-0.10982577,0.754625,-0.49031103,-1.4972292,-1.9302592,0.57577544,648
1747533257750,-0.0696783425,0.74742535,-0.351686485,-1.6341157,-2.2295985,0.642088175,649
1747533257760,-0.0778542625,0.7324158,-0.290062035,-1.6833842,-2.2618228,0.6788398,650
1747533257770,-0.07858644,0.7192367,-0.2545517,-1.6985642,-2.2546322,0.7036072,651
1747533257780,-0.082003236,0.7058135,-0.19768637,-1.7076189,-2.21069,0.847950515,652
1747533257790,-0.07468152,0.6884855,-0.13764828,-1.7129452,-2.202967,0.9267801,653
1747533257800,-0.02831064,0.6987359,-0.10494461,-1.6607473,-2.2295985,0.9683254,654
1747533257810,-0.0292868695,0.72960912,-0.128618175,-1.6085494,-2.294047,0.9869675,655
1747533257820,-0.051740136,0.746083,-0.14521407,-1.6415725,-2.3813987,1.0396981,656
1747533257830,-0.02391761,0.7663397,-0.04783522,-1.8263959,-2.5848641,1.2319783,657
1747533257840,0.041977845,0.7307074,0.065407336,-1.8407769,-2.6519759,1.2964269,658
1747533257850,0.0717528275,0.7144775999999999,0.134597568,-1.78778005,-2.70683695,1.3347764,659
1747533257860,0.10152781,0.6982478,0.2037878,-1.7347832,-2.761698,1.3731259,660
1747533257870,0.122882822,0.66444585,0.231244235,-1.56673765,-2.7558391,1.4476944500000002,661
1747533257880,0.127886,0.652365,0.2294138,-1.5057513,-2.7393274,1.4716629,662
1747533257890,0.13716017,0.6433349,0.14497001,-1.3379722,-2.6615632,1.6000272,663
1747533257900,0.17889395,0.6587105,0.045882765,-1.361408,-2.556102,1.6383767,664
1747533257910,0.19207305,0.6987359,-0.040269446,-1.4956313,-2.428803,1.6729978,665
1747533257920,0.19426957,0.71874857,-0.071264714,-1.7507621,-2.363289,1.7273263,666
1747533257930,0.185117425,0.63076595,0.3178845799999999,-1.9100192,-2.8016455,1.8445054,667
1747533257940,0.16449459,0.5876899,0.4300289,-1.7550232,-3.37316,1.9414445,668
1747533257950,0.191829,0.5210622,0.56670094,-1.417867,-4.042679,2.0559604,669
1747533257960,0.3385074,0.5008055,0.53131264,-1.0823087,-4.4293694,2.1236048,670
1747533257970,0.54107493,0.55620646,0.32117933,-0.9331717,-4.276504,2.1363878,671
1747533257980,0.67091334,0.67579454,0.102504045,-1.041296,-3.704457,2.13479,672
1747533257990,0.7792748,0.6672525,0.1986626,-1.591505,-2.2178805,2.0367856,673
1747533258000,0.68604493,0.6211257,0.35925224,-1.6916399,-1.6708673,1.9702066,674
1747533258010,0.40013185,0.53655985,0.53265495,-1.5760587,-1.663943,1.9723371,675
1747533258020,0.337165075,0.508371235,0.474569315,-1.0863034,-2.7071032500000003,2.1454426,676
1747533258030,0.4262459899999999,0.529482185,0.262971685,-0.8277105,-3.3044503,2.2461102,677
1747533258040,0.49031103,0.5520575,0.14130914,-0.83942837,-3.5324168,2.334527,678
1747533258050,0.6772589,0.59916055,0.051496077,-1.0343717,-3.5691686,2.3750072,679
1747533258060,0.85664095,0.575731035,0.14216335,-1.2538162,-3.3225598,2.338788,680
1747533258070,0.8742131,0.54815257,0.20329969,-1.3986923,-2.9364014,2.283927,681
1747533258080,0.7399816,0.42319524,0.5891542,-1.1552793,-2.954511,2.336125,682
1747533258090,0.7038611,0.38316986,0.6450433,-0.82877576,-3.2794166,2.3845944,683
1747533258100,0.677869,0.36828238,0.6252746499999999,-0.66445873,-3.48101795,2.4213460500000004,684
1747533258110,0.6365013,0.36315718,0.45980385,-0.2444782,-4.0474725,2.5683527,685
1747533258120,0.76243484,0.39146784,0.19841854,-0.09534117,-4.3047338,2.6903255,686
1747533258130,0.83760446,0.37804466,0.18157859,0.056459017,-4.759069,2.8682246,687
1747533258140,0.97647303,0.36755022,0.15302388,0.1486044,-4.898086,2.9001825,688
1747533258150,1.2205303,0.3900035,0.08786061,0.18908444,-4.8048754,2.838397,689
1747533258160,1.4157761,0.4417436,-0.035144243,0.03568636,-4.139085,2.6413233,690
1747533258170,1.49851145,0.45370242,-0.0485673915,-0.4032026,-2.4911208,2.28659,691
1747533258180,1.4643435,0.44101146,-0.032459613,-0.5954828,-1.6000272,2.149171,692
1747533258190,1.3479282,0.4131889,0.006833603,-0.71958613,-0.8873653,2.0463731,693
1747533258200,1.17891855,0.39793535,0.0859081479999999,-0.75793564,-0.46978164,1.9425098,694
1747533258210,1.1126571,0.3900035,0.102748096,-0.7163904,-0.39414784,1.8098843,695
1747533258220,0.8113683199999999,0.32911119,0.0732171775,-0.4841627,-1.2665994,1.7294569,696
1747533258230,0.81271065,0.28603509,0.0729731174999999,-0.33609092,-1.8855181,1.8551581,697
1747533258240,0.844194,0.26797485,0.07809832,-0.10333065,-2.5944517,2.0069582,698
1747533258250,0.99453324,0.26504618,0.04612682,0.08681905,-2.9609025,2.052232,699
1747533258260,1.3227902500000002,0.32593845,-0.134597565,0.0620516599999999,-2.33692385,1.9270634,700
1747533258270,1.4484797500000002,0.361814875,-0.211231545,-0.12170647,-1.40455115,1.75262635,701
1747533258280,1.4416462,0.37218732,-0.21769907,-0.20080236,-1.0471549,1.6799221,702
1747533258290,1.38185215,0.37267542,-0.20439795,-0.26711508,-0.7691209,1.6223978,703
1747533258300,1.1324255,0.33118567,-0.17206036,-0.41385525,-0.18855181,1.5291871,704
1747533258310,0.993313,0.30580372,-0.12935033,-0.4346279,-0.2806972,1.5622103,705
1747533258320,0.80172807,0.257968525,-0.0224532675,0.041279,-2.4301346,1.68018835,706
1747533258330,0.84663457,0.271635725,-0.0427100174999999,0.19014971,-2.966229,1.6847157,707
1747533258340,0.89398164,0.2762728,-0.06369894,0.4910869,-3.8168426,1.6745957,708
1747533258350,1.0684826,0.2489384,-0.17645338,0.65886605,-4.0831585,1.6186694,709
1747533258360,1.2129645,0.25308737,-0.3018988,0.488956385,-3.05917325,1.46580395,710
1747533258370,1.2271198,0.27334413,-0.42563587,0.3206446,-2.3068302,1.4082797,711
1747533258380,1.1436522,0.23893206,-0.41245672,0.09321064,-1.4610102,1.3859091,712
1747533258390,1.0064921,0.20476402,-0.35949633,-0.06018744,-0.79628515,1.4098775,713
1747533258400,0.94401345,0.1868258199999999,-0.3377752349999999,-0.13848437,-0.3392867,1.4913702,714
1747533258410,0.75535715,0.1295944,-0.30092257,-0.14753912,-0.29667616,1.5707325,715
1747533258420,0.716430075,0.10433447,-0.297871875,-0.047137953,-0.8514125800000001,1.604022,716
1747533258430,0.70190865,0.09225364,-0.30116665,0.020240024,-1.2191951,1.5861788,717
1747533258440,0.6604189,0.06028214,-0.24283697,0.1635181,-1.7507621,1.5723304,718
1747533258450,0.64821605,0.023795582,-0.22184804,0.3589941,-2.05622665,1.6322515,719
1747533258460,0.6467517,-0.0605262,-0.24820623,0.5544701,-2.3616912,1.6921726,720
1747533258470,1.110582475,-0.176087305,-0.4344219,0.55473648,-1.05567707,2.03492145,721
1747533258480,1.34536555,-0.153634035,-0.45504475,0.46525426,-0.13582122,2.0165456,722
1747533258490,1.432372,-0.0918875515,-0.50202577,0.298806675,0.7504788,1.86101695,723
1747533258500,1.38026575,-0.05405868,-0.54949488,0.1123853965,1.2564794,1.7009609499999998,724
1747533258510,1.2648266499999998,-0.049909707,-0.52801785,0.049002163,1.2799152,1.6543556,725
1747533258520,1.18965705,-0.0338019285,-0.46541719,-0.0114515931999999,0.52597433,1.53344825,726
1747533258530,1.1709867,-0.02318544,-0.42661208,0.0037284256,0.18269286,1.4945661,727
1747533258540,1.2122324,-0.041001618,-0.33826336,0.14061491,-0.5278385,1.3725933,728
1747533258550,1.2561626,-0.0741934,-0.31605414,0.55473647,-1.37791955,1.07431925,729
1747533258560,1.291795,-0.07370529,-0.38536638,0.60293967,-1.355549,1.0498182,730
1747533258570,1.3320644,-0.050763905,-0.46688148,0.61838603,-1.0562097,1.0114686,731
1747533258580,1.389662,-0.006345488,-0.5527897,0.545948,-0.6087986,0.9374327,732
1747533258590,1.3325526,0.07516963,-0.6806757,0.20026971,0.3339604,0.7307714,733
1747533258600,1.2971643,0.085420035,-0.7026408,0.0905474749999999,0.5352954,0.710531375,734
1747533258610,1.2420074,0.10152781,-0.7148437,-0.21997711,1.0120013,0.6562029,735
1747533258620,1.2267537,0.0843217775,-0.5963539,-0.3616572799999999,1.059671775,0.5454154,736
1747533258630,1.2207743,0.07492557,-0.5464442,-0.3749731,0.99921805,0.4990764,737
1747533258640,1.193928,0.05662128,-0.43027294,-0.07456851,0.037284255,0.27217507,738
1747533258650,1.210524,0.056377225,-0.4595598,0.078296938,-0.459395285,0.149403335,739
1747533258660,1.2268758,0.055645052,-0.53863436,0.10226539,-0.5608617,0.11558119,740
1747533258670,1.2632403,0.043930303,-0.59281504,0.07829694,-0.5928197,0.08522116,741
1747533258680,1.385513,0.024405725,-0.6079466,0.015446335,-0.46871635,0.06657903,742
1747533258690,1.432616,0.009030119,-0.59989274,-0.13209279,0.007989483,-0.056459017,743
1747533258700,1.4970472,0.0051252022,-0.5725583,-0.19707392,0.25086978,-0.15819177,744
1747533258710,1.5368285,-0.0026846298,-0.55620646,-0.25353295,0.54168695,-0.3089267,745
1747533258720,1.5170598,-0.0061014313,-0.5383903,-0.28442562,0.65247446,-0.44474792,746
1747533258730,1.39137035,-0.0245277535,-0.48140292,-0.27057716,0.42344263,-0.63915867,747
1747533258740,1.381608,-0.025626011,-0.46639338,-0.2082592,0.15339808,-0.73609775,748
1747533258750,1.37440835,-0.0213550095,-0.478596255,-0.18695391,0.0268979249999999,-0.7880294,749
1747533258760,1.35927685,-0.00536926,-0.5155709399999999,-0.171773895,-0.189350765,-0.886832675,750
1747533258770,1.3364575,0.008786061,-0.5715821,-0.23276028,-0.3472762,-1.0077401,751
1747533258780,1.3691612,0.01586372,-0.510567785,-0.37124467,-0.19760656,-1.0988203,752
1747533258790,1.3867333,0.01586372,-0.48225713,-0.39894155,-0.056991648,-1.1989552,753
1747533258800,1.411261,0.010738519,-0.42990684,-0.362456235,0.122505417,-1.3558153000000002,754
1747533258810,1.4140676,0.009030119,-0.4217309,-0.34514567,0.17896444,-1.4050838,755
1747533258820,1.4229758,0.0247718104999999,-0.4626105299999999,-0.291882455,0.36858149,-1.62106615,756
1747533258830,1.4199251,0.04173379,-0.50361214,-0.29241508,0.38562572,-1.6650083,757
1747533258840,1.41357965,0.057963598,-0.5256993,-0.3526025299999999,0.36378781,-1.80881905,758
1747533258850,1.39991235,0.06491923,-0.51959785,-0.39601206,0.329433035,-1.91161705,759
1747533258860,1.36550025,0.055645053,-0.4976327149999999,-0.444215275,0.287887725,-2.06075405,760
1747533258870,1.33853195,0.03978133,-0.4766437999999999,-0.477771105,0.27324033,-2.188852,761
1747533258880,1.3359693,0.032215554,-0.47103047,-0.48363006,0.28229508,-2.218413,762
1747533258890,1.3442672,0.03441207,-0.4527262,-0.4841627,0.32330775,-2.2876554,763
1747533258900,1.3508569,0.039781332,-0.45004156,-0.4910869,0.40213734,-2.3542345,764
1747533258910,1.360131,0.042221904,-0.44735694,-0.51026165,0.52411014,-2.4277377,765
1747533258920,1.35500585,0.043930303,-0.39561678,-0.49960901,0.72065138,-2.62294745,766
1747533258930,1.3423148,0.043930303,-0.3829258,-0.48948902,0.7440872,-2.6514432,767
1747533258940,1.3420708,0.04490653,-0.3521746,-0.4527374,0.7552725,-2.7041738,768
1747533258950,1.3520772,0.06199054,-0.33069757,-0.4032026,0.83942837,-2.7947214,769
1747533258960,1.3415827,0.08029483,-0.32947728,-0.4032026,1.0306433,-2.8714204,770
1747533258970,1.308635,0.08127106,-0.32288775,-0.5494101250000001,2.0010993,-3.0024478,771
1747533258980,1.2410310999999998,0.0613803975,-0.260043005,-0.577107,2.37314285,-3.03280795,772
1747533258990,1.2139407,0.05222825,-0.23917611,-0.5789712,2.5379925,-3.0423954,773
1747533259000,1.138527,0.042954076,-0.20549619,-0.53263223,2.7340012,-3.0450585,774
1747533259010,1.02296595,0.074071375,-0.153634035,-0.32543829,2.6274748,-3.07595115,775
1747533259020,0.9711038,0.08151512,-0.12886222,-0.20399815,2.4703484,-3.090865,776
1747533259030,0.93254274,0.09786696,-0.14570218,-0.05965481,2.2647521,-3.1004522,777
1747533259040,0.9066727,0.107873306,-0.18401916,-0.013848438,2.257828,-3.0738206,778
1747533259050,0.8969103,0.13740423,-0.22282428,-0.02396845,2.4122913,-3.0567763,779
1747533259060,0.8274760999999999,0.1817006199999999,-0.27785916,-0.09960223,2.6594326,-3.053048,780
1747533259070,0.7831797,0.1803583,-0.2716357,-0.37497309,3.14093235,-2.87035505,781
1747533259080,0.8466346,0.1891443649999999,-0.052960422,-0.38775626,3.1664987,-2.835734,782
1747533259090,0.8710403,0.19719826,0.034168016,-0.28176245,3.103648,-2.8410604,783
1747533259100,0.8754333,0.18377511,0.14960709,-0.0793622,2.9928606,-2.893791,784
1747533259110,0.8371163,0.17547716,0.18841219,0.20080236,2.835734,-2.893791,785
1747533259120,0.745961,0.25601606,0.12178457,0.5384912,2.7686224,-2.7824707,786
1747533259130,0.7497439,0.27383223,0.09493827,0.6359629,2.8490498,-2.7206855,787
1747533259140,0.7604824,0.31581008,0.040513504,0.6828345,2.9513152,-2.6796727,788
1747533259150,0.7570656,0.35607952,-0.011226633,0.68176925,3.0487869,-2.6535738,789
1747533259160,0.7465711,0.39293218,-0.05906185,0.6540724,3.171825,-2.646117,790
1747533259170,0.6451653150000001,0.4294187499999999,-0.108727505,0.498543765,3.44559785,-2.6138927,791
1747533259180,0.6208816,0.4253918,-0.09664667,0.46818373,3.4924695,-2.5795379,792
1747533259190,0.59964865,0.42636803,-0.043198135,0.45699844,3.60592,-2.501241,793
1747533259200,0.5533998499999999,0.4361303199999999,0.065529375,0.6210491650000001,3.59713175,-2.43492815,794
1747533259210,0.50275795,0.44577058,0.1215405149999999,0.7954862,3.4722294500000004,-2.38885555,795
1747533259220,0.485918,0.44467232,0.12178457,0.8633968,3.4258904,-2.3702135,796
1747533259230,0.45382445,0.484087535,0.067847916,0.958738,3.3396041,-2.3105586,797
1747533259240,0.480304665,0.5193538200000001,0.044540446,0.98590227,3.4288199,-2.17686795,798
1747533259250,0.5039782150000001,0.54766447,0.059794025,1.00481067,3.54759695,-2.1124195,799
1747533259260,0.49848693,0.5665789,0.07041052,1.0210559,3.5718317,-2.0991037,800
1747533259270,0.49690056,0.571338,0.06613952,1.0769824,3.6405413,-2.0916467,801
1747533259280,0.469200065,0.59110665,0.023307467,1.109473,3.7332194,-2.0735373,802
1747533259290,0.48176903,0.6037976,0.017328065,1.1345067,3.9824913,-2.0213394,803
1747533259300,0.51496077,0.62063754,0.035144243,1.1467572,4.2093925,-2.0298615,804
1747533259310,0.4740812049999999,0.6135599,0.0584517085,1.171791,4.4682517,-2.036253,805
1747533259320,0.44930938,0.61502427,0.06980037,1.2090752,4.711132,-2.010154,806
1747533259330,0.35656762,0.6365013,0.12032023,1.2703278,4.845888,-1.959554,807
1747533259340,0.29945824,0.66188323,0.10933765,1.4354439,4.777711,-1.8951055,808
1747533259350,0.25406358,0.67677075,0.20598431,1.55848195,4.5209823,-1.88258865,809
1747533259360,0.25406358,0.67677075,0.20598431,1.7398432,4.229366300000001,-1.861017,810
1747533259370,0.17596528,0.65273113,0.13362134,1.82000435,4.192082,-1.80615585,811
1747533259380,0.13545178,0.65797836,0.11299851,1.8418423,4.189685,-1.7603495,812
1747533259390,0.13496366,0.6128277,0.16693515,2.0916467,4.3207126,-1.6197346,813
1747533259400,0.1925611549999999,0.570971935,0.19170697,2.3398533,4.280765,-1.6255935,814
1747533259410,0.20622836,0.54815257,0.16034561,2.6338663,4.2759714,-1.7022926,815
1747533259420,0.1564407,0.48518583,-0.04881145,2.8581045,4.343616,-1.6218652,816
1747533259430,-0.11104605,0.532899,-0.628691465,3.0104373,4.345214,-1.474326,817
1747533259440,-0.15009521,0.541319,-0.72094506,2.9827404,4.088485,-1.3156016,818
1747533259450,-0.2255089,0.5625519,-0.89349353,2.9278793,3.6751623,-1.1350393,819
1747533259460,-0.2716357,0.6133158,-1.057256,2.8613002,3.1233554,-0.9635317,820
1747533259470,-0.298482,0.6545615,-1.2412751,2.740393,2.5060346,-0.8335694,821
1747533259480,-0.46078008,0.76219076,-1.7838144,2.0809941,1.347027,-0.5118596,822
1747533259490,-0.46102414,0.7934301,-1.8982773,1.6042882,0.84581995,-0.34301516,823
1747533259500,-0.44686884,0.7787867,-1.9592916,1.0934939,0.4463458,-0.21624869,824
1747533259510,-0.46688148,0.7499879,-1.9143851,0.4958806,0.0314253,-0.034621093,825
1747533259520,-0.38573248,0.708986325,-1.598575,0.101200126,-0.61838603,0.26045716,826
1747533259530,-0.3355787,0.6984919,-1.4362769,-0.5438175,-0.90973586,0.35420042,827
1747533259540,-0.278103245,0.703739035,-1.2494511,-0.991494885,-1.1478224,0.478836365,828
1747533259550,-0.24112856,0.70166457,-1.1787965,-1.1435614,-1.2080098,0.5209143,829
1747533259560,-0.13935669,0.69507504,-0.9693954,-1.3779196,-1.3289174,0.54435015,830
1747533259570,-0.0062234595,0.6440670749999999,-0.52813987,-1.4679344,-1.62878935,0.44554686,831
1747533259580,-0.009274175,0.63235235,-0.4639528,-1.4434333,-1.7699369,0.4016047,832
1747533259590,0.0056133163,0.62356627,-0.38780698,-1.3859091,-1.8066885,0.39787626,833
1747533259600,-0.020256752,0.63162017,-0.36584184,-1.3374395,-1.7353158,0.4245079,834
1747533259610,-0.01952458,0.6545615,-0.35071027,-1.3230585,-1.6405072,0.4628574,835
1747533259620,-0.013667206,0.73461235,-0.32728076,-1.3342438,-1.555286,0.4841627,836
1747533259630,-0.10372432,0.76511943,-0.21281794,-1.4950987,-1.5227956,0.60080916,837
1747533259640,-0.08981306,0.7668279,-0.114218794,-1.4972292,-1.5558188,0.66206187,838
1747533259650,-0.093717985,0.76292294,-0.043198135,-1.4551512,-1.5978967,0.7281082,839
1747533259660,-0.10543273,0.77048874,-0.0012202862,-1.3923006,-1.6740631,0.80374205,840
1747533259670,-0.128984255,0.7743936499999999,-0.0399033592999999,-1.1174624,-2.0458404,1.00241385,841
1747533259680,-0.1199541349999999,0.795748675,-0.15216969,-1.0796455,-2.1321268,1.0423613,842
1747533259690,-0.10592084,0.8151512,-0.22819352,-1.1041466,-2.2759376,1.1046792,843
1747533259700,-0.10726316,0.85090555,-0.302020845,-1.1829762,-2.3196133,1.13690345,844
1747533259710,-0.1097037375,0.9025237,-0.411602555,-1.3992249,-2.4040355,1.22398885,845
1747533259720,0.00719968875,0.832357225,-0.0564992565,-1.86820755,-2.7244138500000004,1.38750695,846
1747533259730,-0.0102504045,0.79660285,0.051496077,-1.9318571,-2.9033782,1.4221281,847
1747533259740,-0.114462845,0.7058135,0.25796852,-1.7496969,-3.2868736,1.5520903,848
1747533259750,-0.18157859,0.614048,0.4275883,-1.315069,-3.961186,1.8375812,849
1747533259760,-0.065163285,0.57524294,0.41758195,-0.93849796,-4.2599926,2.031992,850
1747533259770,0.2347830699999999,0.659930795,0.0316054174999999,-0.6367618500000001,-3.7768952,2.295645,851
1747533259780,0.3184947099999999,0.72936508,-0.081881208,-0.7901599,-3.3755567,2.331864,852
1747533259790,0.35046622,0.759018,-0.107873306,-0.8926916,-3.180347,2.3446472,853
1747533259800,0.3482697,0.76975656,-0.04515059,-1.0700581,-2.979012,2.3579628,854
1747533259810,0.3141017,0.7492558,0.08956901,-1.1382351,-3.0589068,2.3840618,855
1747533259820,0.29433304,0.67628264,0.22892569,-0.9816412,-3.562777,2.4740767,856
1747533259830,0.3829258,0.6369894,0.24991462,-0.79735047,-3.8722363,2.5582325,857
1747533259840,0.536926,0.6274712,0.174745,-0.67963874,-3.8056574,2.5353293,858
1747533259850,0.6284474,0.6557818,0.070532545,-0.67937242,-3.68235305,2.51109455,859
1747533259860,0.6472398,0.6887296,0.042954076,-0.7462177,-3.2921999,2.4474452,860
1747533259870,0.5515694,0.6399181,0.17328064,-0.6295713199999999,-3.21496805,2.4216125,861
1747533259880,0.41343296,0.62551874,0.20574026,-0.57364494,-3.3188314,2.4676852,862
1747533259890,0.37401772,0.6088008199999999,0.206594455,-0.5075985199999999,-3.4993937,2.5497105,863
1747533259900,0.34241232,0.5793919,0.20134723,-0.35579832,-3.91937425,2.7084348,864
1747533259910,0.61966133,0.5945235,-0.061746486,-0.126500155,-4.46026225,2.8996498500000003,865
1747533259920,0.72655843,0.5793919000000001,-0.180114245,-0.17470337,-4.327104,2.9033782,866
1747533259930,0.74510676,0.5706058,-0.19548985,-0.29933932,-3.9510658,2.9103024,867
1747533259940,0.8551766,0.5357057,-0.10030753,-0.39414784,-3.5984633,2.8751488,868
1747533259950,0.8551766,0.5357057,-0.10030753,-0.43303,-3.2591765,2.783536,869
1747533259960,0.77219715,0.486162025,-0.0222092085,-0.350472,-2.9395974,2.6141589,870
1747533259970,0.7609705,0.4737151,-0.032215554,-0.31638354,-2.8320055,2.6045716,871
1747533259980,0.743032305,0.43002887,-0.054180708,-0.291882465,-2.69911385,2.6855317000000003,872
1747533259990,0.74193406,0.42270714,-0.051740136,-0.27803403,-2.6945865,2.7276096,873
1747533260000,0.70142055,0.40171823,0.014643434,-0.015446335,-3.3321471,2.7883296,874
1747533260010,0.5976962,0.37291947,0.0026846298,0.21145499,-3.861051,2.8437235,875
1747533260020,0.5720702099999999,0.3148338499999999,-0.04441841475,0.62238076,-4.64695,2.9883331,876
1747533260030,0.60599416,0.29433304,-0.08346757,0.75633776,-4.841627,3.035471,877
1747533260040,0.9530435,0.2877435,-0.31532198,0.9683254,-4.477839,3.0498521,878
1747533260050,1.138527,0.3180066,-0.43100512,0.83942837,-3.752394,2.9736857,879
1747533260060,1.2976524,0.34460884,-0.51496077,0.389087835,-2.12387105,2.76063285,880
1747533260070,1.3471959999999998,0.363035155,-0.496168375,0.18801917,-1.4727281,2.6700854,881
1747533260080,1.18233535,0.335578715,-0.3347245,-0.07190535,-0.6034723,2.5379925,882
1747533260090,1.0472497,0.3082443,-0.208913,-0.18642128,0.15765914,2.3105586,883
1747533260100,0.85956967,0.2689511,-0.13105874,-0.066046394,0.011717909,2.2461102,884
1747533260110,0.64187056,0.22331238,-0.1552204,0.10279802,-0.42397526,2.2588933,885
1747533260120,0.46883395,0.18743597,-0.1969542,0.4109257349999999,-1.5363777,2.4690167,886
1747533260130,0.5806122,0.07516963,-0.2545517,0.5230448,-1.9600866,2.5566347,887
1747533260140,0.8031924,0.029774986,-0.33484653,1.1009508,-3.4935348,2.7627633,888
1747533260150,1.1420658,0.0689461715,-0.55901314,1.22505415,-3.42535795,2.66582425,889
1747533260160,1.2561626,0.127885995,-0.68177396,1.1275824,-2.94945095,2.52813885,890
1747533260170,1.2856936,0.15741692,-0.73290396,1.0434265,-2.6322684,2.4495757,891
1747533260180,1.1431642,0.21501444,-0.7797629,0.4426174,-1.0492855,2.2168152,892
1747533260190,1.0008788,0.19060871,-0.69263446,0.1736381,-0.4165184,2.1731396,893
1747533260200,0.8739689500000001,0.0596719975,-0.50556461,0.01917476,-0.05965481,2.191249,894
1747533260210,0.8468786,0.017328065,-0.43613032,0.1206412024999999,-0.3006709,2.26208915,895
1747533260220,0.87714173,-0.02928687,-0.353272855,0.20399815,-0.48522797,2.2801986,896
1747533260230,0.925221,-0.0302631,-0.34900185,0.8490158,-1.8620822,2.3009713,897
1747533260240,0.99233675,-0.014399378,-0.39488465,1.1366372,-2.4224114,2.2365227,898
1747533260250,1.0355349,0.0065895454,-0.46541715,1.3598101,-2.7872643,2.1315942,899
1747533260260,1.01735267,0.04698102,-0.65248705,1.4860439,-2.9166942,2.0256004,900
1747533260270,0.97061572,0.059794025,-0.77683423,1.3672669000000002,-2.485262,1.85409275,901
1747533260280,0.950359,0.05588911,-0.81149036,1.2942963,-2.3212113,1.8258632,902
1747533260290,0.9076489,0.03636453,-0.8258897,1.1073424,-1.9052255,1.8008295,903
1747533260300,0.8937377,-0.011470691,-0.7909895,1.002946485,-1.64476835,1.8072211,904
1747533260310,0.9545079,-0.10640897,-0.73485637,0.82025364,-0.80960102,1.835717,905
1747533260320,1.1152197,-0.1857275649999999,-0.7222873999999999,0.82344943,-0.6354303,1.8375812,906
1747533260330,1.1224194,-0.17596528,-0.7387613,0.9374327,-0.27004454,1.7571537,907
1747533260340,1.0633575,-0.14179726,-0.7897693,0.97897804,-0.45859635,1.6655409,908
1747533260350,1.0003906,-0.10543273,-0.7990434,1.0381002,-0.902279,1.5749935,909
1747533260360,1.0377314,-0.11519502,-0.9786696,1.0945592,-1.1989552,1.4833808,910
1747533260370,1.2568948,0.18963248,-2.0703375,-0.0958738,0.70840085,1.397627,911
1747533260380,1.1807489,0.2111095,-1.7786893,-1.200553,1.4769892,1.320928,912
1747533260390,1.1224194,-0.009518232,-1.0426126,-1.3933659,1.5132082,1.1366372,913
1747533260400,0.94938266,-0.16717921,-0.41684976,-0.9816412,1.0711234,1.0018812,914
1747533260410,0.824913485,-0.215014435,-0.314345735,-0.30626354,0.45380265,0.9683254,915
1747533260420,0.8649389000000001,-0.14094306,-0.58817796,0.79974729,-0.6870955750000001,0.97178748,916
1747533260430,0.9266854,-0.09493827,-0.74461865,0.833036815,-0.660996575,0.952346415,917
1747533260440,0.97134787,-0.024405725,-0.91545874,0.698014535,-0.58083542,0.90760532,918
1747533260450,0.85310215,-0.053814624,-0.83699429,0.6050702050000001,-1.06366657,0.83783047,919
1747533260460,0.78488815,-0.07907455,-0.72338563,0.60720074,-1.5563514,0.7957525,920
1747533260470,0.81466305,-0.13520771,-0.7170402,0.7126619,-1.9702066,0.74675035,921
1747533260480,0.82125264,-0.13154685,-0.7641432,0.75154406,-2.118811,0.69987875,922
1747533260490,0.8473667,-0.118855886,-0.8236932,0.6897587,-1.9861856,0.6876282,923
1747533260500,0.96036524,-0.12080834,-0.9484064,0.48363006,-1.4881744,0.64341974,924
1747533260510,1.1624447,-0.119343996,-0.9615856,0.2050634,-0.7653925,0.5832323,925
1747533260520,1.2202863,-0.13349932,-0.92961407,-0.21624869,0.7302388,0.4282363,926
1747533260530,1.2219946,-0.14228538,-0.9091133,-0.350472,1.3965617,0.36325517,927
1747533260540,1.1800168,-0.16888762,-0.9003272,-0.47244477,2.0671456,0.3073288,928
1747533260550,1.1346222,-0.1786499,-0.8588374,-0.50653327,2.218413,0.23435818,929
1747533260560,1.1241276,-0.18572757,-0.8305268,-0.4511395,2.0090888,0.1123854,930
1747533260570,1.023576,-0.14863087,-0.90325594,-0.130228575,0.27217508,-0.205596045,931
1747533260580,0.96353805,-0.12886222,-0.9964857,-0.08468852,-0.10972224,-0.23808661,932
1747533260590,0.9366917,-0.09518232,-1.0858107,-0.10972224,-0.6530071,-0.27217507,933
1747533260600,0.95426385,-0.088592778,-1.09715935,-0.16804547,-0.765392515,-0.278300345,934
1747533260610,1.06201505,-0.074559485,-1.0304097,-0.36964676,-0.7978831,-0.3158509,935
1747533260620,1.0877631,-0.07736614,-0.9825745,-0.66206187,-0.047404267,-0.51026165,936
1747533260630,1.0291895,-0.10152781,-0.93229866,-0.7054713850000001,0.421844735,-0.593086,937
1747533260640,0.9723241,-0.117147475,-0.88836837,-0.6993461,0.52464277,-0.6114618,938
1747533260650,0.9515792,-0.11153416,-0.878362,-0.64768076,0.5763081,-0.64714813,939
1747533260660,0.93327487,-0.099819414,-0.9701275,-0.5901565,0.42717105,-0.7137272,940
1747533260670,0.95328766,-0.06809197,-1.0269929,-0.6151902,0.2247708,-0.7616641,941
1747533260680,0.9855032,-0.052716363,-1.0553036,-0.66632295,-0.0026631611,-0.82344943,942
1747533260690,1.00588195,-0.050519848,-1.0560358,-0.72970617,-0.20559604,-0.89855057,943
1747533260700,1.04151435,-0.0436862465,-1.048714,-0.7664577850000001,-0.25646242,-0.940095885,944
1747533260710,1.11058245,-0.0618685125,-0.9448676,-0.94888433,-0.166447571,-1.13503935,945
1747533260720,1.1314493,-0.07297312,-0.8949579,-1.01146863,0.031691619,-1.23623945,946
1747533260730,1.1427980999999998,-0.0734612299999999,-0.84297373,-1.0370349499999998,0.13582122,-1.315069,947
1747533260740,1.1431642,-0.07614586,-0.8236932,-1.0466223,0.16724652,-1.3550164,948
1747533260750,1.138283,-0.08053889,-0.7304634,-1.0002834,-0.023435818,-1.5243934,949
1747533260760,1.1517061,-0.07516963,-0.68653303,-0.9219864,-0.29880667,-1.6383767,950
1747533260770,1.1514622,-0.053204484,-0.69898,-0.8357,-0.5448828,-1.7512947,951
1747533260780,1.155611,-0.04759116,-0.7592621,-0.8271778,-0.64075655,-1.8546255,952
1747533260790,1.16671565,-0.0284326675,-0.811490335,-0.92837795,-0.413855235,-1.9046929,953
1747533260800,1.1819692,-0.004148972985,-0.89520197,-1.26153945,0.483630065,-2.07380355,954
1747533260810,1.1722069,-0.007321717,-0.89080894,-1.3342438,0.70840085,-2.1150825,955
1747533260820,1.1014304,-0.014643434,-0.83077085,-1.3970944,0.9853696,-2.1789985,956
1747533260830,1.0520088,-0.0253819539999999,-0.770122625,-1.32252585,0.92331795,-2.2375880500000003,957
1747533260840,0.99136055,-0.023673553,-0.75145227,-1.1291803,0.680704,-2.3499734,958
1747533260850,1.0261387,0.0153756065,-0.89715445,-1.14728985,0.563791215,-2.4013724,959
1747533260860,1.06323545,0.0339239565,-0.98135422,-1.2732574,0.683367135,-2.4032366,960
1747533260870,1.155123,0.0657734265,-0.97342233,-1.3491575,0.78989357,-2.3989756,961
1747533260880,1.227608,0.08322352,-0.93278676,-1.7081516,1.6128104,-2.4884577,962
1747533260890,1.2505494,0.08151512,-0.83491987,-1.8365159,2.1747375,-2.6008432,963
1747533260900,1.1578076,0.052106221,-0.6890955999999999,-1.911617,2.7686224,-2.698315,964
1747533260910,1.1182703,0.039781332,-0.6557818,-1.9409119,3.3688989,-2.7696877,965
1747533260920,0.94572186,0.021965152,-0.53912246,-1.9228023,3.8892806,-2.809635,966
1747533260930,0.8912971,0.03734076,-0.48103684,-1.7012273,4.428837,-2.825614,967
1747533260940,0.87299275,0.06931226,-0.4566311,-1.4833808,4.3361588,-2.8644962,968
1747533260950,0.86884379,0.08358961,-0.4737151149999999,-1.40854595,4.1926146,-2.8876656,969
1747533260960,0.8744571,0.1381364,-0.49421594,-1.2090752,3.6085835,-2.9891322,970
1747533260970,0.8678676,0.1615659,-0.4588276,-1.0780476,3.073288,-3.0828753,971
1747533260980,0.7847661,0.162908215,-0.32081325,-0.79042625,2.1081583,-3.2112398,972
1747533260990,0.7695125,0.16058967,-0.2979939,-0.63862604,1.8290591,-3.204848,973
1747533261000,0.77829856,0.16888762,-0.2723679,-0.51452273,1.7267936,-3.1776838,974
1747533261010,0.7912336,0.18182266,-0.25333142,-0.41758367,1.7768611,-3.1249533,975
1747533261020,0.85712908,0.230145985,-0.250768815,-0.34141725,2.0714068,-3.0546458,976
1747533261030,0.89007676,0.2660224,-0.25528386,-0.30146983,2.7441213,-2.9987195,977
1747533261040,0.87250465,0.2997023,-0.25406358,-0.27803403,2.944391,-3.005111,978
1747533261050,0.87250465,0.2997023,-0.25406358,-0.261256115,2.9835395,-3.0168289,979
1747533261060,0.7881828550000001,0.319104865,-0.246741875,-0.21358553,2.97501735,-3.04319415,980
1747533261070,0.63162014,0.35705577,-0.20708258,0.042610579,2.0594225,-3.05331425,981
1747533261080,0.575242935,0.37096703,-0.19597797,0.1406149099999999,1.64769785,-3.04532475,982
1747533261090,0.54961693,0.37487194,-0.19231711,0.18588865,1.4444987,-3.037069,983
1747533261100,0.53302103,0.39146784,-0.2072046,0.25832662,1.2186625,-2.984871,984
1747533261110,0.5520575,0.39537275,-0.21623473,0.2727077,1.27885,-2.9278793,985
1747533261120,0.6729878499999999,0.45504476,-0.23710161,0.18109496,1.9667445,-2.83892975,986
1747533261130,0.69312257,0.47542354,-0.24649782,0.14594123,2.1598237,-2.8437235,987
1747533261140,0.7280228,0.50324607,-0.22746135,0.06924219,2.5726137,-2.900715,988
1747533261150,0.72070104,0.50690687,-0.21818718,-0.0010652645,3.0578415,-2.9507825,989
1747533261160,0.67628264,0.50544256,-0.20940112,-0.075101145,3.581419,-2.9720879,990
1747533261170,0.487504365,0.51142195,-0.216722845,-0.131560155,4.632569,-2.89485625,991
1747533261180,0.44442827,0.51569295,-0.21623473,-0.12463594,4.756406,-2.873551,992
1747533261190,0.38805103,0.528384,-0.20793676,-0.093476955,4.79395635,-2.8631646,993
1747533261200,0.34607318,0.5254553,-0.20915705,0.018109497,4.771852,-2.829875,994
1747533261210,0.29262465,0.52374685,-0.19426957,0.23329292,4.31192415,-2.72201695,995
1747533261220,0.21525851,0.536926,-0.12861817,0.34993938,4.0069923,-2.6391926,996
1747533261230,0.277005,0.5605995,-0.07687803,0.5001417,3.7502635,-2.5853968,997
1747533261240,0.33094162,0.5718261,-0.06321083,0.6412892,3.594735,-2.5614283,998
1747533261250,0.3699908,0.6023333,-0.11568313,0.7142598,3.6165729,-2.5422537,999
1747533261260,0.37035687,0.639918125,-0.21342806,0.635696575,4.38462865,-2.5686189,1000
1747533261270,0.34460884,0.64040625,-0.24991462,0.5811018,4.808604,-2.5976474,1001
