id,timestamp,acc_x,acc_y,acc_z,gyro_x,gyro_y,gyro_z
1,1747533076970,0.3692586,-0.49812084,0.78635246,-0.066046394,0.041545313,0.008522116
2,1747533076980,0.06430909,-0.35022214,0.7152097500000001,-0.5866944000000001,-1.518800825,-0.0399474049999999
3,1747533076990,-0.29823795,-0.1766974399999999,1.02125755,-0.53156695,-1.135305575,-0.405865745
4,1747533077000,0.0,-0.19841854,1.1619565,-0.02876214,-0.83250415,-0.54914385
5,1747533077010,0.006345488,-0.20110317,1.1357203500000002,0.0958738,-0.6548713150000001,-0.643153425
6,1747533077020,-0.1295944,-0.24137263,0.9191196,0.386691,-0.24927188,-0.8644621
7,1747533077030,-0.20793677,-0.246741885,0.843827935,0.37763625,-0.28708877,-0.86526105
8,1747533077040,-0.32874511,-0.251745045,0.740347655,0.33449304,-0.44714476,-0.8285094500000001
9,1747533077050,-0.5474204,-0.281398,0.8412653,0.17257284,-1.29909,-0.5006743
10,1747533077060,-0.55010504,-0.26406994,0.96353805,0.16777915,-1.4897723,-0.38775626
11,1747533077070,-0.48176903,-0.24698594,1.0345587,0.21358553,-1.3949639,-0.37284255
12,1747533077080,-0.517401365,-0.29335682,0.96488035,0.20453078,-1.0932277,-0.476972175
13,1747533077090,-0.7797629,-0.38853914,0.8190561,0.14061491,-0.57311225,-0.60507023
14,1747533077100,-1.0033194,-0.39756927,0.7192367,0.06764429,-0.34514567,-0.45220476
15,1747533077110,-1.1174161,-0.3993997,0.723263665,0.0724379825,-0.329433025,-0.33848778
16,1747533077120,-1.3820962,-0.4041588,0.7482795,0.16458336,-0.3392867,0.015978966
17,1747533077130,-1.4460392,-0.3956167849999999,0.71093875,0.25566347,-0.38615835,0.2042644629999999
18,1747533077140,-1.53634035,-0.3814614699999999,0.6590766,0.36618465,-0.49854375,0.49401638
19,1747533077150,-1.5768539,-0.34558508,0.6501685,0.41065946,-0.6956177,0.793622
20,1747533077160,-1.5461026,-0.31727442,0.6792113,0.425573155,-0.7289072,0.87378315
21,1747533077170,-1.4694687,-0.29091623,0.6914142,0.4628574,-0.690824,1.0508834
22,1747533077180,-1.3687950999999998,-0.260409075,0.6944649,0.44900896,-0.46072688,0.98936438
23,1747533077190,-1.2622641,-0.21232979,0.68702114,0.35153726,-0.05486112,0.7845673
24,1747533077200,-1.2622641,-0.21232979,0.68702114,0.35153726,-0.05486112,0.7845673
25,1747533077210,-1.1903893,-0.18719191,0.63076595,0.0852211564999999,0.220776055,0.55606806
26,1747533077220,-1.1499978,-0.18523945,0.6937327,-0.1105211885,0.363787815,0.41199103
27,1747533077230,-1.155123,-0.18231076,0.82003235,-0.263120315,0.425040525,0.32597092
28,1747533077240,-1.1297411,-0.174745,0.9679311,-0.25885928,0.39574575,0.3520699
29,1747533077250,-1.0963051,-0.16791138,1.0252845,-0.13954964,0.36325517,0.42663842
30,1747533077260,-1.0472497,-0.14863087,1.0733638,-0.0511326925,0.356064645,0.46472161
31,1747533077270,-0.85859346,-0.10372432,1.0992339,0.26631612,0.50120693,0.41918156
32,1747533077280,-0.818079945,-0.098599123,1.0799534,0.2772350799999999,0.57417753,0.35286884
33,1747533077290,-0.7436424500000001,-0.085175978,1.0434668,0.2623213749999999,0.72544509,0.204797083
34,1747533077300,-0.64479923,-0.070532545,0.97427654,0.104928546,0.9651296,-0.0628506
35,1747533077310,-0.60648227,-0.08444381,0.9030118,-0.10066749,1.1275824,-0.2514024
36,1747533077320,-0.6164886,-0.122516744,0.8705522,-0.5384912,1.293231,-0.5225122
37,1747533077330,-0.61929525,-0.135939892,0.8745791700000001,-0.6133260199999999,1.293231,-0.5621933
38,1747533077340,-0.63332856,-0.17254847,0.9093573,-0.7664578,1.2335763,-0.62903863
39,1747533077350,-0.6245425,-0.19231711,0.9449896,-0.73982614,1.1765846,-0.62531024
40,1747533077360,-0.60306543,-0.24478942,0.9056965,-0.6130597,1.1243867,-0.57364494
41,1747533077370,-0.5769514,-0.26065314,0.882511,-0.5448828,1.1249193,-0.55127436
42,1747533077380,-0.5651146,-0.263703855,0.869453925,-0.50972905,1.13956665,-0.54754593
43,1747533077390,-0.50715095,-0.25992095,0.80368054,-0.42024684,1.1893678,-0.551807
44,1747533077400,-0.4907991,-0.26114124,0.7728073,-0.4082626099999999,1.2032162,-0.57044912
45,1747533077410,-0.480304645,-0.27236788,0.6839704499999999,-0.4183826149999999,1.19629195,-0.63383232
46,1747533077420,-0.51544887,-0.2877435,0.5801241,-0.5273059,1.0130665,-0.70627034
47,1747533077430,-0.535705635,-0.29506522,0.5652366,-0.5621933,0.92438325,-0.69961244
48,1747533077440,-0.5688974,-0.32337585,0.51618105,-0.690824,0.6625945,-0.65247446
49,1747533077450,-0.5869577,-0.328257,0.5181335,-0.7749799,0.49321744,-0.5763081
50,1747533077460,-0.6057501000000001,-0.309342565,0.58390695,-0.74728304,0.18588865,-0.32969934
51,1747533077470,-0.562796,-0.26651052,0.7153318,-0.6194513,0.12516858,-0.2695119
52,1747533077480,-0.51788944,-0.2596769,0.77073276,-0.5254417,0.108656978,-0.276436115
53,1747533077490,-0.52399087,-0.26455808,0.8000197,-0.21252026,0.058589544,-0.33449304
54,1747533077500,-0.5337532,-0.26821893,0.77244115,-0.03781689,0.056991648,-0.3834952
55,1747533077510,-0.605262,-0.26162934,0.7404697,0.175236,0.066046394,-0.3584615
56,1747533077520,-0.647972,-0.2550398,0.7155758,0.23861924,0.007989483,-0.26684874
57,1747533077530,-0.65114474,-0.23502712,0.68140787,0.25513083,-0.108124346,-0.17470337
58,1747533077540,-0.63918597,-0.21037734,0.66749656,0.2146508,-0.26525086,-0.10972224
59,1747533077550,-0.59183884,-0.1867038,0.6962953,0.02876214,-0.5299691,-0.07456851
60,1747533077560,-0.5527897,-0.19134088,0.72607034,-0.09321064,-0.5629923,-0.103863284
61,1747533077570,-0.5354616,-0.21843125,0.7687803,-0.21252026,-0.51026165,-0.1571265
62,1747533077580,-0.5684093,-0.23722363,0.8700641,-0.27377295,-0.38722363,-0.16138756
63,1747533077590,-0.6245425,-0.22331238,1.006004,-0.16937704,-0.27537087,-0.09640643
64,1747533077600,-0.6271051000000001,-0.22258021,1.0667741999999998,-0.061252702,-0.2277002799999999,-0.0652474465
65,1747533077610,-0.60867876,-0.22111587,1.1194906,0.5251754,-0.09640643,-0.05539375
66,1747533077620,-0.60379763,-0.21599066,1.0880071999999998,0.5909554699999999,-0.08548747,-0.083356945
67,1747533077630,-0.598794475,-0.21513646,1.00429555,0.65300712,-0.0513990095,-0.12942963
68,1747533077640,-0.599770695,-0.226729175,0.90227965,0.57044913,-0.0005326329999999,-0.15313176
69,1747533077650,-0.55767083,-0.24308102,0.7065457,-0.16245283,0.20186761,-0.1123854
70,1747533077660,-0.54717636,-0.23136626,0.7084982,-0.6061355,0.29667616,-0.066046394
71,1747533077670,-0.51691324,-0.21525851,0.7326599,-0.8708537,0.32384038,-0.06018744
72,1747533077680,-0.51471674,-0.2208718,0.7399816,-1.0530139,0.26365295,-0.06657903
73,1747533077690,-0.52899407,-0.2340509,0.7534047500000001,-1.1038803,0.20879183,-0.046605321
74,1747533077700,-0.55523026,-0.24186075,1.001855,-0.89535475,-0.12623383,0.257794
75,1747533077710,-0.5379022,-0.22965786,1.1800168,-0.48842376,-0.2828277,0.41705105
76,1747533077720,-0.5010495,-0.19890666,1.2515256,-0.006924219,-0.39787626,0.5411543
77,1747533077730,-0.463708765,-0.17889397,1.22602165,0.1962749755,-0.3936152149999999,0.56645435
78,1747533077740,-0.38683075,-0.14899696,1.14645895,0.514522735,-0.319046715,0.56245963
79,1747533077750,-0.26919514,-0.13227904,0.7670719,0.6396913,0.002130529,0.31957933
80,1747533077760,-0.2884757,-0.1398448,0.592571,0.010120012,0.2972088,-0.12037488
81,1747533077770,-0.29994637,-0.1577830049999999,0.5167912299999999,-0.251935044,0.33529199,-0.19734024
82,1747533077780,-0.32996538,-0.21965154,0.38463423,-1.0407634,0.38402784,-0.37550572
83,1747533077790,-0.32996538,-0.21965154,0.38463423,-1.0407634,0.38402784,-0.37550572
84,1747533077800,-0.3724313649999999,-0.308610395,0.634548815,-1.5835156,-0.08628642,-0.29987195
85,1747533077810,-0.35827604,-0.36144876,0.8366282,-1.3417006,-0.26738137,-0.20293288
86,1747533077820,-0.35559142,-0.3734076,0.99917036,-0.9060074,-0.44847634,-0.06231797
87,1747533077830,-0.3471714449999999,-0.3491239,1.05933048,-0.241815025,-0.46978162,0.128098055
88,1747533077840,-0.32679266,-0.31861674,1.0610389,0.616255495,-0.41971418,0.34115094
89,1747533077850,-0.301776795,-0.29921419,0.92998015,0.9800433,-0.23542345,0.30146983
90,1747533077860,-0.27224587,-0.2837165499999999,0.76670585,0.92784536,-0.15925704,0.15073492
91,1747533077870,-0.25552794,-0.29897013,0.49177536,0.66632295,-0.104928546,-0.009054748
92,1747533077880,-0.27700497,-0.308732415,0.4610241499999999,0.2732403499999999,-0.194144438,-0.077231674
93,1747533077890,-0.32984335,-0.31349152,0.52740772,-0.223971855,-0.469781615,-0.074834829
94,1747533077900,-0.37597018,-0.31214921,0.7144775800000001,-0.32996567,-0.84821685,0.1113201309999999
95,1747533077910,-0.38133945,-0.33435842,0.85688498,-0.26764769,-1.1627362,0.3539341099999999
96,1747533077920,-0.29579738,-0.33997175,0.9962417,0.06551377,-1.1765846,0.551807
97,1747533077930,-0.29982433,-0.340703925,0.97635103,0.105461185,-1.069791825,0.50014167
98,1747533077940,-0.30555966,-0.36022848,0.88373125,0.10439592,-0.74781567,0.2892193
99,1747533077950,-0.28286234,-0.38487828,0.74583894,-0.06764429,-0.55287224,0.10759171
100,1747533077960,-0.27310007,-0.394884615,0.69446489,-0.201867605,-0.48070058,0.0306263524999999
101,1747533077970,-0.13935669,-0.42685616,0.485918,-1.0088054,-0.35420042,-0.21997711
102,1747533077980,-0.0938400115,-0.42514773,0.474447285,-1.20268355,-0.47617321,-0.221575005
103,1747533077990,-0.0200126935,-0.42319525,0.516913235,-1.46899965,-0.76432725,-0.16777915
104,1747533078000,0.023429496,-0.3807293,0.77073276,-1.4519554,-1.3129385,0.12836437
105,1747533078010,0.068580088,-0.344852885,1.03834158,-1.2828447,-1.54010615,0.290550885
106,1747533078020,0.1675453,-0.31910485,1.3912483999999998,-0.554736471,-2.0999026,0.6761766
107,1747533078030,0.22135992,-0.32923323,1.4765464,0.004261058,-2.4325314,0.8996158
108,1747533078040,0.4385708699999999,-0.371333105,1.59198545,0.75580515,-2.3039007,0.8415589
109,1747533078050,0.51044574,-0.403548655,1.59528025,1.0996192,-1.98512025,0.68043765
110,1747533078060,0.46651542,-0.40452489,1.4905797,1.2599415,-1.5464977,0.49481535
111,1747533078070,0.36291313,-0.34290043,1.2859375,1.069791825,-0.80800313,0.3603256999999999
112,1747533078080,0.37938699,-0.315566015,1.24456985,0.689226075,-0.11424961,0.3169161649999999
113,1747533078090,0.3792649649999999,-0.26309371,1.180871,0.384027815,0.2101234099999999,0.29880668
114,1747533078100,0.3215454199999999,-0.214526325,1.1493875999999998,0.24021713,0.34194988,0.27803403
115,1747533078110,0.25162302,-0.174500935,1.1318155,-0.0314253,0.5874933250000001,0.14194649
116,1747533078120,0.15082738,-0.20500809,1.1270564,-0.11132014,0.8724516,-0.22264028
117,1747533078130,0.119099945,-0.24820623,1.1109486,-0.01438107,0.9598033,-0.35739622
118,1747533078140,0.09176553,-0.294089,1.0596966,0.082025364,1.0354371,-0.4362258
119,1747533078150,0.07614586,-0.34168017,1.0091767,0.17949706,1.1004182,-0.4777711
120,1747533078160,-0.034900185,-0.45809543,0.9276616,0.2892193,1.0130665,-0.3787015
121,1747533078170,-0.057841565,-0.46810177,0.8978866,0.32490566,0.9193232,-0.21678132
122,1747533078180,-0.0580856225,-0.4523600949999999,0.874823225,0.33396041,0.906540035,-0.1161138275
123,1747533078190,-0.045638707,-0.37291947,0.7968469,0.34248254,0.9054748,0.15286545
124,1747533078200,-0.04002539,-0.31995904,0.79269797,0.34674358,0.85594,0.2412824
125,1747533078210,-0.005857374,-0.25674823,0.79489446,0.36645097,0.5917544,0.18429075
126,1747533078220,0.03807293,-0.27407628,0.82759815,0.37230992,0.52357745,0.08042747
127,1747533078230,0.045638707,-0.28579104,0.8657931050000001,0.39281626,0.510261655,0.0383495222
128,1747533078240,0.047835223,-0.29848202,0.92253638,0.439155265,0.50839746,0.0
129,1747533078250,-0.028798755,-0.23771177,1.0177187,0.6114618,0.57577544,0.17204021
130,1747533078260,-0.007321717,-0.19378147,1.0330943,0.6918893,0.51984906,0.23648871
131,1747533078270,0.054912884,-0.14399378,0.99404514,0.7121293,0.494282705,0.22610238
132,1747533078280,0.073827322,-0.12385905,0.96732087,0.7206513999999999,0.459128975,0.1637844075
133,1747533078290,0.0959145,-0.097134784,0.8817788,0.6641924,0.4641889999999999,0.0239684525
134,1747533078300,0.06272271,-0.11177822,0.8407772,0.47670585,0.525708,-0.26684874
135,1747533078310,-0.028066583,-0.13179092,0.8859278,0.11824436,0.60080916,-0.56672066
136,1747533078320,-0.05296042,-0.16058967,0.9786696,0.08042747,0.577107015,-0.59308598
137,1747533078330,-0.064675168,-0.174867015,1.0141799,0.044208475,0.54301855,-0.63063658
138,1747533078340,-0.082613375,-0.20317766,1.0588424,0.07323693,0.558464885,-0.63942501
139,1747533078350,-0.1683995,-0.22697324,0.9938011,0.17044231,0.67324716,-0.6199839
140,1747533078360,-0.22160399,-0.21184167,0.89398164,0.23755397,0.7590009,-0.67058396
141,1747533078370,-0.28725538,-0.18914436,0.8097819,0.19600865,0.737163,-0.71958613
142,1747533078380,-0.29872607,-0.17511107,0.7793968,0.14833807,0.7091997999999999,-0.751544065
143,1747533078390,-0.29042813,-0.15448824,0.70459324,-0.06870956,0.60507023,-0.91346425
144,1747533078400,-0.3031191,-0.17376876,0.7668279,-0.2561961,0.42770368,-1.1387677
145,1747533078410,-0.32557237,-0.2169669,0.82125264,-0.27057716,0.3057309,-1.1941614
146,1747533078420,-0.34656128,-0.28432667,0.87226063,-0.23276028,0.21678132,-1.1877699
147,1747533078430,-0.350710255,-0.306901975,0.891297065,-0.20106866,0.190416025,-1.15714355
148,1747533078440,-0.36425544,-0.36437747,0.89691035,-0.14700649,0.16511599,-1.0708571
149,1747533078450,-0.381705535,-0.413555015,0.8718945,-0.114249612,0.252733975,-0.89855055
150,1747533078460,-0.33020946,-0.37877685,0.8268659,-0.06764429,0.42557314,-0.74461985
151,1747533078470,-0.28383857,-0.345341,0.8009959,-0.0010652645,0.4511395,-0.78296936
152,1747533078480,-0.298237965,-0.32484019,0.80233822,0.08788431775,0.30812775,-0.79282308
153,1747533078490,-0.36266908,-0.32728076,0.7770783,0.23595607,0.0005326322,-0.69135666
154,1747533078500,-0.36266908,-0.32728076,0.7770783,0.23595607,0.0005326322,-0.69135666
155,1747533078510,-0.336799,-0.3917119,0.8022162,0.25406557,0.00958738,-0.52411014
156,1747533078520,-0.29164842,-0.38194957,0.8254016,0.2695119,0.09534117,-0.5001417
157,1747533078530,-0.37999713,-0.35632357,0.7311955,0.262321365,0.1406149099999999,-0.442351085
158,1747533078540,-0.40391475,-0.352540685,0.7315616,0.24154871,0.127299105,-0.317715125
159,1747533078550,-0.444672305,-0.36864847,0.7618247,0.24394556,-0.05699165,-0.180029695
160,1747533078560,-0.45760733,-0.46102414,0.87640953,0.33289513,-0.37603834,-0.0628506
161,1747533078570,-0.48006064,-0.5349735,0.9257092,0.41278997,-0.45167214,0.023435818
162,1747533078580,-0.569995705,-0.56328413,0.903622,0.45327002,-0.26072348,0.196274974
163,1747533078590,-0.66969305,-0.6208816,0.77414954,0.4708469,0.11611383,0.45699844
164,1747533078600,-0.74315435,-0.6631035,0.69507504,0.38615838,0.18162759,0.51931643
165,1747533078610,-0.810880245,-0.665178,0.6842144699999999,0.35127096,0.176567585,0.57337859
166,1747533078620,-0.94633202,-0.6787232000000001,0.68885155,0.294811935,0.1483380799999999,0.703074545
167,1747533078630,-1.0649438,-0.69983415,0.699101975,0.311856165,0.0394147875,0.99096227
168,1747533078640,-1.1563432,-0.6940987999999999,0.6456534549999999,0.3536678,-0.029294773,1.3033510499999998
169,1747533078650,-1.2798362,-0.6286915,0.41026023,0.22690132,0.050600063,1.5632756
170,1747533078660,-1.33487105,-0.5958658,0.32374193,0.1049285445,0.0676442915,1.6160062000000002
171,1747533078670,-1.4876509,-0.46736964,0.1223947025,-0.3201119805,0.070041135,1.6985641500000002
172,1747533078680,-1.666911,-0.2928687,0.03172744,-0.8111989,-0.091080114,1.6868463
173,1747533078690,-1.786499,-0.21477039,0.19719826,-0.78296936,-0.47031426,1.6863136
174,1747533078700,-1.8455609,-0.15912533,0.36437747,-0.54648066,-1.0205233,1.7310548
175,1747533078710,-1.794797,-0.13935669,0.5254553,-0.11717909,-1.6213325,1.7614148
176,1747533078720,-1.3977158,-0.08908089,0.7690244,0.5139901,-1.6692694,1.690042
177,1747533078730,-1.31827515,-0.064797197,0.808561665,0.62397865,-1.4942997,1.6327840500000002
178,1747533078740,-1.18160315,-0.01793820815,0.8504174950000001,0.784567275,-1.0924287,1.47059755
179,1747533078750,-1.0247964,0.05662128,0.7987994,0.78776306,-0.40746364,1.0594054
180,1747533078760,-0.8715284,0.13325526,0.67042524,0.3435478,0.26045716,0.20932446
181,1747533078770,-0.87348086,0.1044565,0.63454884,0.006924219,0.43303,-0.22104238
182,1747533078780,-0.90398803,0.0751696325,0.6406502700000001,-0.1712412655,0.45886266,-0.38429414
183,1747533078790,-0.9775713,0.0186703805,0.6734759800000001,-0.7451525,0.4926848,-0.7206514
184,1747533078800,-1.0706791,-0.067359805,0.8188121,-0.9582054,0.48629323,-0.7041398
185,1747533078810,-1.02979955,-0.1101918425,0.92839375,-0.99176125,0.5603290949999999,-0.63409865
186,1747533078820,-0.92278045,-0.18255483,1.1260802,-0.88683265,0.7797736,-0.5406217
187,1747533078830,-0.887148075,-0.19219509,1.1471911,-0.77977359,0.86659265,-0.5494101499999999
188,1747533078840,-0.77317333,-0.2169669,1.1604922,-0.42557314,1.1462245,-0.6087986
189,1747533078850,-0.7241178,-0.23331872,1.0767806,-0.22530343,1.3401027,-0.68389976
190,1747533078860,-0.69556314,-0.27871338,0.85224795,-0.08575379,1.5707325,-0.8426242
191,1747533078870,-0.70215267,-0.298482,0.72607034,-0.18642128,1.5893745,-0.88683265
192,1747533078880,-0.6951970350000001,-0.302753,0.6568801200000001,-0.272974015,1.5755260999999998,-0.887631595
193,1747533078890,-0.6804316,-0.31947094,0.48957884,-0.57577544,1.510545,-0.88203895
194,1747533078900,-0.7409578,-0.3431445,0.4510178,-0.7909589,1.4141386,-0.8410263
195,1747533078910,-0.7609705,-0.3431445,0.466637465,-0.91293165,1.2530173,-0.7091997999999999
196,1747533078920,-0.77512586,-0.35534734,0.53936654,-1.015197,0.9155948,-0.42184472
197,1747533078930,-0.75267258,-0.36364529,0.56657892,-0.96326537,0.8356999650000001,-0.3701794
198,1747533078940,-0.68531275,-0.38194957,0.6252747,-0.76272935,0.6279734,-0.26684874
199,1747533078950,-0.6042857,-0.3841461,0.6040417,-0.608266,0.55553544,-0.25353295
200,1747533078960,-0.6130718,-0.37999713,0.5688974,-0.39787626,0.5704491,-0.26312032
201,1747533078970,-0.647972,-0.3648656,0.54912883,-0.35260254,0.5725796,-0.23169503
202,1747533078980,-0.6516328499999999,-0.34900187,0.535827695,-0.33076462,0.55500277,-0.218379215
203,1747533078990,-0.6490702500000001,-0.3176405,0.504832415,-0.292947725,0.50573431,-0.210656045
204,1747533079000,-0.58939826,-0.28627914,0.4195344,-0.27004454,0.39254996,-0.2790993
205,1747533079010,-0.635281,-0.30897647,0.46029195,-0.31638354,0.043675844,-0.4149205
206,1747533079020,-0.7043492,-0.33655494,0.49763274,-0.35260254,-0.2247708,-0.3637878
207,1747533079030,-0.7241178500000001,-0.34717142,0.512764305,-0.386691005,-0.345412,-0.27510454
208,1747533079040,-0.7315616,-0.3585200699999999,0.5841510599999999,-0.417849985,-0.50786485,-0.115048562
209,1747533079050,-0.60086894,-0.30433938,0.8161274,-0.30519825,-0.57417756,0.024501082
210,1747533079060,-0.5593792,-0.2723679,0.8346757,0.06924219,-0.43036684,-0.068176925
211,1747533079070,-0.52301466,-0.26211748,0.8117344,0.21837921,-0.33609092,-0.23009712
212,1747533079080,-0.52533323,-0.2659003749999999,0.777444375,0.25086977,-0.299871935,-0.321976185
213,1747533079090,-0.530092365,-0.2792015049999999,0.71057269,0.25086978,-0.2146508,-0.5747102
214,1747533079100,-0.64357895,-0.3807293,0.68653303,0.07989483,-0.29667616,-0.6380934
215,1747533079110,-0.679211325,-0.40342664,0.7022747149999999,0.0199737065,-0.37204361,-0.518517475
216,1747533079120,-0.75438094,-0.44223174,0.80685323,-0.098004326,-0.5784386,-0.12463594
217,1747533079130,-0.7431543199999999,-0.437106545,0.8726266899999999,-0.0806937829999999,-0.63569657,-0.0063915874999999
218,1747533079140,-0.7017865999999999,-0.419168335,0.998316225,0.00053263,-0.72757562,0.1816275825
219,1747533079150,-0.57402265,-0.3607166,1.1309613,0.3685815,-0.59761333,0.29880667
220,1747533079160,-0.5610876,-0.33265,1.0562798,0.4165184,-0.4111921,0.25406557
221,1747533079170,-0.5631620850000001,-0.3220335199999999,1.011739325,0.3920173249999999,-0.310524595,0.225836065
222,1747533079180,-0.550593135,-0.29958027,0.89935094,0.213319215,-0.0503337399999999,0.115581195
223,1747533079190,-0.5269196,-0.28749946,0.79269797,-0.15659387,0.2444782,-0.05965481
224,1747533079200,-0.52899408,-0.2892078449999999,0.792453885,-0.2775014,0.31957933,-0.09960223
225,1747533079210,-0.5186216,-0.2945771,0.8246695,-0.31798145,0.360592,-0.12836437
226,1747533079220,-0.50666285,-0.298482,0.83882475,-0.30146983,0.3552657,-0.15233281
227,1747533079230,-0.55010504,-0.29652956,0.77292925,-0.23595607,0.26312032,-0.082558
228,1747533079240,-0.54668826,-0.29189247,0.73583263,-0.23116238,0.21731395,-0.022903185
229,1747533079250,-0.5210622,-0.30873242,0.690682,-0.25353295,0.17204021,0.0037284256
230,1747533079260,-0.511544,-0.320569185,0.67433018,-0.279898245,0.1600559899999999,0.00106526445
231,1747533079270,-0.50190375,-0.331673785,0.65834443,-0.32916672,0.1438107049999999,-0.00053263225
232,1747533079280,-0.50495446,-0.33142975,0.7353445,-0.2825613999999999,0.062850601,0.0295610881
233,1747533079290,-0.4933617449999999,-0.335212635,0.724728,-0.1640507299999999,-0.046072689,0.062317969
234,1747533079300,-0.46712558,-0.343388545,0.7034950200000001,-0.0812264135,-0.09800433,0.0585895439999999
235,1747533079310,-0.46078008,-0.3533949,0.71118283,0.020240024,-0.1587244,0.06178534
236,1747533079320,-0.45126184,-0.34192421,0.720334965,0.096140117,-0.1848233799999999,0.103863285
237,1747533079330,-0.42539177,-0.330819595,0.7272906,0.1906823349999999,-0.22210764,0.155528615
238,1747533079340,-0.41184659,-0.328012935,0.75425895,0.2372876599999999,-0.276436125,0.180296015
239,1747533079350,-0.4195343849999999,-0.30970865,0.821496735,0.42290998,-0.46498793,0.26844665
240,1747533079360,-0.38975942,-0.27529657,0.88788027,0.54435015,-0.5278385,0.30040458
241,1747533079370,-0.3162982,-0.24698594,0.83028275,0.57151437,-0.4628574,0.19068234
242,1747533079380,-0.3071460499999999,-0.23734567,0.8029483550000001,0.513990085,-0.42450789,0.128630685
243,1747533079390,-0.30458343,-0.24259292,0.70410514,0.24714136,-0.30786142,-0.06551377
244,1747533079400,-0.30604777,-0.2716357,0.61624455,-0.039947417,-0.20772657,-0.18269286
245,1747533079410,-0.3145898,-0.2962855,0.55864704,-0.36485308,-0.103863284,-0.2876214
246,1747533079420,-0.3526627,-0.33704305,0.6169767,-0.8479505,-0.0479369,-0.40213734
247,1747533079430,-0.39854547,-0.36266908,0.70337296,-0.86659265,-0.16192019,-0.37603834
248,1747533079440,-0.41465324,-0.39830142,0.8166155,-0.7105314,-0.26631612,-0.30306774
249,1747533079450,-0.42002252,-0.41733786,0.9191196,-0.42397526,-0.3749731,-0.19813919
250,1747533079460,-0.41990048,-0.4185581499999999,0.9523114,-0.07483483,-0.396012075,-0.067377975
251,1747533079470,-0.38316986,-0.40903994,0.8978866,0.49055427,-0.33822146,0.10066749
252,1747533079480,-0.37865481,-0.397813305,0.841265335,0.520648,-0.29854037,0.0892158949999999
253,1747533079490,-0.38512233,-0.35485923,0.68433654,0.48948902,-0.16138756,0.036218993
254,1747533079500,-0.39927766,-0.33826336,0.6050179,0.33609092,-0.08948222,-0.020240024
255,1747533079510,-0.4385709,-0.353883,0.63967407,-0.034088463,-0.25086978,-0.103863284
256,1747533079520,-0.4549227,-0.366574,0.70971847,-0.09640643,-0.4245079,-0.06870956
257,1747533079530,-0.45040765,-0.3779226599999999,0.7382731849999999,-0.1025317,-0.49108692,-0.03728425725
258,1747533079540,-0.44320798,-0.41758195,0.7987994,-0.10013486,-0.60080916,0.072970614
259,1747533079550,-0.43832684,-0.42783237,0.82198477,-0.08362326,-0.5651228,0.15073492
260,1747533079560,-0.44101146,-0.40196228,0.84102124,-0.020772656,-0.4101268,0.2034655
261,1747533079570,-0.44137753,-0.39122376,0.8532241199999999,0.0087884319999999,-0.39894153,0.20719393
262,1747533079580,-0.428442485,-0.375970185,0.86786758,0.07590009,-0.38642468,0.193345495
263,1747533079590,-0.39781332,-0.3802412,0.8395569,0.14168017,-0.34567833,0.113983296
264,1747533079600,-0.37169918,-0.3778006,0.7812273,0.08468852,-0.27537087,0.056991648
265,1747533079610,-0.3482697,-0.38487828,0.6299118,-0.23808661,-0.11025487,-0.101200126
266,1747533079620,-0.35022214,-0.39073566,0.5554743,-0.47404268,-0.08522116,-0.16245283
267,1747533079630,-0.3508322849999999,-0.40196228,0.5332650999999999,-0.59787966,-0.096939065,-0.178431795
268,1747533079640,-0.35595748,-0.41770395,0.5400986999999999,-0.81412834,-0.161920195,-0.168311785
269,1747533079650,-0.368892515,-0.4123347,0.7587739499999999,-0.8002799199999999,-0.48123323,0.04154531
270,1747533079660,-0.37682438,-0.4024504,1.121687,-0.3110572,-1.0290455,0.4543353
271,1747533079670,-0.353272855,-0.39939969,1.1630548,-0.0503337349999999,-1.1004182500000002,0.56006278
272,1747533079680,-0.279933655,-0.38634263,1.2032023,0.374973085,-1.13264245,0.69428611
273,1747533079690,-0.19182899,-0.36877049,1.17806435,0.63383232,-1.003479075,0.7054714
274,1747533079700,-0.10958171,-0.30067852,0.95011485,0.6130597,-0.43729106,0.48842376
275,1747533079710,-0.07785426,-0.2936009,0.85175985,0.35420042,-0.23595607,0.34780884
276,1747533079720,-0.06199054,-0.29262465,0.77781045,0.02876214,-0.10759171,0.2082592
277,1747533079730,-0.059794025,-0.2856690149999999,0.769878595,-0.12756543,-0.0913464275,0.16165388
278,1747533079740,-0.044174362,-0.27480847,0.8053889,-0.5363607,-0.15286545,0.068176925
279,1747533079750,-0.122516744,-0.28286234,0.9901402,-0.71532506,-0.4596616,0.13102753
280,1747533079760,-0.16229807,-0.29555333,1.0792211,-0.6146576,-0.545948,0.18322548
281,1747533079770,-0.14130914,-0.32728076,1.1602482,-0.44581318,-0.60933125,0.16724652
282,1747533079780,-0.12032022,-0.3470494,1.184898,-0.34860779,-0.6130597,0.1286306825
283,1747533079790,-0.045394648,-0.400742,1.2258996,-0.07563378,-0.52464277,0.0010652645
284,1747533079800,0.00073217176,-0.43661842,1.205887,0.16138756,-0.18748654,-0.040480047
285,1747533079810,-0.0021965152,-0.43979117,1.19344,0.25300032,-0.033023197,-0.0063915867
286,1747533079820,-0.0257480395999999,-0.437228575,1.1830675,0.29321406,0.0215716045,0.02237055365
287,1747533079830,-0.049299564,-0.43466598,1.172695,0.37390784,0.1249022529999999,0.091080112
288,1747533079840,-0.099697387,-0.4167277649999999,1.1308392,0.43382895,0.205862355,0.156061245
289,1747533079850,-0.13227904,-0.3355787,1.0030752,0.4564658,0.37124467,0.19387813
290,1747533079860,-0.118855886,-0.3077562,0.95328766,0.40426785,0.4293016,0.15233281
291,1747533079870,-0.10518867,-0.30043447,0.8998391,0.32170987,0.46232477,0.076166406
292,1747533079880,-0.113120535,-0.3133694999999999,0.8548105,0.189350759,0.466053205,-0.030626357
293,1747533079890,-0.15692882,-0.35168648,0.7963588,-0.09161274,0.45060685,-0.21837921
294,1747533079900,-0.164982705,-0.36462152,0.8084396300000001,-0.153664395,0.4247742,-0.237287655
295,1747533079910,-0.17596528,-0.38805103,0.84785485,-0.32011196,0.31372038,-0.24820662
296,1747533079920,-0.17084008,-0.40781966,0.88031447,-0.3472762,0.26418558,-0.21252026
297,1747533079930,-0.22355644,-0.44345203,1.0033194,-0.3110572,0.2066613,-0.14274544
298,1747533079940,-0.234783075,-0.439791175,1.0218677,-0.177366522,0.16911073,-0.0218379225
299,1747533079950,-0.23795582,-0.41050428,1.0584763,0.14168017,0.17576863,0.22370553
300,1747533079960,-0.20085911,-0.38121742,1.0697029,0.33609092,0.22690132,0.30519825
301,1747533079970,-0.17718557,-0.3533949,1.0723876,0.43249736,0.2362223849999999,0.3259709149999999
302,1747533079980,-0.178405845,-0.324108035,1.03370447,0.65700185,0.246076085,0.354999375
303,1747533079990,-0.17108414,-0.26870704,0.92595315,0.8005462,0.26897928,0.3616573
304,1747533080000,-0.16864355,-0.25284332,0.878118,0.772583025,0.28149614,0.35926045
305,1747533080010,-0.176575415,-0.2482062299999999,0.85956962,0.6514092,0.32330775,0.34940675
306,1747533080020,-0.20500809,-0.24332508,0.83211317,0.5454154,0.329433025,0.325704605
307,1747533080030,-0.23100018,-0.238077845,0.84517025,0.40187103,0.303866685,0.2881540299999999
308,1747533080040,-0.23649146,-0.23307467,0.8671354,0.36432046,0.27217507,0.2743056
309,1747533080050,-0.24454537,-0.25821257,0.9313224,0.30945933,0.17736652,0.2050634
310,1747533080060,-0.23990827,-0.2593108349999999,0.938034,0.303067745,0.183491795,0.18935075
311,1747533080070,-0.18743597,-0.24698594,0.90838104,0.26897928,0.294013,0.12037488
312,1747533080080,-0.185483515,-0.24369117,0.8936155699999999,0.23382555,0.4298342,0.040480047
313,1747533080090,-0.1990286949999999,-0.243325085,0.86994207,0.1821602199999999,0.6279733750000001,-0.080960098
314,1747533080100,-0.26187342,-0.26821893,0.87226063,0.1571265,0.7680557,-0.18216023
315,1747533080110,-0.29774985,-0.28408262,0.8817788,0.16085494,0.8016115,-0.21092236
316,1747533080120,-0.3321619,-0.31483385,0.8820229,0.21678132,0.7930894,-0.18482338
317,1747533080130,-0.3427784,-0.317152395,0.8768977,0.2330266,0.78589887,-0.169643365
318,1747533080140,-0.3682824,-0.31995904,0.8297946,0.25353295,0.72917354,-0.13582122
319,1747533080150,-0.36755022,-0.31825066,0.7641432,0.16564862,0.6609966,-0.118776985
320,1747533080160,-0.3647435599999999,-0.29640754,0.749865875,-0.05539375,0.58696073,-0.07350325
321,1747533080170,-0.35925224,-0.23478307,0.75145227,-0.11664646,0.5789712,-0.06391586
322,1747533080180,-0.35620154,-0.21965152,0.75767571,-0.12783174,0.5736449,-0.077497987
323,1747533080190,-0.35583547,-0.20403185,0.788549,-0.113983296,0.5475459,-0.16405073
324,1747533080200,-0.3612047,-0.20769271,0.7924539,-0.05273059,0.54275227,-0.2593919
325,1747533080210,-0.37316352,-0.19841854,0.76511943,0.0010652645,0.50653327,-0.34088463
326,1747533080220,-0.400497945,-0.198052455,0.770488715,0.06045375725,0.408528925,-0.360325715
327,1747533080230,-0.42978482,-0.20049303,0.7618247,0.153398085,0.28149612,-0.38509311
328,1747533080240,-0.41148052,-0.22135992,0.7167961,0.1933455,0.23595607,-0.43303
329,1747533080250,-0.38341394,-0.25089085,0.7043492,0.16298546,0.21252026,-0.5075985
330,1747533080260,-0.41465324,-0.33313814,0.64235866,-0.021837922,0.22050974,-0.60720074
331,1747533080270,-0.43588626,-0.38121742,0.64162654,-0.1486044,0.25300032,-0.62317973
332,1747533080280,-0.44930939,-0.395372735,0.66554412,-0.18961708,0.2673813849999999,-0.613858665
333,1747533080290,-0.5120321,-0.42734426,0.7397375,-0.21518342,0.32330775,-0.5496765
334,1747533080300,-0.5469323,-0.4515059,0.76170266,-0.123038046,0.3270362,-0.4809669
335,1747533080310,-0.5764632,-0.49860895,0.7353445,0.16245283,0.14594123,-0.28708878
336,1747533080320,-0.5762192,-0.48542988,0.73729694,0.27803403,0.05273059,-0.1587244
337,1747533080330,-0.58000207,-0.475423515,0.75389284,0.349140435,0.0202400245,-0.09720538
338,1747533080340,-0.5657247,-0.44955346,0.7682922,0.54914385,-0.012250541,0.029827405
339,1747533080350,-0.50885934,-0.4053791,0.6987359,0.628506,0.05965481,-0.020772656
340,1747533080360,-0.51520485,-0.39415246,0.6489482,0.58403122,0.070840087,-0.0479369005
341,1747533080370,-0.5525456,-0.38512233,0.58842206,0.35633096,0.068176925,-0.094808534
342,1747533080380,-0.56084355,-0.380973355,0.56194183,0.2237055369999999,0.0471379525,-0.091612742
343,1747533080390,-0.5684093,-0.35827604,0.54912883,-0.101466443,-0.002929475,-0.078563255
344,1747533080400,-0.5195979,-0.3270367,0.665056,-0.6668556,0.054328486,-0.094808534
345,1747533080410,-0.53058046,-0.31190515,0.74193406,-0.67058396,0.06711166,-0.11025487
346,1747533080420,-0.5774395,-0.30726805,0.80294836,-0.55606806,-0.0005326322,-0.108124346
347,1747533080430,-0.6029434499999999,-0.3125153,0.825279595,-0.45566688,-0.0474042711,-0.0990695955
348,1747533080440,-0.6393079500000001,-0.322155575,0.852980065,-0.24714136,-0.139815965,-0.0719053499999999
349,1747533080450,-0.6855568,-0.3287451,0.8639627,0.21837921,-0.34940675,0.083090626
350,1747533080460,-0.7336361,-0.33045352,0.8742131,0.37763625,-0.42024684,0.18216023
351,1747533080470,-0.75169635,-0.3487578,0.8471227,0.5075985,-0.5273059,0.26844665
352,1747533080480,-0.7595061750000001,-0.36181487,0.81698163,0.5094627,-0.54781225,0.288686675
353,1747533080490,-0.8049008,-0.3900035,0.7124031,0.40107206,-0.5475459,0.36645097
354,1747533080500,-0.8358961,-0.3807293,0.575487,-0.03834952,-0.37923414,0.46498793
355,1747533080510,-0.88275504,-0.37804466,0.5137405,-0.25992453,-0.37071204,0.4857606
356,1747533080520,-0.919241635,-0.37365163,0.494826075,-0.348075165,-0.39201732,0.504669025
357,1747533080530,-0.978181465,-0.36730615,0.462000385,-0.49454902,-0.451672125,0.545681725
358,1747533080540,-1.02040335,-0.36144878,0.450773745,-0.57550912,-0.547279625,0.5946838999999999
359,1747533080550,-1.1697664,-0.3243521,0.5361938,-0.38935417,-0.8878979,0.8410263
360,1747533080560,-1.2171135,-0.30165476,0.5759751,-0.18429075,-1.0157297,0.9369001
361,1747533080570,-1.23480765,-0.29079421,0.5990385,0.055926383,-1.180313,1.0242518
362,1747533080580,-1.270318,-0.26748673,0.6426027,0.1781654815,-1.2436962,1.0671287
363,1747533080590,-1.2827649,-0.22819352,0.6982478,0.5273059,-1.3310479,1.1675298
364,1747533080600,-1.1712307,-0.17596528,0.65260905,0.7451525,-1.063134,1.0652645
365,1747533080610,-1.1656175,-0.14692247,0.6313761,0.7137272,-0.88949585,0.9369001
366,1747533080620,-1.1643971,-0.11983211,0.6035536,0.6109292,-0.721184,0.7845673
367,1747533080630,-1.142432,-0.10689708,0.55742675,0.3797668,-0.51665324,0.56245965
368,1747533080640,-1.142432,-0.10689708,0.55742675,0.3797668,-0.51665324,0.56245965
369,1747533080650,-1.121199,-0.1295944,0.5418071,-0.12144015,-0.25513083,0.2263687
370,1747533080660,-1.0938646,-0.15082738,0.5862255,-0.53103435,0.0,-0.022903185
371,1747533080670,-1.0792211,-0.17401282,0.6389419,-0.6380934,0.087884314,-0.1107875
372,1747533080680,-1.0706791,-0.18157859,0.6731099,-0.64901235,0.121972782,-0.139549645
373,1747533080690,-1.0354129,-0.198662595,0.77390552,-0.55180697,0.227167645,-0.19307919
374,1747533080700,-0.99184865,-0.21037734,0.90740484,-0.2130529,0.34780884,-0.21038973
375,1747533080710,-0.97793734,-0.21257387,0.95597225,0.12357068,0.406931,-0.18322548
376,1747533080720,-0.92912596,-0.22111587,0.95938903,0.3669836,0.47990164,-0.18269286
377,1747533080730,-0.8628644050000001,-0.220139645,0.90947935,0.484429,0.607999695,-0.2500708299999999
378,1747533080740,-0.7577977,-0.19817449,0.7826916,0.545948,0.8825716,-0.4362258
379,1747533080750,-0.74437463,-0.18450728,0.68336034,0.36911413,1.0024139,-0.5699165
380,1747533080760,-0.7426662,-0.1901206,0.6033095,0.23169502,1.04822025,-0.6295713000000001
381,1747533080770,-0.7425441800000001,-0.1957339149999999,0.5801240750000001,-0.0671116549999999,1.118794,-0.73609773
382,1747533080780,-0.7185045,-0.20476402,0.5527897,-0.507864825,1.1827099,-0.85886948
383,1747533080790,-0.754625,-0.23868799,0.5994046,-0.8697884,1.1941614,-0.9768475
384,1747533080800,-0.7470592,-0.27310005,0.5801241,-0.8764463,1.16193715,-0.98883175
385,1747533080810,-0.7534047,-0.29018405,0.554620125,-0.8767126199999999,1.062334965,-0.9962886
386,1747533080820,-0.8139309,-0.34729347,0.50641876,-0.8341021,0.82557994,-0.91985583
387,1747533080830,-0.8088057,-0.38439015,0.588178,-0.6199839,0.5022722,-0.6530071
388,1747533080840,-0.8088057,-0.38439015,0.588178,-0.6199839,0.5022722,-0.6530071
389,1747533080850,-0.71264715,-0.38988146,0.634792875,-0.359260435,0.437823685,-0.55846488
390,1747533080860,-0.6749403,-0.388905225,0.6545615300000001,-0.18482338,0.41385524,-0.5528722699999999
391,1747533080870,-0.6660322,-0.37755656,0.59794027,0.05539375,0.37390783,-0.5523396
392,1747533080880,-0.677991035,-0.37328556,0.565968785,0.057790595,0.3227751399999999,-0.5406217
393,1747533080890,-0.7055695,-0.35534734,0.5091034,-0.029294772,0.21784659,-0.51718587
394,1747533080900,-0.707643985,-0.343388545,0.52984827,-0.0508663809999999,0.17816548,-0.517984835
395,1747533080910,-0.676160605,-0.321911515,0.60636022,-0.0647148189999999,0.082291675,-0.53795855
396,1747533080920,-0.6386978,-0.33826336,0.7050814,0.06231797,-0.27057716,-0.69295454
397,1747533080930,-0.65504962,-0.35754387,0.71252513,0.081226415,-0.3749730799999999,-0.68097032
398,1747533080940,-0.68213999,-0.38536639,0.7313175300000001,0.100667493,-0.56805227,-0.608266
399,1747533080950,-0.6262509,-0.3699908,0.8324793,0.10705908,-0.77444726,-0.36964676
400,1747533080960,-0.555108225,-0.35400505,0.92021785,0.129962265,-0.77604513,-0.34194988
401,1747533080970,-0.48445365,-0.3380193,1.0677505,0.2775014,-0.59228706,-0.44474792
402,1747533080980,-0.48872465,-0.336432915,1.07080125,0.288154035,-0.5022722,-0.51159326
403,1747533080990,-0.48787045,-0.3265486,1.0050278,0.24234766,-0.16724652,-0.73343456
404,1747533081000,-0.5017817,-0.34778157,0.9196077,0.09267801,0.07989483,-0.87618
405,1747533081010,-0.55523023,-0.39842345,0.862620325,-0.0109189599999999,0.1808286399999999,-0.924383225
406,1747533081020,-0.6660322,-0.4927516,0.7497439,-0.624245,0.37071204,-0.871919
407,1747533081030,-0.67847915,-0.52240455,0.7138674650000001,-0.740891435,0.33396042,-0.78083885
408,1747533081040,-0.7124031,-0.59232694,0.68091977,-1.0498182,0.20133498,-0.45912898
409,1747533081050,-0.6548056,-0.5854933,0.878118,-1.1227888,0.0958738,-0.23116238
410,1747533081060,-0.6535853,-0.5657247,1.0108851,-0.75420725,-0.1736381,0.20879184
411,1747533081070,-0.6379657,-0.5042223,1.1116807,-0.36272255,-0.25193503,0.4282363
412,1747533081080,-0.6069704,-0.491531325,1.11729405,-0.1549959799999999,-0.248472925,0.49721217
413,1747533081090,-0.5453459199999999,-0.473959175,1.1032608000000002,0.22397186,-0.2114549949999999,0.59042282
414,1747533081100,-0.38048524,-0.42051062,0.7844,0.51292485,0.29987195,0.44368264
415,1747533081110,-0.409284,-0.42270714,0.60135704,0.26631612,0.4708469,0.36964676
416,1747533081120,-0.49934113,-0.40049794,0.5874458,0.029294772,0.46658584,0.39468047
417,1747533081130,-0.52374685,-0.37328556,0.628203335,-0.022370554,0.370978355,0.44554685
418,1747533081140,-0.507028925,-0.33435844,0.6851907100000001,-0.081226415,0.1278317385,0.551008045
419,1747533081150,-0.426734105,-0.31764053,0.737052875,-0.061252706,-0.37284255,0.6450176
420,1747533081160,-0.38731885,-0.3018988,0.921072,0.068176925,-0.4415521,0.63223445
421,1747533081170,-0.3968371,-0.28579104,1.0152781,0.2806972,-0.40852892,0.64714813
422,1747533081180,-0.392932185,-0.28444872,1.0228439,0.41785,-0.329166715,0.659132365
423,1747533081190,-0.3747498999999999,-0.2773710499999999,0.996973875,0.6263755200000001,-0.1355549,0.654605
424,1747533081200,-0.26553428,-0.22648512,0.677747,0.5811018,0.406931,0.3190467
425,1747533081210,-0.2806658,-0.2255089,0.5232587,0.32277513,0.48149952,0.082025364
426,1747533081220,-0.33484653,-0.25162303,0.46078008,0.013315806,0.39254996,-0.1123854
427,1747533081230,-0.39927766,-0.2962855,0.4698102,-0.25885928,0.16618125,-0.221575
428,1747533081240,-0.4217309,-0.32557237,0.52203846,-0.356863605,0.03488741,-0.22050974
429,1747533081250,-0.4217309,-0.32557237,0.52203846,-0.45486793,-0.09640643,-0.21944448
430,1747533081260,-0.4217309,-0.32557237,0.52203846,-0.45486793,-0.09640643,-0.21944448
431,1747533081270,-0.38792899,-0.374383815,1.01979323,0.0242347649999999,-0.54461643,0.188818125
432,1747533081280,-0.35961835,-0.353516915,1.13193755,0.463123715,-0.54461643,0.25699504
433,1747533081290,-0.3116611099999999,-0.338995515,1.1096063,0.8314389,-0.437823685,0.23675502
434,1747533081300,-0.19817449,-0.32679266,0.73461235,1.0610034,-0.11451593,0.0314253
435,1747533081310,-0.215868635,-0.32886714,0.6444331750000001,0.85487475,0.04767058,-0.13981595
436,1747533081320,-0.260287055,-0.33557871,0.51849963,0.28868666,0.1949434,-0.3850931
437,1747533081330,-0.310196765,-0.336310875,0.48579598,0.1219727749999999,0.128630685,-0.37603835
438,1747533081340,-0.3648656,-0.3734076,0.681896,-0.29028457,-0.11664646,-0.29561087
439,1747533081350,-0.37877685,-0.37365165,0.83077085,-0.36645097,-0.5949502,-0.010652645
440,1747533081360,-0.35485923,-0.35998443,0.9413288,-0.19014971,-0.6785734,0.10865697
441,1747533081370,-0.29701766,-0.35559142,0.967443,0.0058589545,-0.624245,0.1555286
442,1747533081380,-0.26602239,-0.3380193,0.877996,0.1736381,-0.2545982,-0.025033714
443,1747533081390,-0.24710796,-0.3199590599999999,0.73339205,0.135821213,-0.18295917,-0.101999077
444,1747533081400,-0.2928687,-0.32581642,0.56865335,-0.06870956,-0.026631612,-0.3121225
445,1747533081410,-0.3012886649999999,-0.3381413199999999,0.5104457149999999,-0.18881813,0.0037284255,-0.378701525
446,1747533081420,-0.32996538,-0.400742,0.3995217,-0.5816344,0.020772656,-0.56459016
447,1747533081430,-0.3891492749999999,-0.42197499,0.53228885,-0.70520508,-0.249005572,-0.51265853
448,1747533081440,-0.46297657,-0.45467865,0.87226063,-0.6327671,-0.8404937,-0.22849922
449,1747533081450,-0.42246306,-0.48054874,1.0265048,-0.32437304,-1.051416,0.018109497
450,1747533081460,-0.37767858,-0.48494177,1.06933685,-0.1640507328,-1.0639329,0.1142496135
451,1747533081470,-0.275174555,-0.481891025,1.13486625,0.1371528022,-1.0175939,0.2561960949999999
452,1747533081480,-0.17999222,-0.439547075,1.1324257,0.439954215,-0.708667175,0.2820287649999999
453,1747533081490,-0.14228537,-0.3943965,1.07275365,0.5795039,-0.2428803,0.19281286
454,1747533081500,-0.146434345,-0.35729981,1.01027495,0.505734315,-0.16591494,0.163518095
455,1747533081510,-0.12324891,-0.2865232,0.91472656,0.25406557,-0.017576864,0.0958738
456,1747533081520,-0.08908089,-0.26870704,0.91399443,-0.13156016,-0.03089267,0.06178534
457,1747533081530,-0.08908089,-0.26870704,0.91399443,-0.13156016,-0.03089267,0.06178534
458,1747533081540,-0.094572183,-0.271513685,0.994777375,-0.286023515,-0.15792546,0.061519024
459,1747533081550,-0.10750722,-0.26882905,1.05713395,-0.30839407,-0.22104238,0.11984225
460,1747533081560,-0.0967687,-0.25943284,1.104359,-0.283626675,-0.20240025,0.128630685
461,1747533081570,-0.06272271,-0.30043447,1.159272,-0.06498113,-0.06657903,0.0628506
462,1747533081580,-0.062478655,-0.3077562,1.1569534,-0.000798945,-0.014114755,0.0372842545
463,1747533081590,-0.060770255,-0.33362624,1.1248599,0.108923295,0.092411695,-0.0007989484999999
464,1747533081600,-0.060770255,-0.33362624,1.1248599,0.15446335,0.14647387,-0.013315806
465,1747533081610,-0.0876165499999999,-0.33216192,1.0479818,0.1850897,0.201601305,-0.0127831735
466,1747533081620,-0.08615221,-0.2889638,0.9266854,0.21198763,0.4415521,0.018109497
467,1747533081630,-0.08542004,-0.2723679,0.9076489,0.18961707,0.39254996,-0.014913702
468,1747533081640,-0.09811102,-0.27261195,0.89349353,0.16724652,0.30999196,-0.06498113
469,1747533081650,-0.11251039,-0.2801777,0.8854397,0.13954964,0.23329292,-0.12250541
470,1747533081660,-0.14570218,-0.32239962,0.8815348,0.049534798,0.099069595,-0.27217507
471,1747533081670,-0.16815543,-0.3692586,0.8834872,-0.017576864,0.066046394,-0.3206446
472,1747533081680,-0.18475133,-0.40562314,0.8944698,-0.0572579645,0.067644292,-0.335025675
473,1747533081690,-0.19939478,-0.43954712,0.91472656,-0.1667139,0.105993815,-0.36911413
474,1747533081700,-0.21721096,-0.48689422,0.9554841,-0.19707392,0.15819177,-0.3898868
475,1747533081710,-0.29482117,-0.55767083,1.0101529,-0.17257284,0.2775014,-0.31052458
476,1747533081720,-0.28432667,-0.56743306,0.993313,-0.15925704,0.39254996,-0.22743396
477,1747533081730,-0.268584995,-0.56779915,0.98953008,-0.149669655,0.45220478,-0.190948655
478,1747533081740,-0.23649146,-0.5559624,0.97427654,-0.09427591,0.6066681,-0.08575379
479,1747533081750,-0.25284332,-0.49812084,0.95646036,-0.01438107,0.5629923,0.044208474
480,1747533081760,-0.242714935,-0.48713827,0.95963308,0.0063915865,0.53902383,0.075633777
481,1747533081770,-0.19158493,-0.46297657,0.95938903,0.068176925,0.49534798,0.1470065
482,1747533081780,-0.18096845,-0.456997185,0.957802685,0.0846885255,0.501739565,0.16112125
483,1747533081790,-0.174745,-0.44516042,0.9449896,0.12623383,0.54807854,0.19707392
484,1747533081800,-0.183287,-0.427954375,0.938034015,0.141946485,0.633832335,0.23728766
485,1747533081810,-0.16644704,-0.37267542,0.9232686,0.1784318,0.82611257,0.30200246
486,1747533081820,-0.151315495,-0.35754387,0.90325587,0.196008665,0.898017915,0.27537086
487,1747533081830,-0.1632743,-0.3192269,0.8341876,0.22583607,0.99895173,0.20719394
488,1747533081840,-0.21599068,-0.2945771,0.77951884,0.24714136,1.000816,0.087884314
489,1747533081850,-0.2796896,-0.28383857,0.6472398,0.14008227,0.77444726,-0.015446335
490,1747533081860,-0.32386398,-0.2831064,0.6303999,0.0479369,0.6066681,-0.0037284256
491,1747533081870,-0.34949,-0.26870704,0.6484601,-0.03089267,0.40746364,0.046339005
492,1747533081880,-0.3504662149999999,-0.26468009,0.6729878499999999,-0.0575242824999999,0.30200247,0.0820253625
493,1747533081890,-0.35119838,-0.2630937,0.76121455,-0.094808534,0.0010652645,0.19760656
494,1747533081900,-0.33753118,-0.25796852,0.88324314,0.03355583,-0.23382555,0.39095205
495,1747533081910,-0.3414361,-0.26943922,0.9003272,0.120907515,-0.20612867,0.47191215
496,1747533081920,-0.34680536,-0.27871338,0.90520835,0.21145499,-0.076166406,0.5139901
497,1747533081930,-0.346561295,-0.27432035,0.898008645,0.258592945,0.0237021369999999,0.50466904
498,1747533081940,-0.3321619,-0.23502712,0.7831797,0.4314321,0.37763625,0.2647182
499,1747533081950,-0.35974038,-0.2072046,0.7241178,0.43569317,0.3435478,0.13262543
500,1747533081960,-0.409284,-0.17840585,0.6811638,0.39734364,0.21678132,0.044208474
501,1747533081970,-0.44394013,-0.17108414,0.6655441,0.32969934,0.034088463,0.0010652645
502,1747533081980,-0.443574055,-0.17559919,0.661151085,0.26711506,-0.0668453434999999,-0.01304948925
503,1747533081990,-0.42514774,-0.20061506,0.64772797,0.06338324,-0.23915187,-0.036218993
504,1747533082000,-0.4288086,-0.27505252,0.70288485,-0.18748654,-0.13954964,-0.037284255
505,1747533082010,-0.40903994,-0.29140437,0.74315435,-0.24554345,-0.007456851,-0.05912218
506,1747533082020,-0.40684342,-0.277005,0.80514485,-0.2146508,0.12942964,-0.09321064
507,1747533082030,-0.426490035,-0.261019245,0.821496695,-0.15313177,0.17710022,-0.115581195
508,1747533082040,-0.51618105,-0.19646609,0.75316066,0.06924219,0.23276028,-0.1784318
509,1747533082050,-0.52033,-0.18475133,0.6980037,0.27164245,-0.0031957934,-0.26525086
510,1747533082060,-0.51349646,-0.18231077,0.67750293,0.32011196,-0.2396845,-0.30839407
511,1747533082070,-0.5095915,-0.20061506,0.6806757,0.3254383,-0.43409526,-0.330232
512,1747533082080,-0.50885934,-0.25479576,0.73388016,0.2974751,-0.54142068,-0.30866039
513,1747533082090,-0.50031734,-0.26992732,0.77659017,0.23861924,-0.5944176,-0.23329292
514,1747533082100,-0.46712556,-0.27480847,0.8603018,0.26205507,-0.49161956,-0.20293288
515,1747533082110,-0.46444094,-0.2677308,0.933519,0.3749731,-0.40959418,-0.2082592
516,1747533082120,-0.45736328,-0.26065314,0.92546505,0.525708,-0.29667616,-0.25672874
517,1747533082130,-0.4549227,-0.2882316,0.84663457,0.7547399,-0.14594123,-0.47351006
518,1747533082140,-0.5012936,-0.33655494,0.81319875,0.77071885,-0.145674915,-0.4988101
519,1747533082150,-0.554254,-0.3743838,0.7412019,0.74461985,-0.06018744,-0.5454154
520,1747533082160,-0.58085626,-0.4170938,0.69287854,0.6562029,-0.047404267,-0.55553544
521,1747533082170,-0.63564713,-0.48384347,0.7340022,0.58269965,-0.2335592235,-0.4825648099999999
522,1747533082180,-0.68104175,-0.56291804,0.77732235,0.42557314,-0.43995422,-0.2647182
523,1747533082190,-0.64309084,-0.58183247,0.8261338,0.37230992,-0.4063984,-0.1123854
524,1747533082200,-0.6582224,-0.5847612,0.882511,0.38402784,-0.35952675,0.056459017
525,1747533082210,-0.6745742,-0.55767083,0.9135063,0.45380265,-0.2876214,0.2396845
526,1747533082220,-0.6561479,-0.526797575,0.9045982,0.561926995,-0.24554345,0.430366835
527,1747533082230,-0.6447992499999999,-0.481768995,0.87274875,0.69934612,-0.2159823599999999,0.684698735
528,1747533082240,-0.63162017,-0.4334457,0.8105141,0.70680296,-0.25992453,0.83729786
529,1747533082250,-0.62551874,-0.39366436,0.7907455,0.628506,-0.26525086,0.892159
530,1747533082260,-0.6303999,-0.35290676,0.7499879,0.50813115,-0.22530343,0.91452956
531,1747533082270,-0.67799103,-0.30433938,0.68994987,0.25033715,-0.15925704,0.89375687
532,1747533082280,-0.689217665,-0.29640754,0.653463285,0.17337179,-0.15020229,0.87804422
533,1747533082290,-0.74364245,-0.27871338,0.57329047,-0.09267801,-0.19441076,0.8495484
534,1747533082300,-0.80441266,-0.2633378,0.54766446,-0.2130529,-0.25726137,0.8788432
535,1747533082310,-0.8119784299999999,-0.258212585,0.54571198,-0.2511361,-0.299073,0.903077965
536,1747533082320,-0.91253006,-0.23136626,0.6643238,-0.14221281,-0.6109292,1.067395
537,1747533082330,-0.96890728,-0.225142805,0.6951970700000001,-0.0351537299999999,-0.71106405,1.1302456
538,1747533082340,-1.1021625,-0.20744865,0.737541,0.30306774,-0.9832391,1.3315805
539,1747533082350,-1.0650659,-0.19426957,0.71118283,0.49002165,-1.073254,1.4072144
540,1747533082360,-1.0521308,-0.13593988,0.65334123,0.67697555,-1.1068097,1.3880396
541,1747533082370,-1.0648217,-0.11568313,0.6208816,0.6327671,-1.0849719,1.3161342
542,1747533082380,-1.053107,-0.10128376,0.58280873,0.49854377,-0.99762017,1.2175972
543,1747533082390,-1.0689708,-0.09176553,0.5945235,0.3355583,-0.8825716,1.1100056
544,1747533082400,-1.1150976,-0.07834238,0.63332856,0.19867182,-0.76485986,1.0205233
545,1747533082410,-1.1404796,-0.044418417,0.71191496,0.06924219,-0.46871635,0.77444726
546,1747533082420,-1.1634209,-0.020256752,0.75169635,0.087884314,-0.30626354,0.6040049
547,1747533082430,-1.1707426,-0.00097622897,0.7402256,0.13635385,-0.13475595,0.39468047
548,1747533082440,-1.1668377,0.00048811449,0.70142055,0.1736381,0.017576864,0.13901702
549,1747533082450,-1.1704986,-0.018060237,0.6645679,0.16884442,0.10439592,-0.13475595
550,1747533082460,-1.1646413,-0.07224095,0.6252747,-0.061252706,0.1635181,-0.57577544
551,1747533082470,-1.1241276,-0.105676785,0.64040625,-0.22050974,0.23382555,-0.6679208
552,1747533082480,-1.10350475,-0.1194660224999999,0.660785025,-0.29134983,0.285490875,-0.6921556
553,1747533082490,-1.0467615,-0.15595257,0.7404697,-0.45167214,0.45327002,-0.74302197
554,1747533082500,-1.0079564,-0.16888762,0.81490713,-0.4708469,0.57577544,-0.7616641
555,1747533082510,-0.9647583,-0.22111587,0.87860614,-0.39414784,0.8181231,-0.8117315
556,1747533082520,-0.98452693,-0.2523552,0.8932495,-0.33822146,0.9416938,-0.79681784
557,1747533082530,-1.0074683,-0.25943285,0.9232686,-0.24714136,1.1419635,-0.70627034
558,1747533082540,-1.0128375,-0.2613853,0.9523114,-0.14434333,1.2719258,-0.6130597
559,1747533082550,-0.97427654,-0.26406994,0.971836,0.10546118,1.3779196,-0.4788364
560,1747533082560,-0.912286,-0.25089085,0.93620354,0.18588865,1.4524881,-0.4644553
561,1747533082570,-0.8463905,-0.234539,0.87226063,0.20240025,1.5515577,-0.48629323
562,1747533082580,-0.78684056,-0.2255089,0.7734174,0.13369069,1.6506273,-0.5470133
563,1747533082590,-0.69556314,-0.22819352,0.53717,-0.028229509,1.6964337,-0.65194184
564,1747533082600,-0.6919023,-0.24771811,0.46029195,-0.58429754,1.6447684,-0.8863
565,1747533082610,-0.7048373,-0.25308737,0.43613032,-0.9241169,1.5142734,-0.9550096
566,1747533082620,-0.7148437,-0.2762728,0.43124917,-1.135572,1.3779196,-0.95447695
567,1747533082630,-0.7083761749999999,-0.28615713,0.43149322,-1.2157331500000002,1.3185311,-0.940628525
568,1747533082640,-0.67555046,-0.31605414,0.47273886,-1.3800501,1.1835088,-0.89109373
569,1747533082650,-0.6877533,-0.33069757,0.5198419,-1.28897,0.8926916,-0.7845673
570,1747533082660,-0.68580085,-0.3521746,0.5547421,-1.1419635,0.64182186,-0.7126619
571,1747533082670,-0.6733539,-0.3692586,0.6035536,-0.9518138,0.39521313,-0.6173208
572,1747533082680,-0.6460195,-0.3682824,0.67555046,-0.6940198,0.20026971,-0.5044027
573,1747533082690,-0.6169767,-0.35876414,0.73558855,-0.39468047,0.06764429,-0.39361522
574,1747533082700,-0.5142286,-0.3248402,0.8019721,0.24927188,-0.16564862,-0.24234766
575,1747533082710,-0.44735694,-0.29921418,0.7985553,0.42557314,-0.28016454,-0.25566345
576,1747533082720,-0.36510965,-0.25894472,0.7700006,0.509729,-0.38722363,-0.3073288
577,1747533082730,-0.28798756,-0.2203837,0.72607034,0.50733215,-0.425839465,-0.34301515
578,1747533082740,-0.2596769,-0.23771177,0.5920829,0.2593919,-0.406931,-0.64714813
579,1747533082750,-0.40293851,-0.2716357,0.60013676,0.08681905,-0.37124467,-0.7771104
580,1747533082760,-0.554254,-0.28725538,0.64162654,-0.068176925,-0.39095205,-0.8474179
581,1747533082770,-0.59391332,-0.29445507,0.65761227,-0.1315601625,-0.3946804849999999,-0.8636631699999999
582,1747533082780,-0.6721336,-0.31434575,0.7236297,-0.2146508,-0.3898868,-0.8926916
583,1747533082790,-0.72753465,-0.32386398,0.8222289,-0.08948222,-0.4000068,-0.8692558
584,1747533082800,-0.7438865,-0.34216827,0.8617661,0.02130529,-0.44794372,-0.8404937
585,1747533082810,-0.76975656,-0.3692586,0.882511,0.07057377,-0.48336376,-0.82078628
586,1747533082820,-0.75535715,-0.38658667,0.88031447,0.17257284,-0.5608617,-0.7717841
587,1747533082830,-0.6501685,-0.41294485,0.87274873,0.112918034,-0.45859635,-0.799481
588,1747533082840,-0.677747,-0.42368335,0.8773858,0.025033714,-0.3568636,-0.8090684
589,1747533082850,-0.7399816,-0.43124917,0.8851956,-0.11345066,-0.2412824,-0.74035877
590,1747533082860,-0.7510861799999999,-0.436740455,0.890686925,-0.16724652,-0.181361275,-0.690823985
591,1747533082870,-0.74535084,-0.44906533,0.8983747,-0.3073288,0.0037284256,-0.54275227
592,1747533082880,-0.69971216,-0.44149956,0.856641,-0.45060685,0.15978967,-0.43089947
593,1747533082890,-0.66798466,-0.42051062,0.8293065,-0.49960902,0.17310548,-0.40586576
594,1747533082900,-0.64357895,-0.4195344,0.79831123,-0.5438175,0.16298546,-0.39095205
595,1747533082910,-0.6587105,-0.42954078,0.80392456,-0.56885123,0.12623383,-0.34461305
596,1747533082920,-0.70190865,-0.40440285,0.9054524,-0.5289038,0.06657903,-0.2444782
597,1747533082930,-0.6894617,-0.3904916,0.9581688,-0.21092236,-0.017576864,0.105993815
598,1747533082940,-0.6325964,-0.36974674,0.96768695,-0.01438107,-0.0053263223,0.21198763
599,1747533082950,-0.59916055,-0.35559142,0.933519,0.1454086,0.007456851,0.27217507
600,1747533082960,-0.60038084,-0.33094162,0.8700641,0.22903186,0.006924219,0.32330775
601,1747533082970,-0.55083722,-0.31410168,0.796114725,0.1520665025,0.024501083,0.3235740649999999
602,1747533082980,-0.39781332,-0.294089,0.65675807,-0.13422333,0.16085494,0.23169503
603,1747533082990,-0.3380193,-0.30677995,0.5718261,-0.40746364,0.32863408,0.083090626
604,1747533083000,-0.38487828,-0.33484653,0.49470404,-0.71532506,0.44900897,-0.053263225
605,1747533083010,-0.45931572,-0.3590082,0.45907167,-1.0657971,0.45806372,-0.12676647
606,1747533083020,-0.5715821,-0.3829258,0.6677406,-1.128115,0.1304949,0.0037284256
607,1747533083030,-0.572802375,-0.3701128,0.72875495,-1.0037454,0.02743056,0.0873516828
608,1747533083040,-0.51349646,-0.3577879,0.84004503,-0.5608617,-0.19547603,0.2977414
609,1747533083050,-0.4253918,-0.37584817,0.83491987,-0.25672874,-0.2396845,0.34834146
610,1747533083060,-0.35095432,-0.35119838,0.72338563,-0.022370555,-0.22583607,0.35633096
611,1747533083070,-0.3414361,-0.35510328,0.62063754,0.11558119,-0.084155895,0.3520699
612,1747533083080,-0.33118569,-0.36230297,0.59379125,0.0588558595,-0.0636495525,0.34328147
613,1747533083090,-0.34192422,-0.3738957,0.6535853,-0.030360037,-0.1603223,0.3637878
614,1747533083100,-0.38805103,-0.35144243,0.78684056,0.07190535,-0.3898868,0.4543353
615,1747533083110,-0.364987625,-0.356201545,0.83272335,0.350472,-0.753142,0.6535397
616,1747533083120,-0.272856,-0.35534734,0.8912971,0.42077947,-0.78083885,0.6679208
617,1747533083130,-0.23575929,-0.34729347,0.8529801,0.42290998,-0.7339672,0.6146576
618,1747533083140,-0.22965786,-0.35119838,0.7809832,0.33076462,-0.61838603,0.509729
619,1747533083150,-0.1986626,-0.345341,0.70874226,0.1304949,-0.48948902,0.36591834
620,1747533083160,-0.17230442,-0.36779428,0.55742675,-0.5496765,-0.2130529,-0.0015978967
621,1747533083170,-0.17035197,-0.38805103,0.5259434,-0.85753787,-0.14008227,-0.13209279
622,1747533083180,-0.1692537,-0.402450395,0.524357,-0.982706435,-0.14301175,-0.19707393
623,1747533083190,-0.182432785,-0.42990683,0.556328485,-1.1765845499999998,-0.2218413149999999,-0.29854037
624,1747533083200,-0.228071495,-0.45382445,0.7631670349999999,-1.10867395,-0.6117281,-0.250869785
625,1747533083210,-0.24649782,-0.48713827,1.0387076,-0.64182186,-1.1430287,0.0127831735
626,1747533083220,-0.23112221,-0.49250755,1.0684826,-0.30040458,-1.1819109,0.20293288
627,1747533083230,-0.2157466049999999,-0.485795975,1.0710452,-0.1491370255,-1.13157715,0.27510454
628,1747533083240,-0.15424417,-0.4600479,1.0369992,0.26365295,-0.91133374,0.4016047
629,1747533083250,-0.111778215,-0.456020965,0.95353165,0.2785666599999999,-0.785099895,0.32011197
630,1747533083260,-0.061258372,-0.4527261999999999,0.83113695,0.213319215,-0.621581795,0.18216022
631,1747533083270,-0.035876416,-0.4368625,0.7390053,-0.09427591,-0.5566007,0.058056913
632,1747533083280,-0.021721095,-0.43637437,0.75145227,-0.31318775,-0.6040049,0.036751624
633,1747533083290,-0.042465962,-0.4253918,0.83101493,-0.47830373,-0.753142,0.06711166
634,1747533083300,-0.031483386,-0.3773125,1.0467615,-0.53795856,-1.1227888,0.26365295
635,1747533083310,-0.0054912885,-0.37523801,1.0972814,-0.53795856,-1.1227888,0.26365295
636,1747533083320,0.07980672,-0.3612047,1.2329772,-0.23542345,-1.0396981,0.34567833
637,1747533083330,0.10323621,-0.34729347,1.2793481,-0.1387506985,-0.9219864,0.32756883
638,1747533083340,0.10152781,-0.34607318,1.2786158,0.13102753,-0.48469532,0.24980451
639,1747533083350,0.071264714,-0.36144876,1.1914874,0.37603834,0.20453078,0.029827405
640,1747533083360,0.01415532,-0.35949633,1.0689708,0.40959418,0.5006743,-0.08735169
641,1747533083370,-0.03929322,-0.37365165,0.946454,0.36751625,0.7344999,-0.1933455
642,1747533083380,-0.06028214,-0.38341394,0.913384235,0.3286341,0.7928231,-0.23595608
643,1747533083390,-0.10640897,-0.4097721,0.8288184,0.2066613,0.84209156,-0.33449304
644,1747533083400,-0.17498904,-0.40489095,0.758774,0.01917476,0.64341974,-0.2711098
645,1747533083410,-0.187313935,-0.410260215,0.7623127999999999,-0.005858955,0.58296597,-0.223705535
646,1747533083420,-0.2208718,-0.42417148,0.7905014,-0.035153728,0.40533313,-0.08362326
647,1747533083430,-0.24625377,-0.42563587,0.81930023,0.0063915867,0.32330775,-0.02130529
648,1747533083440,-0.234539,-0.43808278,0.8598137,0.165116,0.25992453,-0.036218993
649,1747533083450,-0.22184804,-0.4583395,0.8371163,0.22050974,0.25885928,-0.09054748
650,1747533083460,-0.24356914,-0.49543622,0.8066092,0.21731395,0.2615224,-0.1272991
651,1747533083470,-0.25638214,-0.51239821,0.7981892500000001,0.187486545,0.251668715,-0.12596752
652,1747533083480,-0.276516855,-0.5460780999999999,0.8000197,0.115581195,0.213585525,-0.105727495
653,1747533083490,-0.29640752,-0.57158208,0.82820828,0.04261058,0.16937704,0.0063915867
654,1747533083500,-0.3704789,-0.5615757,0.94669807,0.101200126,0.10546118,0.36005938
655,1747533083510,-0.37658033,-0.5337532,1.0164984,0.24181503,0.0127831735,0.5629923
656,1747533083520,-0.35315084,-0.5022698,1.0650659,0.44048685,-0.06498113,0.72171664
657,1747533083530,-0.33618887,-0.47957249,1.06982495,0.544616475,-0.076965355,0.77977357
658,1747533083540,-0.2698052999999999,-0.402938515,1.0648217,0.8181231,-0.0644485,0.902279
659,1747533083550,-0.17084008,-0.30726805,1.0335824,1.0066749,0.048469532,0.8612663
660,1747533083560,-0.12154051,-0.3014107,1.0062481,1.0061423,0.13795175,0.7121293
661,1747533083570,-0.12129646,-0.3141017,0.9620737,0.94329166,0.18588865,0.567786
662,1747533083580,-0.15400013,-0.3180066,0.90862515,0.77844198,0.2332929249999999,0.5182511750000001
663,1747533083590,-0.19548985,-0.31739645,0.86042382,0.4383563,0.30360037,0.51026165
664,1747533083600,-0.22209209,-0.30543765,0.8828770699999999,0.32117724,0.32384038,0.5784386
665,1747533083610,-0.25089085,-0.2774931,0.9242448,0.27324033,0.33449304,0.628506
666,1747533083620,-0.21208574,-0.2037878,1.0006347,0.3797668,0.2396845,0.63702816
667,1747533083630,-0.21281794,-0.15668476,1.0047837,0.5363607,0.16831179,0.61625546
668,1747533083640,-0.21477039,-0.11275445,0.99136055,0.6412892,0.13848437,0.5752428
669,1747533083650,-0.19658812,-0.102504045,0.96671075,0.66046397,0.1323591,0.525974325
670,1747533083660,-0.159979525,-0.086274235,0.908259025,0.663393435,0.144875965,0.3933489049999999
671,1747533083670,-0.13764828,-0.08981306,0.80246025,0.545948,0.24074976,0.08894958
672,1747533083680,-0.166325015,-0.12056428,0.771587025,0.36458674,0.35260253,-0.1161138299999999
673,1747533083690,-0.21745501,-0.1701079,0.7477914,-0.006924219,0.60720074,-0.46978164
674,1747533083700,-0.2421048,-0.19744232,0.75218445,-0.17310548,0.73769563,-0.58056915
675,1747533083710,-0.26529023,-0.22160399,0.75218445,-0.29188246,0.813862,-0.6535397
676,1747533083720,-0.35607952,-0.27993366,0.72655845,-0.3930826,0.6013418,-0.6785734
677,1747533083730,-0.38072931,-0.28981798,0.709352405,-0.41412156,0.5001416750000001,-0.634098635
678,1747533083740,-0.42368335,-0.29897013,0.7053254,-0.46498793,0.22264028,-0.4612595
679,1747533083750,-0.40513504,-0.28676724,0.7560893,-0.43409526,0.11132014,-0.35579833
680,1747533083760,-0.38561047,-0.280055685,0.78439997,-0.3882889,0.09347696,-0.33928673
681,1747533083770,-0.32581642,-0.27017137,0.9025237,0.013848438,0.16138756,-0.43516052
682,1747533083780,-0.3328941,-0.27724904,0.9205839,0.2231729,0.23808661,-0.515588
683,1747533083790,-0.34265637,-0.28505886,0.89715445,0.42983422,0.35420042,-0.57577544
684,1747533083800,-0.358032,-0.3031191,0.8390688,0.525708,0.4048005,-0.572047
685,1747533083810,-0.48738232,-0.30555966,0.707766,0.5544701,0.3472762,-0.39041942
686,1747533083820,-0.49958518,-0.31776255,0.6631035,0.41705105,0.15978967,-0.31798145
687,1747533083830,-0.4932397,-0.330575555,0.661883225,0.36751625,0.133957008,-0.325171975
688,1747533083840,-0.4751795,-0.38390204,0.6469958,0.21358553,0.101200126,-0.406931
689,1747533083850,-0.48323338,-0.39756925,0.65541575,0.165648625,0.100933808,-0.43409525
690,1747533083860,-0.509591565,-0.44210968,0.7061796499999999,0.086552735,0.09720538,-0.42876894
691,1747533083870,-0.49812084,-0.5039782,0.78464407,0.10279802,0.15126756,-0.3536678
692,1747533083880,-0.5034901,-0.5191097,0.81271064,0.17150758,0.20240025,-0.30466563
693,1747533083890,-0.5132524,-0.5215503,0.8019721,0.24820662,0.25672874,-0.23542345
694,1747533083900,-0.5276518,-0.49397188,0.76926845,0.314253,0.3009372,-0.16138756
695,1747533083910,-0.5141066000000001,-0.4645629799999999,0.7257042499999999,0.329699335,0.26098979,-0.111852765
696,1747533083920,-0.53228885,-0.3909797,0.69312257,0.3584615,0.108124346,-0.0053263223
697,1747533083930,-0.52423495,-0.35559142,0.673598,0.36804888,0.04314321,0.035153728
698,1747533083940,-0.49079913,-0.35485923,0.6360132,0.35420044,0.0343547785,0.031425302
699,1747533083950,-0.4898229,-0.40342662,0.5793919,0.12996227,0.051132694,-0.1257012
700,1747533083960,-0.50568664,-0.42148685,0.5298483,-0.029294772,0.06338324,-0.15286545
701,1747533083970,-0.51642517,-0.437594635,0.52460105,-0.120108566,0.0548611225,-0.136620165
702,1747533083980,-0.5781716,-0.47103047,0.5527897,-0.34408042,0.0063915867,-0.026631612
703,1747533083990,-0.5945235,-0.4724948,0.6274712,-0.3888215,-0.10705908,0.09374327
704,1747533084000,-0.63381666,-0.4429639,0.67091334,-0.21145499,-0.32490566,0.30519825
705,1747533084010,-0.66054093,-0.44540447,0.6926344200000001,-0.1336906865,-0.4082626099999999,0.362189905
706,1747533084020,-0.7512082,-0.44686882,0.756333365,0.0607200685,-0.6261092,0.51052798
707,1747533084030,-0.866647265,-0.4288085849999999,0.820764515,0.33449304,-0.8900284199999999,0.73157035
708,1747533084040,-0.82906246,-0.3682824,0.8232051,0.68869346,-1.0578076,0.9890981
709,1747533084050,-0.7660957,-0.31654227,0.7311955,0.8878979,-0.8815063,1.0045444
710,1747533084060,-0.7874507,-0.298359985,0.70276285,0.8705873749999999,-0.85221155,0.99176122
711,1747533084070,-0.8319912,-0.2550398,0.61795294,0.73822826,-0.82557994,0.94116116
712,1747533084080,-0.86286445,-0.25101287,0.58878809,0.64821343,-0.86339682,0.92544851
713,1747533084090,-0.9474302,-0.23600335,0.5022698,0.4420847599999999,-0.93476955,0.90094743
714,1747533084100,-1.0374874,-0.23649146,0.50715095,-0.16245283,-1.0013486,0.9187906
715,1747533084110,-1.0538392,-0.22648512,0.579636,-0.29827404,-0.9347696,0.9139969
716,1747533084120,-1.0758044,-0.21477039,0.60916686,-0.30306774,-0.85327685,0.8591358
717,1747533084130,-1.0953289,-0.22209209,0.5959878,-0.26844665,-0.77924097,0.75633776
718,1747533084140,-1.2180897,-0.24698594,0.5872018,-0.16192019,-0.78936094,0.572047
719,1747533084150,-1.3039979,-0.25162303,0.5718261,-0.12996227,-0.8357,0.5635249
720,1747533084160,-1.3335288,-0.26114124,0.5850052,-0.11504856,-0.8607337,0.59228706
721,1747533084170,-1.3395082,-0.26675457,0.613926,-0.094275905,-0.8740495,0.62291338
722,1747533084180,-1.3543957,-0.2700493499999999,0.6782351,-0.0247674,-0.8953548,0.695617665
723,1747533084190,-1.2593354,-0.20329969,0.78488815,0.19813919,-0.8692558,0.80533993
724,1747533084200,-1.1919756,-0.16766733,0.77292925,0.44315,-0.6359629,0.67697555
725,1747533084210,-1.1416998,-0.122272685,0.75364876,0.4708469,-0.50120693,0.5363607
726,1747533084220,-1.0636015,-0.1010397,0.7390053,0.43036684,-0.3834952,0.33129725
727,1747533084230,-1.022111775,-0.101893898,0.73912735,0.380832045,-0.33422672,0.203998145
728,1747533084240,-0.90423214,-0.14789869,0.80416864,0.008522116,-0.05965481,-0.30306774
729,1747533084250,-0.8766537,-0.17620933,0.86933196,-0.13422333,0.10972224,-0.39574575
730,1747533084260,-0.8576172,-0.21184167,0.94572186,-0.221575,0.27057716,-0.46019423
731,1747533084270,-0.84248555,-0.2294138,1.0111293,-0.22583607,0.47670585,-0.4958806
732,1747533084280,-0.84248555,-0.2294138,1.0111293,-0.22583607,0.47670585,-0.4958806
733,1747533084290,-0.82149667,-0.24478942,0.9479183,-0.048469532,0.69721556,-0.49960902
734,1747533084300,-0.8246695,-0.25357547,0.91863143,-0.02396845,0.7105314,-0.47191215
735,1747533084310,-0.818568,-0.25821257,0.9010593,-0.0127831735,0.72437984,-0.42663842
736,1747533084320,-0.7936742,-0.27602875,0.8922733,-0.00798948345,0.7408914200000001,-0.41039313
737,1747533084330,-0.7250941,-0.307024,0.8542004,-0.011717909,0.85327685,-0.41545314
738,1747533084340,-0.7170402,-0.31141704,0.8366282,-0.03195793,0.8974853,-0.42983422
739,1747533084350,-0.7133793,-0.3219115,0.79489446,-0.0644485,0.9331717,-0.4245079
740,1747533084360,-0.70020026,-0.31776255,0.75657743,-0.111852765,0.948618,-0.4245079
741,1747533084370,-0.6787232,-0.3128814,0.72216535,-0.15765914,0.9337043,-0.45220476
742,1747533084380,-0.65090065,-0.31214922,0.681651875,-0.2063949849999999,0.9108011,-0.506000605
743,1747533084390,-0.63271838,-0.31410168,0.618197,-0.284691915,0.86206525,-0.578971225
744,1747533084400,-0.66847277,-0.3287451,0.56694496,-0.38402784,0.72437984,-0.6087986
745,1747533084410,-0.7063017,-0.3443648,0.57377857,-0.46232477,0.5219796,-0.588026
746,1747533084420,-0.68360436,-0.33704305,0.5847612,-0.6775082,0.084155895,-0.53103435
747,1747533084430,-0.68360436,-0.33704305,0.5847612,-0.6775082,0.084155895,-0.53103435
748,1747533084440,-0.6457755000000001,-0.313857615,0.6461415500000001,-0.7864315,0.05539375,-0.4926847949999999
749,1747533084450,-0.5954997,-0.27895743,0.7185045,-0.76752305,0.18056233,-0.5022722
750,1747533084460,-0.5615757,-0.26748675,0.74193406,-0.66632295,0.27803403,-0.58056915
751,1747533084470,-0.5627960000000001,-0.26748675,0.738883345,-0.520914335,0.2956108899999999,-0.7174556249999999
752,1747533084480,-0.591228675,-0.277859175,0.70691183,-0.32703619,0.280963505,-0.8940232
753,1747533084490,-0.635769125,-0.3014107,0.65517169,-0.25433189,0.182160225,-0.9550096
754,1747533084500,-0.67750293,-0.3443648,0.6023333,-0.24554345,-0.094808534,-0.9635317
755,1747533084510,-0.696539365,-0.35742185,0.58207655,-0.280164555,-0.156061242,-0.90520848
756,1747533084520,-0.6977597,-0.41416514,0.6365013,-0.386691,-0.29294774,-0.5592638
757,1747533084530,-0.69287854,-0.41684976,0.74413055,-0.2908172,-0.31638354,-0.44581318
758,1747533084540,-0.6975156,-0.39781332,0.86371857,-0.07989483,-0.3291667,-0.35313517
759,1747533084550,-0.6743302,-0.38585448,0.9276616,0.19441076,-0.32810146,-0.30786142
760,1747533084560,-0.6613951499999999,-0.3768243799999999,0.92827175,0.315051965,-0.32277513,-0.300670895
761,1747533084570,-0.5588911,-0.34851375,0.8095379,0.55287224,-0.18429075,-0.35633096
762,1747533084580,-0.5845171,-0.33704305,0.7668279,0.4261058,-0.0958738,-0.3898868
763,1747533084590,-0.6050179,-0.34168017,0.7404697,0.2775014,-0.07137272,-0.38136467
764,1747533084600,-0.64089435,-0.37169918,0.71826047,0.10865697,-0.12996227,-0.32437304
765,1747533084610,-0.672499745,-0.385122325,0.723263655,0.02796319,-0.179497065,-0.2537992599999999
766,1747533084620,-0.64357895,-0.40903994,0.9237567,-0.09321064,-0.43409526,0.14327806
767,1747533084630,-0.6230781249999999,-0.4157515,0.96463625,-0.031158985,-0.451405805,0.199470755
768,1747533084640,-0.5891542,-0.40391475,1.0523748,0.18056233,-0.4394216,0.34674358
769,1747533084650,-0.53765815,-0.36974674,1.053107,0.3158509,-0.32597092,0.4079963
770,1747533084660,-0.4463807,-0.33094162,0.8768977,0.31798145,0.07456851,0.3387541
771,1747533084670,-0.44223174,-0.31959296,0.80856165,0.2165150049999999,0.161920195,0.29348036
772,1747533084680,-0.426612075,-0.3090985,0.66456788,-0.05326322,0.30652984,0.18935076
773,1747533084690,-0.41099238,-0.34070393,0.4656612,-0.63702816,0.43089947,0.00958738
774,1747533084700,-0.41148052,-0.3738957,0.47151858,-1.3406353,0.4383563,-0.09853696
775,1747533084710,-0.42075471,-0.37194325,0.54912879,-1.4056164,0.31318775,-0.070307456
776,1747533084720,-0.44027928,-0.359496325,0.699223985,-1.3129384,0.225303435,-0.0260989795
777,1747533084730,-0.45358038,-0.34985606,0.81759176,-1.04715495,0.0625842895,0.0700411385
778,1747533084740,-0.46492904,-0.33704305,0.9686632,-0.29134983,-0.20453078,0.2657835
779,1747533084750,-0.43905897,-0.31373559,0.93547145,0.136620165,-0.33076461,0.34274884
780,1747533084760,-0.33094162,-0.27505252,0.7597502,0.690824,-0.4495416,0.41278997
781,1747533084770,-0.29335681,-0.272611945,0.7044712500000001,0.660463975,-0.40986049,0.368315175
782,1747533084780,-0.22599702,-0.27602875,0.52350277,0.41545314,-0.25513083,0.1917476
783,1747533084790,-0.22746135,-0.26748675,0.4253918,0.07403588,-0.14221281,0.05912218
784,1747533084800,-0.18475133,-0.27358818,0.36852646,-0.73290193,-0.05752428,-0.20772657
785,1747533084810,-0.22868164,-0.2689511,0.5459561,-0.94968325,-0.2615224,-0.22050974
786,1747533084820,-0.27895743,-0.25870067,0.8332114,-0.82398206,-0.567786,-0.091080114
787,1747533084830,-0.2894519,-0.2660224,1.0318741,-0.49801114,-0.8346347,0.0958738
788,1747533084840,-0.22648512,-0.3360668,1.1883147,0.30253512,-0.92092115,0.3568636
789,1747533084850,-0.16522676,-0.31361356,1.1768441,0.61199445,-0.84368944,0.406931
790,1747533084860,-0.14985114,-0.30409533,1.0906918,0.7914915,-0.69668293,0.40053943
791,1747533084870,-0.14875289,-0.30958663,1.039439765,0.7976167750000001,-0.617054435,0.374706775
792,1747533084880,-0.13862452,-0.30751213,0.8671354,0.63915867,-0.37816888,0.25566345
793,1747533084890,-0.10543273,-0.2877435,0.7485236,0.34248254,-0.20240025,0.12836437
794,1747533084900,-0.06028214,-0.2975058,0.5789038,-0.5273059,0.032490566,-0.16245283
795,1747533084910,-0.099575356,-0.3248402,0.5469323,-0.8926916,0.06977482,-0.22743396
796,1747533084920,-0.099575356,-0.3248402,0.5469323,-1.02425175,0.05273059,-0.2010686649999999
797,1747533084930,-0.199882885,-0.301288665,0.6472398500000001,-1.19336245,-0.0077231669999999,-0.1118527665
798,1747533084940,-0.17987019,-0.3053156,0.8515157,-0.92464954,-0.21678132,0.06018744
799,1747533084950,-0.122272685,-0.31190515,0.87860614,-0.6716492,-0.2892193,-0.022903185
800,1747533084960,-0.071264714,-0.31263736,0.8876362,-0.41705105,-0.40906155,-0.12357068
801,1747533084970,-0.02831064,-0.3275248,0.8598137,-0.16777915,-0.5091964,-0.21571605
802,1747533084980,0.025381953,-0.35754386,0.7941623,-0.07243799,-0.5075985,-0.2806972
803,1747533084990,-0.071020655,-0.3746279,0.77683425,-0.070307456,-0.5789712,-0.23595607
804,1747533085000,-0.0977449275,-0.36498762,0.806609225,-0.065780081,-0.6841660700000001,-0.187752855
805,1747533085010,-0.12434717,-0.36779427,0.862986425,-0.068443243,-0.93982957,-0.100401173
806,1747533085020,-0.093351897,-0.403304615,0.918021325,-0.10359697,-1.2412994,-0.053263223
807,1747533085030,-0.062478654,-0.42636803,0.946454,-0.13156016,-1.3923006,-0.04527374
808,1747533085040,-0.0228193515,-0.442475795,0.97769335,-0.32463933,-1.57792295,-0.084422208
809,1747533085050,0.07004443,-0.63235235,1.2332213,-0.76485986,-1.1185277,-0.18482338
810,1747533085060,-0.002928687,-0.6262509,1.308635,-0.79628515,-0.7616641,-0.120907515
811,1747533085070,-0.07175283,-0.60062486,1.3884417,-0.70200926,-0.47297743,-0.002130529
812,1747533085080,-0.098965215,-0.570727855,1.4219996,-0.16458336,-0.113983296,0.26738137
813,1747533085090,-0.13349932,-0.48542988,1.4409139,0.19387813,-0.0058589545,0.3717773
814,1747533085100,-0.1432616,-0.45248213,1.3842927,0.5230448,0.06551377,0.42983422
815,1747533085110,-0.1432616,-0.45248213,1.3842927,0.5230448,0.06551377,0.42983422
816,1747533085120,-0.13374338,-0.4368625,1.3008251,0.7845673,0.1454086,0.42237735
817,1747533085130,-0.07541369,-0.379509,0.9784255,0.8543421,0.42557314,0.111852765
818,1747533085140,-0.073949344,-0.37243137,0.8659151,0.6146576,0.5837649,0.0777643
819,1747533085150,-0.064919226,-0.35315084,0.7746377,0.3110572,0.7643272,0.03888215
820,1747533085160,-0.067847915,-0.32581642,0.737541,0.029827405,0.87351686,-0.041545313
821,1747533085170,-0.13081467,-0.31703037,0.7426662,-0.29294774,0.76912093,-0.26312032
822,1747533085180,-0.16425052,-0.33777523,0.75340474,-0.35473305,0.608266,-0.35633096
823,1747533085190,-0.21574661,-0.36730617,0.79269797,-0.3520699,0.42344263,-0.38615838
824,1747533085200,-0.25479576,-0.40781966,0.81368685,-0.30999196,0.27483824,-0.33822146
825,1747533085210,-0.2565041649999999,-0.42575787,0.820520425,-0.282028765,0.21518342,-0.2793656
826,1747533085220,-0.256992285,-0.4594377899999999,0.870918265,-0.16990968,0.0964064275,-0.11664645675
827,1747533085230,-0.255772,-0.4751795,0.91448253,-0.08575379,0.037284255,-0.0127831735
828,1747533085240,-0.24930447,-0.471640605,0.9543859,0.0628506025,0.0106526444999999,0.110254875
829,1747533085250,-0.20451997,-0.47639978,1.0077124,0.15819177,0.0311589865,0.16724652
830,1747533085260,-0.18450728,-0.473227,1.0333383,0.38402784,0.1486044,0.23382555
831,1747533085270,-0.19158493,-0.4634647,1.0247964,0.4394216,0.17044231,0.28549087
832,1747533085280,-0.18255483,-0.45223808,1.0287013,0.459129,0.167512835,0.327036185
833,1747533085290,-0.18231077,-0.44027928,1.0387076,0.49641323,0.14274544,0.4383563
834,1747533085300,-0.18231077,-0.44027928,1.0387076,0.49641323,0.14274544,0.4383563
835,1747533085310,-0.1766974399999999,-0.415629505,1.0686046500000002,0.50600062,0.113983297,0.5323659199999999
836,1747533085320,-0.11324256,-0.358032,1.0775127,0.49907641,0.204264452,0.5784385999999999
837,1747533085330,-0.100795642,-0.347903615,1.07604835,0.4908206,0.365918335,0.572047
838,1747533085340,-0.083467582,-0.338385375,1.06762845,0.498011125,0.49827745,0.50307115
839,1747533085350,-0.07565775,-0.33948365,1.03163,0.505468,0.660464,0.35579833
840,1747533085360,-0.07565775,-0.33142975,1.0091767,0.497744825,0.68310085,0.304399325
841,1747533085370,-0.088104665,-0.30922052,0.8685997,0.39148468,0.73290193,0.18056233
842,1747533085380,-0.0845658374999999,-0.30299706,0.8455363149999999,0.35633096,0.7470167000000001,0.170974945
843,1747533085390,-0.09030118,-0.28505886,0.80685323,0.25566345,0.753142,0.15020229
844,1747533085400,-0.10323621,-0.28676724,0.8027043,0.21837921,0.716923,0.14966966
845,1747533085410,-0.15400012,-0.30507156,0.8151512,0.20879184,0.5406217,0.18588865
846,1747533085420,-0.181822645,-0.30507156,0.82808622,0.20905815,0.49082059,0.2300971249999999
847,1747533085430,-0.2037878,-0.30067852,0.86933196,0.21145499,0.42290998,0.36804888
848,1747533085440,-0.13252309,-0.2889638,0.91448253,0.27057716,0.5613944,0.4016047
849,1747533085450,-0.10640896,-0.263825895,0.91789934,0.3273025,0.6564692299999999,0.3760383499999999
850,1747533085460,-0.11348662,-0.21550256,0.89349353,0.62584287,1.0892329,0.14913702
851,1747533085470,-0.13667206,-0.211475605,0.875067265,0.667654485,1.1020161000000002,0.0982706435
852,1747533085480,-0.1892664,-0.20439794,0.8243034,0.74035877,1.0796455,-0.039947417
853,1747533085490,-0.23795582,-0.19548985,0.7150877,0.67324716,1.0082728,-0.10173275
854,1747533085500,-0.27017137,-0.1867038,0.56548065,0.2625877,0.8538095,-0.15765914
855,1747533085510,-0.3018988,-0.200371,0.5193538,0.08122642,0.759533565,-0.15632756
856,1747533085520,-0.32325382,-0.206350395,0.52667555,-0.234624495,0.5704491,-0.12543489
857,1747533085530,-0.36340126,-0.19500175,0.6274712,-0.52144694,0.31052458,-0.011185277
858,1747533085540,-0.31507793,-0.1786499,0.7192367,-0.5438175,0.24873926,0.017044231
859,1747533085550,-0.25809055,-0.18523945,0.7701226299999999,-0.4162520799999999,0.30945932,-0.1137169845
860,1747533085560,-0.23551524,-0.19890666,0.8351639,-0.06977482,0.42557314,-0.45007423
861,1747533085570,-0.26089719,-0.215990665,0.822839,0.0314253049999999,0.408262595,-0.53955643
862,1747533085580,-0.345341,-0.28164205,0.7753699,0.26844665,0.28229508,-0.7025419
863,1747533085590,-0.38097337,-0.34558508,0.6545615,0.2396845,0.21252026,-0.63862604
864,1747533085600,-0.36047253,-0.36242503,0.65065664,0.15393071,0.2034655,-0.60240704
865,1747533085610,-0.35998443,-0.37121108,0.6572462,0.06924219,0.14221281,-0.56618804
866,1747533085620,-0.38268176,-0.36779428,0.63381666,-0.026631612,0.08841695,-0.5336975
867,1747533085630,-0.38634263,-0.362425015,0.63564708,-0.062584286,0.050866378,-0.517452215
868,1747533085640,-0.4566311,-0.33118567,0.79660285,0.02396845,-0.376571,-0.34408042
869,1747533085650,-0.3863426,-0.34070393,0.80392456,0.14168017,-0.5044027,-0.29348037
870,1747533085660,-0.33265,-0.3773125,0.8256457,0.2396845,-0.5422196,-0.28655612
871,1747533085670,-0.32557237,-0.39659303,0.8920292,0.33289513,-0.5219796,-0.32011196
872,1747533085680,-0.31434575,-0.40562314,0.89080894,0.35739622,-0.40852892,-0.376571
873,1747533085690,-0.28749946,-0.4080637,0.83833665,0.3355583,-0.18056233,-0.45806372
874,1747533085700,-0.32581642,-0.41026023,0.69971216,0.1784318,0.16298546,-0.5816344
875,1747533085710,-0.42441553,-0.4419877,0.61966133,0.08681905,0.16245283,-0.567786
876,1747533085720,-0.49616838,-0.4458926,0.6296677,0.051665325,0.0015978967,-0.5075985
877,1747533085730,-0.530824515,-0.451505915,0.6228341,0.0655137624999999,-0.13315805165,-0.4540689649999999
878,1747533085740,-0.6811638,-0.49812084,0.58036816,0.08042747,-0.5592638,-0.25033715
879,1747533085750,-0.67628264,-0.46810177,0.66847277,0.0644485,-1.1558119,0.12942964
880,1747533085760,-0.6671305000000001,-0.456142975,0.68946171,0.104395915,-1.1941614,0.181627595
881,1747533085770,-0.6640798,-0.43881494,0.7470592,0.23169503,-1.2623384,0.2806972
882,1747533085780,-0.6848246499999999,-0.439303055,0.78293565,0.290817205,-1.27964895,0.28149614
883,1747533085790,-0.7243619,-0.4234393,0.8529801,0.4745753,-1.2623384,0.25246766
884,1747533085800,-0.72607034,-0.4288086,0.7392494,0.5390238,-0.9869675,0.165116
885,1747533085810,-0.8190561,-0.45394647,0.6884855,0.47404268,-0.9422264,0.15126756
886,1747533085820,-0.8659151,-0.4617563,0.6125837,0.3355583,-0.93903065,0.15286545
887,1747533085830,-0.87543335,-0.46285455,0.5764632249999999,0.2119876249999999,-0.935834825,0.163251775
888,1747533085840,-1.0479817,-0.47176263,0.5688974,-0.2396845,-1.0546118,0.3818973
889,1747533085850,-1.0985017,-0.45004156,0.6389419,-0.2511361,-1.10814135,0.45992793
890,1747533085860,-1.1280326,-0.4368625,0.7241178,-0.13582122,-1.2916331,0.66525763
891,1747533085870,-1.2090596,-0.42051062,0.84785485,0.14594123,-1.4705976,0.8000136
892,1747533085880,-1.2155271,-0.3699907799999999,0.874213025,0.8117315,-1.6980315,1.0940266
893,1747533085890,-1.1780643,-0.29933621,0.8789721500000001,0.90174635,-1.65755145,1.12092455
894,1747533085900,-1.134134,-0.27920148,0.8573731,0.9917612,-1.6170714,1.1478225
895,1747533085910,-1.07739075,-0.215502555,0.79050142,0.968858,-1.2612731,1.0146644
896,1747533085920,-0.991238575,-0.15607461,0.7320497,0.968858,-1.2612731,1.0146644
897,1747533085930,-0.912652075,-0.13398743,0.6965394,0.481233225,-0.86020103,0.537159605
898,1747533085940,-0.91985172,-0.15424418,0.69336665,0.22450448,-0.7510114299999999,0.356064645
899,1747533085950,-0.94559977,-0.17755164,0.7199688799999999,-0.0266316149999999,-0.6652576299999999,0.232760285
900,1747533085960,-0.96451423,-0.202079405,0.7789087299999999,-0.229830815,-0.59894493,0.157392825
901,1747533085970,-0.97403246,-0.21525851,0.8158834,-0.31478566,-0.56938386,0.1304949
902,1747533085980,-0.94572186,-0.23697957,1.0850785,-0.20559604,-0.3717773,0.22370553
903,1747533085990,-0.8871481,-0.22648512,1.1534146,-0.1086569745,-0.33555831,0.233026595
904,1747533086000,-0.85603077,-0.2166008,1.1739154,0.0918790605,-0.257527685,0.24181503
905,1747533086010,-0.78940314,-0.2012252,1.19014515,0.265783475,-0.16298546,0.230629755
906,1747533086020,-0.686410995,-0.196954205,1.1775762,0.35340148,0.0189084499999999,0.16431704
907,1747533086030,-0.598306325,-0.204641995,1.16305485,0.33396042,0.215982385,0.070573768
908,1747533086040,-0.53106856,-0.23014598,1.1143653,0.15925704,0.42663842,-0.05965481
909,1747533086050,-0.51727933,-0.243447105,1.09179005,-0.034621093,0.5699165,-0.15339808
910,1747533086060,-0.49397188,-0.27212384,1.023088,-0.2908172,0.7861652,-0.23382555
911,1747533086070,-0.510933875,-0.2975057949999999,0.989530125,-0.459927915,0.938498,-0.267115065
912,1747533086080,-0.56743306,-0.3414361,0.9508471,-0.675643965,1.12571825,-0.302801415
913,1747533086090,-0.6147802,-0.35534734,0.9535317,-0.7286409,1.16353515,-0.28842035
914,1747533086100,-0.6302778499999999,-0.364133405,0.9556062,-0.7054714,1.1486214,-0.242081355
915,1747533086110,-0.6672525,-0.40269446,0.96036524,-0.5699165,1.0855045,-0.13156016
916,1747533086120,-0.6826281000000001,-0.397691295,0.9570705,-0.4245079,1.0508834,-0.0173105475
917,1747533086130,-0.6889736,-0.38744089,0.94682011,-0.172040215,0.9880328,0.1430117525
918,1747533086140,-0.6799435,-0.38219365,0.93986446,-0.06498113,0.9598033,0.18908444
919,1747533086150,-0.616610645,-0.36132677,0.870552235,0.137419117,0.9337043,0.176833895
920,1747533086160,-0.591594775,-0.35156447,0.7720751,0.103863284,1.0018812,0.0031957934
921,1747533086170,-0.59244897,-0.3433885599999999,0.68067565,0.0378168875,0.99921805,-0.0415453133
922,1747533086180,-0.6303999,-0.33948365,0.6289356,-0.18269286,0.9534117,-0.17044231
923,1747533086190,-0.6718896,-0.34949,0.626495,-0.34141725,0.87298423,-0.2247708
924,1747533086200,-0.72045696,-0.34631723,0.681896,-0.5752428,0.6593987,-0.24714136
925,1747533086210,-0.7180164,-0.34949,0.7297312,-0.6013418,0.5928197,-0.24021713
926,1747533086220,-0.706301665,-0.3491239,0.7534047500000001,-0.5901565,0.5848302,-0.2426139749999999
927,1747533086230,-0.65968674,-0.34045988,0.81490713,-0.5467469650000001,0.5981460000000001,-0.256728735
928,1747533086240,-0.6325964,-0.32728076,0.8295506,-0.41918156,0.6961503,-0.31478566
929,1747533086250,-0.60770255,-0.3192269,0.8158834,-0.32597092,0.7771104,-0.39468047
930,1747533086260,-0.5613316,-0.29652956,0.677747,-0.29507825,0.94116116,-0.62317973
931,1747533086270,-0.5593792,-0.3031191,0.60135704,-0.37550572,0.9816412,-0.73982614
932,1747533086280,-0.58439507,-0.3180066,0.59391332,-0.49428272,0.892159,-0.8127968
933,1747533086290,-0.68702114,-0.3612047,0.6211257,-0.65673554,0.66365975,-0.81439465
934,1747533086300,-0.70923036,-0.37877685,0.6582224,-0.76965356,0.51026165,-0.757403
935,1747533086310,-0.6965394,-0.38341394,0.77781045,-0.8410263,0.3685815,-0.6109292
936,1747533086320,-0.6920243500000001,-0.38085133,0.801728075,-0.81253045,0.34860779,-0.5914881
937,1747533086330,-0.665910215,-0.36742817,0.83491985,-0.7446198500000001,0.319046705,-0.57577545
938,1747533086340,-0.60989904,-0.35095432,0.8327233,-0.6508766,0.34834146,-0.62317973
939,1747533086350,-0.61160743,-0.36413342,0.844438,-0.60507023,0.44421527,-0.66845345
940,1747533086360,-0.65334123,-0.400742,0.88641596,-0.3669836,0.6061355,-0.6578008
941,1747533086370,-0.680553615,-0.4241715,0.9215602,-0.23888555,0.6050702,-0.61092915
942,1747533086380,-0.71826047,-0.46444094,1.0111293,0.065513765,0.5757753999999999,-0.5073321749999999
943,1747533086390,-0.7043492,-0.45052966,0.99111646,0.5864281,0.48629323,-0.32490566
944,1747533086400,-0.59061855,-0.41538543,0.75438094,0.8426242,0.5001417,-0.19441076
945,1747533086410,-0.5803681249999999,-0.400375905,0.70654572,0.77737675,0.50839747,-0.19041602
946,1747533086420,-0.5657247,-0.3521746,0.5940353,0.592287035,0.517984835,-0.186154965
947,1747533086430,-0.56926353,-0.34290042,0.5895202500000001,0.333694085,0.521713285,-0.17896443
948,1747533086440,-0.5637722,-0.32410803,0.61770886,-0.08894958,0.53955644,-0.15659387
949,1747533086450,-0.5527897,-0.3226437,0.7468152,-0.23861924,0.53795856,-0.18002969
950,1747533086460,-0.5630401,-0.32996538,0.77951884,-0.19760656,0.49375007,-0.19760656
951,1747533086470,-0.5715821000000001,-0.337531165,0.78720665,-0.156593875,0.455134235,-0.196807605
952,1747533086480,-0.58891016,-0.35461518,0.8088057,-0.007989483,0.3355583,-0.16831179
953,1747533086490,-0.60038084,-0.35705575,0.7834238,0.07829694,0.28229508,-0.1107875
954,1747533086500,-0.58110034,-0.34509695,0.7985553,0.18535602,0.30146983,0.04474111
955,1747533086510,-0.55523026,-0.3277689,0.8073414,0.24767399,0.33981937,0.09374327
956,1747533086520,-0.5359497049999999,-0.3188608,0.7915997,0.2609897949999999,0.370978355,0.0956074849999999
957,1747533086530,-0.495192125,-0.30690199,0.75230647,0.2492718849999999,0.434627905,0.0719053524999999
958,1747533086540,-0.43954712,-0.29506522,0.66993713,0.1107875,0.5294364,-0.036218993
959,1747533086550,-0.42514774,-0.29897013,0.5637722,-0.27856666,0.59122175,-0.21198763
960,1747533086560,-0.41172457,-0.30580372,0.5422952,-0.49375007,0.57098174,-0.2908172
961,1747533086570,-0.398789525,-0.31788455,0.53521755,-0.5952165,0.55979647,-0.334226725
962,1747533086580,-0.3914678099999999,-0.3350905899999999,0.551325325,-0.7608651150000001,0.520648,-0.4005394399999999
963,1747533086590,-0.41489732,-0.34595114,0.614048025,-0.83063995,0.44554686,-0.413588925
964,1747533086600,-0.4288086,-0.42319524,0.7058135,-0.6194513,0.26365295,-0.26684874
965,1747533086610,-0.4229512,-0.42905265,0.69409883,-0.56592175,0.264718225,-0.2234392149999999
966,1747533086620,-0.4084298,-0.42209701,0.675794515,-0.47297742,0.27350666,-0.1430117525
967,1747533086630,-0.3662079,-0.408551825,0.62222395,-0.42504052,0.293214035,-0.0924116925
968,1747533086640,-0.24918245,-0.3922,0.4634647,-0.54275227,0.32969934,-0.20026971
969,1747533086650,-0.2613853,-0.37975308,0.47469133,-0.59867865,0.29028457,-0.25033715
970,1747533086660,-0.293478835,-0.380851325,0.531922765,-0.577905975,0.215716055,-0.22210764
971,1747533086670,-0.4756676,-0.3380193,0.92937,0.18162759,-0.53529537,0.34780884
972,1747533086680,-0.467979775,-0.346073175,0.9365697,0.365918345,-0.65806711,0.45460162
973,1747533086690,-0.3943965,-0.3526627,0.92497694,0.6772419000000001,-0.8591357749999999,0.614923925
974,1747533086700,-0.3469273699999999,-0.3385074,0.90752685,0.86472843,-0.96512958,0.67058399
975,1747533086710,-0.23478307,-0.32508424,0.8097819,0.892159,-0.9219864,0.5928197
976,1747533086720,-0.220505715,-0.34948997,0.70288485,0.60879865,-0.7438209,0.4394215999999999
977,1747533086730,-0.21379416,-0.37999713,0.49446,-0.13102753,-0.3174488,0.10173275
978,1747533086740,-0.2443013,-0.37194324,0.45638704,-0.5763081,-0.053263225,-0.056459017
979,1747533086750,-0.239298125,-0.368526445,0.445282445,-0.8008126,0.0745685125,-0.1595233585
980,1747533086760,-0.22282426,-0.374261795,0.43198134,-1.14862145,0.258326625,-0.35366781
981,1747533086770,-0.27554062,-0.38707477,0.55767083,-1.3576796,0.20026971,-0.5581986
982,1747533086780,-0.36437747,-0.3692586,0.6770148,-1.1286477,-0.051132694,-0.42397526
983,1747533086790,-0.4073315349999999,-0.369990775,0.739127385,-0.94089485,-0.202932872,-0.30919301
984,1747533086800,-0.47432525,-0.37084499,0.867623535,-0.28016454,-0.7073356,0.080960095
985,1747533086810,-0.49873099,-0.3778006299999999,0.9733003,-0.01890844,-0.8769789499999999,0.1994707725
986,1747533086820,-0.410138205,-0.38634263,0.99892628,0.61439128,-1.25168575,0.429035275
987,1747533086830,-0.093717985,-0.3917119,0.96817505,1.0365024,-1.5073493,0.44528055
988,1747533086840,0.01415532,-0.40733153,0.9098454,0.90654004,-1.4492923,0.2796319
989,1747533086850,0.031239327,-0.4339338,0.85175985,0.5992113,-1.3198626,0.108124346
990,1747533086860,0.041001618,-0.45126185,0.77366143,-0.3190467,-0.8591358,-0.16298546
991,1747533086870,0.0118367764999999,-0.45419054,0.8062430899999999,-0.515321685,-0.76752305,-0.2024002449999999
992,1747533086880,-0.12471326,-0.4556549,0.97354436,-0.818922035,-0.6532734499999999,-0.2471413449999999
993,1747533086890,-0.157905045,-0.449553465,1.03919578,-0.935834815,-0.6657903000000001,-0.23355923
994,1747533086900,-0.20390984,-0.4441842,1.155245,-0.881772665,-0.749147235,-0.18775287
995,1747533086910,-0.13740423,-0.45052966,1.3415827,-0.2514024,-0.75580513,-0.0479369
996,1747533086920,-0.08151512,-0.43173727,1.3462198,-0.0053263223,-0.5837649,-0.027164243
997,1747533086930,-0.045394648,-0.41855815,1.3157127,0.19014971,-0.35420042,-0.035153728
998,1747533086940,-0.031239327,-0.41294485,1.2642165,0.3110572,-0.12144015,-0.080960095
999,1747533086950,-0.030019043,-0.43173727,1.1712307,0.34301516,0.12197278,-0.15765914
1000,1747533086960,-0.0605262,-0.49397188,1.0062481,0.221575,0.5470133,-0.3222425
1001,1747533086970,-0.0605262,-0.49397188,1.0062481,0.221575,0.5470133,-0.3222425
