id,timestamp,acc_x,acc_y,acc_z,gyro_x,gyro_y,gyro_z
1,1747533733230,-0.019036455,0.3183726799999999,0.9867235,0.594683885,0.0178431749999999,-0.8825715749999998
2,1747533733240,2.2153075,2.1718655,0.68653303,-4.6701193,-1.5302523,1.1393003
3,1747533733250,3.0275302,2.788598,0.8920292,-4.38889,-1.8674086,0.65726817
4,1747533733260,3.6996639,3.0216727,1.0484699,-4.1055293,-2.2306638,0.19547603
5,1747533733270,4.3359213,3.1883638,1.2027141,-3.7721014,-2.6008432,-0.5635249
6,1747533733280,5.1720614,3.0807345,1.2854495,-3.5025895,-2.957174,-2.6935213
7,1747533733290,5.1987855,2.93649675,1.30485205,-3.619236,-2.83892975,-3.25145355
8,1747533733300,5.098844,2.4242206,1.5395131,-4.0442767,-2.194445,-4.653608
9,1747533733310,4.9890184,1.9734468,1.8321378,-4.278102,-1.5036207,-5.2831793
10,1747533733320,4.9687614,1.4889933,2.1713774,-4.3281693,-0.47510794,-5.9851885
11,1747533733330,4.8628407,1.066286125,2.3348957,-4.19527765,0.0692421799999999,-6.48666175
12,1747533733340,4.4557533,0.25870067,2.6072636,-3.8285604,0.8697884,-7.188937
13,1747533733350,4.1811886,0.0034168016,2.720262,-3.4589138,1.1062771,-7.1143684
14,1747533733360,4.111388,-0.12471326,2.8076346,-2.9214878,1.412008,-6.9439263
15,1747533733370,4.2016897,-0.28725538,2.8298438,-2.18246055,1.6777915,-6.98920015
16,1747533733380,4.1501937,-0.35034417,2.8039738,-0.62051654,2.0314593,-7.258712
17,1747533733390,3.9486022,-0.5684093,2.6875584,0.40107206,1.988316,-7.5095816
18,1747533733400,3.7409093,-0.76194674,2.5645535,1.1563445,1.8839202,-7.5884113
19,1747533733410,3.5524971,-0.9086252,2.4569242,1.8413097,1.8072212,-7.5287566
20,1747533733420,3.2974577,-1.1180263,2.1608827,2.4149544,1.8578212,-7.349792
21,1747533733430,3.26939095,-1.13584245,2.06533445,2.7928570500000003,2.00908875,-7.25152135
22,1747533733440,3.2265588000000003,-1.15841775,1.89229795,3.30072185,2.25436595,-7.19080135
23,1747533733450,3.1578567,-1.171963,1.7320743,3.6906087,2.4213462,-7.3588467
24,1747533733460,2.9689565,-1.2239472,1.636892,4.01871,2.3595607,-7.4957333
25,1747533733470,2.9006205,-1.3057063,1.6127303,4.9811764,1.8482338,-7.8019967
26,1747533733480,2.87206575,-1.33633545,1.61114395,5.2440305,1.6064188,-7.857124349999999
27,1747533733490,2.8064143,-1.3917364,1.5709965,5.765477450000001,1.09828765,-7.9540635
28,1747533733500,2.7405188,-1.479231,1.3679409,6.412892,0.34088463,-8.083227
29,1747533733510,2.6917074,-1.5246257,1.1351103,6.5721493,-0.09534117,-8.169513
30,1747533733520,2.5984776,-1.5202327,0.6108753,6.0341907,-0.82344943,-8.222776
31,1747533733530,2.5660179,-1.4909457,0.43442193,5.7162092,-0.89642003,-8.2086615
32,1747533733540,2.5345345,-1.4572659,0.33142975,4.639227,-0.86872315,-8.099206
33,1747533733550,2.5879831,-1.4384733,0.30019042,3.647998,-0.45167214,-7.949003
34,1747533733560,2.775419,-1.4052817,0.41050428,2.3952472,0.65194184,-7.894142
35,1747533733570,2.8513207,-1.4492118,0.5962319,2.1060278,1.0327739,-7.975635
36,1747533733580,2.8244743,-1.5060773,0.77610207,2.08525515,1.1299793,-8.0094575
37,1747533733590,2.6882906,-1.5695322,0.96036524,2.267948,1.3475596,-8.001734
38,1747533733600,2.4913363,-1.5944259,1.0650659,2.6684875,1.4082797,-7.833422
39,1747533733610,2.135501,-1.5358523,1.0538392,3.6879456,1.2729911,-7.2768216
40,1747533733620,1.9644167,-1.4872849,0.93986446,4.252536,0.96140116,-6.94872
41,1747533733630,1.7843026,-1.4462832,0.78708464,4.5838327,0.6125271,-6.7116985
42,1747533733640,1.6551963,-1.4091865,0.6643238,4.817126,0.1917476,-6.4805365
43,1747533733650,1.5548887,-1.3564702,0.5547421,4.817126,0.1917476,-6.4805365
44,1747533733660,1.5548887,-1.3564702,0.5547421,4.817126,0.1917476,-6.4805365
45,1747533733670,1.4592182500000002,-1.31278395,0.483477385,4.9273810000000005,-0.343015165,-6.24671075
46,1747533733680,0.98330665,-1.3484163,0.5339973,5.1681304,-1.3129385,-5.83978
47,1747533733690,0.788793,-1.4343245,0.528384,5.316202,-1.3848438,-5.7705374
48,1747533733700,0.468345845,-1.6044324,0.33862946,5.147358,-0.81439465,-5.6490974
49,1747533733710,-0.31751847,-1.8606924,-0.12861817,4.59129,-0.5422196,-5.369998
50,1747533733720,-0.70459324,-1.9329334,-0.42563587,3.6464002,-0.41545314,-4.915663
51,1747533733730,-0.8164934699999999,-2.00773695,-0.528261935,3.02615,-0.31931302,-4.6850332
52,1747533733740,-1.01881695,-2.1723536,-0.6267389999999999,1.7979001,-0.071639035,-4.298874850000001
53,1747533733750,-1.582223,-2.6480212,-0.43124917,0.2263687,0.4777711,-3.914847
54,1747533733760,-1.8350664,-2.8884175,-0.43637437,-1.2282499,1.212271,-3.4679685
55,1747533733770,-2.157222,-3.1041641,-0.2796896,-1.6974989,1.4333134,-3.1888692
56,1747533733780,-2.3580811,-3.14955875,-0.1952457974999999,-1.6945694,1.480185,-2.83733185
57,1747533733790,-2.7268517,-3.3096604,-0.0993313,-1.4535533,1.4514228,-1.8024274
58,1747533733800,-2.878899,-3.4377902,-0.34680536,-0.9054748,0.56885123,-0.2972088
59,1747533733810,-2.85339515,-3.43327525,-0.42258513,-0.72437984,-0.23542345,0.4910869
60,1747533733820,-2.71806565,-3.41106605,-0.513740525,-0.63649552,-0.54301855,0.8412926
61,1747533733830,-2.4884078,-3.34358415,-0.50995764,-0.4460794999999999,-1.031974925,1.4876418
62,1747533733840,-2.182848,-3.1703036,-0.46224442,-0.2460761,-1.2873721,2.0367856
63,1747533733850,-2.0752187,-3.0121546,-0.49104318,-0.015446335,-1.4088123,2.7627633
64,1747533733860,-1.6815544,-2.685118,-0.5603554,-0.19068234,-1.0487529,3.5958002
65,1747533733870,-1.4560456,-2.497438,-0.665056,-0.5603291,-0.6221144,3.8727689
66,1747533733880,-1.3730661,-2.39859465,-0.70276285,-0.8362326,-0.36938043,4.0077913
67,1747533733890,-1.2052767,-2.2162838,-0.750354,-1.7779263,0.38562572,4.4139233
68,1747533733900,-0.93303084,-1.9900427,-0.7365648,-2.4847293,0.84209156,4.694088
69,1747533733910,-0.54912883,-1.7913802,-0.51447266,-3.7790256,1.412008,5.233112
70,1747533733920,-0.33118567,-1.7149903,-0.36022848,-4.265319,1.5483619,5.493569
71,1747533733930,-0.21306197,-1.6742327,-0.28713335,-4.4914213,1.58324935,5.658152149999999
72,1747533733940,0.07565775,-1.60906935,-0.1239810885,-4.8352353,1.60988095,5.9234028
73,1747533733950,0.7412019,-1.4777666,0.21452633,-5.1367054,1.5733956,6.2019696
74,1747533733960,0.9178993,-1.4567777,0.3248402,-5.122324,1.5712651,6.2424498
75,1747533733970,1.0435888,-1.432616,0.4724948,-5.0099387,1.5531555,6.2626896
76,1747533733980,1.11082655,-1.4169963499999998,0.5681652500000001,-4.87704705,1.5209313,6.26402115
77,1747533733990,1.23871255,-1.3818521499999998,0.73217175,-4.53536345,1.41360595,6.24671085
78,1747533734000,1.4518965,-1.3059504,0.88836837,-3.8317564,0.5800365,6.058159
79,1747533734010,1.5243815,-1.3010693,0.8978866,-2.6482475,0.018109497,6.0123525
80,1747533734020,1.56843385,-1.3026556,0.90179155,-2.3792682000000003,-0.3126551215,6.016347250000001
81,1747533734030,1.65287765,-1.30582835,0.8938597,-1.8623486,-0.95927067,6.06401785
82,1747533734040,1.768927,-1.3230344,0.8263778,-1.4149375,-1.5036208000000002,6.19105085
83,1747533734050,1.8472692,-1.325719,0.75169635,-1.08896655,-1.8594191,6.3819995
84,1747533734060,2.0520332,-1.3196175,0.68702114,-0.7850999,-1.73212,6.9476547
85,1747533734070,2.1067023,-1.2964321,0.68653303,-0.8181231,-1.2106731,7.1798825
86,1747533734080,2.13940595,-1.28349705,0.6794553649999999,-0.87671265,-0.77684413,7.2864089
87,1747533734090,2.221409,-1.249085,0.65334123,-1.0881677,0.32863408,7.466439
88,1747533734100,2.353444,-1.244692,0.60013676,-1.5563514,1.0167949,7.3694997
89,1747533734110,2.5150099,-1.2080834,0.6289356,-1.736381,0.9896307,7.1724257
90,1747533734120,2.468151,-1.0882512,0.7653635,-1.7955033,0.7957525,6.947122
91,1747533734130,2.425197,-1.0862988,0.87250465,-1.6367788,0.0974717,6.602509
92,1747533734140,2.3661351,-1.1207108,0.95279956,-1.4152038,-0.28708878,6.5284734
93,1747533734150,2.32855,-1.1812371,1.0265048,-1.1110709,-0.53263223,6.570019
94,1747533734160,2.3409972,-1.2571388,1.0718994,-0.6823019,-0.6269081,6.7537766
95,1747533734170,2.3305027,-1.3493925,0.93986446,-0.2759035,-0.041545313,7.2938657
96,1747533734180,2.38187685,-1.38990605,0.86811163,-0.32783515,0.1680454685,7.41450685
97,1747533734190,2.587251,-1.4989996,0.65065664,-0.6876282,0.77924097,7.700264
98,1747533734200,2.7903066,-1.5309712,0.55742675,-1.1520835,1.063134,7.7737675
99,1747533734210,2.9360087,-1.5251138,0.5354616,-1.7134778,1.2170646,7.7806916
100,1747533734220,2.9906774,-1.5409775,0.88031447,-2.667955,1.196292,7.958058
101,1747533734230,3.05120365,-1.54927545,1.073485785,-2.6684876,1.15368145,8.089352
102,1747533734240,3.2457173,-1.4916779,1.5256019,-2.2642195,1.1163971,8.425709
103,1747533734250,3.431445,-1.394055,1.5565971,-1.6990968,1.2000204,8.598815
104,1747533734260,3.738713,-1.2817887,1.3820962,-1.1510183,1.1526161,8.696286
105,1747533734270,4.4196324,-0.6484601,0.6897058,-0.44208476,0.4857606,8.464059
106,1747533734280,4.6016993500000005,-0.39219999,0.417215875,-0.5044027,0.053263225,7.997473
107,1747533734290,4.925319,0.40293851,-0.38048524,-0.98803276,-0.4063984,7.2986593
108,1747533734300,4.872847,0.9242448,-0.7243619,-1.856756,-0.86872315,6.630206
109,1747533734310,4.989262,1.8431203,-0.55913514,-3.1462586,-1.1270498,6.223808
110,1747533734320,5.1945143,2.32855,-0.14301755,-4.6552057,-0.53529537,5.974003
111,1747533734330,5.2394214,2.971641,0.31995904,-4.8863683,-0.11930962,5.80143
112,1747533734340,5.3537622,3.3131992500000003,0.6057500499999999,-4.68450045,0.09853696,5.845905
113,1747533734350,6.156588,4.5636263,1.258115,-3.5388086,0.8133294,6.1412497
114,1747533734360,7.9967794,6.317178,0.3133695,-2.0229373,0.66525763,3.7172403
115,1747533734370,7.9967794,6.441403,-0.2238005,-2.2019017,-0.007989483,0.87138635
116,1747533734380,7.9967794,6.0333393,-0.1156831375,-2.44052085,-0.2838929665,-0.807736725
117,1747533734390,7.9967794,4.92190265,0.3189828125,-2.7206853,-0.508930085,-3.4602451499999995
118,1747533734400,7.4308105,3.0653589,1.3313323,-2.5976473,-0.23196133725,-5.03230925
119,1747533734410,5.551814,1.3332847,1.7196274,-1.3081448,1.3081448,-6.146576
120,1747533734420,5.1984196,0.8161274,1.3449996,-1.2319783,1.8040254,-6.199839
121,1747533734430,5.0844448,0.59684198,1.227486,-1.3494237,1.9323897,-6.30316965
122,1747533734440,4.818910499999999,0.2660224,1.2222387,-1.4892397000000002,2.1989721,-6.4520404
123,1747533734450,4.3849764,-0.03465613,1.9121885,-1.1371698,2.6514432,-6.4427195
124,1747533734460,4.5165234,-0.063943,1.8445847,0.8330368,2.8756814,-6.6701536
125,1747533734470,4.5721684,-0.1313028,1.564651,1.5717977,2.5752769,-7.091998
126,1747533734480,4.5392207,-0.1898765399999999,1.445063,1.8237328,2.32707025,-7.339938350000001
127,1747533734490,4.44721115,-0.3281349699999999,1.26214205,2.25143645,1.7989654000000002,-7.819573849999999
128,1747533734500,4.0227957,-0.6887296,1.0809295,2.654639,1.0018812,-8.423578
129,1747533734510,3.910041,-0.8297946,1.0714114,2.8740835,0.4745753,-8.912003
130,1747533734520,3.80412,-0.96256185,1.0943527,2.9795446,0.45540056,-9.077119
131,1747533734530,3.73871275,-1.022843975,1.1030167,3.0570426,0.484961645,-9.1301155
132,1747533734540,3.5517652,-1.1971008,1.1129011,3.407781,0.5592638,-9.253952
133,1747533734550,3.483673,-1.398204,1.048714,3.942011,0.33662358,-9.3951
134,1747533734560,3.5058825,-1.4592183,0.99233675,4.1950116,0.083090626,-9.4963
135,1747533734570,3.54981265,-1.4854544500000002,0.967076825,4.29488015,-0.101200122,-9.5599495
136,1747533734580,3.6908777,-1.5612342,0.8681116,4.5428205,-0.6876282,-9.806292
137,1747533734590,3.72223915,-1.5845416499999998,0.8169816,4.57291425,-0.8759137,-9.9303955
138,1747533734600,3.5795877,-1.7037637,0.5108118,4.250938,-1.6335831,-10.42095
139,1747533734610,3.4556065,-1.7318302,0.40147418,3.7065878,-1.6831179,-10.347446
140,1747533734620,3.367258,-1.7430568,0.32630453,3.1664987,-1.4748586,-10.126404
141,1747533734630,3.34907565,-1.75111075,0.34595114,2.91136785,-1.25434885,-9.9809955
142,1747533734640,3.252795,-1.7393959,0.48225713,2.46768515,-0.76805565,-9.6877815
143,1747533734650,3.3145413,-1.8023627,0.78684056,2.0714068,0.21731395,-9.143698
144,1747533734660,3.3106365,-1.8531268,0.9266854,2.2530344,0.32011196,-8.972722
145,1747533734670,3.2010548,-1.8748478,0.96768695,2.5933864,0.4101268,-8.758072
146,1747533734680,3.11880755,-1.8445847,0.939864455,2.7877971,0.4364921,-8.633436
147,1747533734690,2.8471718,-1.6981503,0.81149036,3.3039176,0.36005938,-8.281366
148,1747533734700,2.4991462,-1.4994878,0.61160743,3.636813,-0.1486044,-7.9617867
149,1747533734710,2.3927372,-1.462635,0.5518134,3.6895435,-0.23702134,-7.8909464
150,1747533734720,2.238249,-1.4745939,0.53350914,3.7385457,-0.29294774,-7.8174434
151,1747533734730,2.10291925,-1.4988776,0.58500522,3.78541735,-0.3882889,-7.75778845
152,1747533734740,1.811881,-1.5267001,0.685678835,3.9148469,-0.61279338,-7.58255245
153,1747533734750,1.3921026,-1.6691074,0.77122086,4.190218,-0.90494215,-7.139935
154,1747533734760,1.205887,-1.700591,0.7658516,4.440555,-0.9752496,-6.314355
155,1747533734770,0.98428285,-1.6600775,0.7268025,4.534298,-0.7819041,-5.7998323
156,1747533734780,0.83125895,-1.6468983,0.6384538,4.53190115,-0.755805135,-5.62406365
157,1747533734790,0.6445552,-1.6608096,0.38829508,4.46505595,-0.7922904500000001,-5.309278
158,1747533734800,0.30946457,-1.769415,0.2884757,3.6884782,-1.1771172,-5.0999537
159,1747533734810,-0.005857374,-1.9829651,0.19304928,3.1569111,-1.1824435,-5.2927666
160,1747533734820,-0.49226347,-2.2314155,0.09274176,2.5672874,-1.0700581,-5.4067497
161,1747533734830,-1.018451,-2.5496662,0.023673553,1.9718045,-1.0056096,-5.233112
162,1747533734840,-1.7464737,-3.3164937,-0.35412705,1.4189322,-0.932639,-4.7798414
163,1747533734850,-2.1157322,-3.5481043,-0.6228341,-0.30945933,-0.7414241,-3.069027
164,1747533734860,-2.3158593,-3.7128427,-0.6894617,-1.2852416,-0.61412495,-2.4192157
165,1747533734870,-2.8476598,-3.9542155,-0.43637437,-2.0232035,-0.481233205,-1.7739317
166,1747533734880,-2.9455268,-4.1165137,-0.23990828,-3.2155008,-0.29028457,-0.38615838
167,1747533734890,-2.9455268,-4.1165137,-0.23990828,-3.2155008,-0.29028457,-0.38615838
168,1747533734900,-2.9455268,-4.1165137,-0.23990828,-3.2155008,-0.29028457,-0.38615838
169,1747533734910,-2.7522335,-3.978377,0.2403964,-3.3451967,-0.395745755,1.1715246
170,1747533734920,-2.459365,-3.8126621,0.34460884,-2.9550436,-0.700944,2.6951191
171,1747533734930,-1.8567874,-3.2330263,0.42148685,-2.221609,-0.66845345,3.3827472
172,1747533734940,-1.7145022,-3.0116665,0.33435842,-1.9222697,-0.598146,3.617638
173,1747533734950,-1.5541565,-2.8361893,0.22477673,-1.7379789,-0.48363006,3.84667
174,1747533734960,-1.3569584,-2.6621764,0.11153416,-1.6506273,-0.27057716,4.0490704
175,1747533734970,-1.0594525,-2.3458784,-0.15961345,-1.7571537,0.21731395,4.466121
176,1747533734980,-0.933519,-2.2458148,-0.22209209,-1.9062908,0.45699844,4.755873
177,1747533734990,-0.7753699,-2.1418464,-0.24308102,-2.0900488,0.69508505,5.1841097
178,1747533735000,-0.5208182,-2.037634,-0.20915705,-2.191249,0.81918836,5.5244613
179,1747533735010,-0.2660224,-1.9419636,-0.1952458,-2.2684808,0.9395633,5.807289
180,1747533735020,0.28969595,-1.7213358,-0.2660224,-2.5774074,1.1744541,6.2387214
181,1747533735030,0.4325914749999999,-1.66361625,-0.268096885,-2.6905917,1.232511,6.3194152
182,1747533735040,0.8507836,-1.4919219,-0.29897013,-3.1047132,1.3907027,6.5380607
183,1747533735050,1.0687267,-1.428467,-0.2979939,-3.299124,1.4231932500000002,6.58626385
184,1747533735060,1.274955,-1.3994243,-0.23673552,-3.9137816,1.4791197,6.6845345
185,1747533735070,1.4926541,-1.4043053,0.0156196635,-4.729774,1.3432984,6.6903934
186,1747533735080,1.52072065,-1.4385954,0.12251673175,-4.8219195,1.25195205,6.6973176
187,1747533735090,1.6315227,-1.5500076,0.51691324,-4.860269,0.87298423,6.745787
188,1747533735100,1.6649586,-1.5607461,0.8473667,-4.491155,0.44208476,6.806507
189,1747533735110,1.7174308,-1.5011961,1.1624447,-2.82614665,-0.912399,7.1151675
190,1747533735120,1.8309175,-1.4867967,1.1067996,-2.5108283,-1.164334,7.190535
191,1747533735130,1.9934596,-1.5094941,0.9620737,-2.3052323,-1.3171995,7.24859185
192,1747533735140,2.156246,-1.5329236,0.83077085,-1.9196066,-1.5952336,7.3348784
193,1747533735150,2.3383124,-1.5751455,0.6660322,-2.0021646,-1.4855113,7.272028
194,1747533735160,2.506224,-1.6725243,0.48640612,-2.6839337,-0.9502159,7.0888023
195,1747533735170,2.5013428,-1.7494024,0.53228885,-3.0796795,-0.5763081,7.087737
196,1747533735180,2.411774,-1.8135895,0.6828722,-3.3534524,-0.13209279,7.1953287
197,1747533735190,2.3134186,-1.867038,0.8773858,-3.461577,0.33076462,7.383348
198,1747533735200,2.3214726,-1.8765563,1.1280326,-3.2490566,1.0748519,7.776963
199,1747533735210,2.4198277,-1.9082836,1.1390152,-3.0306773,1.1957593,7.917578
200,1747533735220,2.5484457,-1.8997418,1.0704352,-2.7883296,1.0253171,7.966048
201,1747533735230,2.58920325,-1.88155945,1.016864585,-2.7198864,0.878310575,7.9268993
202,1747533735240,2.648021,-1.85788585,0.953287635,-2.5108283,0.4282363,7.7695065
203,1747533735250,2.7067168,-1.8356766,0.949016635,-2.4152209,0.279099285,7.69600325
204,1747533735260,2.8413146,-1.8275007,0.8993509,-2.1427794,-0.13582122,7.484548
205,1747533735270,2.894763,-1.866794,0.96256185,-1.9643476,-0.5773733,7.380152
206,1747533735280,2.9211211,-1.8741156,1.0287013,-1.9057581,-0.51292485,7.481885
207,1747533735290,2.9389374,-1.8553232,1.0679946,-1.9244002,-0.28176245,7.664578
208,1747533735300,3.108313,-1.713282,1.2024701,-2.2471755,0.304133,7.935155
209,1747533735310,3.3396795,-1.7254847,1.3266952,-2.3638217,0.39148468,7.8398137
210,1747533735320,3.5071027,-1.7396401,1.4872849,-2.3510387,0.41545314,7.659784
211,1747533735330,3.5371218,-1.7130377,1.5363404,-2.2876554,0.40053943,7.4898744
212,1747533735340,3.5183294,-1.6719141,1.5354862,-2.21575,0.31158987,7.414241
213,1747533735350,3.6201012,-1.104603,0.9679311,-2.424542,0.2625877,7.5447354
214,1747533735360,3.9400604,-0.7468152,0.613804,-3.0003173,0.12783173,7.631022
215,1747533735370,4.3417788,-0.2633378,0.38390204,-3.7976677,-0.12942964,7.6358156
216,1747533735380,4.53909875,0.063943,0.37182121,-4.327636849999999,-0.32517197,7.542604799999999
217,1747533735390,4.9591212,0.7091083499999999,0.40806371,-5.20461585,-0.743554585,7.2198297
218,1747533735400,5.939133,2.2345881,1.2322451,-6.0954432,-2.560363,5.787582
219,1747533735410,6.1622014,2.7815204,1.6817985,-5.8472366,-3.3257556,5.1857076
220,1747533735420,6.4484806,3.513448,2.208718,-5.3012886,-3.7491982,4.658934
221,1747533735430,6.8755803,4.259043,2.6592476,-4.5481467,-3.759851,4.2674494
222,1747533735440,7.9967794,5.302632,3.0807345,-3.1707597,-2.3920512,2.2514365
223,1747533735450,7.9967794,5.261142,3.1307664,-2.67914,-0.82824314,-0.023435818
224,1747533735460,7.9967794,4.745449,3.2549915,-2.2498386,0.5571333,-2.0357203
225,1747533735470,7.9967794,3.9007668,3.4114323,-1.5398397,1.572863,-3.8200383
226,1747533735480,7.5004892,3.42802795,3.40447655,-0.66579026,2.0991037,-4.9454904
227,1747533735490,5.922293,2.066921,3.235467,0.23329292,2.4293356,-5.369998
228,1747533735500,4.8425837,0.9276616,2.1616151,1.2660668,3.2437303,-5.3790526
229,1747533735510,4.804511,0.605262,1.5878365,1.1147993,3.584615,-5.510613
230,1747533735520,4.682238,0.29091623,1.1878266,0.62051654,3.7811563,-5.803028
231,1747533735530,4.3713093,0.016107777,1.1482893,0.011717909,4.004329,-5.9894495
232,1747533735540,3.9988782,-0.18548352,1.3327967,-0.18002969,4.204599,-5.840845
233,1747533735550,3.904916,-0.30922052,1.5414655,0.06711166,4.462393,-5.524994
234,1747533735560,4.0086403,-0.37584817,1.5824672,0.35952675,4.5167212,-5.66987
235,1747533735570,4.0313377,-0.4932397,1.6471423,0.7451525,4.491688,-5.9585567
236,1747533735580,3.9549477,-0.6242984,1.7891837,1.2863069,4.3276367,-6.2717443
237,1747533735590,3.9246845,-0.93107843,2.0527656,2.908172,3.6442697,-6.8491178
238,1747533735600,3.88832,-1.1146095,2.0781474,4.124704,3.1824775,-7.2262216
239,1747533735610,3.785572,-1.3071706,2.004198,5.101019,2.8730183,-7.5218325
240,1747533735620,3.6833122,-1.4787428,1.8255482,5.9729376,2.593919,-7.7833548
241,1747533735630,3.568117,-1.6334751,1.5939379,6.654707,2.3233418,-8.005995
242,1747533735640,3.4988048000000003,-1.90401265,0.989286015,7.1452613,2.0314593,-8.216385
243,1747533735650,3.4741552,-1.9448922,0.89300543,7.474428,1.3310479,-8.698417
244,1747533735660,3.3955684,-1.9919952,0.7809832,7.5607142,0.9257148,-8.932242
245,1747533735670,3.256456,-1.9897987,0.68336034,7.4765587,0.5683186,-9.110674
246,1747533735680,3.0336316,-1.9641727,0.41099238,6.868293,0.14274544,-9.310411
247,1747533735690,2.9223413,-1.8992535,0.2801777,6.3569655,0.02876214,-9.257681
248,1747533735700,2.90721,-1.8389714,0.19231711,5.7476344,-0.10279802,-9.1719265
249,1747533735710,2.9355206,-1.7652661,0.17059602,5.106345,-0.23595607,-9.087771
250,1747533735720,2.8994002,-1.6608096,0.23209843,4.5076666,-0.3121225,-8.9956255
251,1747533735730,2.7903066,-1.5558649,0.41148052,4.0501355,-0.244211885,-8.8885665
252,1747533735740,2.7229466,-1.5402453,0.46224442,3.264503,0.0063915867,-8.64835
253,1747533735750,2.6316693,-1.512911,0.5191097,2.9843383,0.27537087,-8.444351
254,1747533735760,2.48133,-1.500464,0.57377857,2.8852687,0.5091964,-8.253669
255,1747533735770,2.1367211,-1.4780107,0.71313524,3.090865,0.763262,-7.8019967
256,1747533735780,2.07363235,-1.4925321,0.732415795,3.20538085,0.7384946,-7.6906767
257,1747533735790,1.8648415,-1.5270662,0.75169635,3.5718317,0.6295713,-7.343933
258,1747533735800,1.7147462,-1.5224291,0.7541369,3.8413436,0.4857606,-7.095194
259,1747533735810,1.6273737,-1.5302389,0.7175283,4.074104,0.28655612,-6.8491178
260,1747533735820,1.428467,-1.5639188,0.65944266,4.339355,-0.07989483,-6.3218117
261,1747533735830,1.3147364,-1.5558649,0.64235866,4.4442835,-0.26205507,-5.938317
262,1747533735840,1.1707426,-1.5700202,0.61502427,4.503938,-0.3882889,-5.5968995
263,1747533735850,1.0077124,-1.560502,0.5850052,4.535896,-0.46339005,-5.261341
264,1747533735860,0.85590875,-1.5287746,0.5618198,4.5193844,-0.46498793,-4.7175236
265,1747533735870,0.5950116,-1.4440868,0.40611124,4.404336,-0.37816888,-4.505536
266,1747533735880,0.5347294,-1.4416462,0.33094162,4.1982074,-0.22796659,-4.3366914
267,1747533735890,0.43515408,-1.5077857,0.208913,3.9111185,-0.019707393,-4.2488074
268,1747533735900,0.208913,-1.6918048,0.05588911,3.5334823,0.1736381,-4.2429485
269,1747533735910,-0.22843759,-1.8868065,-0.15204766,2.214152,0.25832662,-4.214719
270,1747533735920,-1.0521308,-2.3646708,-0.473227,1.4205302,0.26205507,-3.9356196
271,1747533735930,-1.3518331,-2.600918,-0.4334457,0.70200926,0.40746364,-3.4892738
272,1747533735940,-1.6573927,-2.6892667,-0.27187976,0.23116238,0.7520767,-2.9230857
273,1747533735950,-1.876068,-2.7349055,-0.10323621,0.030360037,1.1744541,-2.3196135
274,1747533735960,-2.2499638,-2.79592,-0.32850105,-0.13954964,1.6927053,-1.0519487
275,1747533735970,-2.2943823,-2.8476598,-0.4807928,-0.3057309,1.5462314,-0.46392268
276,1747533735980,-2.2458148,-2.8742623,-0.56743306,-0.43516052,1.1041466,0.108124346
277,1747533735990,-2.1840682,-2.8498566,-0.6228341,-0.46552056,0.66579026,0.5001417
278,1747533736000,-2.059111,-2.8615713,-0.7138674,-0.50173956,0.24927188,0.8133294
279,1747533736010,-1.9295166,-2.7995808,-0.97476465,-0.93796533,-0.47031426,1.2239889
280,1747533736020,-1.9107243,-2.7815204,-1.0121055,-1.3534185,-0.6125271,1.4972292
281,1747533736030,-1.9055991,-2.732709,-0.87274873,-1.7688717,-0.572047,1.8807244
282,1747533736040,-1.8999857,-2.6592476,-0.6355251,-2.056493,-0.39947417,2.3419838
283,1747533736050,-1.8026069,-2.5821257,-0.3922,-2.1694112,-0.1603223,2.8399951
284,1747533736060,-1.4907017,-2.3536882,-0.17206036,-2.1422467,0.44794372,3.8200383
285,1747533736070,-1.3149804,-2.2660716,-0.17328064,-2.1960428,0.66365975,4.1774344
286,1747533736080,-1.1416998,-2.183336,-0.17962612,-2.40536715,0.97684755,4.64242265
287,1747533736090,-0.9349833,-2.1015768,-0.15912533,-2.4884577,1.0764498,4.786766
288,1747533736100,-0.46614933,-1.8933961,-0.09835507,-2.8394625,1.3608754,5.2448297
289,1747533736110,-0.28213018,-1.8111488,-0.051252022,-2.9870014,1.4604776,5.4477625
290,1747533736120,-0.0993313,-1.7520871,0.029774986,-3.0855384,1.5180018,5.666674
291,1747533736130,0.07224095,-1.6947334,0.11568313,-3.1185617,1.5414376,5.965481
292,1747533736140,0.28261828,-1.6468983,0.21574661,-3.073288,1.5387745,6.223275
293,1747533736150,0.39256609,-1.6179774999999998,0.246741875,-3.0306775,1.50655025,6.332731
294,1747533736160,0.91057765,-1.5231613,0.36096066,-2.790993,1.1707256,6.7409935
295,1747533736170,1.1443844,-1.5451264,0.409284,-2.7047064,1.0141318,6.8714886
296,1747533736180,1.3181533,-1.5831994,0.4463807,-2.6365294,0.8996158,6.990798
297,1747533736190,1.3907603000000002,-1.6044323500000002,0.4723728,-2.6176210500000003,0.84235785,7.0549803
298,1747533736200,1.7747843,-1.6910727,0.5474204,-2.6269422,0.5944176,7.403055
299,1747533736210,1.8653295,-1.722312,0.5930591,-2.6999128,0.6215818,7.562845
300,1747533736220,1.9126767,-1.7303659,0.6325964,-2.799515,0.71798825,7.770039
301,1747533736230,2.0063946,-1.7606289,0.6653,-2.9342709,0.8633968,8.007593
302,1747533736240,2.186509,-1.7843026,0.72704655,-3.064766,0.9102685,8.219048
303,1747533736250,2.6343539,-1.7153564,0.8378485,-3.163303,0.8159926,8.351141
304,1747533736260,2.7068388,-1.7064483,0.8395569,-3.2075112,0.6892261,8.268582
305,1747533736270,2.7585793,-1.6998588,0.82442534,-3.281547,0.58269966,8.172176
306,1747533736280,2.7556505,-1.7262169,0.8327233,-3.3768883,0.5075985,8.113054
307,1747533736290,2.805438,-1.7628256,0.8605459,-3.4136399,0.485494275,8.1242395
308,1747533736300,2.9818914,-1.7657542,1.0089327,-3.5238948,0.38775626,8.200406
309,1747533736310,3.1427252,-1.7476939,1.1370627,-3.4535873,0.31691617,8.178568
310,1747533736320,3.1784796,-1.7076686,1.2263877,-3.2884715,0.17736652,8.109325
311,1747533736330,3.214234,-1.6676433,1.3157127,-2.957174,0.07350325,8.023572
312,1747533736340,3.257188,-1.4916779,1.6098017,-2.534264,0.08042747,7.9202414
313,1747533736350,3.2847664,-1.4616588,1.5395131,-1.9803267,0.38296258,7.6837525
314,1747533736360,3.2637775,-1.4028411,1.4853324,-1.9052255,0.6897587,7.478689
315,1747533736370,3.2557237,-1.363792,1.4262705,-1.93238975,0.83756415,7.399593250000001
316,1747533736380,3.261459,-1.33975235,1.4312737,-2.0586236,1.325189,7.193731
317,1747533736390,3.2464495,-1.1353543,1.5395131,-2.0213394,1.8210696,6.992396
318,1747533736400,3.252307,-0.97208,1.6735007,-1.780057,1.7731327,6.909305
319,1747533736410,3.2501104,-0.78366786,1.7440331,-1.5707325,1.6969663,6.84831875
320,1747533736420,3.2768346,-0.69031593,1.71596645,-1.116397175,1.51613765,6.66775655
321,1747533736430,3.3225954,-0.48689419,1.5741692,-0.657001875,1.30201945,6.376673
322,1747533736440,3.2713435,0.08346757,0.76389915,-0.22796659,0.85540736,5.784919
323,1747533736450,3.269147,0.3180066,0.5086153,-0.90654004,0.53529537,5.5308533
324,1747533736460,3.3111248,0.5852493,0.37023485,-1.5100124,0.62264705,5.5228634
325,1747533736470,3.4792802,0.92400074,0.31434575,-2.1140172,0.86659265,5.481851
326,1747533736480,3.6972232,1.3545178,0.2877435,-2.667955,1.1163971,5.3465624
327,1747533736490,3.8622057,1.7203596,0.3533949,-3.1164312,1.170193,5.1606736
328,1747533736500,4.2600193,2.5911558,0.7829357,-3.266101,0.5603291,4.775048
329,1747533736510,4.5179877,3.081955,0.8998391,-2.9188247,-0.33768883,4.3952813
330,1747533736520,4.9812083,3.525407,1.1800168,-2.380866,-1.1329087,3.9606533
331,1747533736530,6.211257,4.736175,1.8094405,-0.16564862,-1.387507,3.2011197
332,1747533736540,7.2197013,5.187193,1.632743,0.96140116,-0.9672601,2.1092236
333,1747533736550,7.913556,5.12203,1.1290088,1.7129452,-0.4063984,0.26365295
334,1747533736560,7.8708463,4.632939,0.65919864,2.0021646,-0.053795855,-1.7704695
335,1747533736570,6.409675,2.835457,0.26504618,1.9259981,0.053795855,-3.518036
336,1747533736580,5.5242357,2.0132282,0.28213018,1.1163971,0.048469532,-5.2815814
337,1747533736590,4.7683907,1.3591548,0.3448529,0.59761333,0.17896444,-5.248558
338,1747533736600,4.481379,1.0050278,0.36022848,0.022903185,0.4889564,-5.1042147
339,1747533736610,4.44355,0.81149036,0.41465324,-0.53103435,0.9310411,-5.0621367
340,1747533736620,4.590961,0.5449798,0.8097819,-1.031176,1.7006947,-5.503156
341,1747533736630,4.6051164,0.3785328,0.99136055,-0.88896316,1.8578212,-5.859487
342,1747533736640,4.5416613,0.1867038,1.1507299,-0.7142598,1.82479805,-6.040582
343,1747533736650,4.4367166,-0.013179091,1.3171769,-0.015446335,1.4780544,-6.57428
344,1747533736660,4.2409825,-0.1889003,1.4479916,0.79255676,0.8367652,-6.9476547
345,1747533736670,3.777518,-0.44955346,1.7159665,2.2295985,-0.1571265,-7.217167
346,1747533736680,3.640358,-0.5357057,1.6815544,2.898052,-0.34514567,-7.2432656
347,1747533736690,3.640358,-0.5357057,1.6815544,2.898052,-0.34514567,-7.2432656
348,1747533736700,3.4787917,-0.6877533,1.3462198,3.7039244,-0.34194988,-7.3460636
349,1747533736710,3.4978285,-0.7748818,1.232001,3.899933,-0.29241508,-7.438209
350,1747533736720,3.4729345,-0.9117979,1.3059504,4.4336305,-0.45593318,-7.853662
351,1747533736730,3.445112,-1.0260166,1.4465274,5.088236,-0.99229383,-8.257398
352,1747533736740,3.3027047,-1.33133225,1.50546705,6.04724,-1.84876645,-8.7604685
353,1747533736750,3.2440088,-1.4299314,1.4758141,6.350574,-2.1369205,-8.919459
354,1747533736760,3.0883005,-1.5936939,1.3052181,6.737265,-2.6407907,-9.19696
355,1747533736770,2.6975648,-1.7462295,0.71777236,6.514092,-3.095126,-9.3567505
356,1747533736780,2.5386834,-1.7142582,0.3180066,5.7785273,-2.9454563,-9.207613
357,1747533736790,2.4713237,-1.6520236,0.037828874,4.7036753,-2.5289378,-8.991898
358,1747533736800,2.4344711,-1.5739251,-0.09640261,3.4796863,-1.9094865,-8.752213
359,1747533736810,2.4481382,-1.4374971,0.11861181,2.288188,-1.1952267,-8.5088
360,1747533736820,2.391029,-1.3901501,0.33826336,0.60240704,0.087884314,-8.184959
361,1747533736830,2.23861505,-1.38087595,0.70020025,0.4101268,0.39521313,-8.142881
362,1747533736840,2.1755261,-1.376971,0.8232051,0.5496765,0.4910869,-8.098673
363,1747533736850,2.0356815,-1.3589108,1.0108851,0.9651296,0.41971418,-8.017713
364,1747533736860,1.8731394,-1.40699,1.0843463,2.1598237,-0.14221281,-7.7519293
365,1747533736870,1.8411678,-1.3952752,0.9669548,2.683401,-0.61891866,-7.5740304
366,1747533736880,1.7716117,-1.3232784,0.80685323,3.0328078,-1.0748519,-7.356716
367,1747533736890,1.6891203,-1.219066,0.6543175,3.2250881,-1.4919028,-7.073356
368,1747533736900,1.4894813,-1.0506665,0.38439015,3.06157,-1.582983,-6.5508437
369,1747533736910,1.4013767,-0.96451426,0.28676724,2.8091023,-1.3779196,-6.26482
370,1747533736920,1.3957634,-0.9030118,0.2186753,2.4975126,-1.0956244,-6.0501695
371,1747533736930,1.4414021,-0.85322416,0.17132819,2.1859226,-0.7978831,-5.964948
372,1747533736940,1.4113832,-0.8095379,0.19256116,1.9307919,-0.6045376,-5.9484367
373,1747533736950,1.1124129,-0.85956967,0.33631086,1.6905746,-0.4362258,-5.7827883
374,1747533736960,0.9103335,-0.9061846,0.4502856,1.8184065,-0.57790595,-5.480786
375,1747533736970,0.65285313,-0.93620354,0.56596875,2.0921793,-0.7930894,-5.130846
376,1747533736980,0.45394647,-1.0079564,0.6640798,2.4868598,-1.0146644,-4.721252
377,1747533736990,0.385000305,-1.040294,0.69226838,2.944391,-1.2000204,-4.3585296
378,1747533737000,0.079318605,-1.1229074,0.5098356,3.5691686,-1.397627,-3.8860848
379,1747533737010,0.03099527,-1.2971642,0.25748038,3.5926044,-1.4173343,-3.716175
380,1747533737020,-0.025626011,-1.5751455,-0.00707766,3.4056504,-1.2996227,-3.6810212
381,1747533737030,-0.1443598555,-1.7164546500000002,-0.17511108,3.1712922,-1.24236475,-3.75052975
382,1747533737040,-0.77244115,-2.1315958,-0.86469483,1.8141453,-1.284709,-4.03895
383,1747533737050,-1.8428763,-2.73759,-0.73339206,-0.38402784,-1.1297129,-3.6389434
384,1747533737060,-2.190414,-2.962855,-0.5320448,-1.1329087,-0.50653327,-3.1467912
385,1747533737070,-2.4339828,-3.197394,-0.35705575,-1.5909724,0.16937704,-2.7249465
386,1747533737080,-2.58249175,-3.2970913,-0.246253765,-1.628523,0.41492052,-2.50257255
387,1747533737090,-3.1473622,-3.512472,0.05735345,-1.2809805,0.8175905,-1.5696672
388,1747533737100,-3.261581,-3.6406019,-0.16425052,0.103863284,-0.14647387,0.37763625
389,1747533737110,-3.022649,-3.6093626,-0.439059,0.5944176,-0.9241169,1.1084076
390,1747533737120,-2.8625475,-3.5417589,-0.57536497,0.6740461,-1.211472,1.4186659
391,1747533737130,-2.5728515,-3.39141955,-0.80355847,0.647680775,-1.5302524,1.89324125
392,1747533737140,-2.3428275000000003,-3.22375205,-0.9690293,0.311856157,-1.43517755,2.19977105
393,1747533737150,-1.8916876,-2.8427787,-1.1817253,-0.6048038680000001,-0.9254485,2.69538535
394,1747533737160,-1.709377,-2.6714506,-1.0540832,-1.8956381,-0.14434333,3.4669032
395,1747533737170,-1.5077857,-2.520379,-0.8788501,-2.3004386,0.31957933,3.8967373
396,1747533737180,-1.2864257,-2.366867,-0.7399816,-2.4218788,0.53689329,4.1148501500000005
397,1747533737190,-0.7382732,-2.0281157,-0.5806122,-2.6956518,1.031176,5.1185956
398,1747533737200,-0.4075756,-1.8816814,-0.5935472,-2.7387948,0.9816412,5.331649
399,1747533737210,-0.15180361,-1.734759,-0.5535218,-2.815494,0.87990844,5.5026236
400,1747533737220,0.13667206,-1.6678872,-0.4702983,-2.8698225,0.7344999,5.581986
401,1747533737230,0.22538688,-1.6262754,-0.434421885,-2.8967204,0.6570019,5.6051555
402,1747533737240,0.4888467,-1.5299948,-0.34290043,-3.0407975,0.3888215,5.6869144
403,1747533737250,0.9005712,-1.4958268,-0.26943922,-3.6330845,0.13688648,5.9260664
404,1747533737260,1.1312053,-1.504857,-0.19719826,-4.0900826,0.09853696,6.017146
405,1747533737270,1.317421,-1.5231613,-0.04637088,-4.580637,0.101200126,6.074138
406,1747533737280,1.4004005,-1.547445,0.07187486,-5.1217914,0.10173275,6.1572285
407,1747533737290,1.6254213,-1.6471423,0.41758195,-5.4349794,0.06870956,6.2626896
408,1747533737300,1.8771663,-1.87240715,0.89483592,-5.6895776,0.10173275,6.51569
409,1747533737310,1.8955926,-1.9004737,0.97378844,-5.6432385,0.19387813,6.6339345
410,1747533737320,1.9453802,-1.9131647,1.1888028,-5.4333816,0.23595607,6.7282104
411,1747533737330,1.9520918,-1.9063311,1.2586032,-4.54069,-0.1486044,6.712764
412,1747533737340,2.0022457,-1.9021822,1.2681215,-4.0629187,-0.59228706,6.681339
413,1747533737350,2.1201253,-1.9151171,1.1844097,-3.5473306,-1.2538162,6.609966
414,1747533737360,2.2023726,-1.922927,1.1707426,-3.35158825,-1.5214639,6.567888099999999
415,1747533737370,2.251184,-1.9529461,1.3018013,-2.6919234,-2.2173479,6.464557
416,1747533737380,2.23483215,-1.94660055,1.31437025,-2.1124195,-2.3949808,6.5316688
417,1747533737390,2.1496563,-1.8982773,1.292039,-0.9768475,-2.5092304,6.7915936
418,1747533737400,2.1323283,-1.8497099,1.2049106,-0.5230448,-2.3249397,7.047257
419,1747533737410,2.195295,-1.8035831,1.0526189,-0.24607609,-2.016013,7.3220954
420,1747533737420,2.4915805,-1.6720362,0.8102701,-0.24714136,-1.1334413,7.608651
421,1747533737430,2.5770005,-1.63103455,0.74193405,-0.348607795,-0.95607482,7.569769
422,1747533737440,2.7517455,-1.5446383,0.6365013,-0.7057377,-0.5454154,7.4387417
423,1747533737450,2.7278278,-1.5124228,0.70190865,-0.88683265,-0.38722363,7.410512
424,1747533737460,2.668278,-1.4914337,0.7602383,-0.968858,-0.314253,7.4850807
425,1747533737470,2.77908,-1.5465908,0.93888825,-0.87564737,-0.5432849,7.833422
426,1747533737480,2.8442432,-1.5227952,0.970981725,-0.788562,-0.56778598,7.9263665
427,1747533737490,3.0204525,-1.4094306,1.0880072,-0.49215218,-0.5544701,8.177503
428,1747533737500,3.10331,-1.3606192,1.13816095,-0.31185617,-0.51585429,8.2203795
429,1747533737510,3.4546306,-1.1944162,1.0794652,0.11771172,-0.25566345,8.291486
430,1747533737520,3.74176395,-0.985503185,0.818323935,-0.0181094949999999,0.0170442499999999,8.2347605
431,1747533737530,4.20486265,-0.621491775,0.446258665,-0.375239405,0.390685755,8.01318535
432,1747533737540,4.5062733,-0.2888417425,0.2966515899999999,-1.0881677,0.51718587,7.3402047
433,1747533737550,4.6303763,0.0975008724999999,0.25259926,-1.3020195,0.48070057,7.07042635
434,1747533737560,4.322498,0.9476743,0.27554062,-1.84290755,0.233026596,6.35350335
435,1747533737570,4.190341,1.1054573,0.23929812,-2.3329292500000003,-0.094808534,5.76281435
436,1747533737580,3.8046086,1.488017,0.23380683,-2.9555762,-0.56938386,5.6363144
437,1747533737590,3.83487165,1.6769174,0.367794265,-2.99871945,-0.704406115,5.72739435
438,1747533737600,4.1540985,2.6075077,0.7663397,-2.747317,-1.1606057,5.8925104
439,1747533737610,5.389272,4.144092,0.83125895,-1.7726,-2.218946,5.3375077
440,1747533737620,5.858228,4.5264077,0.7592620750000001,-1.5377092,-2.3358587,4.93377235
441,1747533737630,6.6274965,5.2186762,0.58427306,-1.17338875,-2.3726102,3.99021425
442,1747533737640,7.4025,5.9740334,0.35534734,-0.92944324,-1.8492991,2.1534321
443,1747533737650,7.638992,6.1446295,0.2443013,-0.8996158,-1.2053467,0.6737798
444,1747533737660,7.439109,5.1686444,0.33142975,-0.9267801,-0.05486112,-2.744654
445,1747533737670,6.9795494,4.4088945,0.5801241,-0.8346347,0.24394555,-3.8866174
446,1747533737680,6.3801446,3.610827,0.7809832,-0.755006185,0.389886775,-4.3097936
447,1747533737690,5.7726865,2.8383858,0.9091133,-0.51984906,0.7728494,-5.3215284
448,1747533737700,5.1635194,2.1108513,0.9952655,-0.17044231,1.2500879,-5.933523
449,1747533737710,4.4315915,1.2163813,1.0892274,0.11984225,1.4881744,-6.058159
450,1747533737720,4.156783,0.93620354,1.1358424,0.5022722,1.6207999,-6.0704093
451,1747533737730,3.9788651,0.7124031,1.1182703,1.0301107,1.5696672,-5.9979715
452,1747533737740,3.917851,0.51471674,1.0335824,1.3896375,1.3582122,-6.016081
453,1747533737750,3.9207795,0.31532198,0.77366143,1.6602147,0.80587256,-6.385728
454,1747533737760,3.87733745,0.269805295,0.77524784,1.645301,0.66445868,-6.51968485
455,1747533737770,3.69283,0.110557936,0.916679,1.6170714,0.33182988,-6.891196
456,1747533737780,3.598136,-0.012446919,1.0755602,1.6644757,0.24234766,-7.0904
457,1747533737790,3.4773278,-0.14082102,1.2266316,1.7896442,0.29134983,-7.2448635
458,1747533737800,3.304779,-0.39464056,1.4230978,2.3835292,0.62104917,-7.548464
459,1747533737810,3.2447412,-0.5320448,1.4611707,2.7915256,0.69668293,-7.7258306
460,1747533737820,3.2071562,-0.64187056,1.4479916,3.244263,0.6854977,-7.9170456
461,1747533737830,3.1622498,-0.73510045,1.3845367,3.6890109,0.5811018,-8.110391
462,1747533737840,3.1430913,-0.77475974,1.34914845,3.89034595,0.501739575,-8.205199499999999
463,1747533737850,3.0748773,-0.95792466,1.001611,4.5587993,0.1272991,-8.601478
464,1747533737860,3.0714605,-0.99087243,0.957680675,4.60886665,0.065780079,-8.6904275
465,1747533737870,3.0680437,-1.0238202,0.91375035,4.658934,0.004261058,-8.779377
466,1747533737880,3.05242405,-1.0549375,0.879338225,4.694354000000001,-0.0639158659999999,-8.8843055
467,1747533737890,2.7895741,-1.2522577,0.601113,4.615791,-0.60240704,-9.363674
468,1747533737900,2.689755,-1.2329772,0.54253924,4.232828,-1.0679276,-9.2853775
469,1747533737910,2.6372826,-1.211012,0.46810177,3.9164448,-1.1302456,-9.153285
470,1747533737920,2.634842,-1.1873385,0.4253918,3.552657,-1.0684602,-9.032377
471,1747533737930,2.630205,-1.1745255,0.4361303199999999,3.3856768,-0.997886465,-8.9913645
472,1747533737940,2.5401478,-1.1597601,0.48176903,2.9758162,-0.74941355,-8.866729
473,1747533737950,2.5096407,-1.1946602,0.60989904,2.761698,-0.56885123,-8.681373
474,1747533737960,2.4198277,-1.2144289,0.66969305,2.7814054,-0.54807854,-8.535432
475,1747533737970,2.3893205,-1.22126245,0.71313524,2.82934235,-0.576574385,-8.469918
476,1747533737980,2.2265344,-1.227608,0.80246025,3.0328078,-0.68656296,-8.21745
477,1747533737990,2.15856435,-1.23248915,0.788915075,3.1158985,-0.68443243,-8.0866887
478,1747533738000,1.9595356,-1.2612879,0.7158199,3.3241577,-0.6631271,-7.6390114
479,1747533738010,1.5766098,-1.2239472,0.5864696,3.37395885,-0.7302387850000001,-7.24779295
480,1747533738020,1.4587301,-1.1912434,0.5874458,3.449859,-0.8330368,-6.470416
481,1747533738030,1.3586667,-1.1446284,0.60135704,3.4935348,-0.81066626,-6.124738
482,1747533738040,1.3125398,-1.1414558,0.6130718,3.5750275,-0.7142598,-5.8051586
483,1747533738050,1.1909994,-1.2603117,0.66066295,3.8674426,-0.72171664,-5.6421733
484,1747533738060,1.0125935,-1.3974718,0.6257628,4.045342,-0.7717841,-5.630988
485,1747533738070,0.6728658,-1.6305465,0.5132524,4.084224,-0.7699199,-5.5673385
486,1747533738080,0.16254212,-1.888759,0.3121492,3.9894154,-0.75793564,-5.213937
487,1747533738090,-0.201469265,-2.0380000000000003,0.27310004,3.3742251,-0.89322424,-4.183826
488,1747533738100,-0.8500514,-2.3553965,0.18353106,3.0642333,-0.8245147,-3.572897
489,1747533738110,-1.0643337,-2.4618053,0.093473926,2.5614283,-0.716923,-2.9300098
490,1747533738120,-1.2376143,-2.541856,-0.022697324,2.0660803,-0.61678815,-2.4304008
491,1747533738130,-1.3894179,-2.6570513,-0.06955632,1.0567423,-0.23755397,-1.3523532
492,1747533738140,-1.4360328,-2.6585157,-0.04881145,1.0567423,-0.23755397,-1.3523532
493,1747533738150,-1.4128474,-2.6548548,-0.058085624,0.4111921,0.35260254,-0.46658584
494,1747533738160,-1.3520772,-2.6824331,-0.2208718,0.15606125,0.4282363,-0.22956449
495,1747533738170,-1.4606826,-2.8152003,-0.5015376,-0.46978164,0.0026631611,0.008522116
496,1747533738180,-1.4606826,-2.8152003,-0.5015376,-0.46978164,0.0026631611,0.008522116
497,1747533738190,-1.48850515,-2.9271005,-0.6119735,-0.89588742,-0.29907299945,0.2761698079999999
498,1747533738200,-1.5236495,-3.1097775,-0.7524285,-1.80296,-0.7813715,0.799481
499,1747533738210,-1.615659,-3.1620057,-0.7380291,-2.352104,-0.8229168,1.0785803
500,1747533738220,-1.8083422,-3.18555715,-0.592082875,-2.9081720000000004,-0.656735535,1.5203987
501,1747533738230,-2.0820522,-3.1805542,-0.13740423,-3.8562574,-0.16245283,2.5422537
502,1747533738240,-2.06448015,-3.14479975,-0.0074437429999999,-3.94707105,0.030093725,2.80856975
503,1747533738250,-1.9458685,-3.0092258,0.29774985,-4.060788,0.61838603,3.5494611
504,1747533738260,-1.8148097,-2.9211211,0.3316738,-4.046407,1.0173275,3.989948
505,1747533738270,-1.6191978,-2.81446815,0.264680085,-4.1531998,1.35874475,4.5103295
506,1747533738280,-1.1231514,-2.5940845,0.20159128,-4.4267063,1.8583539,5.466937
507,1747533738290,-0.79611474,-2.4659543,0.26577836,-4.5401573,1.9473034,5.8360515
508,1747533738300,-0.46639338,-2.3346517,0.35193056,-4.5715823,2.011752,6.159359
509,1747533738310,0.3270367,-2.0730224,0.5271637,-4.4858284,2.111354,6.7282104
510,1747533738320,0.67750293,-1.9422076,0.6128277,-4.395814,2.0628846,6.983874
511,1747533738330,0.8739690649999999,-1.8772884,0.65077865,-4.3492086,2.0250677,7.07282335
512,1747533738340,1.248841,-1.75855455,0.722043375,-4.26744935,1.9379823,7.2126391
513,1747533738350,1.6998588,-1.6229807,0.8964222,-4.2083273,1.8242654,7.3263564
514,1747533738360,1.8580079,-1.5958903,1.1026506,-4.140683,1.8056233,7.439807
515,1747533738370,2.00785895,-1.5343879,1.2895985,-3.980627,1.8277275,7.566307
516,1747533738380,2.2443504,-1.4565337,1.54244185,-3.738812,1.8951055,7.70132915
517,1747533738390,2.44777215,-1.4165083,1.6512914,-3.5918055,1.98192465,7.66404515
518,1747533738400,2.6780403,-1.3347491,1.777957,-3.4205642,2.016013,7.4557858
519,1747533738410,2.5340464,-1.2688537,2.021038,-3.0029805,1.9483687,7.2390046
520,1747533738420,2.4881636,-1.27300265,2.0403186,-2.81868975,2.02054035,7.2648373
521,1747533738430,2.40152325,-1.27971415,2.0124961,-2.52893785,2.1925805,7.3271555
522,1747533738440,2.33440755,-1.2932593,1.9079175,-2.39125235,2.37687125,7.40332185
523,1747533738450,2.4549718,-1.257627,1.7367114,-2.408563,2.5848641,7.4770913
524,1747533738460,2.520379,-1.1863623,1.6993706,-2.6993802,2.7084348,7.3465962
525,1747533738470,2.5501542,-1.155611,1.7345148,-2.91989,2.6684875,7.2043834
526,1747533738480,2.5430765,-1.138039,1.8372629,-3.073288,2.582201,7.0419307
527,1747533738490,2.5428325000000003,-1.14218795,1.8926639,-3.0807449,2.5576999,6.9559107
528,1747533738500,2.32855,-1.2217506,1.94416,-2.915629,2.4016387,6.7686906
529,1747533738510,2.2736373,-1.2676333,1.8223755,-2.9332056,2.2615564,6.892261
530,1747533738520,2.3036563,-1.270562,1.7264609,-3.0178943,1.9457055,7.06004
531,1747533738530,2.4400845,-1.2427394,1.7091328,-3.0738206,1.4114754,7.188937
532,1747533738540,2.54978825,-1.18758245,1.73719945,-3.04452585,1.09296133,7.1969265
533,1747533738550,3.000684,-0.82003236,1.9507496,-2.8133633,0.25406557,7.1724257
534,1747533738560,3.1573687,-0.6186851,1.9753993,-2.0165455,0.15819177,7.1697626
535,1747533738570,3.3765318,-0.4183141,1.8726513,-1.5153387,0.74302197,7.0163646
536,1747533738580,3.5449314,-0.14570218,1.5502517,-1.3571469,1.2724584,6.6877303
537,1747533738590,3.606678,0.10836142,1.0801975,-1.5441009,1.6889768,6.181197
538,1747533738600,3.5527413,0.44052333,0.26553428,-2.871953,2.1875205,5.1004863
539,1747533738610,3.3748236,0.5847612,0.07834238,-3.8184404,2.3094933,4.734035
540,1747533738620,3.2047157,0.72582626,0.10909359,-4.7276435,2.2210765,4.463458
541,1747533738630,3.0123987,0.83760446,0.24796216,-5.4530888,2.016013,4.2935486
542,1747533738640,2.818129,0.9669548,0.43173727,-5.9532304,1.7630126,4.279167
543,1747533738650,2.9377172,1.3947871,0.8324793,-6.033658,1.0583402,4.6381617
544,1747533738660,3.2715874,1.8001662,1.0391958,-5.5867796,0.6061355,4.785168
545,1747533738670,3.56592035,2.0420269,1.1355984,-5.2331116,0.325171987,4.7755805
546,1747533738680,4.1174898,2.5863967,1.26763335,-4.4354948,-0.2860234929999999,4.609932000000001
547,1747533738690,5.03795165,3.56299175,1.42370795,-3.4147052,-0.94968328,4.20939265
548,1747533738700,6.254455,4.760337,1.4655638,-0.099069595,-1.9297266,2.5992453
549,1747533738710,6.777226,5.1464353,1.2251674,1.1744541,-1.9558256,1.4721955
550,1747533738720,6.908406749999999,5.17608815,1.03138593,1.65515465,-1.9851203,0.811198895
551,1747533738730,7.03238775,5.050520499999999,0.534851445,2.33692385,-2.13958355,-0.686829255
552,1747533738740,6.4484806,3.833407,-0.7551131,1.9787288,-2.2258701,-3.5270905
553,1747533738750,6.13926,3.34212,-0.8639627,-0.9779128,-1.222391,-4.2205777
554,1747533738760,5.931567,2.877191,-0.5879339,-1.8032264,-0.718254575,-4.5513423500000005
555,1747533738770,5.76084915,2.6309372,-0.2443013,-3.20697865,0.31265511,-5.2024852
556,1747533738780,5.39952265,2.15612375,0.4455265,-4.01498185,1.257278335,-5.7883807
557,1747533738790,4.6485586,1.21931,1.8526386,-4.075169,2.0250678,-6.4427195
558,1747533738800,4.440866,0.94669807,2.1967592,-3.21869645,1.74836535,-6.76016825
559,1747533738810,4.23781,0.6919023,2.3346517,-1.4876418,1.037035,-7.300257
560,1747533738820,4.09515865,0.5648705,2.4244647,-1.05381285,0.84688527,-7.35485185
561,1747533738830,3.8038764,0.32898917,2.63471995,-0.12996226,0.48789112,-7.3990605
562,1747533738840,3.3765318,0.035144243,2.9733496,0.91666009,0.171241259,-7.322361499999999
563,1747533738850,3.098795,-0.24942651,2.9914095,3.8503983,-0.22796659,-6.8395305
564,1747533738860,3.0748773,-0.31019676,2.7903066,4.833637,-0.3552657,-6.6802735
565,1747533738870,3.11990585,-0.32386397,2.6691321500000003,5.220594500000001,-0.43382895,-6.64059225
566,1747533738880,3.2355889,-0.350954325,2.4330066500000003,5.950301,-0.6277070849999999,-6.6424565
567,1747533738890,3.39166355,-0.3882950699999999,2.21042645,6.6728168,-0.98377174,-6.9087725
568,1747533738900,3.54395535,-0.491531285,1.9223169,7.122891,-1.5089471,-7.5926723
569,1747533738910,3.620345,-0.6877533,1.5375606,7.176154,-1.7757958,-7.9996033
570,1747533738920,3.5853229,-0.7652415,1.4119931499999998,7.133277,-1.8836539,-8.191617650000001
571,1747533738930,3.4978285,-0.97647303,1.0684826,6.9609705,-2.0855215,-8.541557000000001
572,1747533738940,3.4512135,-1.013691815,0.97781535,6.6232817,-2.2245385,-8.824117999999999
573,1747533738950,3.287939,-1.1780643,0.68091977,5.2272525,-2.2327943,-9.340239
574,1747533738960,3.1649344,-1.2561626,0.5933032,4.610997,-2.194445,-9.418003
575,1747533738970,3.0534003,-1.3720899,0.54986095,3.91751,-2.076733,-9.33225
576,1747533738980,3.03204525,-1.3796557,0.577561475,3.2421324,-2.0117519,-9.280052
577,1747533738990,3.0421734,-1.4245622,0.6794554,1.9909793,-1.7528926,-9.116
578,1747533739000,3.0726807,-1.4609268,0.79391825,1.5259913,-1.4871092,-9.024388
579,1747533739010,3.0385127,-1.496071,1.01479,1.2777847,-1.1914983,-8.938634
580,1747533739020,2.7500372,-1.5309712,1.4147999,1.7028252,-0.7121293,-8.77778
581,1747533739030,2.5306296,-1.543174,1.4899695,2.1369205,-0.5752428,-8.580706
582,1747533739040,2.3121984,-1.5456146,1.4592183,2.606702,-0.5075985,-8.281366
583,1747533739050,2.1367211,-1.5409775,1.3696493,3.0376017,-0.5906891,-7.9372854
584,1747533739060,1.9922394,-1.5011961,1.261776,3.3843453,-0.83516735,-7.61238
585,1747533739070,1.9149953,-1.436643,1.1246158,3.5976645,-1.141430875,-7.3322153
586,1747533739080,1.7878414500000002,-1.34975865,0.9103335,3.83548475,-1.56141135,-6.914099
587,1747533739090,1.6726464,-1.30460805,0.75816383,3.8309573,-1.76381155,-6.6328692
588,1747533739100,1.513399,-1.2302926,0.56816524,3.639476,-1.9084213,-6.1108894
589,1747533739110,1.4694687,-1.1929518,0.47151858,3.5020568,-1.7630126,-5.8477693
590,1747533739120,1.3323085,-1.2510375,0.2421048,3.2458608,-1.1307782,-5.4546866
591,1747533739130,1.2761754,-1.3249868,0.07614586,3.1377366,-0.87618,-5.2917013
592,1747533739140,1.1292529,-1.449456,-0.15863721,2.9273467,-0.8383631,-5.098356
593,1747533739150,0.8578612,-1.5995512,-0.35925224,2.5598304,-1.0029465,-4.8757153
594,1747533739160,0.57988,-1.66495855,-0.32972133,1.8785939,-1.5744609,-4.4815674
595,1747533739170,0.1820667,-1.8389714,-0.258822715,1.79843275,-1.6628778,-4.37717155
596,1747533739180,-0.1088495299999999,-2.0802219500000003,-0.1442378325,1.6948358,-1.8021611,-4.078365
597,1747533739190,-0.6372335,-2.3912728,0.01854835,1.7196032,-1.77393165,-3.68368465
598,1747533739200,-1.0003906,-2.583346,-0.008297946,1.9052255,-1.4647386,-2.9694247
599,1747533739210,-1.4931422,-2.8754826,-0.31385764,1.9414445,-1.6623452,-1.7251958
600,1747533739220,-1.5667254000000002,-2.9310055000000004,-0.4551667699999999,1.79097585,-1.789378,-1.45648285
601,1747533739230,-1.6874117,-3.0077615,-0.6760385499999999,1.37312585,-2.0599552,-0.99362545
602,1747533739240,-1.765022,-3.047299,-0.8070973,0.4282363,-2.304167,-0.4910869
603,1747533739250,-2.5052476,-3.2371752,0.10518867,0.96939063,-1.530785,0.36432046
604,1747533739260,-2.0315325,-3.061454,-0.57329047,-0.15393071,-2.0873857,0.66845345
605,1747533739270,-1.900962,-3.0297267,-1.3118078,-1.7587516,-2.290851,0.97418433
606,1747533739280,-1.8292091,-3.086104,-1.3393861,-3.4402716,-2.082592,1.2538162
607,1747533739290,-1.4560456,-3.1966617,-0.5603554,-4.4874268,-1.2772521,1.2186625
608,1747533739300,-1.8162742,-3.158589,0.68360436,-4.9849052,0.3158509,1.3646038
609,1747533739310,-2.1123154,-3.1561484,1.197833,-4.378237,0.6514092,1.7603495
610,1747533739320,-2.21726,-3.0987949,1.40198685,-3.8163099,0.5784386,2.03785085
611,1747533739330,-2.31268645,-2.95785185,1.66117565,-2.41442185,0.2042644675,2.6565032
612,1747533739340,-2.0513012,-2.6755996,1.4538491,-0.5289038,-0.51665324,3.4067156
613,1747533739350,-1.539025,-2.309758,0.6621273,-0.10439592,-0.30945933,4.111921
614,1747533739360,-1.206619,-2.1423345,0.48201308,-0.48735848,0.18002969,4.4629254
615,1747533739370,-0.8776299,-1.9810127,0.4471129,-0.99762017,0.6625945,4.8000817
616,1747533739380,-0.47713193,-1.846049,0.5940353,-1.4306501,0.9827065,5.120726
617,1747533739390,0.29091623,-1.654708,0.9947773,-1.6580842,1.2117383,5.442969
618,1747533739400,0.7080101,-1.5443943,1.0196712,-1.6282567,1.5701998,5.9921126
619,1747533739410,1.0211354,-1.4435986,0.8849516,-1.7294569,1.8002969,6.148174
620,1747533739420,1.1668377,-1.3911263,0.7604824,-2.040514,2.1486385,6.301572
621,1747533739430,1.25469835,-1.38453675,0.74156795,-2.27620375,2.42347675,6.41422375
622,1747533739440,1.7528191,-1.4250503,0.8180799,-3.6448023,3.9446743,6.95884
623,1747533739450,1.8992535,-1.5155954,0.91863143,-4.206197,4.3809,7.1681647
624,1747533739460,2.0412948,-1.582223,1.0904478,-4.6962185,4.6264434,7.4206324
625,1747533739470,2.208474,-1.6022359,1.3413386,-5.00408,4.7319045,7.6635127
626,1747533739480,2.30280215,-1.60858135,1.45824205,-5.0962253,4.7585363,7.833422
627,1747533739490,2.6028705,-1.6381122,1.884366,-4.6237803,4.3105927,7.9809613
628,1747533739500,2.617514,-1.6466542,1.9192662,-4.1827607,3.8013961,7.949003
629,1747533739510,2.5938404,-1.6320108,1.9046228,-3.6384108,3.206446,7.8765655
630,1747533739520,2.56882455,-1.6323769,1.85727565,-3.3601104,2.9166941,7.84860225
631,1747533739530,2.52965335,-1.64433575,1.71279375,-2.855974,2.36515345,7.80705685
632,1747533739540,2.5190369500000003,-1.61748945,1.3418268,-2.5001757500000004,1.9249329,7.770837849999999
633,1747533739550,2.4866993,-1.5790504,0.8671354,-2.58806,1.5797871,7.6528597
634,1747533739560,2.502807,-1.5902771,0.80563295,-3.0866039,1.73212,7.7790937
635,1747533739570,2.502807,-1.5902771,0.80563295,-3.0866039,1.73212,7.7790937
636,1747533739580,2.741617,-1.54244185,0.910089475,-3.8839542,1.8506307,8.00013585
637,1747533739590,2.980427,-1.4946066,1.014546,-4.6813045,1.9691414,8.221178
638,1747533739600,3.1969059,-1.4140676,1.598575,-4.992362,2.1843247,7.9314265
639,1747533739610,3.1144145,-1.4958268,1.7245085,-4.8757153,2.2397184,7.820639
640,1747533739620,3.02545575,-1.5413435,1.7500125,-4.674913,2.0900488,7.842477
641,1747533739630,2.8767028,-1.5746574,1.8257922,-4.343616,1.7198695,7.9458075
642,1747533739640,3.2330263,-1.3039979,1.6903405,-3.4972632,0.3920173,7.940481
643,1747533739650,3.3462691,-1.1048472,1.6039442,-3.294863,-0.08894958,7.9111867
644,1747533739660,3.5861773,-0.9225364,1.5592817,-3.2735577,-0.1949434,7.9458075
645,1747533739670,3.70979215,-0.8117344200000001,1.54354,-3.35371885,-0.0282295149999999,7.94341075
646,1747533739680,3.9715438,-0.42514774,1.4533609,-3.792874,0.78296936,7.8483357
647,1747533739690,4.26368,0.07834238,1.4055257,-4.6552057,2.0005667,7.1479244
648,1747533739700,4.089179,0.29067218,1.4770344,-4.8751826,2.2168152,6.628608
649,1747533739710,3.8485386,0.45589894,1.530483,-4.903945,2.1038973,6.1668158
650,1747533739720,3.7367603,0.566944985,1.51339895,-4.8285775,1.86021805,5.9468389
651,1747533739730,3.4675655,1.0621371,1.4758141,-4.354801,0.29188246,5.312474
652,1747533739740,3.5376098,1.2376143,1.5024164,-4.354801,0.29188246,5.312474
653,1747533739750,3.8028998,1.4911898,1.5319474,-3.8227015,-1.0428939,5.5335164
654,1747533739760,4.2771034,1.939767,1.5958903,-3.5851476,-1.4498249,5.694904
655,1747533739770,4.58522555,2.16100485,1.6353056,-3.46796845,-1.546764,5.656288
656,1747533739780,5.7399826,2.9174602,1.7877192,-3.0621028,-1.5387745,4.977448
657,1747533739790,6.1126578,3.5180851,1.9235371,-2.0122845,-0.5763081,2.637062
658,1747533739800,6.7147474,4.467956,1.9990729,-1.3933659,-0.15073492,1.5478293
659,1747533739810,6.7718563,4.608777,1.9073074,-1.08337395,-0.0703074539999999,0.988299115
660,1747533739820,6.86008335,4.5096898,1.5954022,-0.508397465,-0.155794929,-0.6873618850000001
661,1747533739830,6.913898,3.9791093,0.98818773,-0.56459016,-0.2615224,-3.025351
662,1747533739840,6.466297,3.508811,0.9784255,-1.0711234,0.1257012,-4.078365
663,1747533739850,5.9620743,2.8752384,1.0492021,-1.6314526,0.7749799,-4.8000817
664,1747533739860,5.5662136,2.2104263,1.2012497,-2.1459754,1.5078819,-5.24696
665,1747533739870,5.5662136,2.2104263,1.2012497,-2.3462450500000003,2.02560045,-5.558816
666,1747533739880,4.7137218,0.9535317,2.2314155,-2.34304915,2.6019085,-5.9838565
667,1747533739890,4.62366465,0.807097325,2.425807,-1.7251957999999998,2.624279,-6.1969095
668,1747533739900,4.392786,0.39756927,2.9169724,-0.11664646,2.305765,-6.461894
669,1747533739910,4.1326213,-0.04807928,2.903305,1.2825783,1.7859159,-6.5684204
670,1747533739920,4.07648815,-0.12422514,2.7645585,2.50017565,1.2444952,-6.66029955
671,1747533739930,3.9639778,-0.26895109,2.46290385,4.10579565,0.554203815,-6.8094366
672,1747533739940,3.8046086,-0.44833317,1.9885784,4.7643955,0.317182495,-6.96310095
673,1747533739950,3.6545134,-0.54156303,1.692781,5.1984906,0.18748654,-7.2129054
674,1747533739960,3.5420027,-0.6445552,1.5226732,5.2000885,0.15286545,-7.3348784
675,1747533739970,3.45597245,-0.751818385,1.4993657,5.1846421,0.138218065,-7.424360699999999
676,1747533739980,3.3335779,-0.9664667,1.4931422,5.2815814,0.06391586,-7.680557
677,1747533739990,3.2762244,-1.0606729,1.4872849,5.456817,-0.12357068,-7.9063926
678,1747533740000,3.209353,-1.172451,1.4987555,5.686382,-0.45806372,-8.138088
679,1747533740010,2.936497,-1.3740423,1.4601945,6.023538,-0.96033591,-8.362326
680,1747533740020,2.88304845,-1.4229758,1.38661125,6.448312,-1.6695357,-8.659801
681,1747533740030,2.7953098,-1.50095205,1.2233369500000002,6.5396585,-2.2237396,-8.855011
682,1747533740040,2.6912193,-1.5624546,0.9691513,6.3809342,-2.4596956,-8.947689
683,1747533740050,2.6580274,-1.5875924,0.6279593,6.2091603,-2.5169536,-8.997489999999999
684,1747533740060,2.545029,-1.5783182,0.56645685,5.000884,-2.427205,-9.127719
685,1747533740070,2.5197691,-1.5703863999999998,0.5690194749999999,4.4586644,-2.3515713,-9.020126
686,1747533740080,2.4449656,-1.5463467,0.59135073,3.953729,-2.2876554,-8.833173
687,1747533740090,2.4156787,-1.5131549,0.63162017,3.4035199,-2.1805964,-8.517322
688,1747533740100,2.36161995,-1.45494725,0.7039831599999999,3.23973545,-2.09058155,-8.370049
689,1747533740110,2.2319036,-1.3100992,0.84248555,2.8160267,-1.5675366,-7.688546
690,1747533740120,2.1045055,-1.2219946,0.8927614,2.8447888,-1.4402375,-7.492005
691,1747533740130,2.0453216000000003,-1.1773321499999998,0.90862512,2.9305425,-1.3938985,-7.299192
692,1747533740140,1.9068193,-1.0604287,0.92497694,3.0509174,-1.3986923,-7.1420655
693,1747533740150,1.8048034,-0.97744924,0.8417535,3.2650356,-1.4908376,-6.934339
694,1747533740160,1.7518429,-0.98208636,0.80123997,3.3268209,-1.6010925,-6.8086376
695,1747533740170,1.69693,-0.9862353,0.7919658,3.3928673,-1.7454358,-6.6035743
696,1747533740180,1.6475084,-0.9758629,0.775858,3.4237599,-1.7723337,-6.50530365
697,1747533740190,1.4509203,-0.93229866,0.7385172,3.512177,-1.8050907,-6.171077
698,1747533740200,1.3847809,-0.84614646,0.7004443,3.7065878,-1.7092168,-5.839247
699,1747533740210,1.2595794,-0.78659654,0.6213697,3.7854173,-1.6101472,-5.759352
700,1747533740220,1.0206474,-0.7568215,0.5835409,3.8221688,-1.4935007,-5.5814533
701,1747533740230,0.82076454,-0.74510676,0.53058046,3.8173752,-1.3385048,-5.265602
702,1747533740240,0.5598673,-0.7473033,0.46029195,3.7752972,-1.1627362,-4.867193
703,1747533740250,0.55791485,-0.7682922,0.45736328,3.7673078,-1.0705907,-4.0559945
704,1747533740260,0.528628,-0.8510276,0.45516676,3.8312237,-1.1973573,-3.9489353
705,1747533740270,0.449675475,-0.89507995,0.4301509,3.8594532,-1.33371115,-3.93854895
706,1747533740280,0.29421101,-1.0095428,0.35156447,3.87729635,-1.6144083,-3.90579215
707,1747533740290,-0.15961345,-1.517304,-0.033679903,3.2692966,-1.979794,-3.6000612
708,1747533740300,-0.37194324,-1.6193199,-0.174745,2.615757,-1.9483687,-3.3779535
709,1747533740310,-0.5298483,-1.7374434,-0.25845662,1.8258632,-1.8002969,-3.129747
710,1747533740320,-0.64138246,-1.9041346,-0.28505886,0.77604514,-1.4045511,-2.8639636
711,1747533740330,-0.7739055,-2.1208575,-0.27310005,-0.053795855,-1.0892329,-2.698315
712,1747533740340,-0.9196077,-2.3546643,-0.2072046,-0.79735047,-0.8580705,-2.6759443
713,1747533740350,-1.3137602,-2.9062338,0.060770255,-1.8125474,-0.92092115,-2.744654
714,1747533740360,-1.564407,-3.2159424,0.18816814,-2.1789985,-1.0961571,-2.6381273
715,1747533740370,-1.66898555,-3.3218633,0.2247767199999999,-2.33266285,-1.13424035,-2.49325145
716,1747533740380,-1.828599,-3.52723755,0.263337765,-2.6565032,-1.1446267,-2.1563616
717,1747533740390,-2.4798658,-3.8492708,0.13179092,-3.6895435,-0.56885123,-1.009338
718,1747533740400,-2.6248357,-3.7711725,0.7080101,-3.7241645,-0.38722363,-0.32756883
719,1747533740410,-2.4073806,-4.1204185,0.65993077,-3.8717036,0.06764429,0.39468047
720,1747533740420,-2.4363015,-3.9660524,0.823815185,-3.7643783,0.3824299249999999,0.8008125349999999
721,1747533740430,-2.3427055,-3.5581107,1.1243718,-3.1798143,1.1387677,1.9446403
722,1747533740440,-1.6488507,-3.0475428,0.65993077,-2.828277,1.5483619,2.6519759
723,1747533740450,-1.2681215,-2.7641923,0.4334457,-2.6802053,2.4458473,3.6389434
724,1747533740460,-0.8236932,-2.5133016,0.24356914,-2.8277445,2.7872643,3.8882153
725,1747533740470,-0.49982923,-2.2489874,0.1313028,-3.0067089,2.9822078,4.035754
726,1747533740480,-0.28994003,-1.9876022,0.0959145,-3.0772827,2.9510489,4.125769
727,1747533740490,-0.22563094,-1.89876535,0.094694213,-3.17768385,2.7923245000000003,4.3297675
728,1747533740500,0.34216827,-1.5829554,0.21818718,-3.2389367,2.130529,5.09516
729,1747533740510,0.6789673,-1.4353007,0.29042813,-3.2415998,1.963815,5.35828
730,1747533740520,0.82369325,-1.3658664,0.309342565,-3.29619455,1.91827495,5.473595
731,1747533740530,1.1678139,-1.2002735,0.40952805,-3.552657,1.8381138,5.8461714
732,1747533740540,1.3369455,-1.1072878,0.55645055,-3.7864826,1.8439728,6.1194115
733,1747533740550,1.8160299,-0.99453324,1.189535,-3.8440068,1.7102821,6.4160876
734,1747533740560,1.9383026,-0.8876362,1.6288381,-3.353985,1.5542208,6.359096
735,1747533740570,1.9793042,-0.8639627,1.833358,-2.6881948,1.3805827,6.2877235
736,1747533740580,2.0066388,-0.93156654,1.6554403,-1.6532904,1.164334,6.165218
737,1747533740590,2.0066388,-0.93156654,1.6554403,-1.6532904,1.164334,6.165218
738,1747533740600,1.9387908,-0.9791577,1.2363939,-1.6085494,1.242631,6.3116918
739,1747533740610,2.0310445,-0.99550945,1.0880072,-1.923335,1.4849787,6.3846626
740,1747533740620,2.076439,-0.94279313,1.0160104,-2.48259885,1.84423915,6.4578995500000005
741,1747533740630,2.0517893,-0.95377576,1.0799533,-3.5334823,2.5486453,6.627543
742,1747533740640,1.9949238,-1.002099,1.142432,-3.9212384,2.8160267,6.7148943
743,1747533740650,1.9302487,-1.0584763,1.2012497,-4.2051315,2.9060414,6.7798758
744,1747533740660,1.892908,-1.0889834,1.3315763,-4.3542686,2.654639,6.9178276
745,1747533740670,1.7872313,-1.0960611,1.3716017,-4.3398876,2.3819313,7.0089073
746,1747533740680,1.7716116,-1.10960625,1.38160805,-4.27197695,2.1718079,7.064833849999999
747,1747533740690,1.73109805,-1.1319375,1.37208985,-4.115649149999999,1.7417074,7.19373105
748,1747533740700,1.7479379,-1.1824573,1.2703179,-3.87703,1.0929613,7.4627104
749,1747533740710,1.9179238,-1.1728171,1.22272675,-3.8666437,0.9901633,7.51544095
750,1747533740720,2.1663742,-1.138039,1.1293749,-3.9707732,0.9203885,7.587612399999999
751,1747533740730,2.37736175,-1.0808075499999998,1.0492021,-4.319381,0.98883175,7.62329865
752,1747533740740,2.8127596,-1.027481,1.0794652,-5.119128,1.1419635,7.626761
753,1747533740750,3.0599897,-1.0308977,1.2564068,-5.652293,1.3763217,7.591607
754,1747533740760,3.175673,-1.0460293,1.4748379,-6.06242,1.7598169,7.5388765
755,1747533740770,3.1108757,-1.04017195,1.7528191,-6.0778666,2.066613,7.6256957
756,1747533740780,3.0807346,-1.0296775,2.07448665,-5.93219165,1.89563805,7.7862842
757,1747533740790,3.2712214,-0.97561885,2.15197485,-5.655488999999999,1.4319817,8.024903349999999
758,1747533740800,3.62632465,-0.818690065,2.17296375,-5.4011569,0.82131887,8.056595
759,1747533740810,4.574121,-0.32850105,2.0268953,-5.2565475,-0.026631612,7.1447287
760,1747533740820,4.51872,-0.26321574,2.0361695500000003,-5.33404545,0.189084444,6.93966535
761,1747533740830,4.3564218,-0.20842489,2.1239082,-5.48904135,0.6364955,6.69785025
762,1747533740840,4.173623,-0.18255483,2.41275,-5.490906,1.158475,6.803844
763,1747533740850,4.21975,0.028554698,2.5826137,-5.083975,1.1888351,7.022756
764,1747533740860,4.414263500000001,0.456387024,2.66827785,-4.028563999999999,0.514522715,7.2110415
765,1747533740870,5.1398454,1.4660518,2.6338658,-2.32866805,-0.559263835,7.32795415
766,1747533740880,5.7141123,2.2550888,2.361254,-0.3898868,-1.7699369,6.841661
767,1747533740890,6.0411489,2.6923174,2.09181475,0.08708535,-2.11721305,6.4773405
768,1747533740900,6.949042,4.727389,0.42636803,0.8474179,-2.8165593,5.1367054
769,1747533740910,7.3451467,5.2240453,0.12324891,-0.080960095,-1.7166736,2.8927257
770,1747533740920,7.32806255,5.43906,0.098111015,-0.3840278475,-1.1145329,2.38858925
771,1747533740930,7.3561292,5.802827349999999,0.123248915,-0.83303682,0.19121495,1.24582677
772,1747533740940,7.558209,6.0230885,0.25723633,-0.8586032,1.3278521,-0.6828345
773,1747533740950,7.1545377,5.274321,0.3807293,-0.66978505,0.861266285,-2.1505026
774,1747533740960,6.6324997,4.5255537,0.37072295,-0.61572284,0.041012682,-4.838964
775,1747533740970,6.29081965,4.07270535,0.452848225,-0.79069254,0.046605321,-5.2743907
776,1747533740980,5.6351598,3.2670723,0.728144825,-1.11906032,0.14940334,-5.954029200000001
777,1747533740990,5.023918,2.29365,1.4716653,-1.325189,0.36591834,-6.506635
778,1747533741000,4.823059,1.4680043,2.519403,-0.108124346,0.35952675,-7.235809
779,1747533741010,4.7898674,1.0106411,2.8103192,0.83516735,0.24980451,-7.5681715
780,1747533741020,4.7229957,0.81698165,2.8502226,1.336640575,0.20479709,-7.70159575
781,1747533741030,4.5776595,0.4557769,2.85278525,2.3068302000000003,0.103863285,-7.929296
782,1747533741040,4.25465,-0.25040275,2.4866993,4.2775693,-0.5294364,-8.324509
783,1747533741050,4.137747,-0.4888467,2.2946262,4.833637,-0.9369001,-8.497082
784,1747533741060,4.003271,-0.673598,2.170645,5.3044844,-1.3267869,-8.647817
785,1747533741070,3.9245625,-0.7516963000000001,2.1213455,5.514874,-1.5057513,-8.69389
786,1747533741080,3.6635432,-0.9652464,1.943916,6.0704093,-1.9169434,-8.763398
787,1747533741090,3.2728076,-1.1822133,1.4475036,6.319681,-2.0873857,-8.767126
788,1747533741100,3.145654,-1.2219946,1.1929518,6.212622,-2.3995082,-8.849685
789,1747533741110,3.0228932,-1.2376143,0.989164,5.924468,-2.569418,-8.899752
790,1747533741120,2.9567536,-1.24640035,0.91814335,5.526059,-2.6594326,-8.937569
791,1747533741130,2.82081365,-1.2666571,0.79672487,5.2895705,-2.675678,-8.9404985
792,1747533741140,2.5460052,-1.3449996,0.72655845,4.5529404,-2.583799,-8.908807
793,1747533741150,2.4735203,-1.3835605,0.76121455,3.6309538,-2.5449169,-8.817194
794,1747533741160,2.4105535,-1.4035733,0.80416864,3.1244206,-2.5449169,-8.639828
795,1747533741170,2.378948,-1.4049155999999998,0.83052682,2.9465215,-2.5393242000000003,-8.5378285
796,1747533741180,2.2882807,-1.3745304,0.91863143,2.62294745,-2.48765875,-8.3016055
797,1747533741190,2.2582617,-1.2078394,1.1053354,2.214152,-2.1821942,-7.501592
798,1747533741200,2.3048768,-1.159516,1.2215066,2.251969,-2.1230721,-7.2027855
799,1747533741210,2.3314788,-1.1375508,1.2900866,2.3579628,-2.1060278,-6.941263
800,1747533741220,2.3158592,-1.1209549,1.2897205,2.4240092,-2.0732709,-6.820888200000001
801,1747533741230,2.2258022,-1.0452971,1.2773956,2.62854,-1.8913771,-6.4991784
802,1747533741240,2.16417765,-1.00124482,1.27312465,2.8000476,-1.7246631,-6.3409867
803,1747533741250,1.7930887,-0.84565836,1.1631769,3.097789,-1.3837786,-6.152435
804,1747533741260,1.7930887,-0.84565836,1.1631769,3.097789,-1.3837786,-6.152435
805,1747533741270,1.3279155,-0.8429737,0.88373125,3.3023198,-0.88470215,-5.6000953
806,1747533741280,1.3279155,-0.8429737,0.88373125,3.3023198,-0.88470215,-5.6000953
807,1747533741290,1.0384636,-0.82003236,0.80563295,3.4317493,-0.9289106,-5.1564126
808,1747533741300,0.88031447,-0.8195442,0.7299752,3.4951327,-1.0359697,-4.9060755
809,1747533741310,0.73583263,-0.8241814,0.63357264,3.486078,-1.2282499,-4.567854
810,1747533741320,0.6023333,-0.8363842,0.56718904,3.428021,-1.4008228,-4.327104
811,1747533741330,0.55840296,-0.80685323,0.54766446,3.3939326,-1.5616777,-4.153466
812,1747533741340,0.4195344,-0.7636551,0.44345203,3.2959282,-1.8540928,-3.9755669
813,1747533741350,0.2238005,-0.8664033,0.4271002,3.1782165,-1.8429075,-3.8727689
814,1747533741360,-0.05344854,-0.9366917,0.47078642,3.0823426,-1.6911073,-3.653857
815,1747533741370,-0.195245795,-0.964026125,0.50788311,3.08687005,-1.5651398,-3.47515895
816,1747533741380,-0.490311,-1.074340025,0.54192912,3.2133703,-1.24023415,-2.8181571
817,1747533741390,-0.647972,-1.2510375,0.48201308,3.5089812,-0.9502159,-2.0032299
818,1747533741400,-0.5640163,-1.4074782,0.33191785,3.632552,-0.90494215,-1.7971011
819,1747533741410,-0.45370242,-1.5812469,0.024649782,3.5148401,-0.94329166,-1.7443706
820,1747533741420,-0.36901456,-1.704984,-0.3802412,2.9763489,-1.0743192,-1.8951055
821,1747533741430,-0.7592621,-1.8184706,-0.9610975,0.8516789,-1.303351,-2.2162826
822,1747533741440,-0.8681116,-2.0122519,-1.0394398,-0.47404268,-1.3273195,-2.211489
823,1747533741450,-0.8844635,-2.251184,-0.98574716,-1.8477012,-1.3076121,-2.2434468
824,1747533741460,-0.87323684,-2.5211112,-0.8297946,-3.2037828,-1.2186625,-2.4064324
825,1747533741470,-1.01515612,-2.8636456,-0.5513253,-4.4107274,-0.8215852,-2.5976473
826,1747533741480,-1.4892373,-3.4712262,0.12032023,-6.147641,-0.018109497,-2.7153592
827,1747533741490,-1.8267684,-3.674038,0.5440036,-6.2227426,0.2231729,-2.401106
828,1747533741500,-2.1176848,-3.774101,0.90423214,-5.88026,0.30945933,-1.8343854
829,1747533741510,-2.2924297,-3.79387,1.1707426,-5.2070127,0.23382555,-1.0578076
830,1747533741520,-2.31805565,-3.7248018,1.18123705,-4.32923475,0.192546555,-0.1504686
831,1747533741530,-2.220921,-3.521502,1.0423685,-2.6365294,0.3568636,1.7672738
832,1747533741540,-1.8126132,-3.3360183,0.7302193,-1.9009644,0.85594,2.9273467
833,1747533741550,-1.4448189,-3.0978186,0.37755656,-1.6202673,1.2761868,3.691674
834,1747533741560,-0.6548056,-2.6070197,-0.25162303,-1.8892465,1.7475663,4.903945
835,1747533741570,-0.41941238,-2.48486885,-0.314589795,-2.0458404000000003,1.76754,5.113003
836,1747533741580,0.22624107,-2.1132917,-0.41562948,-2.4905882,1.7859159,5.624596
837,1747533741590,0.361570815,-2.03202065,-0.41184659,-2.60244095,1.76114845,5.76494475
838,1747533741600,0.71215904,-1.820423,-0.39781332,-2.9049761,1.5941683,6.2355256
839,1747533741610,1.4086984,-1.5094941,-0.298482,-3.3262882,0.8165252,7.1782846
840,1747533741620,1.9663693,-1.4226097,-0.25894472,-3.567038,0.6492787,7.3306174
841,1747533741630,2.272905,-1.3132721,-0.23502712,-3.9318912,0.6247776,7.311975
842,1747533741640,2.3573492,-1.2334653,-0.1683995,-4.400075,0.6759103,7.2682996
843,1747533741650,2.3192759,-1.227608,-0.041733786,-4.8837047,0.74089146,7.2842784
844,1747533741660,2.1721096,-1.3281596,0.50544256,-5.3609433,0.6743124,7.3966637
845,1747533741670,2.1118274,-1.3171769,0.75169635,-5.2972939,0.571514375,7.4083817
846,1747533741680,2.1642997,-1.36281565,0.90166947,-5.08903475,0.30146984,7.41557215
847,1747533741690,2.1984677,-1.4004005,0.90838104,-4.539092,-0.24714136,7.3236933
848,1747533741700,2.3302586,-1.5019283,0.8685997,-4.335626,-0.49481535,7.2656364
849,1747533741710,2.4171429,-1.526334,0.9056965,-4.0266995,-1.067395,7.170828
850,1747533741720,2.4996343,-1.530483,0.8993509,-3.9558597,-1.3225259,7.2395372
851,1747533741730,2.651926,-1.5019283,0.9093573,-4.013384,-1.5739282,7.465906
852,1747533741740,2.8876853,-1.4350566,0.93303084,-4.183826,-1.7241305,7.66298
853,1747533741750,3.1915367,-1.2661691,0.94816244,-4.862932,-1.0924287,7.50319
854,1747533741760,3.1134384,-1.2044226,1.074096,-5.2943645,-0.39840892,7.177752
855,1747533741770,2.96541765,-1.19392805,1.1661055,-5.4509583,0.015978966,6.9918633
856,1747533741780,2.5538151,-1.2088156,1.4023529,-5.434447,0.18056233,6.993461
857,1747533741790,2.4278815,-1.3413386,1.5968665,-5.2805157,0.09321064,7.105314
858,1747533741800,2.5899355,-1.3916144,1.6654466,-4.615258,-0.5305017,7.2507224
859,1747533741810,2.7698057,-1.3511009,1.7157224,-4.210458,-1.0977551,7.2059813
860,1747533741820,2.8088548500000003,-1.3352372,1.7472058499999998,-4.03255865,-1.40268705,7.18094765
861,1747533741830,2.8636457,-1.31278395,1.82481605,-3.5377433,-2.0548952,7.194796
862,1747533741840,2.915264,-1.300093,1.9990729,-3.1664987,-1.9052255,7.342335
863,1747533741850,2.8969595,-1.2981404,1.9341537,-2.8107002,-0.75793564,7.697601
864,1747533741860,2.9569976,-1.25299,1.8406798,-2.7451866,-0.2412824,7.918111
865,1747533741870,3.02765215,-1.20869355,1.77734685,-2.72760965,-0.1121190845,8.0257025
866,1747533741880,3.3379707,-0.933519,1.5841756,-2.6525085,0.028229509,8.257398
867,1747533741890,3.8116863,-0.51544887,1.292283,-2.7563717,-0.86499476,7.7444725
868,1747533741900,4.4264665,0.29872608,0.5784157,-3.1473238,-1.7044232,7.34127
869,1747533741910,4.7056675,0.643823,0.35534734,-3.8578553,-2.5875273,7.0786824
870,1747533741920,4.9775476,1.0733638,0.5252112,-4.34574615,-2.9387983,7.091465449999999
871,1747533741930,5.3084893,1.534876,0.91423845,-5.4200654,-3.171825,7.176687
872,1747533741940,6.1443853,2.779324,1.9234152,-5.76095,-1.7385116,6.6078353
873,1747533741950,6.3537865,3.2852545,2.318544,-5.5447016,-1.1132014,5.7700047
874,1747533741960,6.185143,3.9820378,2.715381,-4.9438925,-0.83889574,4.90501
875,1747533741970,6.0711684,4.638064,2.9613905,-4.072506,-1.0966897,4.2456117
876,1747533741980,6.4218783,5.2967744,3.1476064,-3.00085,-1.5520903,3.5478632
877,1747533741990,7.9967794,6.1931963,2.9550452,-1.1286477,-1.7070863,0.24554345
878,1747533742000,7.9967794,5.876899,2.895251,-0.80533993,-0.9347696,-1.7417074
879,1747533742010,7.669743,5.0829806,3.0443702,-0.4777711,0.33822146,-3.3534524
880,1747533742020,7.1723542,4.6358676,3.1180754,-0.213851835,0.97604853,-3.86158355
881,1747533742030,5.804414,3.3269882,3.0270422,0.5789712,2.4149544,-4.901282
882,1747533742040,4.779373,2.058379,1.9480649,0.71798825,2.5614283,-5.4536214
883,1747533742050,4.3483677,1.632987,1.6622739,0.3787015,2.479403,-5.6272593
884,1747533742060,4.0288973,1.3676969,1.6581249,0.13262543,2.5933864,-5.713013
885,1747533742070,4.00754215,1.2429836,1.69290305,0.12836437,2.8959215,-5.9036956
886,1747533742080,3.9788651,0.8351639,1.7530633,0.3653857,3.0578415,-6.1684136
887,1747533742090,3.8270617,0.34704942,1.7384197,1.2074772,2.644519,-6.5721493
888,1747533742100,3.7750776,0.13496366,1.7264609,1.7246631,2.2509038,-6.767625
889,1747533742110,3.6635432,-0.067847915,1.7296337,2.2237396,1.7981664,-6.9732213
890,1747533742120,3.5193055,-0.18938842,1.7145022,2.674879,1.397627,-7.127152
891,1747533742130,3.4211946,-0.29042813,1.6447018,3.0301447,1.1435614,-7.2374067
892,1747533742140,3.3116128,-0.4566311,1.5112025,3.5968654,0.87831056,-7.502125
893,1747533742150,3.3023386,-0.55571836,1.4606826,3.8850195,0.79415464,-7.680557
894,1747533742160,3.231318,-0.6491923,1.4040614,4.2392197,0.6956177,-7.871239
895,1747533742170,3.18555725,-0.71203705,1.3559821,4.612595,0.70840085,-7.9964075
896,1747533742180,3.1058726,-0.8866599,1.1607363,4.939099,0.6993461,-8.09388
897,1747533742190,3.0387568,-1.0150341,0.810026,5.3284526,0.4250405,-8.457134
898,1747533742200,3.0150833,-1.1190025,0.65895456,5.390771,0.23702134,-8.670187
899,1747533742210,2.9713972,-1.2044226,0.5535218,5.371596,0.002130529,-8.882175
900,1747533742220,2.6272762,-1.3271832,0.44223174,5.200621,-0.68389976,-9.129316
901,1747533742230,2.6272762,-1.3271832,0.44223174,5.200621,-0.68389976,-9.129316
902,1747533742240,2.4122617,-1.3603752,0.28871974,4.5859632,-0.9395633,-8.873652
903,1747533742250,2.3942015,-1.3152245,0.24454537,4.1140513,-0.91612744,-8.646751
904,1747533742260,2.3942015,-1.2561626,0.26211748,3.6208339,-0.78723043,-8.386827
905,1747533742270,2.3895645,-1.1944162,0.43491003,2.8746161,-0.27803403,-7.9159803
906,1747533742280,2.3717482,-1.1961246,0.61795294,2.7846012,-0.10705908,-7.6922746
907,1747533742290,2.4154346,-1.1878266,0.7990434,2.9177594,-0.041545313,-7.4941354
908,1747533742300,2.4549718,-1.1734272,0.97208,3.3396041,-0.15286545,-7.3519225
909,1747533742310,2.425929,-1.2068632,1.0477377,3.7678404,-0.32490566,-7.2480593
910,1747533742320,2.276322,-1.2822767,0.99770606,4.505536,-0.60720074,-6.950318
911,1747533742330,2.1174407,-1.2622641,0.9022797,4.752145,-0.68176925,-6.809703
912,1747533742340,1.9143851,-1.2224828,0.7856203,4.9103365,-0.7616641,-6.6637616
913,1747533742350,1.7232883,-1.1968567,0.6828722,4.96573,-0.8159926,-6.4736123
914,1747533742360,1.4362769,-1.1116807,0.545712,4.884238,-0.89162636,-6.086921
915,1747533742370,1.3803877999999998,-1.08288195,0.52765175,4.8224525,-0.95580853,-5.9897157
916,1747533742380,1.2456682,-1.0213796,0.48738232,4.629639,-1.1696603,-5.7588196
917,1747533742390,1.129985,-1.0079564,0.49055508,4.4890246,-1.2868395,-5.6054215
918,1747533742400,0.9686632,-0.9999026,0.50837123,4.3473444,-1.3763217,-5.3854446
919,1747533742410,0.6152683,-1.0526189,0.60013676,4.203001,-1.3448963,-5.069061
920,1747533742420,0.41099238,-1.0233321,0.72826684,4.1241713,-1.1121361,-4.343616
921,1747533742430,0.20354374,-1.0565238,0.88373125,4.28982,-1.1100056,-3.9840891
922,1747533742440,0.00048811449,-1.104359,0.9479183,4.5161886,-1.081776,-3.6005938
923,1747533742450,-0.0993313,-1.168058,0.8603018,4.7233825,-1.0482203,-3.1798143
924,1747533742460,-0.17645338,-1.363792,0.6374775,4.7596016,-1.1941614,-2.9774141
925,1747533742470,-0.32996538,-1.6137065,0.43124917,4.68023945,-1.1872372,-2.9372004
926,1747533742480,-0.455654875,-1.7462296,0.257236345,4.112986,-1.3518206,-2.6839337
927,1747533742490,-0.89813066,-2.059843,-0.18084641,3.3289514,-1.6048208,-2.3664849
928,1747533742500,-1.0506665,-2.2321477,-0.21550256,2.4405208,-1.635181,-2.0437098
929,1747533742510,-1.3691611,-2.7558944,-0.18914436,0.61891866,-0.95447695,-1.7960359
930,1747533742520,-1.6000393,-2.85327325,-0.20256752,0.0410126799999999,-0.789360975,-1.6471652
931,1747533742530,-2.1623473,-3.23083,-0.16010156,-1.4466292,-0.5368933,-1.1163971
932,1747533742540,-2.3470986,-3.440963,0.05296042,-2.2152174,-0.5113269,-0.64075655
933,1747533742550,-2.4576566,-3.6784308,0.5440036,-2.979012,-0.14434333,0.50120693
934,1747533742560,-2.3859036,-3.6996639,0.60038084,-3.1691618,-0.02130529,1.0306433
935,1747533742570,-2.2616785,-3.6794071,0.6462636,-3.2847428,-0.06018744,1.4295849
936,1747533742580,-2.181872,-3.6032615,0.656514,-3.3577135,-0.1555286,1.7315874
937,1747533742590,-2.1606388,-3.5154004,0.6282034,-3.4850128,-0.14221281,1.988316
938,1747533742600,-2.0908384,-3.3282084,0.44833317,-3.7721014,0.16245283,2.3531692
939,1747533742610,-2.0483723,-3.2840343,0.35534734,-4.6413574,1.2772521,3.160107
940,1747533742620,-2.01274005,-3.2651198,0.371699185,-5.072789,1.943575,3.7087183
941,1747533742630,-1.8609366,-3.1812863,0.5195979,-5.284777,2.5816684,4.327104
942,1747533742640,-1.5888127,-2.8527853,0.5593792,-5.213937,3.0567763,4.914065
943,1747533742650,-0.8439499,-2.6538785,0.42807645,-4.6876965,3.2479913,5.826464
944,1747533742660,-0.4751795,-2.4496026,0.30360723,-4.3542686,2.9060414,6.23233
945,1747533742670,0.037584815,-2.2314155,0.18645974,-4.13482405,2.5281389,6.4211480000000005
946,1747533742680,0.6574902,-1.9485531,0.03929322,-3.6101813,1.5089471,6.762831
947,1747533742690,1.5077857,-1.4853324,-0.108117364,-3.1047132,0.3387541,6.853379
948,1747533742700,1.8072438,-1.3303561,-0.17425688,-2.9454563,-0.20719394,6.8698907
949,1747533742710,1.88936905,-1.27824985,-0.173402675,-2.9169605,-0.393881545,6.90930535
950,1747533742720,1.9714943,-1.2261436,-0.17254847,-2.91722685,-0.666322925,7.036338
951,1747533742730,2.07290015,-1.15463485,-0.0945721815,-2.992328,-0.7478156499999999,7.24513
952,1747533742740,2.3470985,-1.0589644,0.0612583735,-3.20058715,-0.5752427999999999,7.5649758
953,1747533742750,2.6548548,-1.0714114,0.22672918,-3.669836,-0.18482338,7.8051925
954,1747533742760,2.6375268,-1.1006982,0.34753752,-3.788613,-0.12436962,7.823302050000001
955,1747533742770,2.6306931,-1.1323036000000002,0.41611761,-4.00006815,-0.03062634945,7.86165165
956,1747533742780,2.6415535,-1.25006125,0.6164886,-4.143079999999999,0.0127831730499999,7.892277849999999
957,1747533742790,2.6592476,-1.3362135,0.7482795,-4.225904,-0.015978966,7.891479
958,1747533742800,2.7920148,-1.3850248,0.81344277,-4.2546663,-0.22104238,7.608651
959,1747533742810,2.753698,-1.4040614,0.8676235,-4.270645,-0.39521313,7.4579163
960,1747533742820,2.7810323,-1.4033291,0.89080894,-4.2770367,-0.6018744,7.335411
961,1747533742830,2.7866457,-1.3674527,0.91106576,-4.2685146,-0.87351686,7.2027855
962,1747533742840,2.6875584,-1.3503687,1.0389518,-4.0575924,-1.3837786,7.0898676
963,1747533742850,2.6126328,-1.3313323,1.1172941,-3.8003309,-1.6847157,7.038735
964,1747533742860,2.5516186,-1.3232784,1.1497537,-3.4898064,-1.9004318,7.01743
965,1747533742870,2.4618053,-1.325475,1.1277885,-3.34226725,-1.93904765,7.0310120000000005
966,1747533742880,2.41275,-1.3057063,1.0499343,-2.9236183,-1.9813919,7.0840087
967,1747533742890,2.4998784,-1.2966762,0.9781815,-2.5193505,-1.9861856,7.021158
968,1747533742900,2.6333778,-1.2654368,0.9191196,-2.4911209,-2.06022145,6.98600425
969,1747533742910,2.7053746,-1.2252894,0.9347393,-2.47673975,-2.21681535,6.9367359
970,1747533742920,2.81141745,-1.1287648,1.0136918,-2.50070825,-2.3214777,6.92954545
971,1747533742930,2.8896377,-0.9581688,1.2197981,-2.470881,-2.1459754,6.9481874
972,1747533742940,2.89488495,-0.834065675,1.3906382000000002,-2.1124194,-1.1808456,6.9103703
973,1747533742950,2.91331125,-0.66310355,1.6212723,-1.92280235,-0.9358348,6.87654815
974,1747533742960,2.9264903,-0.61624455,1.6810663,-1.7331853,-0.690824,6.842726
975,1747533742970,3.0843954,-0.48396555,1.4831358,-1.1307782,-0.22210763,6.5135593
976,1747533742980,3.1454098,-0.47273886,1.4421343,-0.86872315,-0.44208476,6.2600265
977,1747533742990,3.3050232,-0.20915705,1.228096,-0.49321744,-0.7930894,6.212622
978,1747533743000,3.3972766,0.10518867,1.1158297,-0.4607269,-0.9816412,6.126336
979,1747533743010,3.5127158,0.45736328,0.9276616,-0.5254417,-1.0090718,6.059490650000001
980,1747533743020,3.6691566,0.82027644,0.6645679,-0.9938917,-0.9443569,5.78918
981,1747533743030,3.9215117,1.6878998,0.48128092,-2.3441145,-0.515588,5.190501
982,1747533743040,4.0320697,2.131352,0.5462001,-3.0131006,-0.32277513,4.91513
983,1747533743050,4.169962,2.694636,0.6157564,-3.520699,-0.18162759,4.640292
984,1747533743060,4.607801,3.406551,0.6628595,-3.899933,-0.2647182,4.0256343
985,1747533743070,5.0678487,4.4977307,0.8180799,-4.354801,-1.4439659,2.7846012
986,1747533743080,5.0678487,4.4977307,0.8180799,-4.354801,-1.4439659,2.7846012
987,1747533743090,5.758287,5.132524,1.8519063,-3.90739,-1.5595472,2.021872
988,1747533743100,6.4660525,5.482502,2.3456342,-3.202185,-1.0881677,1.3166668
989,1747533743110,7.0903516,5.508372,2.4803538,-2.4511735,-0.30999196,0.1571265
990,1747533743120,7.180286649999999,5.06357775,2.5806614000000003,-1.63091988,0.3712446699999999,-1.37046275
991,1747533743130,6.6652036,3.9317625,2.873286,0.69135666,0.9518138,-4.3979445
992,1747533743140,5.8734818,3.0983067,2.8471718,1.9755329,0.6135923,-5.1510863
993,1747533743150,5.2443023,2.4110415,2.4635139,2.9577067,0.3206446,-5.634184
994,1747533743160,4.782058,1.846049,1.900962,3.4376085,0.15978967,-5.970807
995,1747533743170,4.088935,1.1370627,1.0216236,3.34572935,0.253000315,-6.123939
996,1747533743180,3.9141903,0.9452337,0.8605459,3.1158985,0.48948903,-6.269614000000001
997,1747533743190,3.9036958,0.79513854,0.78488815,2.8655614,0.746217765,-6.2850602
998,1747533743200,3.8914926,0.5181335,0.8768977,2.727876,0.76166409,-6.580404700000001
999,1747533743210,3.8362137,0.423927415,0.92448885,2.79205815,0.543817505,-7.0003852
1000,1747533743220,3.7341979,0.2450334699999999,0.9859913,2.98886575,0.29960563,-7.288539399999999
