id,timestamp,acc_x,acc_y,acc_z,gyro_x,gyro_y,gyro_z
1,1747533207660,-0.1426514625,0.46334268,0.62942365,0.77844195,1.201085635,1.0604708161
2,1747533207670,0.34192421,0.4544346,-0.8273540749999999,1.4016217,-1.3518206,0.38402784
3,1747533207680,0.37011283,0.4561429999999999,-0.94437951,1.19176465,-1.26127305,0.33768884
4,1747533207690,0.379020915,0.456875165,-0.998804235,0.8727179,-1.077781265,0.26019085
5,1747533207700,0.36730617,0.44857723,-1.0055158,0.607999675,-0.846086295,0.22077606
6,1747533207710,0.35998443,0.44930938,-1.0284572,0.54435015,-0.74089146,0.22849922
7,1747533207720,0.403182565,0.4458926,-1.07629255,0.3834952,-0.3435478,0.248206625
8,1747533207730,0.423805415,0.42258513,-1.09276635,0.231695015,-0.071106403,0.23782029
9,1747533207740,0.42441556,0.380729305,-1.05603575,-0.0154463349999999,0.196541297,0.214650785
10,1747533207750,0.4350320399999999,0.348879825,-1.00624805,-0.237287655,0.38962048,0.1850897
11,1747533207760,0.44735694,0.3441207,-0.9964857,-0.30679616,0.45220476,0.16884442
12,1747533207770,0.486894225,0.371455115,-0.92875983,-0.49295111,0.733967225,0.101732755
13,1747533207780,0.49982925,0.3887832,-0.84211953,-0.59015648,0.930242225,0.0479369019999999
14,1747533207790,0.489212765,0.42136485,-0.660662935,-0.65913236,1.18004675,-0.031158988
15,1747533207800,0.47664383,0.447601,-0.52399087,-0.68389976,1.3347764,-0.082558
16,1747533207810,0.46102414,0.4825012,-0.4515059,-0.6918893,1.4471618,-0.12836437
17,1747533207820,0.48323336,0.520086,-0.38707477,-0.7254451,1.500425,-0.175236
18,1747533207830,0.50617474,0.5603554,-0.33240595,-0.79255676,1.5254587,-0.2412824
19,1747533207840,0.45675313,0.6543175,-0.196954205,-0.9539443,1.4817829,-0.29933932
20,1747533207850,0.45004156,0.6772589,-0.17913802,-1.0365024,1.4658039,-0.2828277
21,1747533207860,0.45394647,0.7053254,-0.16205402,-1.1739214,1.44796075,-0.24767399
22,1747533207870,0.42148685,0.73558855,-0.12398108,-1.2170646,1.4444987,-0.2263687
23,1747533207880,0.417215855,0.7509641499999999,0.0154976365,-1.30894365,1.3363743,-0.17869811
24,1747533207890,0.426245985,0.77463772,0.08883684,-1.36753325,1.17019305,-0.15393071
25,1747533207900,0.4407674,0.80368054,0.10836142,-1.3997575,1.0769824,-0.13528858
26,1747533207910,0.40293851,0.83772655,0.121052397,-1.38404485,1.0274476,-0.04633900445
27,1747533207920,0.42624597,0.8517598,0.0701664585,-1.3693974,1.04156235,0.04660532055
28,1747533207930,0.47603366,0.821740725,0.0352662715,-1.4335795999999998,1.02105598,0.12703279
29,1747533207940,0.4995852,0.783423755,0.052838392,-1.52039865,0.95634115,0.158191775
30,1747533207950,0.51740138,0.767682045,0.0641870569999999,-1.54516605,0.92544847,0.14567491
31,1747533207960,0.5298483,0.76511943,0.07028849,-1.5472966,0.9262474,0.13848437
32,1747533207970,0.5399767,0.750720125,0.102748105,-1.4913703,1.0149307,0.100134855
33,1747533207980,0.5183776,0.767316025,0.143139575,-1.3992249,1.14942035,0.09800433
34,1747533207990,0.495680265,0.78281365,0.202445485,-1.30787845,1.25408255,0.10439592
35,1747533208000,0.479450465,0.777810425,0.2490604249999999,-1.2540826,1.25248465,0.1081243425
36,1747533208010,0.4685899,0.77244115,0.26651052,-1.2271847,1.2378373,0.111852765
37,1747533208020,0.50092752,0.747059225,0.2422268149999999,-1.1158645,1.1765846,0.1123854
38,1747533208030,0.53643785,0.7336360749999999,0.1786499,-1.0626012500000002,1.21839625,0.087351682
39,1747533208040,0.5458340500000001,0.7236297,0.147898685,-1.07059075,1.30335105,0.053529538
40,1747533208050,0.5400987,0.7241178,0.14082102,-1.0823087,1.3438311,0.041012682
41,1747533208060,0.52203846,0.73290396,0.14814276,-1.1451592,1.3864417,0.020240024
42,1747533208070,0.452604175,0.7322938,0.215502545,-1.27645315,1.33823845,0.075101143
43,1747533208080,0.449431435,0.7270465500000001,0.274442375,-1.34782585,1.30894375,0.13129384
44,1747533208090,0.46200037,0.7175283,0.29530928,-1.3688648,1.3097427,0.14008227
45,1747533208100,0.4698102,0.6999562,0.3939084,-1.3789848,1.3028184,0.13528858
46,1747533208110,0.488968685,0.67286583,0.50629678,-1.2953616,1.2096078499999998,0.09321064
47,1747533208120,0.53265494,0.66493395,0.4790843999999999,-1.196292,1.1792478,0.010120012
48,1747533208130,0.56072152,0.66615425,0.4168498,-1.14329505,1.2074772500000002,-0.073236933
49,1747533208140,0.5591351499999999,0.6611511,0.37352962,-1.1582088,1.25461515,-0.12676647
50,1747533208150,0.53948853,0.6655441,0.34570709,-1.1899004,1.3076121,-0.1640507199999999
51,1747533208160,0.50629675,0.6723776699999999,0.366818055,-1.21839615,1.3595438,-0.17496968
52,1747533208170,0.49287361,0.6552937050000001,0.479328435,-1.18883515,1.38883855,-0.201601295
53,1747533208180,0.49616838,0.63918597,0.5662128,-1.1488878,1.3933659,-0.22743396
54,1747533208190,0.47615569,0.65151083,0.53045843,-1.07005815,1.41786695,-0.29241508
55,1747533208200,0.4617563,0.66700846,0.5137405,-1.0546118,1.442368,-0.29827404
56,1747533208210,0.41099238,0.6967834,0.50934744,-1.0476876,1.4913702,-0.2727077
57,1747533208220,0.360350515,0.7069118,0.51142195,-1.13903395,1.4263891000000002,-0.14407702
58,1747533208230,0.37963104,0.685556795,0.5235028,-1.2333099,1.35688065,-0.06524745
59,1747533208240,0.40147418,0.66993713,0.54668826,-1.2607405,1.347027,-0.0479369
60,1747533208250,0.413677,0.62478656,0.65285313,-1.230913,1.3289174,-0.068176925
61,1747533208260,0.43002887,0.599038525,0.7076439999999999,-1.1009508499999998,1.31826475,-0.12783173
62,1747533208270,0.41587356,0.61661063,0.6866550499999999,-1.025050735,1.3480921499999998,-0.206661305
63,1747533208280,0.38853914,0.63381666,0.6574902,-0.99762017,1.3699301,-0.2593919
64,1747533208290,0.34851375,0.65919864,0.6535853,-1.0221212,1.3523532,-0.24341293
65,1747533208300,0.349856065,0.65248707,0.60465183,-1.07751495,1.34649425,-0.223439215
66,1747533208310,0.35119838,0.6457755,0.55571836,-1.1377024,1.35741325,-0.207460245
67,1747533208320,0.34070392,0.584151,0.69446489,-1.0660634,1.37126165,-0.232227655
68,1747533208330,0.3073901,0.56291801,0.7592620750000001,-0.930508525,1.3843111,-0.25939191
69,1747533208340,0.3082443,0.56743306,0.7739055,-0.818123105,1.4282533000000002,-0.28655615
70,1747533208350,0.29774985,0.5806122,0.75340474,-0.76485986,1.4562165,-0.3073288
71,1747533208360,0.26699865,0.605262,0.7292431,-0.739027205,1.46899965,-0.3193130199999999
72,1747533208370,0.24283696,0.6088008,0.65822242,-0.830373645,1.4000238,-0.317182485
73,1747533208380,0.25809054,0.57902583,0.6211257,-0.944889565,1.31080795,-0.335291985
74,1747533208390,0.244057245,0.5713380299999999,0.60379763,-1.00640855,1.29589425,-0.35180359
75,1747533208400,0.22233615,0.57817165,0.6089228250000001,-1.06047075,1.3321132,-0.345678315
76,1747533208410,0.173158615,0.5884220499999999,0.680675655,-1.1430288,1.3512879999999998,-0.314785645
77,1747533208420,0.11958805,0.5915947699999999,0.76633978,-1.21413515,1.30095425,-0.2745719199999999
78,1747533208430,0.12044225,0.575364945,0.795992735,-1.23863625,1.2117383,-0.248739255
79,1747533208440,0.158271125,0.548640695,0.815151215,-1.2327773,1.13823505,-0.251402415
80,1747533208450,0.1864597399999999,0.52655352,0.810880215,-1.1475561,1.15900775,-0.3113235399999999
81,1747533208460,0.176575425,0.53241087,0.810025985,-1.046356,1.2671321,-0.35659728
82,1747533208470,0.1449700125,0.5410748999999999,0.8516377150000001,-0.99762015,1.3531521999999998,-0.35420043
83,1747533208480,0.1021379625,0.55144733,0.8927614150000001,-0.9736517,1.3779195999999998,-0.326503545
84,1747533208490,0.08517598,0.5632841,0.9091133,-0.968858,1.3736585,-0.30146983
85,1747533208500,0.088104665,0.5527897,0.9615856,-1.10760865,1.1337077,-0.228765535
86,1747533208510,0.07199689,0.562796,0.9659786,-1.1195929,1.0972224,-0.20559604
87,1747533208520,0.072240944,0.5491288000000001,0.9442575,-1.0940266,1.06206865,-0.122771727
88,1747533208530,0.088104665,0.51605906,0.9093573,-1.07991185,1.0242518,-0.097471699
89,1747533208540,0.09030118,0.49543622,0.8817788,-1.0753845,1.0061423,-0.091080114
90,1747533208550,0.118855886,0.46419686,0.8578612,-1.0178602,1.0295781,-0.090014845
91,1747533208560,0.091033354,0.46102414,0.82198477,-1.0074739,1.2098741,-0.104129602
92,1747533208570,-0.0098843185,0.4915313,0.8749452,-1.0506171,1.26633315,-0.076166409
93,1747533208580,-0.070654573,0.4906771,0.9225364,-1.12598455,1.1891015,-0.032756882
94,1747533208590,-0.093473926,0.4927516,0.9391323,-1.1653993,1.1222562,-0.008522116
95,1747533208600,-0.024161667,0.45638704,0.8991069,-1.3938985,0.77125144,0.023435818
96,1747533208610,0.025381953,0.41733786,0.88788027,-1.4833808,0.63436496,-0.02396845
97,1747533208620,0.078464405,0.34546304,0.9736664,-1.407747,0.5230448350000001,-0.15233282
98,1747533208630,0.087494522,0.324718165,0.9645142,-1.2397015,0.5688512,-0.239151865
99,1747533208640,0.095914497,0.3231318,0.8866599,-0.87298425,0.93530215,-0.346743565
100,1747533208650,0.0787084615,0.323009775,0.7841559,-0.6109292,1.2436962,-0.41971418
101,1747533208660,-0.0014643434999999,0.356445625,0.71643005,-0.56698701,1.4942997,-0.47670585
102,1747533208670,-0.09554842,0.41538545,0.71606395,-0.698547155,1.5467640500000002,-0.438356325
103,1747533208680,-0.176087315,0.44186565,0.82857435,-1.057807575,1.279649,-0.341417255
104,1747533208690,-0.21794313,0.4429639,0.9169231,-1.31933,1.0231866,-0.27324033
105,1747533208700,-0.142041315,0.39268811,1.00514975,-1.5518239500000002,0.6407566,-0.22210764
106,1747533208710,-0.0629667705,0.3511983749999999,1.0114953,-1.6162725,0.51718591,-0.231695015
107,1747533208720,-0.0114706909,0.3122712399999999,1.0134477,-1.5949672499999998,0.51878378,-0.26977822
108,1747533208730,-0.0370967054,0.310440815,1.00661405,-1.40961125,0.7555388199999999,-0.234358175
109,1747533208740,-0.0757797799999999,0.3220335399999999,0.94840645,-1.26526795,1.0309097,-0.14700649
110,1747533208750,-0.07907455,0.31776255,0.8998391,-1.3424996,1.1004182,-0.073769563
111,1747533208760,-0.129838455,0.33387031,1.02626075,-1.5100124,1.01839285,-0.001864213
112,1747533208770,-0.12837411,0.33045352,1.1026506,-1.6058862,0.9395633,0.02396845
113,1747533208780,-0.0656514,0.28188612,1.61297435,-1.7201358,0.4274373649999999,-0.00852211635
114,1747533208790,-0.039659301,0.27224587,1.77319795,-1.54729665,0.310524585,-0.04527374
115,1747533208800,-0.029042812,0.2672427,1.8397036,-1.4349113,0.26365295,-0.068176925
116,1747533208810,0.0209889235,0.2809098949999999,1.9251235,-1.0080065,0.1978728699999999,-0.173904425
117,1747533208820,-0.0162298075,0.31544399,2.02433285,-0.68922611,0.0892158985,-0.2002697199999999
118,1747533208830,-0.0600380825,0.336432925,2.12830125,-0.38269626,-0.0996022214999999,-0.187486545
119,1747533208840,-0.059794025,0.33399234,2.203959,-0.16325179,-0.29747509,-0.1619202
120,1747533208850,-0.0557670809999999,0.32972134,2.2733933,-0.04261058,-0.40373522,-0.1470065
121,1747533208860,-0.059061853,0.32288775,2.30926965,0.33236251,-0.7190535,-0.122771725
122,1747533208870,-0.051252022,0.30800025,2.2759559,0.70307453,-1.11639715,-0.109189605
123,1747533208880,-0.01879240875,0.30080055,2.13391455,1.02771385,-1.5041534,-0.103064335
124,1747533208890,0.02342949475,0.310928925,1.97503325,1.1046792,-1.5984293,-0.09853696
125,1747533208900,0.044418417,0.31483385,1.9075515,1.2149341,-1.6863136,-0.09161274
126,1747533208910,0.07272906,0.3018988,1.833114,1.3315805,-1.7550232,-0.10546118
127,1747533208920,0.0529604235,0.31275935,1.65434205,1.5488945,-1.9121497,-0.1304949
128,1747533208930,0.039415246,0.29811592,1.6689855,1.69590105,-2.00083295,-0.141680175
129,1747533208940,0.0191584945,0.25894474,1.6764293499999998,1.82027065,-2.15503,-0.17390442
130,1747533208950,0.0169619795,0.23026802,1.6265195499999998,1.9646139,-2.341185,-0.2271676449999999
131,1747533208960,0.0294088985,0.2140382049999999,1.5725828,2.12094155,-2.4655546,-0.29161614
132,1747533208970,-0.0071996894999999,0.21440429,1.4789869,2.33932085,-2.5478463,-0.363255175
133,1747533208980,-0.068946173,0.238443935,1.34634185,2.51322525,-2.6181538,-0.392816265
134,1747533208990,-0.105920845,0.278347285,1.2323670999999998,2.56142845,-2.6469159,-0.354200425
135,1747533209000,-0.1176355925,0.320081085,1.1135112,2.57794,-2.6466496,-0.29774141
136,1747533209010,-0.1078733024999999,0.34521899,0.98318463,2.50523565,-2.675678,-0.2181129
137,1747533209020,-0.099697385,0.35107635,0.89459188,2.3979102,-2.7475832,-0.15313177
138,1747533209030,-0.092497695,0.3599844399999999,0.86493893,2.34544595,-2.77314955,-0.11158645
139,1747533209040,-0.08383366,0.364499495,0.85908153,2.34065235,-2.72308215,-0.063383235
140,1747533209050,-0.0776102,0.35998443,0.8649389,2.3542345,-2.6860642,-0.04314321
141,1747533209060,-0.092253643,0.3771904849999999,0.83845868,2.350506,-2.61415895,0.044474791
142,1747533209070,-0.0743154345,0.377068445,0.802338215,2.20403215,-2.73772965,0.129962265
143,1747533209080,-0.0241616684,0.374627875,0.777566405,2.04264465,-2.8812741,0.195476025
144,1747533209090,0.0012202862,0.3785328,0.77048874,2.001632,-2.9134984,0.20985709
145,1747533209100,0.06321083,0.3499781,0.7482795,1.9861856,-2.9087045,0.20932446
146,1747533209110,0.15033927,0.33277205,0.7064237,2.0647489,-2.6889938,0.14913702
147,1747533209120,0.151803605,0.350100115,0.725338135,2.14437735,-2.4636904,0.100401175
148,1747533209130,0.11922196,0.363645285,0.800019655,2.2056301,-2.3742082,0.071905355
149,1747533209140,0.102748098,0.35376097,0.839800985,2.2490396500000003,-2.4562335,0.0607200765
150,1747533209150,0.121418478,0.351320415,0.788793015,2.269546,-2.5092304,0.055926383
151,1747533209160,0.151071435,0.3636452999999999,0.7026408,2.3374564500000004,-2.55423785,0.0332895145
152,1747533209170,0.190730745,0.3773124949999999,0.6190511999999999,2.3915187500000004,-2.4746092500000003,0.002396845
153,1747533209180,0.212085745,0.37401773,0.5660908,2.402704,-2.443184,-0.0484695334999999
154,1747533209190,0.19536782,0.39586087,0.5274077500000001,2.385127,-2.4740767,-0.075101145
155,1747533209200,0.18645974,0.4253918,0.5020258,2.3537018,-2.4458473,-0.06657903
156,1747533209210,0.191829,0.46102414,0.5430274,2.3803334,-2.3792682,-0.049002163
157,1747533209220,0.21965154,0.42929673,0.53106856,2.4335966,-2.3366575,-0.05912218
158,1747533209230,0.293600865,0.437228575,0.316786305,2.4351945,-2.227468,-0.15659387
159,1747533209240,0.27895743,0.44564855,0.30165476,2.4080303,-2.1598237,-0.19707392
160,1747533209250,0.1871919,0.5264315,0.31556603,2.3355923,-2.0682108,-0.11611383
161,1747533209260,0.19121886,0.5149608,0.39573883,2.3097598,-2.2133533,-0.0569916465
162,1747533209270,0.1969542,0.4971446,0.3922,2.301504,-2.3068302,-0.049002163
163,1747533209280,0.234416985,0.56340615,0.28530292,2.23359325,-2.3931166,-0.0234358185
164,1747533209290,0.245887675,0.590740585,0.19890666,2.20190155,-2.402704,0.0
165,1747533209300,0.25857865,0.597574185,0.0910333525,2.1720742,-2.3704798,0.029827405
166,1747533209310,0.27554062,0.5972081,0.057841565,2.1539648,-2.3451798,0.03834952
167,1747533209320,0.252721295,0.593303175,-0.06674966,2.1028321,-2.2937807,0.053529539
168,1747533209330,0.2471079649999999,0.61124137,-0.14643435,2.04876995,-2.21708165,0.09667275
169,1747533209340,0.25784647,0.59671997,-0.21538052,1.98485405,-2.0634173,0.1379517499999999
170,1747533209350,0.26114124,0.575487,-0.264314,1.9483687,-1.9526298,0.15446335
171,1747533209360,0.27212384,0.56596875,-0.33704305,1.9568908,-1.8338528,0.17789917
172,1747533209370,0.28127597,0.5354616050000001,-0.5762191750000001,1.86341385,-1.6423715,0.20399814
173,1747533209380,0.2866452499999999,0.51337443,-0.700688375,1.7299894999999998,-1.5361114,0.2005360299999999
174,1747533209390,0.254185645,0.489700865,-0.761458615,1.5118766,-1.46154285,0.1933454949999999
175,1747533209400,0.21989559,0.47469133,-0.77317333,1.3731259,-1.4365091,0.19228023
176,1747533209410,0.18279888,0.46444094,-0.84883106,1.2612731,-1.4114754,0.2428803
177,1747533209420,0.22502078,0.4617563,-0.9520673,1.0908308,-1.3038837,0.29933932
178,1747533209430,0.33362627,0.44540448,-1.1673258,0.8322378699999999,-0.95314535,0.299871935
179,1747533209440,0.36340126,0.44101146,-1.2246792,0.74248934,-0.8000136,0.29561087
180,1747533209450,0.4097721,0.43295756,-1.2778838,0.4628574,0.023435818,0.28336033
181,1747533209460,0.42587993,0.4002539,-1.1707426,0.35579833,0.40373522,0.25566345
182,1747533209470,0.437960735,0.32423006,-0.9565824,0.28415929,0.72464615,0.15472966
183,1747533209480,0.485673915,0.307756185,-0.89593415,0.14807176,0.900947435,0.010652645
184,1747533209490,0.52875003,0.326182515,-0.8488311,-0.0455400549999999,1.088433935,-0.145674915
185,1747533209500,0.5379022,0.366085875,-0.7856203,-0.17736653,1.262072,-0.2210423799999999
186,1747533209510,0.541319,0.38658667,-0.7494998,-0.22796659,1.3448963,-0.24714136
187,1747533209520,0.5444917,0.43625234,-0.5868356849999999,-0.3669835999999999,1.6674052,-0.345412
188,1747533209530,0.533021,0.50629678,-0.447234915,-0.438356325,1.88285495,-0.395479425
189,1747533209540,0.51020167,0.55010505,-0.3464392699999999,-0.475107955,1.9816582,-0.408795235
190,1747533209550,0.49812084,0.5703618,-0.29726174,-0.49161956,2.0170782,-0.40906155
191,1747533209560,0.492263475,0.59989271,-0.161443865,-0.5528722500000001,1.9848541,-0.409860505
192,1747533209570,0.4966565,0.60184515,-0.12056428,-0.5763081,1.9462382,-0.41385525
193,1747533209580,0.5003173599999999,0.6390639,-0.154488235,-0.8133294,1.706021,-0.454867915
194,1747533209590,0.5047104,0.6582224,-0.17742962,-0.8697884,1.7038904,-0.4495416
195,1747533209600,0.5005614,0.70361704,-0.16766733,-0.9763149,1.7747306,-0.43782368
196,1747533209610,0.46883395,0.7382732,-0.106164895,-1.0524813,1.8365159,-0.4063984
197,1747533209620,0.38792898,0.78574232,0.0131790899999999,-1.1643341,1.86474545,-0.31025828
198,1747533209630,0.35058824,0.8035585000000001,0.1036023,-1.2887037,1.69803155,-0.16751284
199,1747533209640,0.34949,0.7980672,0.12349297,-1.3709954,1.5425029,-0.06977482
200,1747533209650,0.39317623,0.759018,0.14643435,-1.4578145,1.2681973,0.0010652645
201,1747533209660,0.46932206,0.73778504,0.09469421,-1.510545,1.164334,0.016511599
202,1747533209670,0.5460781,0.7226534499999999,0.15192563,-1.46820075,1.29429625,-0.03355583335
203,1747533209680,0.5149607700000001,0.754258915,0.1748670199999999,-1.34116795,1.4868428,-0.0498011165
204,1747533209690,0.502269805,0.8090498150000001,0.18377511,-1.2658005,1.64849675,-0.0173105476
205,1747533209700,0.49519217,0.8319912,0.19231711,-1.2474247,1.7172064,-0.0005326322
206,1747533209710,0.460536,0.8163715,0.24064046,-1.2650015,1.6927053,0.027164243
207,1747533209720,0.44186565,0.8023382,0.26260561,-1.4197312,1.39363225,0.12330436
208,1747533209730,0.4753015,0.75901805,0.27456442,-1.5323829,1.14489295,0.172040205
209,1747533209740,0.49446,0.728999,0.2884757,-1.5542208,1.0711234,0.16937704
210,1747533209750,0.5427833,0.6784792,0.26992732,-1.5456988,1.0024139,0.13156016
211,1747533209760,0.5696296,0.66798466,0.25333142,-1.4807175,1.0668623,0.09427591
212,1747533209770,0.56743312,0.65785632,0.29835999,-1.2029499,1.3475595,-0.0071905365
213,1747533209780,0.55083722,0.66774064,0.27065948,-1.02531705,1.54330185,-0.07962852
214,1747533209790,0.5337532199999999,0.7015425550000001,0.22697324,-1.02052335,1.650361,-0.10626013
215,1747533209800,0.5195979,0.71874857,0.21672285,-1.10467925,1.6567526,-0.1222391
216,1747533209810,0.447967075,0.69434285,0.334724515,-1.2117383,1.5291871499999998,-0.12836437
217,1747533209820,0.4275883,0.6828722,0.37755656,-1.3395700499999998,1.3182648,-0.094275903
218,1747533209830,0.42429352,0.731927685,0.446868825,-1.44982495,1.17978045,-0.039414785
219,1747533209840,0.41977844,0.737541,0.46883395,-1.4775218,1.1627362,-0.017576864
220,1747533209850,0.44027928,0.72704655,0.5215503,-1.4791197,1.1510183,0.034621093
221,1747533209860,0.504100265,0.68543475,0.518499575,-1.4732608,1.1723236,0.053795855
222,1747533209870,0.5248451000000001,0.6599307999999999,0.48262319,-1.45461865,1.26873,-0.024501083
223,1747533209880,0.5132523849999999,0.63369465,0.45419054,-1.4335797,1.376588,-0.084422208
224,1747533209890,0.499097085,0.605994125,0.472006725,-1.4048175,1.4604775,-0.11984225
225,1747533209900,0.4975107,0.577561475,0.527041615,-1.3520869000000002,1.54836185,-0.17337179
226,1747533209910,0.5000733,0.5640163,0.56987363,-1.3171995,1.593103,-0.20559604
227,1747533209920,0.440889405,0.5806121799999999,0.84394997,-1.02877917,1.68844415,-0.388022565
228,1747533209930,0.37999714,0.6351589799999999,0.870918305,-0.7984157199999999,1.75901795,-0.46312372
229,1747533209940,0.34729347,0.6855568000000001,0.860911905,-0.64688185,1.8636802,-0.42211105
230,1747533209950,0.34192422,0.70081037,0.79428427,-0.5643238500000001,1.94543925,-0.36405413
231,1747533209960,0.3260605,0.68494665,0.67762493,-0.66525767,1.85595705,-0.283892975
232,1747533209970,0.30726808,0.65492765,0.58610348,-0.86579372,1.6389094,-0.219444475
233,1747533209980,0.285913065,0.6291796000000001,0.5717041,-0.9528791,1.5350461,-0.2066613
234,1747533209990,0.27017137,0.6203935,0.5793919,-0.9528791,1.5350461,-0.2066613
235,1747533210000,0.26406994,0.60013676,0.6667644,-1.04236125,1.36407115,-0.150468605
236,1747533210010,0.343388555,0.5564505200000001,0.6500465,-1.07059075,1.1603393,-0.114782248
237,1747533210020,0.332650035,0.55571832,0.6345488699999999,-1.08044445,1.19735725,-0.13528859
238,1747533210030,0.31483386,0.5654806,0.6574902499999999,-1.0887003000000002,1.2455604999999998,-0.1419464899999999
239,1747533210040,0.30287505,0.564016275,0.6823840750000001,-1.0950919,1.2711269,-0.143544385
240,1747533210050,0.2928687,0.55742675,0.68580085,-1.1020161,1.2713932,-0.1454086
241,1747533210060,0.272367895,0.55828095,0.6839704,-1.1765846,1.1680625,-0.127831735
242,1747533210070,0.29323478,0.555230275,0.6788452199999999,-1.24715835,1.1254519,-0.1315601599999999
243,1747533210080,0.314467765,0.5363158,0.73388012,-1.2599415,1.13930035,-0.16112125
244,1747533210090,0.315199935,0.505076465,0.843339815,-1.1872372,1.1483551,-0.26551716
245,1747533210100,0.29396695,0.5009275049999999,0.932176715,-1.04688863,1.1787151,-0.3810983599999999
246,1747533210110,0.256138075,0.51605904,0.944379575,-0.97471696,1.200553,-0.41705105
247,1747533210120,0.23331872,0.52423495,0.93840015,-0.8591358,1.2665994,-0.43303
248,1747533210130,0.18450728,0.55840296,0.9103335,-0.7728494,1.3443637,-0.39627838
249,1747533210140,0.17376876,0.5801241,0.87348086,-0.7824367,1.3560816,-0.3568636
250,1747533210150,0.12495731,0.58158845,0.84614646,-1.0663297,1.0865698,-0.31318775
251,1747533210160,0.0863962655,0.58000207,0.952677485,-1.2322447,0.76699042,-0.248206615
252,1747533210170,0.1004295575,0.58854407,0.98342866,-1.2729911,0.6876282,-0.22530343
253,1747533210180,0.15424418,0.56804325,1.000512625,-1.274589,0.59601547,-0.17204022
254,1747533210190,0.19915071,0.53741405,0.99819412,-1.1917646,0.62850602,-0.173371795
255,1747533210200,0.21135357,0.5320448,0.99087244,-1.1451592,0.6631271,-0.18162759
256,1747533210210,0.18768003,0.529604265,0.933030825,-1.0684602,0.749147235,-0.1898833899999999
257,1747533210220,0.14899695,0.5195979,0.91911958,-1.05248125,0.740358795,-0.1776328449999999
258,1747533210230,0.11665936,0.5125202,0.91570276,-1.0482202,0.72171668,-0.1288969979999999
259,1747533210240,0.09225364,0.54156303,0.9364477,-1.0471549,0.7185209,-0.092145376
260,1747533210250,0.084687866,0.5210622,0.97744924,-1.0551444,0.6918893,0.022370555
261,1747533210260,0.087128435,0.50434432,1.0151561,-1.10494555,0.609064925,0.0474042685
262,1747533210270,0.076511945,0.50007332,1.0424905,-1.1086740000000002,0.549942775,0.078563252
263,1747533210280,0.07004443,0.49763274,1.0565238,-1.0793792,0.4727111149999999,0.093210637
264,1747533210290,0.12568948,0.45297025,1.0505444,-0.9904296,0.4183826149999999,0.0814927295
265,1747533210300,0.121052398,0.44991953,1.03004365,-0.8809737,0.4074636499999999,0.0721716675
266,1747533210310,0.1260555729999999,0.437594665,0.98867595,-0.8098673000000001,0.401072065,0.0599211265
267,1747533210320,0.126543685,0.417337905,0.9286378,-0.7613978,0.406132075,0.042344263
268,1747533210330,0.10457853,0.42319527,0.891052975,-0.69907982,0.520381675,0.0740358795
269,1747533210340,0.092741755,0.42173092,0.891052975,-0.65380607,0.649544985,0.106260128
270,1747533210350,0.08895887,0.39647098,0.9115538,-0.6508766,0.67005134,0.09853696
271,1747533210360,0.083833665,0.37975307,0.929980115,-0.6476808000000001,0.6101302,0.0657800799999999
272,1747533210370,0.09115538,0.3652316599999999,0.92839375,-0.6279734,0.5808354499999999,0.033289515
273,1747533210380,0.098721155,0.33801928,0.889588685,-0.57257965,0.5946838999999999,-0.02396845
274,1747533210390,0.1010397,0.31825066,0.8576172,-0.50227219,0.63543025,-0.092678008
275,1747533210400,0.0730951414999999,0.31239327,0.794772445,-0.456465825,0.702275575,-0.130494898
276,1747533210410,0.041245673,0.32508424,0.76194674,-0.43888897,0.74675035,-0.13795175
277,1747533210420,-0.036242501,0.36498761,0.72021295,-0.7155914,0.82930838,-0.000266318
278,1747533210430,-0.049421592,0.33887349,0.8049008,-0.89322424,0.8032094,0.066046394
279,1747533210440,-0.0379509014999999,0.30275302,0.8961782,-1.1076087,0.5882923,0.087618005
280,1747533210450,-0.035144243,0.28505886,0.9349833,-1.1616709,0.51026165,0.08575379
281,1747533210460,-0.007931861,0.245033465,1.0124715,-1.1667309,0.37470677,0.07323693
282,1747533210470,0.058207648,0.21355008,0.992946875,-1.0082728,0.475640575,0.0237021335
283,1747533210480,0.10543273,0.186215665,0.961829605,-0.7688546199999999,0.683367125,-0.0623179695
284,1747533210490,0.10714114,0.17889395,0.95694846,-0.66152924,0.7707188,-0.104928546
285,1747533210500,0.08151512,0.1718163,0.8993509,-0.5571333,0.83942837,-0.1667139
286,1747533210510,0.021965152,0.19451363,0.8117344,-0.5725796,0.87138635,-0.18908444
287,1747533210520,-0.036608588,0.23697957,0.7482795,-0.6956177,0.85594,-0.15180019
288,1747533210530,-0.1032362175,0.24344711,0.8537122699999999,-1.1206582,0.790958865,0.0162452845
289,1747533210540,-0.08688438,0.23819989,0.92448884,-1.170193,0.78723043,0.04474111
290,1747533210550,-0.04075756,0.1986626,1.040416,-1.186172,0.76752305,0.036218993
291,1747533210560,-0.033679903,0.16888762,1.1831895,-1.0945592,0.73130405,0.00479369
292,1747533210570,0.0142773484999999,0.1342314849999999,1.21613725,-0.8309063,0.71159667,-0.060720075
293,1747533210580,0.02233123795,0.16632501,1.1280326,-0.32250881,0.9598033,-0.216514995
294,1747533210590,0.0039049159,0.19158493,1.0848345,-0.27057716,1.0157297,-0.221575
295,1747533210600,0.00305071555,0.202811575,1.04285665,-0.32437304,1.0375676,-0.2263687
296,1747533210610,-0.0589398265,0.261995465,0.959144965,-0.58030282,0.9203885,-0.1925465499999999
297,1747533210620,-0.08285744,0.284936845,1.04834785,-1.1118698,0.658067125,-0.1012001219999999
298,1747533210630,-0.09127741,0.261873425,1.1992973,-1.4538197,0.4364921149999999,-0.019441077
299,1747533210640,-0.09518232,0.24869433,1.2891104,-1.5201324,0.36005938,0.00479369
300,1747533210650,-0.08517598,0.21818718,1.5072975,-1.468467,0.12410331,0.042077947
301,1747533210660,-0.0278225262,0.152657815,1.69619785,-0.99202755,-0.1081243465,-0.04394215825
302,1747533210670,-0.0297749852,0.15802707,1.68716775,-0.5800365199999999,-0.135821225,-0.08495484
303,1747533210680,-0.05515694,0.17987019,1.6678872,-0.44368264,-0.08948222,-0.06924219
304,1747533210690,-0.059183882,0.196344055,1.7248746,-0.0926780045,0.025566345,0.0061252705
305,1747533210700,-0.0525943355,0.167789355,1.78076375,0.0878843204999999,-0.02077266,0.0130494895
306,1747533210710,-0.027578468,0.139356685,1.8521505,0.36085833,-0.2841593,-0.039414783
307,1747533210720,-0.0183042935,0.123737027,1.85983815,0.6378270850000001,-0.57471019,-0.105727497
308,1747533210730,-0.0311173005,0.1308146869999999,1.78222805,0.79575255,-0.717455615,-0.13235911
309,1747533210740,-0.0277004989999999,0.1516815799999999,1.68887625,0.92331798,-0.82051995,-0.1454086
310,1747533210750,-0.0359984425,0.179015985,1.61297435,1.01066963,-0.892159,-0.144077015
311,1747533210760,-0.05393665,0.20818083,1.5463467,1.0570086,-1.0330402,-0.096406428
312,1747533210770,-0.05137405,0.213428065,1.4976573000000002,1.0634002,-1.23863625,-0.0537958555
313,1747533210780,-0.0403914735,0.2054962,1.4571438,1.05993815,-1.4093449,-0.0561927025
314,1747533210790,-0.035632357,0.2072046,1.4306636,1.063134,-1.4839134,-0.05912218
315,1747533210800,-0.013911263,0.23136626,1.3681849,1.0892329,-1.5494272,-0.042077947
316,1747533210810,0.0014643434,0.2172109549999999,1.34365715,1.21333625,-1.62026725,-0.010918961
317,1747533210820,0.0070776599,0.1901205899999999,1.32230215,1.2974921,-1.7235979,-0.0186421285
318,1747533210830,0.0156196635,0.19304928,1.2615319,1.33557525,-1.77606215,-0.030093721
319,1747533210840,0.024893839,0.20134723,1.2271198,1.3528858,-1.788579,-0.03355583
320,1747533210850,0.082491345,0.217943125,1.0604288,1.381648,-1.6623451500000002,-0.0617853375
321,1747533210860,0.07700006,0.21513647,1.0609169,1.3773869,-1.6500946,-0.07190535
322,1747533210870,0.050153765,0.213184015,1.08544465,1.3539511000000002,-1.76301265,-0.086020105
323,1747533210880,0.0268462974999999,0.218553265,1.0862988,1.3174658,-1.9475697,-0.094009587
324,1747533210890,0.0383169855,0.23283061,0.969761475,1.3044163,-2.0192087,-0.087884314
325,1747533210900,0.060282139,0.23539321,0.814541075,1.10015185,-2.03012775,-0.02157160575
326,1747533210910,0.069312256,0.243691145,0.727046525,1.00347912,-1.9217371,0.03062635275
327,1747533210920,0.07736614,0.25772443,0.69385475,0.95234644,-1.8642128,0.06231797
328,1747533210930,0.1330112,0.27017137,0.6787232,0.8335694,-1.7715348,0.09054748
329,1747533210940,0.1702299299999999,0.2618734299999999,0.8853176,0.747549335,-1.80881905,0.0292947699999999
330,1747533210950,0.18853423,0.26541226,1.048836,0.826378915,-1.9041602,-0.041545315
331,1747533210960,0.2020794,0.292624635,1.0976475,0.96406438,-1.8839202,-0.07403588
332,1747533210970,0.216356745,0.30385126,1.11607375,1.10095085,-1.84157595,-0.10279802
333,1747533210980,0.235759305,0.28786552,1.1331577,1.23677205,-1.82826015,-0.149935975
334,1747533210990,0.2634598,0.289940015,1.1335239,1.50282185,-1.79337275,-0.2404834549999999
335,1747533211000,0.2779812,0.30507156,1.1224194,1.6974989,-1.7544906,-0.30040458
336,1747533211010,0.245399555,0.34168014,0.98684548,1.89510545,-1.65515465,-0.33262883
337,1747533211020,0.232952635,0.372919465,0.863230495,1.9089539,-1.64583355,-0.32996567
338,1747533211030,0.217455005,0.436252335,0.740347665,1.8876486,-1.6516925,-0.3254383
339,1747533211040,0.20500809,0.48152497,0.6823841,1.7209347,-1.6990968,-0.22690132
340,1747533211050,0.20305562,0.4876264,0.7390053,1.4572818,-1.8034927,-0.16085494
341,1747533211060,0.228193535,0.461268185,0.801606015,1.4088121999999998,-1.9089539,-0.1054611799999999
342,1747533211070,0.26284966,0.452970235,0.811734365,1.4045512,-1.9254655,-0.08149273
343,1747533211080,0.28725538,0.44784504,0.8171036,1.4072144,-1.9222697,-0.07456851
344,1747533211090,0.3653537,0.4041588,0.83443177,1.5845809,-1.8764633,-0.15606125
345,1747533211100,0.36364532,0.3995217,0.8151512,1.7140105,-1.8237327,-0.2050634
346,1747533211110,0.343144495,0.4620003849999999,0.70288488,1.79257375,-1.69030835,-0.19467708
347,1747533211120,0.359496325,0.476033685,0.65541574,1.7712685,-1.66048095,-0.184823385
348,1747533211130,0.385122325,0.46956615,0.660785025,1.66687255,-1.7273263,-0.2101234149999999
349,1747533211140,0.39854547,0.46370876,0.6887296,1.5867114,-1.798699,-0.23435818
350,1747533211150,0.3802412,0.47493544,0.73290396,1.5494272,-1.892975,-0.24714136
351,1747533211160,0.385610465,0.45943776,0.834675785,1.62426195,-2.052232,-0.2743056
352,1747533211170,0.417581965,0.47639975,0.745960975,1.7446369000000002,-2.0929784,-0.3043993149999999
353,1747533211180,0.4710305,0.50715095,0.6217358399999999,1.94836875,-1.90629075,-0.336623565
354,1747533211190,0.48860263,0.49092112,0.593181135,2.1164142000000004,-1.69350415,-0.3882889
355,1747533211200,0.48274526,0.4729829,0.58329684,2.1528995,-1.6628778,-0.42077947
356,1747533211210,0.44540447,0.48445365,0.5418071,2.1920479,-1.66420935,-0.46099319
357,1747533211220,0.397691275,0.5400986999999999,0.45492272,2.18086265,-1.6809873,-0.454601605
358,1747533211230,0.358031965,0.60086895,0.39232202,2.10283205,-1.7081515,-0.3933489049999999
359,1747533211240,0.3555914,0.6164886,0.4190463,2.0026972,-1.7707358000000002,-0.325171975
360,1747533211250,0.35107635,0.627471165,0.414409225,1.891377,-1.85542435,-0.25273399
361,1747533211260,0.367062105,0.654195415,0.401352155,1.77046945,-1.93958025,-0.188285495
362,1747533211270,0.42331729,0.6230781249999999,0.426978155,1.70042835,-2.05090045,-0.18908444
363,1747533211280,0.467979785,0.5861035,0.444550275,1.71321155,-2.110289,-0.225303435
364,1747533211290,0.47762007,0.58964235,0.4429639,1.7406421,-2.100169,-0.2444782
365,1747533211300,0.4915313,0.58158845,0.4053791,1.8359833,-2.0490363,-0.29933932
366,1747533211310,0.4373506,0.6020892499999999,0.251134905,1.95396135,-1.81760745,-0.320644605
367,1747533211320,0.38390206,0.62515265,0.261385315,2.0168119,-1.7038905,-0.297741415
368,1747533211330,0.35485925,0.6371114250000001,0.267242685,2.0306602500000004,-1.74117475,-0.2668487499999999
369,1747533211340,0.35485925,0.665666125,0.276516855,2.00482765,-1.8181401,-0.234091865
370,1747533211350,0.3699908,0.6787232,0.30214286,1.9901803,-1.9214708,-0.234091865
371,1747533211360,0.36901456,0.65285313,0.30751213,1.98618555,-1.9965719,-0.22556975
372,1747533211370,0.3427784,0.77048874,0.118855886,1.95955395,-1.9757992,-0.161121248
373,1747533211380,0.35205259,0.736076655,0.125079343,1.9041602,-1.95422765,-0.092145376
374,1747533211390,0.358520105,0.6879973850000001,0.097866955,1.8722023,-1.969674,-0.070307456
375,1747533211400,0.36242503,0.6743302,0.06443111,1.8801918,-2.018676,-0.046339005
376,1747533211410,0.3990336,0.63357264,-0.004881145,1.9196066,-2.0181434,-0.058589544
377,1747533211420,0.3226437,0.58085626,-0.30751213,1.9244002,-1.9728698,-0.06977482
378,1747533211430,0.31202719,0.58049018,-0.562429925,1.77073585,-1.8005632,-0.0165115998
379,1747533211440,0.30165476,0.5547421,-0.6867771,1.659682,-1.6333167,0.0122505417
380,1747533211450,0.30165476,0.5547421,-0.6867771,1.5470303,-1.4263891,0.03568636
381,1747533211460,0.28408263,0.573900625,-0.67457422,1.4860439,-1.3102753,0.05006743
382,1747533211470,0.211597635,0.597940275,-0.69800374,1.3214606,-1.0237191,0.16484968
383,1747533211480,0.17474499,0.6135599,-0.85395632,1.2474247,-0.9177253,0.25300032
384,1747533211490,0.19768637,0.6133158,-0.9374239,1.0610034,-0.79202414,0.3552657
385,1747533211500,0.22428861,0.5605995,-1.065554,0.74461985,-0.608266,0.42770368
386,1747533211510,0.28383859,0.3948846299999999,-1.151096,0.299871942,-0.31052459,0.4127899849999999
387,1747533211520,0.307024015,0.250158675,-1.19844305,0.0383495205,-0.07616640945,0.329699355
388,1747533211530,0.30922054,0.18975451,-1.2793480000000002,-0.0748348264999999,0.11851067055,0.256995055
389,1747533211540,0.32020313,0.17718557,-1.3403623,-0.193611805,0.393881525,0.187486545
390,1747533211550,0.390613615,0.15985749,-1.4980234,-0.370179385,0.723847185,0.1049285475
391,1747533211560,0.417948035,0.15546446,-1.4432325499999998,-0.593352305,1.2956279,-0.0322242525
392,1747533211570,0.433445675,0.16693516,-1.2184558,-0.85221157,1.8682075,-0.1600559899999999
393,1747533211580,0.4313711999999999,0.1858496,-0.9707377,-1.0005496,2.1843247,-0.228499235
394,1747533211590,0.431005125,0.22880367,-0.7575537,-1.0077401,2.3292007,-0.26205507
395,1747533211600,0.44223175,0.30189882,-0.5563285,-1.0279802,2.5390577,-0.3222425
396,1747533211610,0.4510178,0.34192422,-0.4556549,-1.0599382,2.6642263,-0.3898868
397,1747533211620,0.4493093999999999,0.51923179,-0.07529166,-1.2181299,2.57634205,-0.475640575
398,1747533211630,0.42575787,0.61978338,0.16303024,-1.3430322,2.3505059,-0.495347975
399,1747533211640,0.41465324,0.65041256,0.22062775,-1.3709954,2.2434468,-0.4825648
400,1747533211650,0.4915313,0.7214332,0.21159762,-1.55288925,1.8157433,-0.417849985
401,1747533211660,0.47371513,0.7758579999999999,0.20098114,-1.6349146,1.71747265,-0.362722545
402,1747533211670,0.43527609,0.81881205,0.21013328,-1.71134735,1.6468989,-0.270044535
403,1747533211680,0.398057375,0.8757994,0.195855935,-1.77952425,1.6128104,-0.1254348885
404,1747533211690,0.39268813,0.9076489,0.18157859,-1.8141453,1.6016251,-0.040480047
405,1747533211700,0.44784504,0.87299275,0.26748675,-1.9936424,1.4471618,0.20399815
406,1747533211710,0.49470404,0.7907455,0.39854547,-1.9941751,1.1582087,0.196274975
407,1747533211720,0.58488317,0.684702605,0.48213509,-1.9616845,1.0588728,0.16245283
408,1747533211730,0.60843474,0.66871685,0.47151858,-1.85329385,1.026914915,0.101732756
409,1747533211740,0.626739,0.7873287,0.375116,-1.4327807,1.3443637,-0.0628506
410,1747533211750,0.5735345,0.7975791,0.41465324,-1.3566142,1.423726,-0.08841695
411,1747533211760,0.49860895,0.8332114,0.4283205,-1.31933,1.4391723,-0.06231797
412,1747533211770,0.47383714,0.905452425,0.42587989,-1.3342437,1.42212805,0.0591221765
413,1747533211780,0.473959185,0.838458675,0.482379125,-1.3571469,1.28417625,0.144077015
414,1747533211790,0.511421985,0.7432763,0.542417235,-1.3158679,1.0751181,0.170175995
415,1747533211800,0.5452239,0.7143555,0.5361938,-1.2703278,0.9938917,0.15073492
416,1747533211810,0.5939133249999999,0.70056633,0.450407655,-1.12518555,0.9744507,0.059388495
417,1747533211820,0.5984283749999999,0.71472165,0.39512868,-1.0540792,1.04502445,0.0047936905
418,1747533211830,0.563040075,0.73217177,0.40464693,-0.95421065,1.19149825,-0.0338221465
419,1747533211840,0.5349735,0.7382732,0.42929673,-0.8815063,1.293231,-0.051132694
420,1747533211850,0.5176453999999999,0.7584078999999999,0.404036775,-0.84182525,1.36886485,-0.0364853069999999
421,1747533211860,0.50080545,0.7512082,0.40049794,-0.8764463499999999,1.3470269,-0.0245010815
422,1747533211870,0.48616205,0.7307074,0.43320161,-0.928377965,1.2546152,-0.012250541
423,1747533211880,0.482623235,0.71643005,0.4538244449999999,-0.999484365,1.0940265999999998,0.0069242195
424,1747533211890,0.48152497,0.7153318,0.45174995,-1.0428939,0.9981528,0.022370555
425,1747533211900,0.50007332,0.69641736,0.502757935,-1.0929613,0.93636745,0.015978966
426,1747533211910,0.511544,0.688607535,0.548640665,-1.0612697,0.927845315,-0.0029294773
427,1747533211920,0.5308245,0.67762493,0.54266125,-0.9917612,0.972053815,-0.0255663475
428,1747533211930,0.5299703,0.66542208,0.505808625,-0.9507485,1.0061423,-0.042077947
429,1747533211940,0.5193538,0.6628595,0.49616838,-0.80587256,1.2048141,-0.09534117
430,1747533211950,0.452726215,0.67847915,0.46517313,-0.79548625,1.2508868,-0.0772316725
431,1747533211960,0.4122127,0.7060576000000001,0.4540685,-0.90254533,1.17232355,-0.023169501
432,1747533211970,0.369136585,0.72362975,0.51447266,-1.06739498,1.0199907,0.105194864
433,1747533211980,0.355835465,0.73156165,0.5896422800000001,-1.27219205,0.8231831000000001,0.2551308399999999
434,1747533211990,0.40818575,0.707522,0.64662966,-1.3954964,0.70653665,0.33129725
435,1747533212000,0.46187836,0.6640798,0.68336031,-1.3813817,0.72304827,0.36405413
436,1747533212010,0.495558275,0.63784365,0.70203068,-1.31480275,0.79069257,0.375772045
437,1747533212020,0.5293602,0.6024553500000001,0.715331785,-1.2194615,0.889495825,0.326503565
438,1747533212030,0.5408309,0.55510825,0.740591705,-1.0634002,0.966993825,0.231961335
439,1747533212040,0.5352176,0.5352176,0.76292294,-0.93823165,0.935568525,0.138750695
440,1747533212050,0.4995852,0.546444175,0.76682785,-0.92145373,0.828243105,0.066845347
441,1747533212060,0.46956614,0.55791485,0.7614586,-0.92518216,0.77444726,0.044208474
442,1747533212070,0.417703955,0.63332858,0.7128912249999999,-0.95793905,0.74621776,0.14034859
443,1747533212080,0.44064534,0.61722078,0.71435556,-0.9867012,0.76672411,0.21864553
444,1747533212090,0.4566311,0.6042857,0.71826047,-0.9981528,0.76752305,0.23435818
445,1747533212100,0.49201941,0.5615757,0.7665838,-1.019458,0.71532506,0.21145499
446,1747533212110,0.53228885,0.49653448,0.841631425,-0.92571482,0.5986786,0.0740358795
447,1747533212120,0.53143465,0.48689422,0.85493255,-0.6812366249999999,0.644485,-0.0412789955
448,1747533212130,0.5133744,0.49336173,0.82466945,-0.4138552399999999,0.758202,-0.149403335
449,1747533212140,0.5051985,0.49616838,0.7924539,-0.33768883,0.8111989,-0.18801917
450,1747533212150,0.45394647,0.52203846,0.70459324,-0.22690132,0.90920323,-0.22423817
451,1747533212160,0.42246306,0.56718904,0.61941725,-0.2809635,1.005077015,-0.21411815
452,1747533212170,0.31776253,0.6152683000000001,0.624786555,-0.538224865,0.9041432,-0.1432780675
453,1747533212180,0.30970864,0.6070924,0.689095615,-0.796817815,0.7299725,-0.0583232305
454,1747533212190,0.32239962,0.5937913,0.71874857,-0.85594,0.6668556,-0.039414786
455,1747533212200,0.34168017,0.5640163,0.7480355,-0.9108011,0.60240704,-0.01438107
456,1747533212210,0.36474355,0.5331430500000001,0.81991035,-0.83703154,0.592020735,-0.0178431778
457,1747533212220,0.364987615,0.51703528,0.80709735,-0.695351375,0.6647250499999999,-0.038615835
458,1747533212230,0.36071661,0.51239818,0.7664618,-0.5520733,0.79095888,-0.0559263849999999
459,1747533212240,0.36559775,0.5108118,0.7512082,-0.509729,0.84688526,-0.06657903
460,1747533212250,0.35254068,0.48835855,0.71386745,-0.4415521,0.9347696,-0.104928546
461,1747533212260,0.30641387,0.5103237,0.6302778499999999,-0.38163099,1.0474212500000002,-0.149403345
462,1747533212270,0.24625376,0.54668823,0.555230235,-0.525974325,1.0836402500000002,-0.100134861
463,1747533212280,0.22331238,0.55620646,0.54864067,-0.6711166,1.0855045,-0.048469532
464,1747533212290,0.1769415,0.5549862,0.5857374,-0.91612744,0.9582054,0.022370555
465,1747533212300,0.12983845,0.55669457,0.63308454,-1.1638014,0.7866978,0.118776985
466,1747533212310,0.1535120025,0.51642515,0.73815115,-1.44662915,0.54621434,0.30679617
467,1747533212320,0.214160225,0.462122415,0.8419975,-1.4905713,0.469781615,0.390419425
468,1747533212330,0.266144425,0.3998878,0.89898485,-1.34436375,0.49934272,0.363255175
469,1747533212340,0.29652956,0.36437747,0.8949579,-1.2405005,0.53742594,0.32597092
470,1747533212350,0.33509058,0.34851375,0.86982006,-1.0125339,0.69987875,0.25033715
471,1747533212360,0.35742183,0.32044715,0.80746335,-0.66818715,1.021588675,0.100134855
472,1747533212370,0.30116663,0.32837902,0.7338801500000001,-0.4905543,1.28151315,-0.0063915865
473,1747533212380,0.20317766,0.361326755,0.694831,-0.42690473,1.46846705,-0.042876894
474,1747533212390,0.1632743,0.37291947,0.6919023,-0.44741106,1.496164,-0.029827405
475,1747533212400,0.110801995,0.39976576,0.7063017,-0.57311225,1.4881744,0.042077947
476,1747533212410,0.09664667,0.40171823,0.7497439,-0.75633776,1.3784522,0.120907515
477,1747533212420,0.12739788,0.3411920499999999,0.861156025,-1.17472035,0.91506217,0.18562233
478,1747533212430,0.187069875,0.28713336,0.94096275,-1.31000895,0.657800795,0.1520665
479,1747533212440,0.22197006,0.251256935,0.978791575,-1.23996785,0.615722825,0.08628642
480,1747533212450,0.24405724,0.23514915,0.979645775,-0.97391805,0.8138620000000001,-0.03275688
481,1747533212460,0.237833785,0.243325075,0.94657605,-0.67883977,1.1408982,-0.14514228
482,1747533212470,0.198174485,0.26480212,0.929736085,-0.50280482,1.3885722,-0.18242654
483,1747533212480,0.161687925,0.27932352,0.920461885,-0.36432045,1.56780295,-0.20106867
484,1747533212490,0.15009521,0.281398,0.9108216,-0.3073288,1.6346483,-0.21198763
485,1747533212500,0.11019185,0.298970135,0.90154745,-0.38083205,1.5441009,-0.18269286
486,1747533212510,0.07443746,0.30043447,0.8673795,-0.5502091,1.3363743,-0.20186761
487,1747533212520,0.071386745,0.30812227,0.85188187,-0.8346347000000001,1.07112345,-0.22530343
488,1747533212530,0.065407345,0.31654225,0.8698200700000001,-0.97445065,0.955808565,-0.2159823699999999
489,1747533212540,0.06711575,0.311173,0.878118,-1.0322412,0.90920323,-0.21252026
490,1747533212550,0.06345488,0.319715,0.93156654,-1.149953,0.9369001,-0.14913702
491,1747533212560,0.062112569,0.275296585,1.05981865,-1.0349044,1.08470555,-0.168578095
492,1747533212570,0.018792408,0.27895744,1.1668377,-0.8463526,1.18697095,-0.14247912
493,1747533212580,0.017206036,0.30043447,1.1316934,-0.6346313,1.29296475,-0.12090752
494,1747533212590,0.00622345975,0.343388545,0.994045125,-0.64981132,1.31666685,-0.081492735
495,1747533212600,-0.0102504045,0.37658033,0.94206095,-0.76059884,1.2809805,-0.04474111
496,1747533212610,-0.0433201609999999,0.376824415,0.97085975,-1.3901702,0.8676578500000001,0.05486112
497,1747533212620,-0.04807928,0.3660859,1.0067362,-1.79497065,0.5083974499999999,0.11132014
498,1747533212630,-0.019036464,0.33948365,1.1355984,-2.01920875,0.206927625,0.147539135
499,1747533212640,0.10884953,0.24112856,1.3406065,-2.066613,0.08681905,0.15606125
500,1747533212650,0.127886,0.22575295,1.37331015,-1.95848865,0.162719145,0.147805445
501,1747533212660,0.15631867,0.184995395,1.4470154,-1.40561645,0.53156697,0.1049285475
502,1747533212670,0.170229935,0.1748670199999999,1.43078555,-1.15075195,0.65673554,0.051132696
503,1747533212680,0.12898426,0.190242625,1.34975855,-0.934236935,0.67431242,-0.0039947415
504,1747533212690,0.08517598,0.208913,1.2888663,-0.82611257,0.6556703,-0.02609898
505,1747533212700,0.08151512,0.22258021,1.228096,-0.7701862,0.5885586,-0.022903185
506,1747533212710,0.0279445555,0.250890845,1.15158415,-0.82078625,0.535828025,0.0540621694499999
507,1747533212720,0.0396593045,0.227339325,1.2405430000000002,-0.898017915,0.4532700349999999,0.1387507
508,1747533212730,0.07102066,0.183653075,1.3489044,-1.005609665,0.2551308399999999,0.1555286149999999
509,1747533212740,0.07175283,0.17791773,1.3798997,-1.073254,0.11664646,0.14434333
510,1747533212750,0.0571093965,0.180114245,1.59528025,-0.94116113,0.10759171,0.1861549599999999
511,1747533212760,0.059794027,0.16937573,1.7025435,-0.86020106,0.128897,0.20133498
512,1747533212770,0.078586435,0.0478352192999999,2.17674665,-0.387756265,0.064981131,0.14034859
513,1747533212780,0.0799287499999999,-0.0053692596999999,2.4125059,0.32304146,-0.2210423665,-0.014381075
514,1747533212790,0.080416865,-0.026724269,2.41641075,1.037034975,-0.556866965,-0.18295918
515,1747533212800,0.074925575,-0.02464978225,2.33733625,1.3800501,-0.717189275,-0.26152243
516,1747533212810,0.069556315,0.00402694475,2.26387505,1.6181367,-0.86605999,-0.311856165
517,1747533212820,0.06296677,0.018304294,2.2365406,1.80695485,-1.269528915,-0.3688478149999999
518,1747533212830,0.040147416,0.035266272,2.0246989,1.92120445,-1.7353158,-0.4285026349999999
519,1747533212840,0.066871687,0.067359798,1.8796069,1.9387813,-1.8828549,-0.45167214
520,1747533212850,0.07565775,0.08297946,1.8145657,1.995773,-2.11268575,-0.4937500649999999
521,1747533212860,0.0295309274999999,0.143017555,1.6482406,2.0562267,-2.1571605,-0.470580565
522,1747533212870,0.03819496,0.1593693849999999,1.5530583,2.142513,-2.2213427,-0.430366845
523,1747533212880,0.0607702574999999,0.15412215,1.48691875,2.21122265,-2.3489082,-0.432763695
524,1747533212890,0.06687169,0.15082738,1.4714211,2.2285333,-2.4176178,-0.45486793
525,1747533212900,0.0622346,0.176697445,1.4289552,2.370746,-2.55423785,-0.508930085
526,1747533212910,0.053082452,0.20451997,1.2927713,2.437325,-2.5774074,-0.52357745
527,1747533212920,0.0312393279999999,0.226607155,1.1233956,2.6005768500000004,-2.6549053,-0.538224865
528,1747533212930,-0.0152535765,0.262117495,1.0564019,2.63439895,-2.69538535,-0.494549015
529,1747533212940,-0.050763905,0.29116032,1.0389518,2.6354642,-2.6844664,-0.4564658
530,1747533212950,-0.07529166,0.32496223,0.97574088,2.6328010500000003,-2.7630297,-0.296409825
531,1747533212960,-0.0619905385,0.32935526,0.89654433,2.54837885,-2.86183295,-0.22210763
532,1747533212970,-0.005979402,0.32227761,0.86262035,2.4327977,-2.98380575,-0.1784317999999999
533,1747533212980,0.0420998764999999,0.3077562,0.86152205,2.3750072,-3.0407975,-0.16831179
534,1747533212990,0.04905551,0.3014107,0.8617661,2.3798008,-3.0407975,-0.17630127
535,1747533213000,0.039781331,0.302753015,0.8493192350000001,2.4905883,-2.9379994,-0.14807176
536,1747533213010,0.079196576,0.31105095,0.792575885,2.55184105,-2.8410604,-0.12010857
537,1747533213020,0.127519915,0.3133695,0.76048235,2.5305357,-2.7899276,-0.120907515
538,1747533213030,0.144359865,0.322155565,0.77927475,2.48792515,-2.8032434,-0.14327807
539,1747533213040,0.15277983,0.3059257549999999,0.823693185,2.4735441,-2.8186898,-0.15499598
540,1747533213050,0.15595257,0.28579104,0.84663457,2.511361,-2.8767467,-0.20133498
541,1747533213060,0.17279253,0.29958026,0.780373075,2.72547915,-2.67061795,-0.23382555
542,1747533213070,0.16083373,0.322155565,0.7272906,2.9055089,-2.44771135,-0.2106560499999999
543,1747533213080,0.1499731799999999,0.329355265,0.657368175,3.0013826,-2.3515712,-0.1523328175
544,1747533213090,0.16010156,0.3380193,0.6118515,3.0322752,-2.3148196,-0.118776985
545,1747533213100,0.1889003,0.34241232,0.55523026,3.0344057,-2.2647521,-0.09321064
546,1747533213110,0.223556435,0.33643292,0.518377565,2.9928606,-2.2301311,-0.090014845
547,1747533213120,0.225142805,0.33533466,0.52557727,2.89592145,-2.2663502,-0.14594123
548,1747533213130,0.215014425,0.361326755,0.55523022,2.9044435,-2.2775355,-0.135554905
549,1747533213140,0.20866893,0.37145513,0.5710939,2.9015140500000003,-2.3046997,-0.11930962
550,1747533213150,0.19219509,0.40037592,0.511788075,2.8732846,-2.3491745,-0.093210638
551,1747533213160,0.20598432,0.4067214,0.440401315,2.8373319,-2.3880566,-0.06364955
552,1747533213170,0.2617513999999999,0.4225851149999999,0.33203989,2.7771444,-2.3020365,-0.046072688
553,1747533213180,0.30787822,0.4444282499999999,0.29396696,2.72308215,-2.15156795,-0.052197961
554,1747533213190,0.31605414,0.44833317,0.32532832,2.7126958,-2.1022995,-0.06338324
555,1747533213200,0.2945771,0.45858356,0.39415246,2.6881948,-2.1102889,-0.08522116
556,1747533213210,0.23600335,0.492385525,0.31971499,2.6011095,-2.40350295,-0.08016115
557,1747533213220,0.233074655,0.543149415,0.1550983825,2.50550195,-2.54651475,-0.0380832055
558,1747533213230,0.256382135,0.55242358,0.0223312375,2.44957565,-2.5073663,0.0237021345
559,1747533213240,0.2774931,0.5464442,-0.04905551,2.4250746,-2.4687505,0.05486112
560,1747533213250,0.326670635,0.53289902,-0.20781474,2.23891965,-2.2860574,0.092145375
561,1747533213260,0.292624635,0.5239908950000001,-0.2496705599999999,2.06847735,-2.17180785,0.1107875
562,1747533213270,0.237589725,0.5159370000000001,-0.273832235,1.9449066,-2.13026265,0.1472728099999999
563,1747533213280,0.21416023,0.502025775,-0.31190516,1.88738225,-2.1513015,0.18429075
564,1747533213290,0.20769271,0.4888467,-0.34265637,1.865278,-2.1672804,0.20026971
565,1747533213300,0.21733299,0.463586735,-0.810636175,1.68045465,-1.91667705,0.32410671
566,1747533213310,0.20049304,0.448333175,-0.9789137,1.5464977,-1.7243968,0.380299425
567,1747533213320,0.186215685,0.42429353,-1.11912455,1.38564275,-1.52279555,0.43516054
568,1747533213330,0.191584945,0.38841711,-1.2326111,1.1792477,-1.2998889500000002,0.461259515
569,1747533213340,0.19890666,0.36779428,-1.2830089,1.0594054,-1.1771172,0.46339005
570,1747533213350,0.19841854,0.28969595,-1.4416462,0.6631271,-0.8016115,0.38456047
571,1747533213360,0.23246454,0.2472299849999999,-1.539269,0.42024682,-0.375772045,0.302801415
572,1747533213370,0.273100065,0.231122215,-1.6038222000000002,0.27830033,0.0157126449999999,0.2340918649999999
573,1747533213380,0.31300342,0.211475605,-1.56806785,0.0727043,0.69348714,0.0974717
574,1747533213390,0.32081325,0.20110317,-1.4184607,-0.11717909,1.3387711,-0.040213735
575,1747533213400,0.3149558799999999,0.207204595,-1.24810875,-0.23702135,1.6612799,-0.126766475
576,1747533213410,0.3162982,0.21086545,-1.1617125,-0.36618467,1.8682075,-0.204530775
577,1747533213420,0.359862415,0.25308736,-0.955972275,-0.508397475,1.98458765,-0.272441385
578,1747533213430,0.3900035,0.27310005,-0.89617825,-0.58696073,2.0335898,-0.3089267
579,1747533213440,0.4552888,0.38646464,-0.48872463,-0.907339005,2.11215305,-0.50173956
580,1747533213450,0.447845065,0.45955979,-0.32154543,-0.90174636,2.1968416,-0.50520168
581,1747533213460,0.4471129,0.49446,-0.2438132,-0.87831056,2.249306,-0.49747851
582,1747533213470,0.45345837,0.61111933,-0.18572757,-0.8546084,2.3931166,-0.44474791
583,1747533213480,0.45089577,0.63027784,-0.138014375,-0.99655495,2.39631235,-0.383761525
584,1747533213490,0.4454044849999999,0.645531445,-0.064431111,-1.1222562,2.3552997,-0.34567833
585,1747533213500,0.4510178,0.63137612,-0.0145214049999999,-1.3257216,2.1166805,-0.303334055
586,1747533213510,0.4595598,0.6211257,0.009518232,-1.4338459,1.9329224,-0.297208785
587,1747533213520,0.49104315,0.64443315,0.1067750449999999,-1.5033544,1.76727375,-0.29294772
588,1747533213530,0.5178895,0.7043492,0.146922465,-1.5555524,1.6953684,-0.28602351
589,1747533213540,0.5266756,0.7224094,0.16058967,-1.582983,1.6937705,-0.28442562
590,1747533213550,0.480792775,0.7736614500000001,0.18438525,-1.61281035,1.7278589,-0.22903186
591,1747533213560,0.456509085,0.79672488,0.184751335,-1.65755145,1.71134735,-0.150468602
592,1747533213570,0.4496754899999999,0.783423755,0.209157065,-1.7150758000000002,1.6679378,-0.062051654
593,1747533213580,0.46370879,0.7330259100000001,0.2587006899999999,-1.75848535,1.5206650000000002,0.015446335
594,1747533213590,0.47884035,0.70215267,0.27993366,-1.7731327,1.3992249,0.051132694
595,1747533213600,0.53106857,0.662859475,0.2718797699999999,-1.73265265,1.22638575,0.01464738535
596,1747533213610,0.5532778,0.66066295,0.26406994,-1.7108147,1.1930962,-0.0053263223
597,1747533213620,0.5708499300000001,0.676526695,0.3350906,-1.50415345,1.3350427,-0.13102753
598,1747533213630,0.5630400799999999,0.709840505,0.3333822,-1.2639363,1.59816295,-0.17550232
599,1747533213640,0.5703618,0.72753465,0.3214234,-1.1691277,1.7283915,-0.17470337
600,1747533213650,0.55718273,0.72607033,0.271635725,-1.0359697,1.9872508,-0.20879184
601,1747533213660,0.48030469,0.73363611,0.307634165,-1.02238755,2.025334,-0.1957423449999999
602,1747533213670,0.426368015,0.73436828,0.33728712,-1.12145715,1.7816548,-0.13289174
603,1747533213680,0.43783869,0.72607033,0.33045352,-1.2761868,1.49270185,-0.08282431
604,1747533213690,0.45809543,0.72533816,0.3277689,-1.3411679,1.4088123,-0.07190535
605,1747533213700,0.49006698,0.69409883,0.3441207,-1.4487597,1.2911005,-0.087884314
606,1747533213710,0.508981415,0.67469627,0.40745358,-1.3800501,1.4301175499999998,-0.10839066
607,1747533213720,0.515815,0.6836044,0.4506517,-1.2516857,1.66474205,-0.1235706799999999
608,1747533213730,0.4796945,0.7055695,0.4859179649999999,-1.23570675,1.7403757999999998,-0.1209075199999999
609,1747533213740,0.4554108,0.7224094,0.50837123,-1.2522184,1.7465011,-0.11132014
610,1747533213750,0.39586085,0.75389284,0.59989274,-1.3198626,1.6703347,-0.06657903
611,1747533213760,0.38744089,0.7643873,0.782203485,-1.42825335,1.2743226,0.068176925
612,1747533213770,0.46029198,0.7310734999999999,0.81441905,-1.5124092,0.92651375,0.10226539
613,1747533213780,0.52643147,0.6988579500000001,0.7936741700000001,-1.5393071,0.8181231,0.09427591
614,1747533213790,0.55962324,0.6811638,0.78806084,-1.5504924,0.65726817,0.048469532
615,1747533213800,0.61221758,0.6206375850000001,0.742300125,-1.4705976,0.58483016,-0.05752428
616,1747533213810,0.5963539,0.626128885,0.7060576249999999,-1.0197244,1.02851283,-0.16431704
617,1747533213820,0.5774395,0.6372335,0.6850687,-0.7451525,1.3369069,-0.19707392
618,1747533213830,0.5249671300000001,0.62600685,0.676770745,-0.4591289799999999,1.6271914,-0.2644519
619,1747533213840,0.5027579,0.6211257,0.69409883,-0.39254996,1.6655409,-0.2892193
620,1747533213850,0.4502856,0.6169767,0.71996886,-0.3222425,1.5952336,-0.34461305
621,1747533213860,0.37108904,0.6910480800000001,0.6074585349999999,-0.4876247849999999,1.29243215,-0.300937205
622,1747533213870,0.361570825,0.71081673,0.5170353050000001,-0.7968177999999999,1.0194581,-0.2263686949999999
623,1747533213880,0.37316355,0.69544112,0.5012936,-1.01786015,0.8993495,-0.175236005
624,1747533213890,0.380851335,0.684824645,0.51349646,-1.13903395,0.907339,-0.124369625
625,1747533213900,0.39317621,0.670059175,0.54693228,-1.18643825,0.99948435,-0.084688525
626,1747533213910,0.382071595,0.6263729,0.68360433,-1.097755,1.15474665,-0.0753674625
627,1747533213920,0.35632357,0.580856225,0.82686593,-0.92491585,1.22878255,-0.0993359125
628,1747533213930,0.35217461,0.5737785950000001,0.81930015,-0.8074704500000001,1.1638014,-0.144343335
629,1747533213940,0.35095432,0.58110034,0.780251,-0.7701862,1.1206582,-0.16724652
630,1747533213950,0.35022214,0.59989274,0.67140144,-0.7984157,1.0215886,-0.18855181
631,1747533213960,0.3431445,0.60892284,0.5708499,-0.9422264,0.9395633,-0.18801917
632,1747533213970,0.315077915,0.5967199750000001,0.57182612,-1.20241725,1.0247844000000002,-0.10066749
633,1747533213980,0.324718165,0.583906975,0.637599575,-1.2053467,1.1494203500000002,-0.07456851
634,1747533213990,0.33277205,0.55095926,0.7387613049999999,-1.14782245,1.2681973000000002,-0.087085368
635,1747533214000,0.29677361,0.520208035,0.8426076499999999,-1.03836655,1.33051525,-0.1131843479999999
636,1747533214010,0.2677308,0.5026359,0.91789927,-0.88949582,1.30388365,-0.134489635
637,1747533214020,0.3086104,0.45687516,0.90545235,-0.633033395,1.20907515,-0.260190835
638,1747533214030,0.3560795399999999,0.423683375,0.8401670699999999,-0.24607609,1.32625425,-0.46179214
639,1747533214040,0.332772065,0.438082765,0.795992705,0.0631169199999999,1.634382,-0.56565544
640,1747533214050,0.29774985,0.4497975,0.77659017,0.15978967,1.7694043,-0.58056915
641,1747533214060,0.2059843049999999,0.531922755,0.720212935,0.243146605,2.04956885,-0.509729045
642,1747533214070,0.17572121,0.55742675,0.69409883,0.21891184,2.10443,-0.47510794
643,1747533214080,0.081515121,0.604773885,0.68738722,-0.1850897004999999,1.9710055,-0.2785666599999999
644,1747533214090,0.038561042,0.61502427,0.72167724,-0.36272255,1.881257,-0.16884442
645,1747533214100,0.05662128,0.58305275,0.7902574,-1.1169298,1.1877699,-0.08042747
646,1747533214110,0.05662128,0.58305275,0.7902574,-1.1169298,1.1877699,-0.08042747
647,1747533214120,0.05662128,0.58305275,0.7902574,-1.1169298,1.1877699,-0.08042747
648,1747533214130,0.2022014349999999,0.41135847,0.963782045,-1.4857776,0.43595949,-0.12836437
649,1747533214140,0.2169669,0.422219,0.96036524,-1.4295849,0.48203218,-0.14061491
650,1747533214150,0.2072046,0.45516676,0.9867234,-1.02904545,1.14356135,-0.196541295
651,1747533214160,0.16205402,0.4612682,1.0135698,-0.9763149,1.2282499,-0.21092236
652,1747533214170,0.064431113,0.476765835,1.023332,-0.929443235,1.1677962000000002,-0.225569745
653,1747533214180,0.0578415679999999,0.44479435,0.99172655,-0.962200105,0.767523085,-0.262854005
654,1747533214190,0.07980672,0.4036707,0.9623177,-0.99442434,0.43569317,-0.3073288
655,1747533214200,0.112266333,0.419900475,0.82637783,-1.0064086,0.228499225,-0.39441415
656,1747533214210,0.084565838,0.43893695,0.7346123,-1.0066749000000002,0.281496135,-0.42770367
657,1747533214220,0.0096402615,0.51117791,0.7281448,-1.0197243500000002,0.495347965,-0.37816888
658,1747533214230,-0.0633328564999999,0.56169775,0.8023382,-1.09455925,0.742755625,-0.308127745
659,1747533214240,-0.09859913,0.554254,0.835652,-1.20268365,0.80241045,-0.258592945
660,1747533214250,-0.132157,0.549860985,0.884219365,-1.28737215,0.6902913749999999,-0.1856223249999999
661,1747533214260,-0.13325526,0.54815257,0.89300543,-1.3283848,0.6263755,-0.14434333
662,1747533214270,-0.12715383,0.53009236,0.87396896,-1.4295849,0.49321744,-0.040480047
663,1747533214280,-0.0235515245,0.442109685,0.785864355,-1.65222515,0.332628825,0.0442084764999999
664,1747533214290,-0.024405725,0.42075467,0.76804817,-1.6916399,0.33129725,0.05219796
665,1747533214300,-0.05418071,0.401840255,0.83138103,-1.6607473,0.46099318,0.156593875
666,1747533214310,-0.0450285619999999,0.3673061549999999,0.85883745,-1.5997609000000002,0.59255335,0.203199195
667,1747533214320,-0.042221904,0.34631723,0.8578612,-1.5707325,0.6641924,0.21678132
668,1747533214330,-0.0389271305,0.313247475,0.918631435,-1.5118766,0.8687231550000001,0.29028456
669,1747533214340,-0.029286869,0.2979939,0.9488945,-1.5108113,0.907072695,0.282561395
670,1747533214350,-0.025626011,0.27041543,1.040416,-1.5243934,0.86659265,0.27324033
671,1747533214360,-0.013301119985,0.217577035,1.1519502,-1.55422085,0.607200725,0.1920139149999999
672,1747533214370,0.032093528015,0.176819475,1.14499465,-1.51134395,0.380565715,0.063915865
673,1747533214380,0.044052334,0.15485432,1.08678695,-1.4663365,0.25086978,-0.02876214
674,1747533214390,0.022941383,0.15619664,1.0599406,-1.28897,0.400539445,-0.0535295415
675,1747533214400,-0.01854835,0.19085276,1.0555476,-1.2000204,0.48948902,-0.034621093
676,1747533214410,-0.00329477288,0.185971615,0.98111005,-0.93317165,0.8578041999999999,-0.0018642128
677,1747533214420,-0.0328257005,0.195001735,0.92290245,-0.8628642,0.9853696,-0.0010652645
678,1747533214430,-0.059794027,0.21135357,0.8998391,-1.0098706,1.113734,0.056459017
679,1747533214440,-0.10079564,0.20622836,0.942305,-1.1877699,1.0226538,0.07350325
680,1747533214450,-0.14057697,0.20793676,1.0182068,-1.37259325,0.734766165,0.1390170075
681,1747533214460,-0.10689708,0.17230442,1.1746475,-1.4029533,0.6146576,0.1571265
682,1747533214470,-0.0054912885,0.102870125,1.2305367,-1.0455571,0.42583947,0.0399474175
683,1747533214480,0.02013472325,0.121296445,1.17916265,-0.8322378500000001,0.61279339,0.01784317975
684,1747533214490,0.037828874,0.12690976,1.1573195,-0.7222493,0.7435546,0.0058589545
685,1747533214500,0.059549972,0.1181237,1.1651293,-0.5864281,0.9310411,-0.04314321
686,1747533214510,0.053570563,0.1255674525,1.25945745,-0.42104578,1.06526445,-0.168045463
687,1747533214520,0.0335578705,0.148752895,1.317055,-0.21704764,1.1664645500000002,-0.24394556
688,1747533214530,0.018792408,0.16400647,1.3291358,-0.06977482,1.2378373,-0.25672874
689,1747533214540,-0.015375607,0.19280522,1.3852689,0.05539375,1.25861,-0.25672874
690,1747533214550,-0.05832968,0.20940112,1.3713577,0.02609898,1.1195929,-0.24927188
691,1747533214560,-0.1183677649999999,0.24076248,1.39991235,-0.58749336,0.253000315,-0.17417074
692,1747533214570,-0.14582421,0.2544296849999999,1.50144015,-0.97977695,-0.316383535,-0.046871638
693,1747533214580,-0.122516745,0.231244235,1.594792,-0.984038,-0.40080575,0.071372722
694,1747533214590,-0.09811102,0.21159762,1.6437255,-0.948618,-0.4048005,0.12516858
695,1747533214600,-0.042954076,0.14692247,1.735247,-0.61891866,-0.33795516,0.2127865749999999
696,1747533214610,0.0555230198,0.02928687,1.92927255,-0.090813785,-0.3856257349999999,0.12463594
697,1747533214620,0.112754445,-0.032459615,1.95685105,0.450606875,-0.50706586,-0.0479369
698,1747533214630,0.11006982,-0.03734076,1.9156054,0.72304825,-0.6029396499999999,-0.16058862
699,1747533214640,0.076633975,-0.0019524579,1.7823502,0.8346347,-0.6450176,-0.20399815
700,1747533214650,0.01269097775,0.0544247665,1.65629455,1.0183928,-0.7765778,-0.210922355
701,1747533214660,-0.0014643435,0.067847915,1.6317668,1.02824645,-1.025583375,-0.1784317899999999
702,1747533214670,-0.0350222139999999,0.096524643,1.50229435,0.9707222,-1.33264585,-0.149935975
703,1747533214680,-0.032215554,0.09396204,1.4745939,0.9321064,-1.4492923,-0.14647387
704,1747533214690,-0.0230634085,0.09225364,1.44225635,0.8942895,-1.5419703,-0.15046861
705,1747533214700,-0.018792408,0.12398108,1.3798997,0.82185155,-1.7108147,-0.14168017
706,1747533214710,0.0032947735,0.1090935899999999,1.4573878,1.03064338,-1.7363811,-0.140881225
707,1747533214720,0.0327036715,0.074681515,1.44713745,1.2761868,-1.8010959,-0.20879183
708,1747533214730,0.0273344115,0.085298005,1.355616,1.3875069,-1.83864645,-0.25726136
709,1747533214740,0.01952458,0.09640261,1.3113196,1.4189322,-1.8429075,-0.2695119
710,1747533214750,0.0061014313,0.13179092,1.2856936,1.468467,-1.820537,-0.26844665
711,1747533214760,-0.0079318601,0.143261605,1.24920695,1.55981345,-1.83039065,-0.24820662
712,1747533214770,-0.0040269445999999,0.1507053549999999,1.19758895,1.60535355,-1.87832755,-0.240217135
713,1747533214780,-0.006833603,0.15375607,1.171963,1.6085494,-1.9094865,-0.2412824
714,1747533214790,0.0021965155,0.183042935,1.061649,1.53344815,-2.02746465,-0.231428695
715,1747533214800,0.02220921,0.193903485,1.03187405,1.4748586,-2.0756679,-0.22690132
716,1747533214810,0.024893839,0.1952458,1.05823225,1.473527,-2.112952,-0.25912557
717,1747533214820,0.0152535769999999,0.2041538849999999,1.06628615,1.5227955,-2.0924457,-0.263386635
718,1747533214830,0.0037828871999999,0.209523145,1.02040335,1.5542208,-2.0777984,-0.25992453
719,1747533214840,-0.0036608586,0.20940112,0.9798898,1.5680692,-2.062352,-0.22903186
720,1747533214850,0.027334413,0.2403964,0.8673795,1.4801849,-2.020274,-0.1571265
721,1747533214860,0.05735345,0.294211015,0.877019725,1.4676681,-1.9302592,-0.0828243135
722,1747533214870,0.0983550725,0.30677995,0.8884904,1.4769892,-1.8612833,-0.041012682
723,1747533214880,0.1439937825,0.3001903999999999,0.90484225,1.5017566,-1.7963021499999998,-0.0300937199999999
724,1747533214890,0.1913408899999999,0.27956757,0.9536537,1.55901455,-1.77899165,-0.0934769515
725,1747533214900,0.21379416,0.26211748,0.9894081,1.5994946,-1.7923075,-0.15233281
726,1747533214910,0.18523945,0.274198315,0.95719252,1.71188,-1.78165485,-0.200802345
727,1747533214920,0.194635655,0.33020945,0.920339855,1.77260005,-1.68764525,-0.199470765
728,1747533214930,0.196222025,0.35363895,0.93217665,1.81734115,-1.62878935,-0.196541295
729,1747533214940,0.18597162,0.34973404,0.95938903,1.8397117,-1.6250609,-0.19760656
730,1747533214950,0.183042935,0.3502221599999999,1.00112288,1.91694345,-1.7691379500000002,-0.212520255
731,1747533214960,0.17462296,0.362913135,0.9648804,2.01601295,-1.81494435,-0.204264455
732,1747533214970,0.1849954,0.391833905,0.86481688,2.07380355,-1.7989654000000002,-0.16990968
733,1747533214980,0.19573392,0.40708748,0.80392456,2.0836573,-1.7811222,-0.1470065
734,1747533214990,0.24723,0.43442193,0.6723777,1.9563582,-1.7305222,-0.080960095
735,1747533215000,0.260042995,0.42941874,0.71899265,1.8732675,-1.736381,-0.05006743
736,1747533215010,0.27346614,0.4285645449999999,0.75523512,1.83864645,-1.7699368999999998,-0.042077948
737,1747533215020,0.28042176,0.43198135,0.7641432,1.8311896,-1.7789917,-0.04474111
738,1747533215030,0.260043,0.431371215,0.8068533,1.7603495,-1.96381495,-0.031957934
739,1747533215040,0.2638259,0.42587993,0.7919658,1.7470337,-2.1361215,-0.0282295085
740,1747533215050,0.3247181649999999,0.44747897,0.767560015,1.79763375,-2.1630194,-0.049268481
741,1747533215060,0.363279215,0.41514139,0.735832565,1.89430645,-2.1438447,-0.10519486
742,1747533215070,0.40647735,0.41672775,0.67054727,2.1054951500000003,-1.9523635,-0.1821602199999999
743,1747533215080,0.42356135,0.44149956,0.61917322,2.3206786,-1.7081516,-0.251136095
744,1747533215090,0.379142925,0.45236011,0.57975798,2.3819313,-1.6319852,-0.27643612
745,1747533215100,0.337897255,0.480914805,0.53509551,2.4261398,-1.58724405,-0.260190845
746,1747533215110,0.32679266,0.49860895,0.51447266,2.4240093,-1.598962,-0.24554345
747,1747533215120,0.33118567,0.503002,0.45126185,2.3702135,-1.6618125,-0.22583607
748,1747533215130,0.36364532,0.5137405,0.40489095,2.2455776,-1.7422401,-0.22903186
749,1747533215140,0.3407039349999999,0.539610575,0.385854495,2.2405175,-1.7377127,-0.215716055
750,1747533215150,0.3261825149999999,0.584395075,0.4067214,2.24344695,-1.71907055,-0.18642128
751,1747533215160,0.32459614,0.58122232,0.453458355,2.2756712500000003,-1.7387779,-0.173904415
752,1747533215170,0.33289409,0.5614536699999999,0.3767023499999999,2.3390545,-1.82559695,-0.1595233449999999
753,1747533215180,0.37560411,0.5640162799999999,0.233440755,2.37793665,-1.8527612,-0.1619202
754,1747533215190,0.40464692,0.581466405,0.12398108,2.3776703,-1.8269285,-0.18216023
755,1747533215200,0.39805736,0.607824575,0.120076165,2.3172165,-1.6833841500000002,-0.193611815
756,1747533215210,0.34887981,0.6136819250000001,0.1342314875,2.33585855,-1.6716662,-0.1808286399999999
757,1747533215220,0.30946457,0.642602745,0.077000061,2.33532595,-1.68737885,-0.14114754
758,1747533215230,0.304583445,0.6740861199999999,0.0472250765,2.30310165,-1.6924389,-0.096406435
759,1747533215240,0.288109585,0.6612731000000001,0.006955632,2.2887206,-1.7086841499999998,-0.0460726875
760,1747533215250,0.27505252,0.6491923,-0.029042812,2.2860575,-1.7166736,-0.015446335
761,1747533215260,0.349001855,0.63418275,-0.249182445,2.15476375,-1.7249295,0.055127435
762,1747533215270,0.34924592,0.608556725,-0.37584817,1.9723372,-1.7651431999999998,0.05752428
763,1747533215280,0.3701128099999999,0.604285725,-0.48970089,1.8208033,-1.74516955,0.0551274365
764,1747533215290,0.38573246,0.5912287,-0.57499888,1.66687255,-1.68418315,0.0412789965
765,1747533215300,0.38707477,0.5757311,-0.60867876,1.5909724,-1.6511599,0.03195793
766,1747533215310,0.34997809,0.529726265,-0.75438093,1.3832459,-1.4112091,0.0609863885
767,1747533215320,0.36144878,0.49763274,-0.881656795,1.2218583,-1.19069935,0.084688525
768,1747533215330,0.3979353399999999,0.46029198,-0.969639465,1.0527476,-1.0381002,0.0604537584999999
769,1747533215340,0.4195344,0.44369608,-1.0082005,0.9550096,-0.958738,0.040480047
770,1747533215350,0.45297024,0.42148685,-1.0462735,0.6463492150000001,-0.59681441,-0.05832323
771,1747533215360,0.41465326,0.43393378,-1.08446835,0.476173215,-0.141680175,-0.046871636
772,1747533215370,0.38182755,0.45052968,-1.13450005,0.312655115,0.34461306,0.019707392
773,1747533215380,0.384756255,0.44711287,-1.17598985,0.24181503,0.505468,0.054328486
774,1747533215390,0.39268813,0.44418418,-1.1875826,0.028229509,0.77604514,0.1107875
775,1747533215400,0.40049794,0.42197496,-1.1587838,-0.2444782,0.97738016,0.14061491
776,1747533215410,0.4179480399999999,0.37243135,-0.8761655500000001,-0.51984906,1.0956244,0.1470065
777,1747533215420,0.454556645,0.348025635,-0.613804,-0.898284255,1.201352,0.0085221155
778,1747533215430,0.489456825,0.35217461,-0.47188469,-0.905741095,1.27032785,-0.0908137915
779,1747533215440,0.5000733,0.3572998,-0.41562948,-0.89322424,1.3156016,-0.14008227
780,1747533215450,0.51788944,0.3990336,-0.34387666,-0.82398206,1.4721955,-0.21678132
781,1747533215460,0.50361213,0.48262322,-0.3075121349999999,-0.6279733750000001,2.0122845,-0.2639192649999999
782,1747533215470,0.5001953299999999,0.521184235,-0.343022465,-0.6399576,2.1813953,-0.27350664
783,1747533215480,0.50104954,0.5320447850000001,-0.36877051,-0.7422230000000001,2.2868565500000004,-0.294545615
784,1747533215490,0.49909708,0.5400987,-0.36901456,-0.8149273,2.3206787,-0.3057309
785,1747533215500,0.49470404,0.545468,-0.277005,-1.0013486,2.299906,-0.3520699
786,1747533215510,0.4146532699999999,0.59525565,-0.0910333505,-1.34596165,2.0849888,-0.384826775
787,1747533215520,0.37523802,0.661273115,0.0262361555,-1.4969629,1.99364245,-0.3376888249999999
788,1747533215530,0.36035052,0.69397679,0.102382016,-1.5582156,1.95076555,-0.2892193
789,1747533215540,0.35876414,0.70996255,0.14350566,-1.582983,1.9206718,-0.257794
790,1747533215550,0.38341394,0.71191496,0.19622204,-1.6223978,1.8439728,-0.21944448
791,1747533215560,0.45309228,0.7170402,0.1593693749999999,-1.7132116,1.81041695,-0.171507575
792,1747533215570,0.49214144,0.68885155,0.1427734849999999,-1.80216115,1.8311896,-0.18295917
793,1747533215580,0.47835222,0.6726217,0.14472595,-1.8370485,1.8402443,-0.19867182
794,1747533215590,0.45711923,0.70410514,0.18377511,-1.8487664,1.907356,-0.18748654
795,1747533215600,0.4006199649999999,0.6836043700000001,0.41550746,-1.7449032,1.9310581,-0.16511599
796,1747533215610,0.4089179,0.66749657,0.49690054,-1.68711265,1.81521065,-0.188551805
797,1747533215620,0.421974985,0.65675805,0.5236248050000001,-1.6178704499999998,1.6833842,-0.22556975
798,1747533215630,0.429296715,0.66066295,0.485185785,-1.54596505,1.6029567,-0.2479402949999999
799,1747533215640,0.46224443,0.65858847,0.41453123,-1.42851965,1.6572852,-0.29348035
800,1747533215650,0.487992475,0.6588325500000001,0.3679163,-1.31427,1.80349275,-0.35473307
801,1747533215660,0.473349035,0.6705472800000001,0.36913658,-1.2532836,1.9403792,-0.3920173249999999
802,1747533215670,0.46224442,0.6740861,0.3773125,-1.20934145,2.03758465,-0.4181163
803,1747533215680,0.41148052,0.68311626,0.41196862,-1.194694,2.0703416,-0.42717105
804,1747533215690,0.34851375,0.690438,0.49079913,-1.2809805,1.8636801,-0.44528055
805,1747533215700,0.35876414,0.673598,0.5274077,-1.4008227999999998,1.61281045,-0.473243745
806,1747533215710,0.29274666,0.70203066,0.5887880999999999,-1.42585655,1.5211977,-0.43675843
807,1747533215720,0.30714604,0.71911466,0.6343048,-1.3867080500000002,1.50947975,-0.38216361
808,1747533215730,0.35022215,0.69495298,0.66407975,-1.29482895,1.541704,-0.36458675
809,1747533215740,0.3682824,0.6721336,0.673842,-1.2362394,1.562743,-0.3685815
810,1747533215750,0.41587354,0.673597985,0.6437010000000001,-1.009338,1.7763284,-0.43516052
811,1747533215760,0.39805735,0.66920495,0.630887985,-0.874049525,1.95209715,-0.5203817
812,1747533215770,0.34290042,0.684458565,0.643456935,-0.83996105,1.9963056,-0.5406217
813,1747533215780,0.31141704,0.69898,0.6633476,-0.80374205,2.011752,-0.5470133
814,1747533215790,0.26638848,0.69629535,0.6999562,-0.819987325,1.93585185,-0.53795855
815,1747533215800,0.22135992,0.6936107,0.7365648,-0.8266452,1.7848506,-0.49321744
816,1747533215810,0.2822521999999999,0.690804035,0.720701,-0.7235809,1.9302592,-0.484162685
817,1747533215820,0.2917704399999999,0.705813535,0.74120185,-0.6708503,2.09670675,-0.51851745
818,1747533215830,0.20915706,0.722897565,0.8427297,-0.6540724,2.10842465,-0.5637912
819,1747533215840,0.13960074,0.72729063,0.9198518,-0.6540724,2.0383835,-0.5864281
820,1747533215850,0.167057185,0.7158199000000001,0.849807325,-0.727043,1.80402535,-0.5962818000000001
821,1747533215860,0.206350405,0.6982478,0.80294833,-0.7238472,1.7811221499999998,-0.6418218200000001
822,1747533215870,0.1757212249999999,0.6722557,0.87250468,-0.5685849,1.87193595,-0.67963872
823,1747533215880,0.1245912275,0.649924465,0.96817515,-0.30999195,1.9925772,-0.688693475
824,1747533215890,0.111290105,0.64431113,0.9781815,-0.1768339,2.0511668,-0.69029135
825,1747533215900,0.127641938,0.653463275,0.8779959500000001,0.11451593,2.20190165,-0.7201188000000001
826,1747533215910,0.13593988,0.65163285,0.8324793,0.18642128,2.2509038,-0.7414241
827,1747533215920,0.1140967629999999,0.6446772350000001,0.70020025,0.35340148,2.4056335,-0.79655148
828,1747533215930,0.099087246,0.64016217,0.6406503,0.4181163,2.481001,-0.8186557
829,1747533215940,0.057963598,0.65712413,0.5861035,0.43862266,2.5816684,-0.836498925
830,1747533215950,0.037340759,0.64870417,0.599892705,0.4111921,2.58273365,-0.86845688
831,1747533215960,0.024649782,0.63357264,0.61819696,0.3930826,2.5614283,-0.89642006
832,1747533215970,-0.088470755,0.69031595,0.6418705499999999,0.356863585,2.5971148,-0.8865663500000001
833,1747533215980,-0.1508273849999999,0.7272906,0.6898278,0.292415085,2.56941795,-0.8676579
834,1747533215990,-0.199272745,0.7292430249999999,0.7143555500000001,0.22583606,2.43173255,-0.8492820750000001
835,1747533216000,-0.204275915,0.723629745,0.73229378,0.1451422849999999,2.23146285,-0.8311725750000001
836,1747533216010,-0.1699858699999999,0.6944649199999999,0.76609573,0.14727281,2.0716732,-0.8285094
837,1747533216020,-0.14252943,0.658222435,0.79318607,0.18801917,2.02347,-0.8271778
838,1747533216030,-0.13459757,0.651388785,0.7850101199999999,0.57444386,2.3355922500000004,-0.8468852499999999
839,1747533216040,-0.156928805,0.67359798,0.7364427499999999,0.77817567,2.5204156500000003,-0.8607336999999999
840,1747533216050,-0.203787795,0.68689913,0.67506237,0.8271778,2.5571673,-0.8724516
841,1747533216060,-0.272611955,0.717162225,0.620515555,0.570449125,2.2972428000000003,-0.8857674
842,1747533216070,-0.3053156299999999,0.7342462249999999,0.636989415,0.2974751,2.0213393,-0.8809737
843,1747533216080,-0.301044615,0.7132572850000001,0.7269245099999999,0.16937705,1.8524949,-0.9350359
844,1747533216090,-0.30409533,0.70215267,0.77829856,0.1304949,1.7757958,-0.9709886
845,1747533216100,-0.37133311,0.7193587349999999,0.90874717,0.31185617,1.73931055,-0.98590225
846,1747533216110,-0.3845121999999999,0.7281448150000001,0.881656795,0.6330334,1.7563548,-0.94755275
847,1747533216120,-0.382681755,0.728754965,0.763167025,0.876446315,1.7377127,-0.90467585
848,1747533216130,-0.38561043,0.7297312,0.6960513,0.90174633,1.7172064,-0.8878979
849,1747533216140,-0.38097337,0.7468152,0.59794027,0.9166601,1.7406421,-0.84848315
850,1747533216150,-0.36340126,0.74583894,0.58427304,0.9576728,1.8232001,-0.8538095
851,1747533216160,-0.41758194,0.74449662,0.6639577000000001,1.2639361999999998,2.0226708,-0.880973715
852,1747533216170,-0.45126184,0.73802912,0.738395175,1.61653875,2.14304575,-0.899882165
853,1747533216180,-0.464807015,0.757553725,0.689583775,1.8682075,2.18405845,-0.91266535
854,1747533216190,-0.46883395,0.78537625,0.626495,1.9718045,2.1891184,-0.9166601
855,1747533216200,-0.46578324,0.76963455,0.330087425,1.69110735,1.83864645,-0.95074852
856,1747533216210,-0.47212875,0.77390555,0.277859165,1.34249955,1.54330185,-0.98696752
857,1747533216220,-0.50934748,0.775980035,0.32679265,1.14942035,1.4314491,-0.990429625
858,1747533216230,-0.52948218,0.755479215,0.43222539,1.27485525,1.54223665,-0.948351675
859,1747533216240,-0.5198419,0.75096416,0.49616838,1.3880396,1.6239957,-0.9241169
860,1747533216250,-0.4699322,0.747059265,0.48067075,1.8745991,1.9869845,-0.94249272
861,1747533216260,-0.495436165,0.77512585,0.20281156088,1.71454315,1.91561175,-1.00108225
862,1747533216270,-0.538390265,0.807463415,-0.01488749262,1.16593197,1.5422365500000002,-1.08364025
863,1747533216280,-0.589398265,0.824303365,0.0114706915,0.65380606,1.13210975,-1.1504856
864,1747533216290,-0.6211257,0.8256457,0.05344854,0.40959418,0.9193232,-1.180313
865,1747533216300,-0.718016445,0.830892885,0.28591305,0.1251685725,0.633832325,-1.12358765
866,1747533216310,-0.69629535,0.8075854499999999,0.436862465,0.38322888,0.7890946249999999,-1.0096044
867,1747533216320,-0.6456534549999999,0.77256323,0.4474789649999999,0.71798823,0.99921805,-0.938231675
868,1747533216330,-0.6361352250000001,0.77500378,0.352540685,0.80107886,1.0428939,-0.93636745
869,1747533216340,-0.63943,0.7797629,0.30092257,0.8026768,1.0056096,-0.95234644
870,1747533216350,-0.66066295,0.78806084,0.22013964,0.6348976,0.8293084,-0.9672601
871,1747533216360,-0.61002112,0.76621775,0.245033475,0.41998051,0.65753448,-1.0607371
872,1747533216370,-0.6078246,0.76658385,0.30677996,0.423176305,0.70467245,-1.14409405
873,1747533216380,-0.6382097,0.7824476,0.3214234,0.46818373,0.7600662,-1.1627362
874,1747533216390,-0.6877533,0.7909895,0.34729347,0.58962387,0.8655274,-1.1755193
875,1747533216400,-0.76121455,0.8188121,0.30604777,0.65886605,0.89162636,-1.135572
876,1747533216410,-0.8601798,0.866525215,0.15363404,0.3648530849999999,0.64075657,-0.90041478
877,1747533216420,-0.8538342999999999,0.883975315,0.109581705,0.040480052,0.39734365,-0.732369305
878,1747533216430,-0.79147765,0.85883745,0.146190285,-0.1206411979999999,0.28043087,-0.704672425
879,1747533216440,-0.756699515,0.8308929,0.247596085,-0.15313176,0.19068234,-0.6953513499999999
880,1747533216450,-0.7300972649999999,0.81112427,0.330209465,-0.0641821794999999,0.15659388,-0.6820355499999999
881,1747533216460,-0.709108325,0.8063651700000001,0.33448045,0.0700411405,0.19760656,-0.6764429000000001
882,1747533216470,-0.721433225,0.830404825,0.299458235,0.191747605,0.276968755,-0.6831008000000001
883,1747533216480,-0.7404697,0.85175985,0.27529657,0.2412824,0.32330775,-0.6876282
884,1747533216490,-0.9203399,0.950359,0.23136626,0.24607609,0.35899413,-0.59122175
885,1747533216500,-1.0035634,1.00576,0.24600971,0.2561961,0.37017938,-0.43196473
886,1747533216510,-0.945843875,0.99160463,0.2700493499999999,0.30306773,0.3752394,-0.2471413599999999
887,1747533216520,-0.89971705,0.96817508,0.26638847,0.31372038,0.3685815,-0.20719394
888,1747533216530,-0.94913865,1.00344135,0.24332507,0.212520255,0.225569745,-0.135554905
889,1747533216540,-1.0157663,1.0440769,0.2255089,0.12037488,0.13475595,-0.08841695
890,1747533216550,-1.0804414,1.0965492,0.24723,-0.04074636775,-0.036485306,0.0759000925
891,1747533216560,-1.1204668,1.1207108,0.31312546,-0.0703074565,-0.133690687,0.19520971
892,1747533216570,-1.1154636,1.1046032,0.46602729,0.0521979584999999,-0.14514228,0.33742252
893,1747533216580,-1.0997219,1.1028948,0.5130083,0.16245283,-0.11771172,0.42077947
894,1747533216590,-1.0308977,1.0648217,0.5315567,0.67271453,0.120907515,0.6466155
895,1747533216600,-1.0338265,1.0767806000000002,0.444672315,0.85327685,0.19920446,0.7520767
896,1747533216610,-1.0348027,1.0772687,0.41026023,0.92145375,0.15339808,0.917192695
897,1747533216620,-0.9797678,1.0565238,0.29128233,0.7936220199999999,-0.05645902,1.047953925
898,1747533216630,-0.9442575,1.04066,0.24576566,0.67484504,-0.22264028,1.1233214
899,1747533216640,-0.925587125,1.01405785,0.22197007,0.46125953,-0.4479437149999999,1.2093414500000002
900,1747533216650,-0.93473925,1.00405155,0.226485125,0.36778256,-0.533431185,1.2905679
901,1747533216660,-0.9246109,0.98635742,0.249914615,0.34993938,-0.546214335,1.38777325
902,1747533216670,-0.9086252,0.97281224,0.26406994,0.3568636,-0.5390238,1.4418354
903,1747533216680,-0.8498074,0.94206095,0.2711476,0.51292485,-0.3787015,1.5968314
904,1747533216690,-0.79538256,0.90496427,0.2711476,0.5885586,-0.33129725,1.6101472
905,1747533216700,-0.76987855,0.88775822,0.265534275,0.67511135,-0.328634085,1.61494095
906,1747533216710,-0.7732953499999999,0.8816568,0.249670565,0.719053505,-0.341949895,1.6391757500000002
907,1747533216720,-0.7604824,0.8749452,0.180724395,0.725711405,-0.386691005,1.680721
908,1747533216730,-0.7293651,0.86896583,0.104944617,0.603738635,-0.524909065,1.71534205
909,1747533216740,-0.7180164,0.86982006,0.088348724,0.49428272,-0.62584287,1.7273263
910,1747533216750,-0.7058135,0.86225426,0.077122085,0.3685815,-0.7094661,1.7193369
911,1747533216760,-0.7396155,0.8679896,0.12105239,0.2775013899999999,-0.784300955,1.7534253
912,1747533216770,-0.75364875,0.869087815,0.19109683,0.3776362399999999,-0.7512777850000001,1.8319885
913,1747533216780,-0.7560893,0.8617661,0.23942018,0.48469532,-0.7052051,1.8903117
914,1747533216790,-0.737541,0.8671354,0.22062775,0.6460829,-0.608266,1.959554
915,1747533216800,-0.7093524,0.8620102000000001,0.19548986,0.71479245,-0.5454154,1.97686455
916,1747533216810,-0.65041256,0.84883106,0.117635585,0.8229168,-0.41545314,1.9931098
917,1747533216820,-0.61673266,0.8542004,0.09640261,0.8186557,-0.40959418,1.9845877
918,1747533216830,-0.54656622,0.8499293699999999,0.0916434975,0.7504788,-0.4841627,1.979794
919,1747533216840,-0.52399093,0.853346175,0.09127741,0.75260935,-0.4956142999999999,1.9744677
920,1747533216850,-0.5420511299999999,0.875555375,0.090911325,0.781371485,-0.4554005599999999,1.98165825
921,1747533216860,-0.5990385,0.918997565,0.08944698,0.8628641850000001,-0.3174488,2.06528145
922,1747533216870,-0.6183190300000001,0.945233715,0.076389915,0.92118742,-0.22716764,2.1880531000000003
923,1747533216880,-0.5720701800000001,0.94169487,0.062356627,0.90547477,-0.2511361,2.2567627000000003
924,1747533216890,-0.521916415,0.92095002,0.059427942,0.8668589499999999,-0.317448815,2.2772691
925,1747533216900,-0.49982923,0.9061846,0.0656514,0.8474179,-0.35579833,2.2807312
926,1747533216910,-0.424537585,0.880070385,0.063943,0.866592645,-0.41864893,2.298308
927,1747533216920,-0.369258615,0.86347452,0.024405724485,0.881506355,-0.421578415,2.27780165
928,1747533216930,-0.3704789,0.8603018,0.00097622897,0.87138635,-0.4111921,2.2631543
929,1747533216940,-0.4075756,0.8876362,-0.035876416,0.8346347,-0.3850931,2.279666
930,1747533216950,-0.4183141,0.90740484,-0.045394648,0.7888283,-0.35313517,2.338788
931,1747533216960,-0.293600875,0.834187675,0.0399033615,0.78296937,-0.33848779,2.40776395
932,1747533216970,-0.2414946499999999,0.8131987,0.08895887,0.88363685,-0.296143535,2.37953445
933,1747533216980,-0.22502078,0.8097819,0.11031388,0.948618,-0.26205507,2.359028
934,1747533216990,-0.21769907,0.80172807,0.10884953,1.0887003,-0.1965413,2.3307986
935,1747533217000,-0.22916976,0.82125262,0.0213550115,1.23330995,-0.07989483,2.34464705
936,1747533217010,-0.22624107,0.8369943200000001,-0.0258700669999999,1.27458895,-0.0146473865,2.3718113
937,1747533217020,-0.22013964,0.8334555,-0.041245673,1.2724584,-0.007989483,2.3813987
938,1747533217030,-0.203299685,0.86811161,-0.0750476025,1.1789815,-0.039947413,2.3891219
939,1747533217040,-0.158149095,0.85688498,-0.08005078,1.11586455,-0.10066749,2.3837956
940,1747533217050,-0.141065085,0.85688498,-0.088348725,1.03863282,-0.156860195,2.35263655
941,1747533217060,-0.141431175,0.8727486799999999,-0.08322352,1.00560962,-0.167779155,2.36222385
942,1747533217070,-0.12178457,0.859813665,-0.092009585,1.0114686000000002,-0.14940334,2.40909555
943,1747533217080,-0.09298581,0.8444380650000001,-0.12032023,0.98403805,-0.149669655,2.4402546000000003
944,1747533217090,-0.047835219,0.8262558,-0.15607461,0.917459015,-0.191214975,2.4655546
945,1747533217100,0.0118367759999999,0.8139308999999999,-0.21379415,0.7131945500000001,-0.25672874,2.44797775
946,1747533217110,0.0395372735,0.81588335,-0.22709527,0.498011135,-0.306796165,2.4141556
947,1747533217120,0.03892713,0.80978193,-0.178405845,0.41518683,-0.33928673,2.4152209
948,1747533217130,0.043930303,0.80392456,-0.15155955,0.38775626,-0.35579833,2.4208136
949,1747533217140,0.0577195365,0.80673123,-0.1286181675,0.37736993,-0.391218375,2.4029703
950,1747533217150,0.0816371499999999,0.80160605,-0.0892029225,0.41625208,-0.431698425,2.40856285
951,1747533217160,0.083955695,0.7983112800000001,-0.081027005,0.49215218,-0.43010053,2.44345035
952,1747533217170,0.0726070299999999,0.80111793,-0.087982635,0.54781225,-0.415453135,2.4921862
953,1747533217180,0.0807829499999999,0.7726852500000001,-0.09127741,0.6229134000000001,-0.40799628,2.5795378500000004
954,1747533217190,0.0924977,0.746083,-0.0959145,0.70627035,-0.39840891,2.6562369
955,1747533217200,0.167911375,0.719724825,-0.11604922,0.78749675,-0.3784351999999999,2.7015107
956,1747533217210,0.2762728,0.6666424,-0.13764829,0.91160005,-0.332362515,2.6935213
957,1747533217220,0.36425544,0.630643975,-0.180480335,1.01359915,-0.26631612,2.6218822
958,1747533217230,0.396226925,0.609288925,-0.24234884,1.03197495,-0.23009712,2.56036315
959,1747533217240,0.430150895,0.5819544999999999,-0.32337585,0.9717875,-0.234358175,2.50869785
960,1747533217250,0.43283555,0.571582075,-0.3674281849999999,0.8258463,-0.27377297,2.4732778
961,1747533217260,0.43539815,0.54473576,-0.368160355,0.66951872,-0.32836777,2.4788704
962,1747533217270,0.44442827,0.52399087,-0.36437747,0.60240704,-0.35420042,2.4847293
963,1747533217280,0.511544,0.4506517049999999,-0.37438382,0.3779025649999999,-0.4466121349999999,2.46715245
964,1747533217290,0.53717,0.41929033,-0.37755656,0.220776055,-0.52757221,2.3931166
965,1747533217300,0.73229375,0.230023955,-0.28566901,0.164050725,-0.5776396500000001,2.2706112
966,1747533217310,0.7872066499999999,0.16693516,-0.2678528449999999,0.23568977,-0.569383875,2.1619542
967,1747533217320,0.8540783,0.0895690134999999,-0.28786552,0.283893,-0.56245965,2.108691
968,1747533217330,0.8925173,0.044418417,-0.30946457,0.37071204,-0.5683186,1.7251958
969,1747533217340,1.1619566,-0.18475134,-0.44747897,0.436758425,-0.52171327,1.30921005
970,1747533217350,1.2044226,-0.2238005,-0.46956614,0.4282363,-0.49321744,1.1547467
971,1747533217360,1.1981991,-0.29396694,-0.53936652,0.35579833,-0.335025665,0.7113303
972,1747533217370,1.1568313,-0.30775618,-0.5737786,0.2532666249999999,-0.1171790815,0.361657265
973,1747533217380,1.146947,-0.32349788,-0.6029434149999999,0.127299102,0.0822916835,0.012783175
974,1747533217390,1.1564652999999998,-0.32239962,-0.627471165,0.0042610569999999,0.17097495,-0.27483824
975,1747533217400,1.14377435,-0.27395426,-0.62991177,-0.138218065,0.232227655,-0.58882495
976,1747533217410,1.08532265,-0.1891443649999999,-0.5917167999999999,-0.286822465,0.28149614,-0.92944325
977,1747533217420,0.96317195,-0.051252017,-0.47871828,-0.40266997,0.323041455,-1.3371732
978,1747533217430,0.84053317,0.076023833,-0.37279744,-0.43329631,0.355798335,-1.6447683
979,1747533217440,0.7436424500000001,0.15387809,-0.32484019,-0.402669955,0.3954794299999999,-1.7704695
980,1747533217450,0.69165826,0.19158493,-0.3031191,-0.38242993,0.41918156,-1.8152106
981,1747533217460,0.56365025,0.275418595,-0.284082635,-0.30866037,0.496945875,-1.8394454
982,1747533217470,0.55889112,0.326914685,-0.287011315,-0.251136095,0.625043915,-1.86234855
983,1747533217480,0.59671995,0.369990785,-0.27883541,-0.19467708,0.756870385,-1.9560919
984,1747533217490,0.5914727150000001,0.40269447,-0.266998635,-0.173371785,0.795752555,-2.0775321
985,1747533217500,0.53619375,0.450773765,-0.240396385,-0.1717738899999999,0.7611314650000001,-2.15955735
986,1747533217510,0.479816515,0.50422229,-0.20744865,-0.17470337,0.66552398,-2.206429
987,1747533217520,0.441621585,0.546078075,-0.20281156,-0.1978728699999999,0.50173957,-2.27007855
988,1747533217530,0.41636167,0.5781715999999999,-0.22624107,-0.231162385,0.371510985,-2.33505965
989,1747533217540,0.38316987,0.6079466,-0.26199546,-0.264984525,0.35233623,-2.36408815
990,1747533217550,0.33350422,0.6311320300000001,-0.2916484099999999,-0.307062475,0.38589205,-2.35609865
991,1747533217560,0.33289408,0.66139513,-0.268951095,-0.331030935,0.480167935,-2.34251655
992,1747533217570,0.34070392,0.69348865,-0.237833805,-0.3318298699999999,0.5755091,-2.37367555
993,1747533217580,0.3073901049999999,0.7244839300000001,-0.22831557,-0.3217098499999999,0.6229134000000001,-2.40936185
994,1747533217590,0.28213018,0.7652415,-0.209157065,-0.30360037,0.650610275,-2.4463798
995,1747533217600,0.229169765,0.82515755,-0.186947855,-0.28842037,0.657001855,-2.49591455
996,1747533217610,0.124713255,0.89288343,-0.14558015,-0.2743056,0.574976505,-2.46129345
997,1747533217620,0.0599160535,0.914360475,-0.1140967599999999,-0.2743056,0.425573155,-2.35556605
998,1747533217630,0.0700444315,0.891175075,-0.11617125,-0.283893,0.35633096,-2.3046997
999,1747533217640,0.119099933,0.86005775,-0.128374115,-0.343015165,0.149137022,-2.1606226
1000,1747533217650,0.1840191649999999,0.87567737,-0.154488245,-0.36645098,0.101200122,-2.1576931
