timestamp,acc_x,acc_y,acc_z,gyro_x,gyro_y,gyro_z,id
1747532617150,-0.81563935,0.026846295,0.407941715,0.278300355,0.36485308,0.4857605969999999,1
1747532617160,-0.908381105,-0.5017817,-0.8634746,0.534762775,0.66845345,1.0508834,2
1747532617170,-0.932908865,-0.4843316,-0.8550546,0.293214045,0.69801455,1.01546335,3
1747532617180,-0.987943735,-0.45077373,-0.8095379,0.0258326649999999,0.72437985,0.886566325,4
1747532617190,-1.1055793,-0.40659937,-0.72777875,-0.239151875,0.828509425,0.5965480750000001,5
1747532617200,-1.2470105,-0.38133943,-0.6530972500000001,-0.43649212,1.129180275,0.025832665,6
1747532617210,-1.38063185,-0.36218095,-0.6014790999999999,-0.5065332499999999,1.5076155,-0.504669035,7
1747532617220,-1.58808055,-0.28444872,-0.5133744,-0.52197958,1.83198855,-0.75234305,8
1747532617230,-1.7193834,-0.22135992,-0.4502856,-0.53316486,1.9936424,-0.8404937,9
1747532617240,-2.0459318,-0.017572122,-0.24234885,-0.53955644,2.2828617,-0.8127968,10
1747532617250,-2.52281975,0.126177595,0.33753118,-0.2604571599999999,3.1720913,-0.386957305,11
1747532617260,-2.5926201,0.14277348,0.45223808,-0.16884442,3.3561156,-0.32011196,12
1747532617270,-2.66071205,0.18914436,0.54217319,-0.1113201375,3.57635905,-0.3078614149999999,13
1747532617280,-3.09159525,0.50983559,1.047493725,-0.2130529,4.23629035,-0.454867915,14
1747532617290,-3.35139415,0.66908294,1.45067625,-0.346210955,4.74175835,-0.6279733750000001,15
1747532617300,-3.418998,0.67799103,1.6088253,-0.39627838,5.113802,-0.7323693,16
1747532617310,-3.5932549500000004,0.60013675,2.15368315,0.01597897,5.53085305,-1.027713875,17
1747532617320,-3.66329935,0.525577275,2.4016453,0.344613055,5.90822325,-1.38244695,18
1747532617330,-3.79350375,0.48787045,2.56064855,0.39228364,6.691725,-2.2152174,19
1747532617340,-3.9867972,0.530092325,2.6574174,0.043409525,7.4906732,-3.0493195,20
1747532617350,-4.0774646,0.5723142,2.6790166,-0.20240025,7.7231674,-3.264503,21
1747532617360,-4.2127943000000005,0.63662332,2.73942065,-0.8159926,8.043812,-3.4029872,22
1747532617370,-4.5885204,0.8534681749999999,2.95956015,-1.7454358500000002,8.530638,-2.91962365,23
1747532617380,-4.4451369,0.772075125,3.10587255,-2.2394523,8.9253185,-1.85808755,24
1747532617390,-4.2624598,0.6640798,3.1898282,-2.454902,9.177786,-1.0684602,25
1747532617400,-3.8446338,0.5418071,3.1280818,-2.3760724,9.429721,-0.39361522,26
1747532617410,-3.082687,0.443940135,2.9178264,-2.2093584,9.6867165,0.176567582,27
1747532617420,-2.5647977,0.42282918,2.7656567,-2.16008995,9.7567575,0.2876214099999999,28
1747532617430,-1.90376865,0.3892712849999999,2.55405915,-2.1459752,9.59537,0.1592570449999999,29
1747532617440,-1.35610415,0.334480435,2.36259625,-2.09830465,9.239838,-0.0151800175,30
1747532617450,-1.06921487,0.28969595,2.2671698,-1.99257715,8.784703499999999,-0.0820253625,31
1747532617460,-0.7652415050000001,0.2405184199999999,2.1862649000000003,-1.86581065,8.15060475,-0.07749799,32
1747532617470,-0.40513503,0.218675295,1.9744232,-1.7235979,7.06217075,0.05060006,33
1747532617480,-0.130814677,0.22868164,1.74415515,-1.56221035,6.1292653,0.18855181,34
1747532617490,0.0213550079999999,0.2342949449999999,1.6700838,-1.3238574,5.7593523,0.1619202,35
1747532617500,0.15290187,0.226363095,1.6493389,-1.0133328,5.54123935,0.0159789675,36
1747532617510,0.21379416,0.21550256,1.6427493,-0.8607337,5.4759917,-0.075101145,37
1747532617520,0.43539813,0.16693516,1.57075245,-0.4753742399999999,5.2600095,-0.4375573849999999,38
1747532617530,0.55523022,0.159003295,1.49460655,-0.305464575,4.755074199999999,-0.7209177250000001,39
1747532617540,0.6160004649999999,0.178771925,1.48057325,-0.22450448,4.1292313,-0.9105348,40
1747532617550,0.63625723,0.19036464,1.4853324,-0.21145499,3.8983352,-0.9416938,41
1747532617560,0.6632255899999999,0.189510455,1.54073345,0.0258326599999999,3.40405265,-0.8663263,42
1747532617570,0.85786127,0.08493191565,1.5171819,0.377369915,3.0807449,-0.64901235,43
1747532617580,1.1470691,-0.03099526935,1.4143118,0.57790595,2.7707529,-0.4077299749999999,44
1747532617590,1.3828284,-0.083711635,1.3031437,0.4165184,2.47620725,-0.251136095,45
1747532617600,1.6152929,-0.08847075,1.2261436,0.09853696,2.0580909,-0.1062601265,46
1747532617610,1.81590795,-0.050153762,1.21931005,-0.26391927,1.5233282,-0.007190535,47
1747532617620,1.9135309,0.076633978,1.38295045,-0.50733218,0.6428871315,0.0375505715,48
1747532617630,1.8853422,0.23917611,1.5835655000000002,-0.46259107,-0.2295644935,0.0735032475,49
1747532617640,1.8339681,0.33997175,1.65214555,-0.095607485,-0.8761799749999999,0.1488707075,50
1747532617650,1.8040712,0.4031825799999999,1.6207842,0.384560485,-1.52199655,0.24394556,51
1747532617660,1.74549755,0.44052334,1.5308491,0.6125271,-1.7997643,0.2892193,52
1747532617670,1.64201725,0.440401315,1.45848605,1.0572749,-2.4394555,0.38296258,53
1747532617680,1.3951533,0.3470494149999999,1.3122958,1.7875137,-3.6482644,0.38722363,54
1747532617690,1.12046685,0.240884505,1.1183923,2.112952,-4.39661265,0.28469193,55
1747532617700,1.0321181,0.21623473,1.04066,2.1353226,-4.6088667,0.22370553,56
1747532617710,0.757553695,0.1792600449999999,0.83491985,1.81973795,-5.18118,0.0362189905,57
1747532617720,0.3514424375,0.21171967,0.857251075,1.34409735,-5.8871839,0.1089232905,58
1747532617730,-0.1028701325,0.2905501649999999,0.970371575,0.986168515,-6.661364750000001,0.39334889,59
1747532617740,-0.40208433,0.34607318,1.08398025,1.011468565,-7.2219603,0.69535135,60
1747532617750,-0.55523026,0.37145513,1.1526824,1.18590565,-7.7902792,0.91106742,61
1747532617760,-1.0263828,0.350344185,1.2809344500000002,1.3845774999999998,-8.1990745,0.97977697,62
1747532617770,-1.3634258,0.22319035,1.27080605,1.29536155,-8.6456865,0.88630002,63
1747532617780,-1.6595893,0.154732285,1.2899646,0.886033675,-9.1391705,0.7984157199999999,64
1747532617790,-1.9103582,0.2214819499999999,1.4561676,0.354733065,-9.7096195,0.8354336499999999,65
1747532617800,-2.6082399,0.35583547,2.1818719,0.0956074849999999,-10.883008,0.65673555,66
1747532617810,-3.48294095,0.4465027299999999,2.9746919,0.4532700249999999,-11.635085,0.091346435,67
1747532617820,-4.0188905,0.4164837,3.1578568,1.13850138,-11.147726,-0.7086671649999999,68
1747532617830,-4.3516626,0.33252801,2.81812905,1.6727314999999998,-10.155432,-1.49190285,69
1747532617840,-4.444770549999999,0.25894474,2.1495342,1.6913736,-9.1554155,-1.85515805,70
1747532617850,-4.35398125,0.24442334,1.65702675,0.59175437,-8.352739,-0.88310424,71
1747532617860,-4.208401,0.33838539,1.65861315,-0.8583368299999999,-7.952731999999999,1.16912781,72
1747532617870,-4.01718225,0.53277699,1.99687645,-1.51800185,-7.954862500000001,2.96223415,73
1747532617880,-3.7348082,0.67127945,2.34160725,-1.5899072,-8.0640525,4.1582597,74
1747532617890,-3.2126477,0.6727438,2.45814455,-1.24848993,-8.04754065,4.703409,75
1747532617900,-2.67071845,0.6098990799999999,2.28510795,-0.456199495,-7.486146,3.98275765,76
1747532617910,-2.3741889,0.5280178799999999,1.9933375,0.250070825,-6.7796092,2.4855283000000004,77
1747532617920,-2.20139635,0.407575625,1.7064482,0.53423014,-6.372678349999999,1.09509186,78
1747532617930,-2.13708725,0.245155505,1.4486018,0.7483483,-5.9993032,-0.2314287149999999,79
1747532617940,-2.1989559,-0.0026846299999999,0.978547565,0.99655485,-5.23923685,-1.659681925,80
1747532617950,-2.2860843,-0.2185532599999999,0.447967065,1.1496866,-4.35826325,-2.52094825,81
1747532617960,-2.32074035,-0.320935265,0.0873724874999999,1.1249192,-3.7292246,-2.46235885,82
1747532617970,-2.3169574500000003,-0.381461465,-0.2463757925,1.03304017,-3.068228,-2.1078921,83
1747532617980,-2.1070682,-0.4224631,-0.66407978,0.86552739,-2.40217145,-1.5435682,84
1747532617990,-1.79418685,-0.46175632,-0.9537757,0.45779741,-1.6293220000000002,-0.51878377,85
1747532618000,-1.6688635,-0.48103684,-0.9872115,0.15499598,-1.1829761,0.18269286,86
1747532618010,-1.32901375,-0.4551667849999999,-0.98965218,-0.403468935,-0.903610565,1.1848404,87
1747532618020,-1.1293749,-0.4116025749999999,-0.91387238,-0.6804376999999999,-0.8295747,1.72279895,88
1747532618030,-0.96719885,-0.345096965,-0.7548690499999999,-0.75607145,-0.79575255,2.004295,89
1747532618040,-0.903744,-0.26797485,-0.64150448,-0.5520733,-0.62078286,1.91880755,90
1747532618050,-0.9127741,-0.23697957,-0.63064396,-0.245809775,-0.38855521,1.51453975,91
1747532618060,-0.99416722,-0.18572757,-0.694953,-0.06764429445,-0.189350757,1.01652862,92
1747532618070,-1.0814176999999998,-0.17389079,-0.73680883,0.03328951055,0.062051653,0.489489035,93
1747532618080,-1.1828235,-0.179626135,-0.722531495,0.079362197,0.30679616,0.0071905399999999,94
1747532618090,-1.41028485,-0.19756434,-0.5979402650000001,0.174703367,0.615456525,-0.48922271,95
1747532618100,-1.688022,-0.218919345,-0.44650275,0.318514065,0.917991625,-0.789627285,96
1747532618110,-1.8775324,-0.2396642199999999,-0.35668968,0.4316984149999999,1.16726355,-0.8111989,97
1747532618120,-2.0466641,-0.2536975,-0.27407629,0.4942826999999999,1.4759239,-0.79229045,98
1747532618130,-2.32891635,-0.23417292,-0.0976228965,0.4045341649999999,2.02293715,-0.7653924999999999,99
1747532618140,-2.6243476,-0.1797481699999999,0.1280080285,0.19068233,2.614159,-0.7392935,100
1747532618150,-2.7195299,-0.1461903,0.22477673,-0.0266316149999999,3.02322055,-0.7076019,101
1747532618160,-2.8979359,-0.0302631,0.48738232,-0.13315806,3.2250881,-0.6870956,102
1747532618170,-3.0870802,0.091765525,0.8932495199999999,-0.217313945,4.0245691,-0.64954502,103
1747532618180,-3.2193592,0.0551569382499999,1.2694638,0.0149137,4.57424565,-0.80027995,104
1747532618190,-3.371895,-0.0024405725499999,1.60296805,0.271109815,5.07065895,-1.05141605,105
1747532618200,-3.439987,-0.0034168016,1.7001028,0.330232,5.2506886,-1.1627362,106
1747532618210,-3.7378588,0.0119588064999999,1.96185425,0.1600559815,5.93538715,-1.500425,107
1747532618220,-3.97007945,0.0602821415,2.12378635,-0.2039981535,6.381999349999999,-1.63651255,108
1747532618230,-4.20242185,0.096036525,2.3523458,-1.20294985,7.1705615,-1.5539545,109
1747532618240,-4.33226,0.10518867,2.5191588,-2.22107635,7.8944085,-1.3108079,110
1747532618250,-4.38217,0.09017915,2.97103085,-2.64238845,8.209194,-1.02824653,111
1747532618260,-4.3721635,0.121296445,3.19788205,-2.8839371,8.478972500000001,-0.65247449,112
1747532618270,-4.362767,0.14204131,3.2964811,-2.9619677,8.601478,-0.43995422,113
1747532618280,-3.84011865,0.1632742999999999,3.6685466,-2.75264335,8.845689499999999,0.3922836315,114
1747532618290,-3.53297255,0.16278619,3.598014,-2.36275645,8.916263,0.83090628,115
1747532618300,-3.23571085,0.145336095,3.4136287000000003,-2.0261329,8.9500855,0.98643488,116
1747532618310,-2.92173135,0.103480277,3.1981261,-1.7401095,9.04303,1.0743192,117
1747532618320,-2.37431095,0.0284326705,2.8424126000000003,-1.6455673000000002,9.074455,1.13264245,118
1747532618330,-1.811759,-0.0506418815,2.4948752,-1.7851169,8.939699000000001,1.2042815,119
1747532618340,-1.4745939,-0.099209277,2.32244875,-2.010953,8.6779105,1.3145364,120
1747532618350,-1.1652513,-0.135573807,2.22360555,-2.1848575,8.332765,1.45515125,121
1747532618360,-0.8398009499999999,-0.1607117049999999,2.1856547,-2.2301312,7.878696,1.57605875,122
1747532618370,-0.41953439,-0.154000125,2.1174406,-1.9595539,7.0677633,1.6311862,123
1747532618380,-0.07028849,-0.123492965,2.0156688000000003,-1.4799186,6.2685485,1.58724405,124
1747532618390,0.14728855,-0.1087275024999999,1.8837559,-0.941693775,5.8411112,1.38005015,125
1747532618400,0.2591888,-0.105676785,1.7967494,-0.62744075,5.65975,1.2239889,126
1747532618410,0.554498075,-0.094450152,1.68814395,0.07483483,5.3265887,0.507065895,127
1747532618420,0.784155975,-0.0837116374999999,1.53841485,0.45087318,5.011536700000001,-0.2998719399999999,128
1747532618430,0.965612525,-0.0721189174999999,1.3844147,0.57977017,4.660532,-0.9387643,129
1747532618440,1.0206474,-0.07687803,1.3428029,0.5390238,4.5161886,-1.0610034,130
1747532618450,1.0438329,-0.07468152,1.351345,0.40426785,4.0820932,-1.1243867,131
1747532618460,1.00685815,-0.0325816425,1.38343845,0.2431466199999999,3.3787526,-0.8974853,132
1747532618470,1.07873305,-0.0301410705,1.411017,0.2031992,2.8485172,-0.44128581,133
1747532618480,1.25762705,-0.0503978225,1.4237079499999998,0.16831179,2.35796285,0.02849582,134
1747532618490,1.4639774,-0.05332651,1.4061358,0.058323232,1.9742013,0.27057718,135
1747532618500,1.5729489,-0.045638707,1.3918585,-0.020772656,1.7566211,0.3797668,136
1747532618510,1.5729489,-0.045638707,1.3918585,-0.117179093,1.5174692,0.46339005,137
1747532618520,2.1025532,0.04868942,1.52523575,-0.179497065,0.48869005,0.445813175,138
1747532618530,2.21006035,0.085908155,1.6914388,0.01384844,-0.6692524,0.2010686649999999,139
1747532618540,2.1250063,0.139356695,1.81200315,0.443948955,-1.52039875,-0.12623384,140
1747532618550,1.91414085,0.1948797099999999,1.89974165,0.984038015,-2.3643545,-0.421312095,141
1747532618560,1.4894813,0.17340267,1.8564214,1.5345134,-3.02109005,-0.612260765,142
1747532618570,1.08776315,0.085664094,1.6964419,2.17100895,-3.726295,-0.7675230500000001,143
1747532618580,0.85700705,0.017938208,1.5014402,2.51562205,-4.36252425,-0.82051995,144
1747532618590,0.682262025,-0.0165958925,1.2605557,2.3608923,-4.77131975,-0.7307714249999999,145
1747532618600,0.56682295,-0.0136672058,1.02809115,1.97313605,-5.125253799999999,-0.558464885,146
1747532618610,0.35986241,0.0364865582,0.9648803,1.4495586,-5.5247278,-0.32836776,147
1747532618620,0.085542063,0.1200761625,1.1246158,0.7707188,-6.35376975,0.037284265,148
1747532618630,-0.159491402,0.203665775,1.3449995,0.37736994,-7.281615,0.335824625,149
1747532618640,-0.442597805,0.26797486,1.5448824,0.47936901,-7.91251775,0.4226436799999999,150
1747532618650,-0.875067275,0.28603509,1.73060995,0.747016695,-8.6155925,0.39441417,151
1747532618660,-1.1504859,0.27993366,1.8167621,0.91825795,-9.014268,0.3371562,152
1747532618670,-1.4892374,0.2872553799999999,1.8854643,0.798948345,-9.537845,0.12197278,153
1747532618680,-2.08144225,0.3243520749999999,2.01286215,0.578971235,-10.1887215,-0.133690685,154
1747532618690,-2.6017723,0.37084499,2.12805715,0.332895135,-10.3293365,-0.0633832315,155
1747532618700,-2.868649,0.38756293,2.1845565,-0.265250855,-10.187123499999998,0.4878911335,156
1747532618710,-3.63401245,0.570483835,2.22384965,-1.072987625,-9.915215,1.2724584,157
1747532618720,-3.71491755,0.76036039,2.3436818500000003,-1.7896443,-9.742376,2.031992,158
1747532618730,-3.62766695,0.93522742,2.57492605,-2.4738104,-9.702695,2.8583709,159
1747532618740,-3.40459845,1.03846365,2.8919563000000004,-3.015231,-9.77247,3.5603801,160
1747532618750,-3.02667585,1.07470615,3.51625475,-3.21576705,-10.0475745,3.6772928,161
1747532618760,-2.73844435,1.08471245,4.12590975,-2.86795815,-10.282465,2.7734159,162
1747532618770,-2.76638885,1.0800753,4.3722855,-2.1779331,-10.194048,1.2402341149999998,163
1747532618780,-3.0009279,1.0808075,4.37765475,-1.4628744,-9.856093,-0.355265735,164
1747532618790,-3.4997809,0.982940565,3.9029634,-0.58642805,-8.965532,-2.11907745,165
1747532618800,-3.837312,0.87640953,3.5017333,0.126766475,-7.8757665,-3.1396008,166
1747532618810,-4.0442724,0.6794554,2.874018,0.31798145,-7.439807,-3.1883366,167
1747532618820,-3.9717878,0.41587355,1.982355,0.8460862650000001,-6.0078255,-2.56835255,168
1747532618830,-3.7844738,0.26736472,1.4146778,1.1699267,-5.0962253,-1.96408135,169
1747532618840,-3.2520628,0.02074487,0.5975741999999999,1.4005564499999998,-3.9404132,-0.978179115,170
1747532618850,-2.6195885,-0.23197641,-0.1615658999999999,1.401888,-2.9822079,-0.1099885549999999,171
1747532618860,-2.17589245,-0.353150845,-0.57365655,1.186172,-2.57314635,0.207992885,172
1747532618870,-1.79113615,-0.436374385,-0.86786755,0.87777792,-2.25330065,0.3810983599999999,173
1747532618880,-1.50217235,-0.5020258,-1.0122274,0.5334311700000001,-1.913215,0.434894215,174
1747532618890,-1.1983211,-0.4978767899999999,-1.070191,0.12197277,-1.243696285,0.286289815,175
1747532618900,-0.9652464,-0.42832045,-1.03712125,-0.15978967,-0.611728135,0.0202400219999999,176
1747532618910,-0.88129068,-0.36181486,-0.92668535,-0.198405505,-0.33342778,-0.260723478,177
1747532618920,-0.881534755,-0.289940005,-0.79940955,-0.153664395,-0.1613875599999999,-0.51878379,178
1747532618930,-0.997217925,-0.191218855,-0.6487042000000001,-0.013315805,-0.093476955,-0.6503439550000001,179
1747532618940,-1.2562847,-0.0794406325,-0.49104318,0.450340525,-0.0218379225,-0.6016081,180
1747532618950,-1.49863355,-0.0098843176,-0.416971805,1.02052335,0.1001348575,-0.45273737,181
1747532618960,-1.5756336000000002,-0.0309952701,-0.461634295,1.3941649,0.279365605,-0.374174125,182
1747532618970,-1.5846637,-0.12654368,-0.54571202,1.65036095,0.4865595299999999,-0.414654195,183
1747532618980,-1.5834434,-0.18841219,-0.5857374,1.7395768,0.58483016,-0.46978164,184
1747532618990,-1.56038005,-0.498853035,-0.657856315,1.6231966999999998,1.3486248,-1.43251435,185
1747532619000,-1.67813765,-0.52240455,-0.635280995,1.43757435,1.69643365,-1.88312125,186
1747532619010,-1.87326145,-0.479938575,-0.54778649,1.1941614500000002,2.06634675,-2.2935144,187
1747532619020,-2.1280572,-0.415141375,-0.383047865,0.93237275,2.4367925,-2.61122955,188
1747532619030,-2.6072636,-0.306047775,-0.0796846925,0.56885125,3.094327,-2.80137915,189
1747532619040,-3.11551275,-0.1735246975,0.2604090825,0.195209724,3.8495995,-2.76702435,190
1747532619050,-3.4301026,-0.03978133,0.588300005,-0.0599211259999999,4.422179,-2.52574205,191
1747532619060,-3.6936846,0.0802948325,0.99441132,-0.2428803,4.98597015,-2.20802685,192
1747532619070,-3.8984486,0.1086054749999999,1.4273689,-0.29880668,5.596899499999999,-1.86980535,193
1747532619080,-3.9844787,0.09152147,1.6444578,-0.28868666,5.9356537,-1.7038904,194
1747532619090,-4.6211020000000005,-0.233196705,2.23556435,-0.44874266,7.28001715,-1.25701205,195
1747532619100,-4.749354,-0.29506522,2.3036563,-0.994424385,8.05899185,-1.1265172,196
1747532619110,-4.9951196,-0.3829258,2.4613175,-1.3630059,8.469385,-1.0689929,197
1747532619120,-5.479207150000001,-0.2585786599999999,3.005809,-3.68528235,10.19271675,-0.5584649,198
1747532619130,-5.7353454,-0.145092035,3.69746735,-5.18517475,11.146927,0.117978035,199
1747532619140,-5.774150649999999,-0.1550983799999999,4.27234435,-5.5042215,11.5189705,0.95287907,200
1747532619150,-5.6223469,-0.2183091999999999,4.703837500000001,-5.290369500000001,11.72989325,1.90735605,201
1747532619160,-5.2795685,-0.2611412549999999,4.86821,-4.7747815,11.72430075,2.7574371,202
1747532619170,-4.428907000000001,-0.20085913,4.68175035,-4.18782085,11.64653625,3.43760845,203
1747532619180,-3.401792,-0.105554763,4.3804617,-3.33800615,11.44413625,3.7627804,204
1747532619190,-2.6952463,-0.067725883,4.13335375,-2.4921862,11.1200295,3.6408076,205
1747532619200,-2.1248845000000003,-0.0471030464999999,3.86379255,-1.91694335,10.749051,3.2386702,206
1747532619210,-1.6577589,-0.0419778465,3.55176515,-1.38005005,10.32374425,2.7555728,207
1747532619220,-1.4465274,-0.04881145,3.381169,-1.1307782,10.1125555,2.5028389,208
1747532619230,-0.6473618800000001,-0.0949382699999999,2.5843221,-0.346743585,8.7098685,1.1800467,209
1747532619240,-0.477253965,-0.106897075,2.32781785,-0.180029695,8.185226,0.8008125500000001,210
1747532619250,-0.360106465,-0.1389906,2.1325721,-0.0202400249999999,7.753527500000001,0.49002165,211
1747532619260,-0.234050895,-0.18475133,1.9224389,0.126233835,7.42223025,0.228499223,212
1747532619270,-0.13276714,-0.2148923999999999,1.7630694999999998,0.16484967,6.969759,0.0031957929999999,213
1747532619280,-0.078830488,-0.230756135,1.74525335,0.0785632505,6.5489795,-0.0591221765,214
1747532619290,0.0246497839999999,-0.24918245,1.77356395,-0.0599211245,6.216617100000001,0.0793622035,215
1747532619300,0.197076227,-0.25296533,1.8149316,-0.178431795,5.79184285,0.27537086,216
1747532619310,0.53948855,-0.268096895,1.8963248,-0.22397185,5.129781,0.510261685,217
1747532619320,0.9083811,-0.3049495399999999,1.9750333,-0.187486545,4.422978,0.639691325,218
1747532619330,1.1480453,-0.33069758,1.9681997,-0.096406435,3.88155735,0.5701828,219
1747532619340,1.3086349,-0.3375311749999999,1.9368383,0.0191747624999999,3.3462620000000003,0.42077945,220
1747532619350,1.3620834,-0.33435842,1.9307368,0.084155895,3.0988543,0.3323625,221
1747532619360,1.50778565,-0.328989165,1.92329315,0.2034655149999999,2.5467811,0.0982706469999999,222
1747532619370,1.80443725,-0.307390095,1.94672265,0.21784658,1.70255895,-0.182160218,223
1747532619380,2.0567923500000003,-0.26284966,1.9963883,0.21092236,0.54195329,-0.50919643,224
1747532619390,2.0563043,-0.1964660899999999,2.0559383,0.287621405,-0.3145193599999999,-0.699079825,225
1747532619400,1.9362282,-0.111046045,2.1025531500000003,0.4775048,-1.1147993,-0.816791525,226
1747532619410,1.74879215,-0.043442189,2.13672115,0.7784420000000001,-1.81627585,-0.84528735,227
1747532619420,1.44384265,0.006589546,2.1180508500000004,1.3832459,-2.7467843,-0.75900095,228
1747532619430,1.1579296,0.029408899,2.0264073,1.99524035,-3.62988855,-0.6490123999999999,229
1747532619440,0.9739104,0.0008541994999999,1.90413465,2.31961335,-4.13562275,-0.61066285,230
1747532619450,0.7659736500000001,-0.0535705645,1.7663644,2.4580977,-4.367584,-0.6034723,231
1747532619460,0.56365021,-0.092131605,1.6314007,2.576342,-5.06533245,-0.669785015,232
1747532619470,0.3038512599999999,-0.0512520182499999,1.41748455,2.22666895,-5.56121305,-0.710531385,233
1747532619480,0.0524723069999999,0.02501586775,1.2339535,1.70202625,-5.9843893,-0.65913239,234
1747532619490,-0.108849533,0.102748106,1.249085,1.3126721,-6.2568307,-0.469781635,235
1747532619500,-0.18621568,0.15692882,1.2964321,1.133974,-6.4107614,-0.34567833,236
1747532619510,-0.3031191,0.24527754,1.3889297,0.93157375,-6.8405957,0.0005326322,237
1747532619520,-0.7607264699999999,0.4047689599999999,1.65531835,1.16939403,-8.25340265,0.76938725,238
1747532619530,-1.065554,0.49543622,1.7823502,1.4136059,-8.998289,1.1371698,239
1747532619540,-1.64287135,0.5559624,1.9359842,1.86874015,-9.7796605,1.02877917,240
1747532619550,-2.195783,0.455532865,1.89144365,2.04264455,-10.008426,0.42583946,241
1747532619560,-2.7086693,0.372431355,1.7647779,1.95289605,-9.962353,-0.25300031,242
1747532619570,-3.0498614,0.426734075,1.6946115000000002,1.5941683000000002,-9.9333245,-0.49827745,243
1747532619580,-3.4451121,0.480670735,1.7785672,1.133441375,-10.085125,-0.42370893,244
1747532619590,-4.1936357,0.492873625,2.2103044,0.675910275,-10.416156,0.27670245,245
1747532619600,-4.8704067,0.513130375,2.5417341,0.46924899,-10.291254,1.10015183,246
1747532619610,-4.9602197,0.5361937800000001,2.4582666,0.4490089699999999,-9.6014955,1.4919028,247
1747532619620,-4.77168535,0.54620013,2.24056755,0.2727077,-8.9631355,1.70255885,248
1747532619630,-4.5094459,0.5621858500000001,2.0151807,-0.11371698,-8.494419,1.808819,249
1747532619640,-4.178016100000001,0.60221123,1.99321555,-0.8127967500000001,-7.98469,1.91135075,250
1747532619650,-3.9759367,0.63381666,2.059355,-1.2687299,-7.670437,1.9712719,251
1747532619660,-3.8368242,0.75743165,2.2583837,-1.6077504,-7.38654365,2.09803845,252
1747532619670,-3.7177241,0.8313809999999999,2.3852934,-1.5464977,-7.24140135,2.1643511,253
1747532619680,-3.568849,0.83992305,2.4254409,-1.21040675,-7.0651002,2.0788636,254
1747532619690,-3.483429,0.8251576,2.416899,-0.9864349,-6.9726887,1.9776635,255
1747532619700,-3.158589,0.7094744,1.888515,0.19014971,-6.114618,0.9550096,256
1747532619710,-2.8729199000000003,0.413554995,1.2772736,0.943291675,-5.173722850000001,-0.1557949149999999,257
1747532619720,-2.68109095,0.1575389475,0.8267439,1.2852415499999998,-4.5907571,-0.87112,258
1747532619730,-2.4647342,-0.2014692575,0.2057402549999999,1.40455115,-3.77023725,-1.56007975,259
1747532619740,-2.28925705,-0.489700865,-0.389027245,1.22079305,-2.9001825,-1.86234855,260
1747532619750,-2.16722835,-0.5593791800000001,-0.756821525,0.849015775,-2.339587,-1.63864305,261
1747532619760,-2.0135942,-0.5621858500000001,-1.049202125,0.43010052,-1.9297265,-1.22105935,262
1747532619770,-1.859106,-0.52667555,-1.2182118,0.0055926349999999,-1.5864451000000002,-0.70653663,263
1747532619780,-1.5878364500000002,-0.41233472,-1.2756873,-0.464188995,-1.12119085,0.0106526449999999,264
1747532619790,-1.3037538,-0.29457711,-1.22834015,-0.76432726,-0.6873619,0.592819675,265
1747532619800,-1.15780755,-0.24759609,-1.1255920499999998,-0.767789375,-0.465520565,0.810399935,266
1747532619810,-1.0729977,-0.216722835,-1.0197932,-0.66445873,-0.303600375,0.932106405,267
1747532619820,-1.0438329,-0.20281157,-0.9706156,-0.59228706,-0.23329292,0.97045594,268
1747532619830,-1.04310065,-0.185117415,-0.98306255,-0.42370894,0.202666565,0.776311465,269
1747532619840,-1.07604835,-0.135695825,-1.0376094,-0.47857007,0.500674305,0.51452274,270
1747532619850,-1.14304205,-0.086518295,-1.01527815,-0.55180702,0.7289072299999999,0.325438295,271
1747532619860,-1.23932265,-0.036974675,-0.94230498,-0.5595301699999999,0.9760486,0.1768339,272
1747532619870,-1.35500585,0.017450093,-0.842119515,-0.472444785,1.2378372999999998,0.09534117,273
1747532619880,-1.48935945,0.071386748,-0.715209785,-0.1880191789999999,1.6498282999999998,0.06791061,274
1747532619890,-1.5946701,0.0882266999999999,-0.5992825500000001,0.152599136,2.0756678,0.0372842555,275
1747532619900,-1.66398235,0.060038083,-0.5431494,0.3304983,2.380866,-0.0386158395,276
1747532619910,-1.7530633,0.0361204715,-0.49897505,0.392283635,2.67008525,-0.170708625,277
1747532619920,-1.8026069,0.030507157,-0.4724948,0.39947417,2.8059065,-0.25193503,278
1747532619930,-2.3413632,0.0516181104999999,-0.1220286281,0.256995045,3.41150935,-0.47217847,279
1747532619940,-2.6913413,0.1270318025,0.1507053569,0.199737085,3.8730352,-0.48629322,280
1747532619950,-3.04046515,0.23612538,0.433933785,0.279365605,4.24987235,-0.3488741,281
1747532619960,-3.2824478,0.319837005,0.686288985,0.4713795149999999,4.71486035,-0.209590775,282
1747532619970,-3.5213799,0.31922686,1.02125755,0.8559399750000001,5.468268849999999,-0.254331885,283
1747532619980,-3.7467669,0.283960595,1.29362545,1.08284135,6.216616999999999,-0.47111321,284
1747532619990,-3.9507986,0.30104461,1.42749085,0.893756915,6.690926,-0.68469875,285
1747532620000,-4.2138925,0.3444868,1.602724,0.48496164,7.1468595,-0.799214675,286
1747532620010,-4.355446,0.3704789,1.7025435,0.23222765,7.367902,-0.81705785,287
1747532620020,-4.7991416000000005,0.483721425,2.31646935,-0.82611259,8.13888685,-0.300937207,288
1747532620030,-5.00659025,0.56523655,2.83411475,-1.3110742,8.592689499999999,0.2141181429999999,289
1747532620040,-5.05796425,0.5944014,3.11172995,-1.2753877999999998,8.8131995,0.545948,290
1747532620050,-5.0213559,0.6006248750000001,3.30758595,-1.08204233,9.1120065,0.8727179,291
1747532620060,-4.63867425,0.5737786,3.3673799,-0.89029476,9.454755,1.12758245,292
1747532620070,-4.1028465,0.53228885,3.28854925,-0.805606245,9.729593,1.24822365,293
1747532620080,-3.6835561,0.490921125,3.18909595,-0.773914635,9.8201405,1.2642026,294
1747532620090,-3.1894620500000004,0.433323625,3.0817108500000003,-0.72464615,9.727196,1.2053467,295
1747532620100,-2.9069657,0.40098605,3.0175238,-0.68869346,9.662481,1.1659319,296
1747532620110,-2.14379885,0.325328305,2.7629721,-0.50626693,9.2044175,0.889762175,297
1747532620120,-1.56928805,0.25931082,2.4747405,-0.256462405,8.517322,0.44581318,298
1747532620130,-1.1111926,0.18182265,2.19602705,0.0042610579999999,7.825699249999999,0.0077231699999999,299
1747532620140,-0.88495155,0.111290105,2.03250875,0.133690688,7.45472075,-0.21598236,300
1747532620150,-0.694586935,0.0370967019,1.85983835,0.18722023,7.13673925,-0.422377345,301
1747532620160,-0.514838755,-0.0395372731,1.59979535,0.041545315,6.70024705,-0.611461785,302
1747532620170,-0.3758481449999999,-0.092985812,1.3676968500000002,-0.24367925,6.3447151,-0.660730265,303
1747532620180,-0.286035095,-0.11373068,1.30131325,-0.53156696,6.153500299999999,-0.5099953500000001,304
1747532620190,-0.1814565679999999,-0.1116561879999999,1.3331627,-0.7965515000000001,5.8741345,-0.235956075,305
1747532620200,-0.0554009959999999,-0.092375665,1.40699,-0.9502159,5.471997,0.17283916,306
1747532620210,0.1632743019999999,-0.060282141,1.51571745,-0.77311568,4.757471000000001,0.672714515,307
1747532620220,0.3180066,-0.039781332,1.5846636,-0.55606806,4.294081,0.92784536,308
1747532620230,0.509347475,-0.099697385,1.5783182,0.0103863349999999,3.8040594,0.886033685,309
1747532620240,0.6887295499999999,-0.1718162999999999,1.52633395,0.2942793099999999,3.58914235,0.68336712,310
1747532620250,0.8828770850000001,-0.223434415,1.47520405,0.446079485,3.3734262,0.34754251,311
1747532620260,1.151584135,-0.2532094,1.4117492,0.4050668,2.936934,-0.30732879,312
1747532620270,1.3565922,-0.25381954,1.3861231,0.23595607,2.2951122,-0.9403622,313
1747532620280,1.3797776000000002,-0.2330746699999999,1.4393276,0.117179087,1.70655365,-1.1464909,314
1747532620290,1.3511009,-0.1982965099999999,1.52011065,0.0796285195,1.1813783,-1.10521185,315
1747532620300,1.3213259000000002,-0.1025040465,1.62444505,0.091612745,0.3933488899999999,-0.637294415,316
1747532620310,1.3806318000000002,-0.020256753,1.6710599,0.1257012075,-0.4125236599999999,0.009587385,317
1747532620320,1.5246256,-0.0141553205,1.65470815,0.18429075,-0.9976202,0.45140582,318
1747532620330,1.66093155,-0.029408899,1.64970495,0.28495824,-1.65142625,0.73290197,319
1747532620340,1.7041297,-0.0384390165,1.6210282,0.4253068249999999,-2.30043855,0.788295725,320
1747532620350,1.6333531,-0.0560111415,1.56379685,0.721184015,-3.1577102,0.305730905,321
1747532620360,1.48826105,-0.07675601,1.4894813999999998,1.01546333,-3.90579235,-0.42051317,322
1747532620370,1.2594574,-0.0527163675,1.3932007999999998,1.12545185,-4.2868905,-0.9139969,323
1747532620380,0.976473,0.0042710025,1.3092451,1.15740975,-4.6360308,-1.237571,324
1747532620390,0.574022625,0.067847913,1.304608,1.1337077,-4.97185565,-1.35022275,325
1747532620400,0.31483385,0.102748096,1.3318204,1.1110709,-5.1420317,-1.3550164,326
1747532620410,0.0395372725,0.1643725549999999,1.3531754,1.0815097,-6.31728465,-0.499875355,327
1747532620420,-0.0823693175,0.15656272,1.3457316,1.0634002,-6.8741515,0.04500743,328
1747532620430,-0.13154685,0.1483868,1.3391421,1.0471549,-7.190535,0.33981937,329
1747532620440,-0.404890965,0.175355135,1.38404865,0.746484065,-8.27550665,0.7811051499999999,330
1747532620450,-0.5781716,0.20696054,1.4501882,0.5550028,-8.821987,0.87618,331
1747532620460,-0.8327233,0.272856,1.6266416,0.38296258,-9.277921,0.716923,332
1747532620470,-1.14889945,0.3106848749999999,1.8429983,0.152066505,-9.652095,0.38802259,333
1747532620480,-1.6387224,0.4181921,2.1367211,-0.276968755,-10.1692805,-0.06205165,334
1747532620490,-2.1302537,0.534241325,2.50036645,-0.80906832,-10.819091749999998,-0.237287655,335
1747532620500,-2.4481382,0.5806122,2.7866457,-1.1430287,-11.3258915,-0.29134983,336
1747532620510,-3.3219854,0.69775968,3.52577305,-1.006408565,-12.340822,-0.338487775,337
1747532620520,-4.0190128,0.7768341999999999,3.89149265,-0.718787195,-12.6398955,-0.389620465,338
1747532620530,-4.3547134,0.7995315,4.013521,-0.54648066,-12.632439,-0.41598576,339
1747532620540,-4.7710752,0.7869626000000001,3.6292534,-0.46019424,-11.1983265,-0.4849616599999999,340
1747532620550,-4.829893,0.8358961,3.3326018,-0.6380934,-10.40284,-0.45806372,341
1747532620560,-4.7438628000000005,0.91997385,3.3249139,-1.170193,-9.7935085,0.221841305,342
1747532620570,-4.5238453,1.03565695,3.41021185,-1.85515805,-9.0765855,1.358212165,343
1747532620580,-4.389858,1.0672623,3.5031977,-2.0080235,-8.968994,1.814678,344
1747532620590,-3.661713,1.02089145,3.55469385,-1.59123875,-8.4994785,2.3238745,345
1747532620600,-3.121248,0.908747175,3.2462055000000003,-0.96459695,-7.9255675,1.5393072,346
1747532620610,-2.78676765,0.7689023749999999,2.9067218500000003,-0.4239752499999999,-7.37669,0.28043087,347
1747532620620,-2.5556455,0.54558997,2.54222235,0.2133192,-6.797186,-1.22345618,348
1747532620630,-2.47583865,0.105310695,1.94098725,1.30628055,-5.79637,-3.1867385500000003,349
1747532620640,-2.5052476500000003,-0.318006605,1.2741009,2.3568976,-4.711664750000001,-4.6698529,350
1747532620650,-2.5842002,-0.5189877300000001,0.6568801499999999,2.82481505,-3.90845535,-5.0134007,351
1747532620660,-2.6145853,-0.63552505,0.0053692649999999,2.92202045,-3.14599225,-4.882107,352
1747532620670,-2.5728516,-0.6937327,-0.53460741,2.6386601,-2.5401231500000003,-4.3635895,353
1747532620680,-2.47034755,-0.6434569,-1.017352675,1.79257385,-1.9406455,-2.97475095,354
1747532620690,-2.3135407,-0.5210622,-1.2810565,0.898550615,-1.49509865,-1.3422332,355
1747532620700,-2.1416024,-0.430639015,-1.2815446,0.487358495,-1.2556805,-0.2290318499999999,356
1747532620710,-1.9613661,-0.3716992,-1.2041784999999998,0.2921487749999999,-1.0197244,0.7275756,357
1747532620720,-1.7502564500000002,-0.3522966349999999,-1.09020375,0.2740392749999999,-0.76565885,1.43437855,358
1747532620730,-1.4664179000000002,-0.38402407,-0.95048095,0.45593318,-0.384560485,1.75395795,359
1747532620740,-1.2426175000000002,-0.4372285449999999,-0.88910055,0.62664182,-0.0519316385,1.59017355,360
1747532620750,-1.1683021,-0.477864085,-0.94242705,0.60187442,0.1376854265,1.1161308,361
1747532620760,-1.15609925,-0.52008601,-0.9895301,0.5006742900000001,0.37577203,0.5573996,362
1747532620770,-1.2420074,-0.5853713199999999,-0.9491386,0.38296257,0.8218515,-0.20905815,363
1747532620780,-1.3218141,-0.62600684,-0.8964222,0.32490566,1.1329087,-0.6876282,364
1747532620790,-1.47532605,-0.5215503,-0.803192405,0.3110572299999999,1.5861787500000002,-1.1089403,365
1747532620800,-1.5634307,-0.45260415,-0.726924525,0.3486078,1.9651466,-1.2873721,366
1747532620810,-1.64409165,-0.4400352199999999,-0.58305279,0.425306825,2.32147755,-1.3757890499999998,367
1747532620820,-1.6910727,-0.44735694,-0.49006698,0.47697216,2.71296215,-1.2548815,368
1747532620830,-2.02054985,-0.5061747249999999,-0.18682583,0.422909985,3.1031153500000004,-0.98110855,369
1747532620840,-2.1152440500000003,-0.560477475,-0.076023832,0.247141345,3.4013895,-0.722781935,370
1747532620850,-2.17930915,-0.5861035,0.059061853,-0.03435478,3.6770266,-0.536626965,371
1747532620860,-2.28144705,-0.530458425,0.22611905,-0.401604705,3.9100531,-0.469248995,372
1747532620870,-2.59518265,-0.263337768,0.607214415,-0.86659263,4.422978,-0.538224865,373
1747532620880,-3.0106902,0.042710022,1.11168075,-1.05807392,4.983041,-0.5653891,374
1747532620890,-3.31490755,0.14313958,1.51034825,-0.79548624,5.3012887,-0.4647215999999999,375
1747532620900,-3.5781233500000003,0.15753895,1.81993485,-0.39920785,5.68238685,-0.37177729,376
1747532620910,-3.84243725,0.192073045,2.0880317,-0.088150629,6.4666879,-0.50706589,377
1747532620920,-4.08515205,0.28847566,2.3308687,-0.122771729,7.28960475,-0.80054625,378
1747532620930,-4.30114285,0.40733154,2.5467374,-0.45859635,7.841144999999999,-1.0018812,379
1747532620940,-4.491873849999999,0.48848059,2.8158104,-0.8580704699999999,8.386294249999999,-1.1132013,380
1747532620950,-4.59852685,0.5076391,3.0686537,-1.2804478,8.92691625,-1.11133715,381
1747532620960,-4.58498135,0.50165969,3.329551,-1.7566211,9.396964,-0.84155895,382
1747532620970,-4.52347885,0.53851234,3.563846,-2.04370995,9.6025605,-0.43649211,383
1747532620980,-4.43586235,0.5972081,3.66647195,-2.05596045,9.6270615,-0.046072695,384
1747532620990,-4.19632015,0.5891542000000001,3.6578078,-1.9784624,9.6078865,0.382962565,385
1747532621000,-4.0220633,0.5618198,3.6215653,-1.9206718,9.583652,0.5917544,386
1747532621010,-3.06950785,0.52752975,3.14724015,-1.650361,9.357283,0.871652635,387
1747532621020,-2.4073807,0.52460105,2.82752525,-1.4269218,9.1663345,0.740092485,388
1747532621030,-1.97088435,0.49360575,2.6025045,-1.30574795,8.975918499999999,0.51478906,389
1747532621040,-1.7415925,0.4656612,2.4781573,-1.2660668,8.870457,0.41172472,390
1747532621050,-1.19307385,0.31385762,2.16918085,-1.236772,8.22384185,0.1757686299999999,391
1747532621060,-0.86213225,0.18231076,1.9081615,-1.3670006,7.43341515,0.237820285,392
1747532621070,-0.574144685,0.078464402,1.6918047,-1.5683356000000002,6.6978503,0.477238465,393
1747532621080,-0.35949631,0.0244057268,1.62456705,-1.6711336,6.248575,0.71292825,394
1747532621090,-0.16730124,-0.0278225262,1.60516455,-1.66687255,5.78598375,0.90920325,395
1747532621100,-0.08371163,-0.051252022,1.6005274,-1.6357136,5.5590825,0.9960223,396
1747532621110,0.164494583,-0.017938209,1.5202325499999998,-1.4876418,5.2086105,1.0695255,397
1747532621120,0.28115394,0.0424659585,1.4727633999999998,-0.9044095,4.4520065,0.8143947,398
1747532621130,0.35193055,0.0707766,1.4396936500000002,-0.411192065,4.0786312,0.478037415,399
1747532621140,0.38402408,0.045272621,1.39698365,-0.08468853,3.9257657,0.218379215,400
1747532621150,0.4551667299999999,-0.0054912864999999,1.3014353,0.177366525,3.67462965,-0.059921125,401
1747532621160,0.556816565,-0.0524723099999999,1.2086936,0.29241508,3.4956653,-0.21571605,402
1747532621170,0.6246645150000001,-0.0643090885,1.1589059000000002,0.098536955,3.1188280500000003,-0.155794925,403
1747532621180,0.6623714,-0.056133168,1.1519502,-0.09534117,2.7419908,-0.0958738,404
1747532621190,0.7266805,-0.072973117,1.2176016,-0.41172472,2.1816616,0.377103625,405
1747532621200,0.7748818,-0.09493827,1.2673893,-0.45912898,2.0516994,0.5400891,406
1747532621210,1.41675235,-0.094084075,1.4904576,-0.3720436099999999,1.3118732,1.23038045,407
1747532621220,1.7882074,-0.126787745,1.6004054,-0.285224555,0.8237157500000001,1.2844426,408
1747532621230,2.11719655,-0.16290821,1.7314641,-0.16431704,0.1944107649999999,1.17951405,409
1747532621240,2.32415715,-0.1752331,1.87265125,0.0149136999999999,-0.5904227849999999,0.9669938,410
1747532621250,2.3069512000000003,-0.18060236,2.04458955,0.12250541,-1.0210559,0.8426242,411
1747532621260,2.07277825,-0.203055635,2.17223145,1.16406777,-3.43148315,0.37577205,412
1747532621270,1.76331355,-0.21367212,2.1509986,1.55368825,-4.12763335,0.2428803,413
1747532621280,1.4517745,-0.208912995,1.9982188,1.79070955,-4.60780135,0.0908137949999999,414
1747532621290,1.3076587,-0.2072046,1.892664,1.8594191,-4.7915597,0.00479369,415
1747532621300,0.920827975,-0.248084195,1.4232198500000002,1.37552275,-5.6424396,-0.6484797250000001,416
1747532621310,0.759384115,-0.25211114,1.3451215,1.056209735,-6.0421801,-0.89002845,417
1747532621320,0.52374683,-0.25418562,1.3548838,0.77125147,-6.47121535,-1.02158865,418
1747532621330,0.212207765,-0.2324645149999999,1.4479917000000002,0.5198490600000001,-7.0443275,-0.97924437,419
1747532621340,-0.399643735,-0.0368526349999999,1.6376241500000002,0.2508697825,-8.027833,-0.5052016619999999,420
1747532621350,-1.022233785,0.17145021,1.87655615,0.1147822475,-9.00761,0.088949583,421
1747532621360,-1.37636085,0.24930447,2.07875755,0.167779155,-9.599098,0.397876275,422
1747532621370,-1.69009645,0.310928925,2.17491605,0.2322276449999999,-9.9583585,0.5305017000000001,423
1747532621380,-1.97991435,0.339971735,2.1146339000000003,0.2218413099999999,-10.1066965,0.473776365,424
1747532621390,-2.1259825,0.3487578,2.0451996,0.19121496,-10.140785,0.40053943,425
1747532621400,-2.9587061,0.43246946,1.9929714,-0.33449304,-10.271812,-0.14008227,426
1747532621410,-3.51515635,0.60892283,1.9302488,-1.206412,-9.71867375,-0.289219285,427
1747532621420,-3.6574417,0.67518438,2.00639455,-1.9004318,-9.35142375,-0.170708625,428
1747532621430,-3.6525606,0.6807977000000001,2.3838291,-2.494583,-9.2273205,0.29534456,429
1747532621440,-3.61180295,0.7110607849999999,2.7803003000000004,-2.7872644500000003,-9.21586875,0.9028116,430
1747532621450,-3.5112515,0.750598035,2.97847475,-2.7443876,-9.19323225,1.3054816,431
1747532621460,-3.3628649,0.7551131,3.1704256500000003,-2.62348005,-9.1301155,1.48284815,432
1747532621470,-3.22314215,0.76841425,3.2986778,-2.4588966,-9.005213000000001,1.31959635,433
1747532621480,-3.1147807,0.77659015,3.37055265,-2.04291085,-8.6062715,0.14407702,434
1747532621490,-3.14382355,0.7291209999999999,3.34041155,-1.5273229499999998,-8.07949835,-1.36566903,435
1747532621500,-3.29733555,0.64614155,3.18055415,-1.12891405,-7.58814505,-2.2807311500000003,436
1747532621510,-3.45877935,0.5652366,2.95663155,-0.6921556,-7.0190275,-2.9249499,437
1747532621520,-3.5272374,0.40269447,2.4278815,-0.2141181535,-6.4219468,-3.2479913500000004,438
1747532621530,-3.4682976,0.19121885,1.7799095500000002,0.5028048465,-5.483715,-3.21576705,439
1747532621540,-3.3166161,0.0186703775,1.28825615,1.13530565,-4.5215148,-2.98700155,440
1747532621550,-3.10392015,-0.1358178525,0.7841559499999999,1.3837785500000002,-3.8205708,-2.7443875,441
1747532621560,-2.86572015,-0.25638212,0.28029977,1.43224805,-3.0120352500000003,-2.4317324,442
1747532621570,-2.4752285,-0.317274405,-0.35900823,1.2642025499999998,-2.26555125,-2.10070155,443
1747532621580,-2.10487165,-0.309220535,-0.85712908,0.69535134,-1.4871092,-1.6258599,444
1747532621590,-1.8954706,-0.264680085,-1.03736538,0.25885928,-1.0146644,-1.29909,445
1747532621600,-1.7075465,-0.192683185,-1.1626888,-0.2146508,-0.7052051,-0.94595486,446
1747532621610,-1.55037365,-0.0798067165,-1.2399329,-0.6450176,-0.4362258,-0.6002765,447
1747532621620,-1.4235859,0.1327671335,-1.189535,-1.17338885,0.059654815,0.1185106649999999,448
1747532621630,-1.3314543,0.31776252,-1.018328825,-1.27911635,0.435693185,0.722249285,449
1747532621640,-1.295944,0.35876414,-0.92229235,-1.2112057,0.5629923,0.9507485,450
1747532621650,-1.15121805,0.352662715,-0.6303998550000001,-0.693220835,0.74142405,1.26633315,451
1747532621660,-1.05237488,0.30458343,-0.54449172,-0.06711167,0.88390318,1.21386885,452
1747532621670,-0.994777355,0.241372605,-0.555962425,0.480700565,1.07778133,0.933437975,453
1747532621680,-1.004295575,0.159369378,-0.6147802250000001,0.6727145,1.27458895,0.537425925,454
1747532621690,-1.04078215,0.058695769,-0.6765266999999999,0.74275565,1.5153387,0.0692422,455
1747532621700,-1.0643337,0.009518232,-0.7055695,0.7504788,1.6442357,-0.1736381,456
1747532621710,-1.2605556999999998,-0.07480355,-0.668472765,0.6697850350000001,2.098571,-0.75900095,457
1747532621720,-1.57368115,-0.0441743635,-0.429906835,0.71479246,2.46182625,-0.9499496,458
1747532621730,-1.9479429,0.0545467965,-0.160345615,0.8740494750000001,2.764095,-0.8490157650000001,459
1747532621740,-2.24520465,0.140088855,0.0079318599999999,1.06899285,2.95797315,-0.509462715,460
1747532621750,-2.55235065,0.113120527,0.1734026649999999,1.2527509499999998,3.1688955,-0.0559263849999999,461
1747532621760,-2.7087913,0.058085624,0.25650415,1.3299826,3.2735577,0.19228023,462
1747532621770,-3.20959675,-0.10653098,0.577927575,1.0668624,4.28715695,0.99575595,463
1747532621780,-3.4138727,-0.0172060299999999,0.843095815,0.569650175,5.309544300000001,1.28843735,464
1747532621790,-3.4304688,0.08419975,0.950359,0.34141725,5.676794,1.2761868,465
1747532621800,-3.46121985,0.323253825,1.5009521,-0.15659387,6.5007763,0.9890981,466
1747532621810,-3.4902627,0.37365165,1.7540395,-0.2695119,7.058442,0.6679208,467
1747532621820,-3.75872565,0.42526975,2.5015869,0.15472966,7.71704225,0.1597896715,468
1747532621830,-4.0152299,0.47993857,2.8404603,0.4793690149999999,8.120777499999999,-0.0466053185,469
1747532621840,-4.1540985,0.52984827,2.88451255,0.486293225,8.3703155,-0.021038972,470
1747532621850,-4.208279,0.5508372,2.8884175,0.4415521,8.459265,0.020772656,471
1747532621860,-4.2501352,0.49677852,2.91257905,-0.16804546,8.7013465,0.563791215,472
1747532621870,-4.204008,0.435032055,3.0304588,-0.58589545,8.734103000000001,1.04635597,473
1747532621880,-4.14104115,0.430761055,3.1127062,-0.61226077,8.696286,1.30068785,474
1747532621890,-4.1023583,0.43368974,3.1314986,-0.57364494,8.692025,1.4066817,475
1747532621900,-3.963734,0.4087959,3.1263733,-0.34408042,8.834238,1.5036207,476
1747532621910,-3.0829312,0.252843315,2.8809737,-0.08735169,9.023322,1.423726,477
1747532621920,-2.37089405,0.127153825,2.5780986500000003,0.087884318,9.0685965,0.583764935,478
1747532621930,-2.00065915,0.068458055,2.3948117,-0.0580569069999999,8.9476885,0.309991955,479
1747532621940,-1.8277446,0.03636453,2.3080494,-0.1555286,8.869391,0.20719394,480
1747532621950,-1.33560335,-0.0575975065,2.07229015,-0.543284875,8.2379563,0.246076085,481
1747532621960,-0.94193895,-0.14777666,1.87606805,-0.8085357200000001,7.3545858,0.63809342,482
1747532621970,-0.7143555,-0.20574026,1.7557478,-0.92944324,6.779343,0.9464875,483
1747532621980,-0.40562315,-0.26797485,1.67752745,-0.7821704199999999,6.3068983,1.11772875,484
1747532621990,-0.196466082,-0.2876214649999999,1.58978885,-0.52118062,5.6815883,1.2391689,485
1747532622000,0.1075072179999999,-0.301044615,1.45665565,-0.2316950115,5.31673515,0.8724516200000001,486
1747532622010,0.37279745,-0.32081324,1.3694052,0.0087884335,5.01020515,0.3225088299999999,487
1747532622020,0.51435065,-0.330697565,1.3468299,0.1209075199999999,4.80247865,-0.189350755,488
1747532622030,0.6177089,-0.33142975,1.3443893,0.17496969,4.57797415,-0.6178533900000001,489
1747532622040,0.6884855,-0.328623085,1.36562235,0.18189391,4.32497365,-0.830107325,490
1747532622050,0.84687863,-0.329965395,1.41284745,0.214384475,3.74413815,-0.86206525,491
1747532622060,1.02857928,-0.3293552549999999,1.46068265,0.29774142,3.04958585,-0.7765777700000001,492
1747532622070,1.0993559,-0.32276571,1.48411215,0.4375573849999999,2.56409155,-0.65247447,493
1747532622080,1.1368187,-0.33606683,1.4908237,0.626641825,2.1678132,-0.52970276,494
1747532622090,1.1575636,-0.35119838,1.4899695,0.727043,2.001632,-0.47617322,495
1747532622100,1.49899965,-0.359130235,1.29374745,0.588558615,1.14755615,-0.4759069,496
1747532622110,1.6094355500000002,-0.336554945,1.29277125,0.368581505,0.7121293,-0.51612063,497
1747532622120,1.6660568,-0.3078782249999999,1.3674528,0.197606565,0.232227647,-0.54008908,498
1747532622130,1.6866796,-0.2928687,1.4133356,0.13635385,-0.013315806,-0.5470133,499
1747532622140,1.73671135,-0.1787719475,1.5403673,0.14727281,-0.99122855,-0.5906891249999999,500
1747532622150,1.6900963999999998,-0.0428320455,1.6337192,0.2250371199999999,-1.85222855,-0.59042281,501
1747532622160,1.56648145,0.073705287,1.7153564,0.334759355,-2.4905883,-0.5289038,502
1747532622170,1.4138236,0.177673675,1.82176535,0.526506975,-3.0727554,-0.45193845,503
1747532622180,1.25042725,0.289451905,1.9096259,0.8450210499999999,-3.620035,-0.427969985,504
1747532622190,1.1614684,0.36242503,1.9395229,1.041296,-3.89727,-0.4383563,505
1747532622200,1.04724965,0.3918338999999999,1.9265879,1.5827166,-5.1553475,-0.867125285,506
1747532622210,0.88604987,0.37255337,1.94269565,1.6684704,-5.754026,-1.090830835,507
1747532622220,0.6515108350000001,0.35095432,1.98211095,1.7254621,-6.325274,-1.2708605,508
1747532622230,0.20329969,0.320691225,2.0980382,1.8602181,-7.2432657,-1.3289174,509
1747532622240,-0.10933765,0.29823795,2.186753,1.965413,-7.8824244,-1.3134711,510
1747532622250,-0.10933765,0.29823795,2.186753,1.965413,-7.8824244,-1.3134711,511
1747532622260,-0.7196028250000001,0.2157466049999999,2.2277546,2.09937,-8.7380982,-1.012533885,512
1747532622270,-1.8094405,0.098843185,2.29572455,2.2714101500000003,-9.7575565,-0.6378270850000001,513
1747532622280,-2.50195295,0.053448536,2.2653394,2.14198045,-10.1940485,-0.40453416,514
1747532622290,-2.7148929,0.042465962,2.2079859,1.9744676,-10.466756,-0.24501082,515
1747532622300,-3.2449851,0.075291662,2.0159128,1.00054968,-10.4502445,0.0071905379999999,516
1747532622310,-3.5158887,0.0950603,1.94586845,0.1177117299999999,-10.2329305,0.193345505,517
1747532622320,-3.89222485,0.255039818,2.2290969,-0.8133294,-9.966348,0.482298475,518
1747532622330,-4.205228249999999,0.477742065,2.7471083,-1.8061558,-9.740246,1.458347065,519
1747532622340,-4.2739305,0.5532778,2.9796948,-2.3425164,-9.630524,2.2514365,520
1747532622350,-4.2447655,0.6628594999999999,3.5847129000000004,-1.86714235,-9.7985685,3.07941315,521
1747532622360,-4.0524485,0.71643005,3.65585565,-1.356348,-9.718141500000002,3.1939290500000004,522
1747532622370,-3.69038975,0.7402256,3.588496,-0.8221178499999999,-9.453423,2.32440695,523
1747532622380,-3.4574369000000003,0.7209450749999999,3.56616465,-0.47031426,-9.1583445,0.92544848,524
1747532622390,-3.4553623,0.70288485,3.5781233,-0.39840892,-9.048889,0.33822146,525
1747532622400,-3.5620155,0.6242984,3.559331,-0.1667139,-8.745821,-0.7590009,526
1747532622410,-3.704301,0.4966565,3.4741552,0.3717773,-8.256332,-1.8279938,527
1747532622420,-3.8460981,0.1649827095,2.8089769,1.17924775,-7.3601785,-2.57980415,528
1747532622430,-3.7570174,-0.0801728105,2.1706452,1.7611484,-6.325274,-2.92494985,529
1747532622440,-3.563602,-0.27895743,1.6395765999999998,2.19604265,-5.282380099999999,-3.17768385,530
1747532622450,-3.3546889,-0.4757895949999999,1.06860465,2.3475766,-4.56066345,-3.2892703,531
1747532622460,-3.1325968,-0.638331715,0.554376015,2.38086605,-3.83175615,-3.33267985,532
1747532622470,-2.8660862,-0.7413238600000001,-0.117513585,2.0402477,-2.783536,-3.0336069,533
1747532622480,-2.6036027,-0.73473433,-0.729365115,1.4666028,-1.76088215,-2.46875035,534
1747532622490,-2.493533,-0.6987359,-0.91399443,1.2170646,-1.4349113,-2.20563,535
1747532622500,-2.2316594,-0.5947675,-1.1285207,0.680704,-0.8367652,-1.6431705,536
1747532622510,-1.9468447,-0.48957884,-1.2310247,0.18375812,-0.33129725,-1.1057445,537
1747532622520,-1.19807705,-0.26394792,-1.1414557,-0.374174135,0.2348908099999999,-0.307595138,538
1747532622530,-1.0161324,-0.19146291,-1.047493675,-0.521713265,0.4362257899999999,0.1235706719999999,539
1747532622540,-0.9498709,-0.15863721,-0.99550945,-0.50120693,0.4628574,0.22690132,540
1747532622550,-0.9187535,-0.109825762,-0.8465125149999999,-0.248206615,0.61492395,0.407996285,541
1747532622560,-0.95597222,-0.096402612,-0.7559673,-0.0569916475,0.76432727,0.4546016,542
1747532622570,-1.0113732,-0.074559488,-0.65810035,0.1488707125,0.98616857,0.417583665,543
1747532622580,-1.02650475,-0.068580088,-0.58646955,0.332096185,1.20694465,0.318514085,544
1747532622590,-1.0172306,-0.08102701,-0.5691415,0.3888215,1.2719258,0.26205507,545
1747532622600,-0.9752528,-0.13227904,-0.5593792,0.4857606,1.4365091,0.0793622,546
1747532622610,-0.945355815,-0.2522331599999999,-0.51935384,0.59601545,1.7086842,-0.34354778,547
1747532622620,-1.01503415,-0.317640515,-0.470664415,0.713993475,1.949434,-0.8317052199999999,548
1747532622630,-1.14487255,-0.373285565,-0.42832047,0.82265045,2.18405845,-1.31826475,549
1747532622640,-1.32523085,-0.42783235,-0.39598287,0.8269115499999999,2.3174827,-1.54276925,550
1747532622650,-1.4306636,-0.4497975,-0.3863426,0.8042747,2.3675501,-1.609082,551
1747532622660,-2.037634,-0.48115887,-0.1957338985,0.464721625,2.71349485,-1.20800993,552
1747532622670,-2.48669935,-0.495680275,0.0663835715,0.12357067445,3.01443205,-0.62104918,553
1747532622680,-2.71574715,-0.484453645,0.29128232,-0.14966966055,3.2980587000000003,-0.1898833855,554
1747532622690,-2.8081229,-0.47542354,0.3943965,-0.29667616,3.46424,0.002130529,555
1747532622700,-2.9186807,-0.400742,0.601113,-0.63915867,3.8685079,0.22530343,556
1747532622710,-3.2146001,-0.22575296,1.17074265,-1.072455,4.78863,0.241548725,557
1747532622720,-3.50222175,-0.112632425,1.6755751,-1.09722235,5.4906392,0.141680175,558
1747532622730,-3.6032615,-0.09176553,1.8397036,-1.0210559,5.706089,0.0974717,559
1747532622740,-3.84475585,-0.112632422,2.2192126,-0.83330315,6.30929525,-0.049534798,560
1747532622750,-3.981184,-0.171206165,2.4032316,-0.92038855,6.667224,-0.1933455074999999,561
1747532622760,-4.11041215,-0.21355009,2.54246625,-1.23410895,7.063236,-0.393615235,562
1747532622770,-4.240372499999999,-0.225997005,2.79714,-1.9345203,7.762582500000001,-0.74382091,563
1747532622780,-4.3400698,-0.205984315,3.112218,-2.60510415,8.423313,-1.063932875,564
1747532622790,-4.3693566,-0.18768002,3.2288775,-2.786199,8.606272,-1.1467572,565
1747532622800,-4.43671655,-0.1510714325,3.3788507,-2.8173581,8.7088035,-1.1054782,566
1747532622810,-4.36801465,-0.108849535,3.5329726,-2.6828685,9.0611395,-0.29640984,567
1747532622820,-4.1916833,-0.12520137,3.4280279,-2.602441,9.137306,0.18375812,568
1747532622830,-3.6111929,-0.1881681399999999,3.1570024,-2.6879284,9.124789,0.901746385,569
1747532622840,-2.92356165,-0.200126945,2.9301512,-2.834136,8.9732555,1.413606,570
1747532622850,-2.25289235,-0.192439145,2.7596773,-2.90364455,8.665394,1.8745992,571
1747532622860,-2.0398304,-0.18743597,2.7163572,-2.8783445,8.489625,2.031992,572
1747532622870,-2.0398304,-0.18743597,2.7163572,-2.8783445,8.489625,2.031992,573
1747532622880,-1.033216335,-0.247840125,2.45887685,-2.3036344,7.5948028,2.3459786,574
1747532622890,-0.86371857,-0.26187342,2.3934696,-2.1619542,7.4025226,2.3419838,575
1747532622900,-0.1736467465,-0.2884756699999999,1.9503835,-1.62559355,6.5993132,1.68151995,576
1747532622910,0.029164841,-0.28798756,1.8137114,-1.4604776,6.289055,1.2298478,577
1747532622920,0.1970762375,-0.273466155,1.6822866,-1.3153353,6.02007575,0.762196725,578
1747532622930,0.277005,-0.26480213,1.6119982,-1.2479573,5.9052935,0.53103435,579
1747532622940,0.43637437,-0.24015234,1.5417097,-1.1627362,5.6373796,0.13688648,580
1747532622950,0.6277153,-0.113974735,1.5243815,-1.026915,4.8757153,-0.28442562,581
1747532622960,0.686044925,-0.112998505,1.5835654,-0.77684412,4.38516115,-0.20479709,582
1747532622970,0.789769275,-0.13093671,1.6401867,-0.56352491,4.04773855,-0.126766465,583
1747532622980,1.0648218,-0.144603915,1.67179215,-0.263120317,3.52522635,-0.10812434,584
1747532622990,1.2690977,-0.15155955,1.67106,-0.072970614,3.1856732,-0.12463594,585
1747532623000,1.5489093500000002,-0.148020725,1.64628825,0.063915866,2.6117620500000003,-0.2277002799999999,586
1747532623010,1.67972405,-0.11092402,1.5905211,0.089482213,2.10948985,-0.229298175,587
1747532623020,1.734759,-0.08566409,1.5592817,0.092145376,1.8269285,-0.20772657,588
1747532623030,1.85593325,-0.01757212145,1.5425638,0.1163801449999999,1.04822027,-0.0556600683,589
1747532623040,1.8841219,-0.0019524579,1.5414655,0.13262543,0.77391464,0.0031957934,590
1747532623050,1.88168135,0.069434289,1.54354,0.39734365,-0.69401979,0.16218651,591
1747532623060,1.8494658,0.084931925,1.5568411,0.48842376,-0.9965549,0.15073492,592
1747532623070,1.69229295,0.1048225825,1.55293625,0.896686385,-1.82186845,-0.06098639,593
1747532623080,1.6271297,0.10396838,1.5356082,1.0503508,-2.0660803,-0.15765914,594
1747532623090,1.3428029,0.044418417,1.3828284,1.6181368,-2.9736857,-0.7483483,595
1747532623100,1.07067918,0.0510079655,1.17171885,1.6543557,-3.54413475,-1.1270498,596
1747532623110,0.88592783,0.069190233,1.07922115,1.5419703500000002,-3.91005305,-1.2804478499999998,597
1747532623120,0.6776249750000001,0.097012755,1.0504224,1.3771206500000002,-4.255997649999999,-1.30841105,598
1747532623130,0.56548065,0.11568313,1.0516427,1.2905679,-4.42138,-1.2857742,599
1747532623140,0.0888368374999999,0.311783135,1.1404795,1.1153319000000002,-5.27226025,-0.47058057,600
1747532623150,-0.003782889,0.33997175,1.18501995,1.1118698500000002,-5.7798586,-0.00426106,601
1747532623160,-0.1149509615,0.361692845,1.2577490999999998,1.0985540500000002,-6.36096035,0.42477421,602
1747532623170,-0.3355787149999999,0.408307775,1.41785065,1.0434266,-7.2549835,0.7568703999999999,603
1747532623180,-0.604651815,0.439669145,1.6622739,1.0655308,-8.144213,0.7787082999999999,604
1747532623190,-0.7185045,0.43930307,1.7899158,1.1302456,-8.430503,0.6631271,605
1747532623200,-1.15353655,0.367672235,2.09999065,1.4812502,-9.0440955,-0.03142531,606
1747532623210,-1.4389615,0.280543805,2.18980375,1.66687255,-9.3511585,-0.625842865,607
1747532623220,-2.02897005,0.196954205,2.29035535,1.60242405,-9.8057595,-1.44929228,608
1747532623230,-2.7350277,0.1825548249999999,2.42873575,1.361408,-10.1093595,-2.0106866,609
1747532623240,-3.3147856,0.21708892,2.6382588,1.18084565,-10.1519705,-1.8820559,610
1747532623250,-3.88075415,0.21733298,2.93210375,1.17338875,-10.1823305,-1.4405038,611
1747532623260,-4.4245136,0.171328185,3.05132585,1.32865105,-10.086723,-0.8982842,612
1747532623270,-4.7144537,0.1466784,3.025822,1.4263891,-9.984724,-0.6135923,613
1747532623280,-4.4828435,0.154976355,2.583102,0.866326325,-8.895490500000001,0.9254485,614
1747532623290,-4.351541,0.16180995,2.4723,0.56725335,-8.735168,1.2293152,615
1747532623300,-3.90723455,0.236979585,2.4625375,-0.52411011,-8.415057000000001,2.07140675,616
1747532623310,-3.41850995,0.262239515,2.7810322000000003,-1.01919175,-8.324243,2.38432815,617
1747532623320,-2.96956655,0.264802115,3.0872021,-1.034638085,-8.1423488,1.8895128,618
1747532623330,-2.788354,0.242348845,3.13491535,-0.643952355,-7.886419050000001,0.81679154,619
1747532623340,-2.7300243,0.22599702,3.1266174,-0.40746364,-7.7822895,0.31851408,620
1747532623350,-2.72306875,0.049787679,2.7905506,0.4692489999999999,-7.2885393,-1.2333099,621
1747532623360,-2.7522335,-0.023429496,2.6297169,0.7717841,-7.0898676,-1.7145431,622
1747532623370,-3.069996,-0.24173871,1.49692515,1.7326527,-5.637912,-2.59818005,623
1747532623380,-2.98042715,-0.33679901,0.99209275,2.2096248,-4.405401,-2.72547915,624
1747532623390,-2.9076982,-0.38219365,0.7412019,2.2919164,-4.027765,-2.6477149,625
1747532623400,-2.4919465,-0.50483239,0.0619905299999999,2.18831945,-2.9971216,-2.0114856,626
1747532623410,-2.05532805,-0.6190511750000001,-0.44467232,1.8897791,-2.43865675,-1.29669315,627
1747532623420,-1.6803341,-0.699101975,-0.850417475,1.52226285,-2.016812,-0.555535435,628
1747532623430,-1.4950947499999998,-0.7061796499999999,-1.0672623250000002,1.2085425,-1.79736745,-0.077497995,629
1747532623440,-1.4123594,-0.6999562,-1.1668377,1.0375676,-1.6831179,0.15339808,630
1747532623450,-1.30753675,-0.64187053,-1.24652235,0.451672125,-1.2897689,0.69987875,631
1747532623460,-1.3142483,-0.55486413,-1.1026506,-0.104129595,-0.90227897,1.05248125,632
1747532623470,-1.31144165,-0.4667595,-0.89898488,-0.54754592,-0.532898545,1.25860995,633
1747532623480,-1.27385685,-0.40659939,-0.76414323,-0.644485,-0.336090935,1.2159994,634
1747532623490,-1.2590914,-0.37121108,-0.699224,-0.6556703,-0.24501082,1.1685951,635
1747532623500,-1.26202,-0.30214286,-0.5976962,-0.5203817,-0.058589544,1.0125339,636
1747532623510,-1.2600676,-0.25894472,-0.532777,-0.2609898,0.1272991,0.8159926,637
1747532623520,-1.3727,-0.261751405,-0.5989165,0.5307680100000001,0.737163,0.2010686649999999,638
1747532623530,-1.4722754,-0.313857635,-0.6816518899999999,0.711330335,1.0516823,-0.063383235,639
1747532623540,-1.5312152,-0.3443648,-0.72070104,0.7653925,1.2191951,-0.1933455,640
1747532623550,-1.632987,-0.40952805,-0.8117344,0.6759103,1.7070863,-0.48469532,641
1747532623560,-1.9129207,-0.48054874,-0.68750928,0.18295917,2.38858915,-0.8343683749999999,642
1747532623570,-2.1974915,-0.43722857,-0.3996437499999999,-0.17470337,2.84984875,-0.990962225,643
1747532623580,-2.42690535,-0.3205692,-0.154244185,-0.3214435399999999,3.20751125,-1.014398,644
1747532623590,-2.715625,-0.159735475,0.127031795,-0.42504051,3.6213665,-1.00134855,645
1747532623600,-2.8852448,-0.07224095,0.28505886,-0.47137952,3.842409,-0.9832391,646
1747532623610,-3.1888518,0.052472305,0.58939826,-0.64608292,4.6261772,-0.711596625,647
1747532623620,-3.5870314,-0.0172060355,1.37526255,-0.799481,5.225388499999999,-0.36139096,648
1747532623630,-3.6899015,-0.0633328569999999,1.74049425,-0.90680635,5.832323,0.181893915,649
1747532623640,-3.8392647,-0.0430761054999999,2.1523409,-0.90973582,6.4725470000000005,0.7102650850000001,650
1747532623650,-4.0220635,-0.016107778,2.5309957,-0.90148005,6.989466500000001,0.929709555,651
1747532623660,-4.093084,-0.021721095,2.6563191,-0.91452956,7.152718,0.94755274,652
1747532623670,-4.3512967,0.034778159,3.02435745,-1.17045935,7.7689738,0.736630355,653
1747532623680,-4.4516044,0.061258372,3.1127062,-1.2964269,8.017713,0.63383234,654
1747532623690,-4.7347107,0.138746545,3.60362715,-1.87593065,9.046226,0.5299690699999999,655
1747532623700,-4.7996297,0.1742568749999999,4.0454927,-2.0596888,9.578858,0.7249124499999999,656
1747532623710,-4.7864504,0.18450728,4.1809444,-2.0074909,9.633719,0.8697884,657
1747532623720,-4.5339735,0.18365308,4.2096215,-1.6061525,9.7748665,1.54703035,658
1747532623730,-3.934447,0.0829794614999999,3.8846594,-1.3741912,9.828396,1.96115185,659
1747532623740,-3.2340027,-0.009030118,3.4986827500000004,-1.284709,9.847837,2.1401162,660
1747532623750,-2.7261195000000003,-0.0331917845,3.2615811,-1.3475595,9.79777,2.11002255,661
1747532623760,-2.22555805,-0.046004792,3.0472988,-1.4841797,9.6608835,1.8684739,662
1747532623770,-1.7738081,-0.069556317,2.87841115,-1.5451661,9.3602125,1.5797872,663
1747532623780,-1.39747185,-0.108727505,2.7349054500000003,-1.47219545,8.974853,1.34596165,664
1747532623790,-1.23615,-0.13325526,2.6636407,-1.4034859,8.798019,1.2639363,665
1747532623800,-0.60989903,-0.20598432,2.2929177,-0.95447695,7.6946714,0.984837,666
1747532623810,-0.430394945,-0.2139161849999999,2.1284232,-0.8540757999999999,7.2238245,0.87697897,667
1747532623820,-0.34631723,-0.21452633,2.0447116,-0.8175905,6.9971895,0.82557994,668
1747532623830,0.0153756035,-0.272367885,1.739518,-0.75074515,6.228601449999999,0.679372415,669
1747532623840,0.128862225,-0.24564362,1.6515354,-0.7022756,5.687447049999999,0.612260765,670
1747532623850,0.23978624,-0.2334407499999999,1.6123642,-0.6412892,5.3822486000000005,0.6556703,671
1747532623860,0.40245039,-0.25809053,1.6079712,-0.54168699,5.13670515,0.7153251,672
1747532623870,0.49958518,-0.2796896,1.6119982,-0.48203218,5.0014167,0.7387609,673
1747532623880,0.9021576,-0.334846535,1.6272517,-0.1613875655,4.3121905,0.57737333,674
1747532623890,1.16037015,-0.3515644599999999,1.63091255,0.0644484994999999,3.76198145,0.36698361,675
1747532623900,1.2219946,-0.34241232,1.6315227,0.12676647,3.5606465,0.29188246,676
1747532623910,1.3772151,-0.36340125,1.6364038,0.2444782,3.1435955,0.20240025,677
1747532623920,1.5108364,-0.39171188,1.6348175,0.390419425,2.40882925,0.12676647,678
1747532623930,1.7086448,-0.4163616799999999,1.5905211,0.473510035,1.62000085,0.005592635,679
1747532623940,1.8805831,-0.42966281,1.5404894,0.5275722,0.8732505,-0.16671389,680
1747532623950,1.9302487,-0.43246946,1.5236495,0.5390238,0.6247776,-0.24607609,681
1747532623960,2.0134722,-0.43368971,1.4952167,0.52970277,-0.133158055,-0.499076395,682
1747532623970,1.9733248,-0.352174595,1.5069314500000002,0.54568173,-1.020257065,-0.6838997600000001,683
1747532623980,1.9190221,-0.28115395,1.5216969,0.56938386,-1.635181,-0.78989357,684
1747532623990,1.6545861,-0.179992225,1.5869822,0.7025419,-2.3073628,-0.80800307,685
1747532624000,1.40101065,-0.096402614,1.58210105,0.96459695,-3.38221465,-0.71692298,686
1747532624010,1.2583592,-0.049787678,1.5773419,1.0434265,-3.6442697,-0.6775082,687
1747532624020,0.8892226,0.00610143135,1.4730075,1.3076121,-4.36572,-0.6101302200000001,688
1747532624030,0.7019086,0.003660859,1.34414525,1.39096905,-4.81393,-0.63276707,689
1747532624040,0.63467085,-0.0207448655,1.24884095,1.3084111,-5.12338945,-0.70999875,690
1747532624050,0.5563285,-0.0307512135,1.16024825,1.1395667,-5.4538877,-0.79708413,691
1747532624060,0.3487578,-0.0031727449999999,1.180505,0.92065485,-5.81368065,-0.84422208,692
1747532624070,0.0953043504,0.0870064035,1.3260850999999998,0.5542038499999999,-6.5138259000000005,-0.631968135,693
1747532624080,-0.0883487246,0.1992727349999999,1.5060772999999998,0.251935045,-7.30585005,-0.233559228,694
1747532624090,-0.308976485,0.27663888,1.7658762,0.21678132,-7.925034800000001,0.140348592,695
1747532624100,-0.59708606,0.3310636449999999,2.10108875,0.305464585,-8.591624,0.502538505,696
1747532624110,-0.99294695,0.32752483,2.40433,0.435959475,-9.173525,0.76858832,697
1747532624120,-1.3453656500000002,0.266632545,2.6166599,0.410925765,-9.896040500000002,0.74941355,698
1747532624130,-1.5878365,0.2701713599999999,2.73990875,0.1374191185,-10.492855,0.436758415,699
1747532624140,-1.8622788,0.36108269,2.8112954500000003,-0.3443467315,-10.671287,0.0556600649999999,700
1747532624150,-2.16771635,0.4485772249999999,2.97310545,-1.1100056,-10.823087,-0.229031865,701
1747532624160,-2.66949805,0.57524292,3.5965495,-2.2458438,-11.262242,-0.07962852,702
1747532624170,-3.0119104,0.67091334,4.085762,-3.0652984,-11.688614,0.43995423,703
1747532624180,-3.5360236,0.838580695,4.783766,-3.287406,-11.7629165,0.951014835,704
1747532624190,-3.7108905,0.94596583,5.121663,-3.353985,-11.751465,1.190433,705
1747532624200,-3.7684879,1.10045405,5.33326075,-3.55185795,-11.4004605,1.3177321,706
1747532624210,-3.80765915,1.28130055,5.67201225,-3.5752938,-11.0230905,0.5608617300000001,707
1747532624220,-3.9821601,1.3989362,6.0139365,-3.0660974000000003,-10.6033765,-0.73663037,708
1747532624230,-4.2572127,1.3794116,5.9614642,-2.0192088,-10.1983095,-1.8157433,709
1747532624240,-4.394251,1.3437792,5.8214974,-1.4322481,-9.971408,-2.269546,710
1747532624250,-4.4825995,0.97171393,4.7762002500000005,0.49295116,-8.7365005,-3.25891025,711
1747532624260,-4.3022413,0.401718215515,3.2767126500000003,2.0290625,-7.13860365,-3.89300915,712
1747532624270,-3.9632457,-0.186703799485,1.6616638,3.102849,-5.33617615,-4.239486299999999,713
1747532624280,-3.58483495,-0.514228635,0.7433984,3.1696943,-4.243481,-4.09780595,714
1747532624290,-3.3906875,-0.6560259,0.340948,3.0807447,-3.792874,-3.9606533,715
1747532624300,-2.9568755500000004,-0.75181835,-0.5038562,1.841576,-2.77741075,-2.9265478,716
1747532624310,-2.5937184,-0.635891175,-0.979645785,0.273773,-2.1686121,-1.5523566,717
1747532624320,-2.255089,-0.497998805,-1.17818635,-0.98723385,-1.7473,-0.27031086,718
1747532624330,-2.0597210500000003,-0.38731883,-1.0733638,-1.45168915,-1.5302524,0.44341634,719
1747532624340,-1.88985725,-0.168399484,-0.91338428,-1.63225145,-1.32385745,1.00907175,720
1747532624350,-1.7408603500000002,0.085053951,-0.7675600300000001,-1.5385082,-1.144893,1.42106275,721
1747532624360,-1.5658713,0.286401175,-0.6506566,-0.935834835,-0.9566075,1.7257284,722
1747532624370,-1.4294433,0.357299805,-0.5698736499999999,-0.0679105999999999,-0.782170415,1.8317222,723
1747532624380,-1.35329745,0.280299755,-0.5947674999999999,0.551806985,-0.655670265,1.6948357,724
1747532624390,-1.3069266,0.22282428,-0.6360132,0.948618,-0.5110606200000001,1.43650905,725
1747532624400,-1.2686096,0.0789525215,-0.798677355,1.16220355,-0.341417255,1.07378653,726
1747532624410,-1.257627,0.025381953,-0.84565836,1.222391,-0.25726137,0.86499476,727
1747532624420,-1.23590595,-0.20683851,-0.91972974,1.1382351000000002,0.421045785,-0.6034723,728
1747532624430,-1.3100994,-0.26846297,-0.8692098850000001,1.11799505,0.78509993,-1.2279836,729
1747532624440,-1.3623276,-0.30019042,-0.83101493,1.1190603,0.9779128,-1.5318503,730
1747532624450,-1.7638017,-0.35974037,-0.5975741450000001,1.27245835,1.83411915,-2.28445975,731
1747532624460,-2.1429446,-0.37889887,-0.4225851,1.3821806,2.43998825,-2.4650220000000003,732
1747532624470,-2.40555025,-0.41941237,-0.3010446049999999,1.3864417,2.76382865,-2.2871227000000003,733
1747532624480,-2.647411,-0.48726032,-0.1496070874999999,1.3358416000000002,3.1196270000000004,-2.0343887,734
1747532624490,-2.88866165,-0.62002745,0.0889588725,1.074319175,3.8261635,-1.73851155,735
1747532624500,-3.0984289,-0.7026408,0.36291315,0.643153425,4.6434878,-1.5451660500000002,736
1747532624510,-3.23693135,-0.6599307999999999,0.61075327,0.17124126,5.2616075,-1.49350075,737
1747532624520,-3.35005185,-0.56901945,0.88922255,-0.46392267,5.893309,-1.4402376,738
1747532624530,-3.402158,-0.5100796,1.0369992,-0.83729786,6.216883,-1.4082797,739
1747532624540,-3.5671408,-0.29994637,1.5075417,-1.51746915,6.9569757,-1.1885688,740
1747532624550,-4.10675135,0.0701664585,2.73380725,-1.63890935,7.4640417,-0.9270464,741
1747532624560,-4.280032,0.126177595,3.16432425,-1.4495586,7.7958717,-0.6838998000000001,742
1747532624570,-4.340314,0.12813005,3.363841,-1.3241237,7.9708414,-0.5629923,743
1747532624580,-4.471129,0.059305906,3.700396,-1.0956244,8.225439,-0.36804888,744
1747532624590,-4.5682635,0.0019524579,3.8141267,-1.081776,8.769257,-0.24927188,745
1747532624600,-4.601455,-0.13398743,3.904428,-1.8221349,9.56927,-0.24554345,746
1747532624610,-4.58717795,-0.15778301,4.0464693,-2.7244138500000004,10.10936,0.0290284499999999,747
1747532624620,-4.502368150000001,-0.145702175,4.130791,-3.1100396000000003,10.25343675,0.4026699649999999,748
1747532624630,-4.1767957,-0.156318665,4.14482425,-3.38194835,10.16954725,1.1922972,749
1747532624640,-3.9117494,-0.17059602,4.1194425,-3.4972632,10.050238,1.7534252,750
1747532624650,-3.27280755,-0.23466104,3.85390805,-3.3960631,9.815879249999998,2.52174735,751
1747532624660,-2.80641435,-0.265656305,3.65793,-3.2759545,9.612147749999998,2.90124775,752
1747532624670,-2.5643096,-0.27602875,3.5610392,-3.2080438,9.497898,3.0562437,753
1747532624680,-1.6587350500000002,-0.275784685,3.16603255,-2.8370655,8.744223,3.19472805,754
1747532624690,-1.2302926,-0.26968327,2.9640753,-2.602441,8.325042,3.1595743,755
1747532624700,-0.757309645,-0.26053111,2.7693175,-1.99630565,7.84034625,2.6458506,756
1747532624710,-0.61795294,-0.25357547,2.703422,-1.7715348,7.6938725,2.4256072,757
1747532624720,-0.37999713,-0.23990828,2.5435646,-1.3406353,7.422763,1.8716697,758
1747532624730,-0.043198132,-0.215136465,2.1508766,-0.8860336799999999,6.78546825,0.6993460850000001,759
1747532624740,0.095426388,-0.210743435,1.93000465,-0.75154406,6.4805365,0.15659387,760
1747532624750,0.194879705,-0.24369116,1.90901575,-0.68656295,6.349774999999999,-0.303600375,761
1747532624760,0.3321619,-0.2737101899999999,1.9263439,-0.71133035,6.18519165,-0.375772045,762
1747532624770,0.409284,-0.28676724,1.9324453,-0.7435546,6.0704093,-0.33981937,763
1747532624780,0.748401555,-0.33570075,2.1678386,-0.78270308,5.32632235,0.18136127,764
1747532624790,0.91472656,-0.36388937,2.297555,-0.7414241,4.8693237,0.4612595,765
1747532624800,1.15280445,-0.34351058,2.336726,-0.55953014,4.1840925,0.811997825,766
1747532624810,1.4038173,-0.34692737,2.315371,-0.478570045,3.740676,1.013599125,767
1747532624820,1.96612525,-0.37499395,2.28254535,-0.443416325,2.6082999,1.1901667,768
1747532624830,2.5514965,-0.42563583,2.30634095,-0.32490566,1.2274509500000002,1.1912319500000002,769
1747532624840,2.728804,-0.4515059,2.3417292,-0.21678132,0.7456851,1.1084076,770
1747532624850,2.886221,-0.48665017,2.4009132500000003,0.393881535,-0.6428871349999999,0.4316984299999999,771
1747532624860,2.8641338000000003,-0.47420323,2.3461223,0.7813714650000001,-1.41227435,-0.23622239,772
1747532624870,2.5485678,-0.42099874,2.1801633,1.074851865,-2.45170615,-1.3584785,773
1747532624880,2.0196957,-0.31422371,2.0632598,1.22904895,-3.47009895,-2.3076291,774
1747532624890,1.4987555,-0.1665690749999999,2.0404405,1.30574795,-4.0682448,-2.51615465,775
1747532624900,0.98989618,-0.0128130025,2.0201839,1.4620755,-4.6373625,-2.29111755,776
1747532624910,0.490799115,0.0772441195,1.97698575,1.8144117,-5.41846775,-1.4940334,777
1747532624920,0.1924391449999999,0.080538893,1.8481234,2.0660804500000003,-6.1351245,-0.70600403,778
1747532624930,0.1483868099999999,0.03258164395,1.67362255,1.954494,-6.64165765,-0.347808845,779
1747532624940,0.0804168614999999,-0.01891443505,1.5583056,1.62239775,-7.218764500000001,-0.141413855,780
1747532624950,-0.0824913485,-0.025015866,1.53817085,1.1717909,-7.783621350000001,-0.0085221125,781
1747532624960,-0.32484019,0.0277004969999999,1.62005195,0.73663035,-8.2784365,0.1275654175,782
1747532624970,-0.8522478800000001,0.190364655,1.9957781,0.51691955,-9.091499,0.339020415,783
1747532624980,-1.4771565,0.345951155,2.4181192,0.639158675,-9.8584895,0.45193845,784
1747532624990,-1.713526,0.37487194,2.5394156,0.78563255,-10.05077,0.42717105,785
1747532625000,-2.20261655,0.27810322,2.60128415,1.1283814,-10.191917,0.0053263149999999,786
1747532625010,-2.61397505,0.210377345,2.4760827,0.6162554725,-10.2795355,-0.41545314,787
1747532625020,-3.11624495,0.236491475,2.4802318000000003,-0.4063983775,-10.4867295,-0.537159595,788
1747532625030,-3.61033885,0.36694007,2.82923365,-1.3078784,-10.7557085,-0.14700649,789
1747532625040,-3.8890522,0.45297024,3.0880563,-1.7278589,-10.913634,0.12836437,790
1747532625050,-4.37375,0.68336034,3.5822723,-2.1869879,-11.1160345,0.7653925,791
1747532625060,-4.60328575,0.96561245,3.5773913,-2.36115865,-10.143714,1.30921,792
1747532625070,-4.38412235,1.0755602,3.2811057,-2.55583575,-9.03317575,1.3073458,793
1747532625080,-4.11700155,1.100088,3.17152395,-2.88660035,-8.513060750000001,1.2106731000000002,794
1747532625090,-3.9898477,1.1148535,3.1739645,-3.0700922,-8.315987,1.1739215,795
1747532625100,-3.67403775,1.1913654500000002,3.2399820000000004,-3.4429346,-7.85765695,1.15021925,796
1747532625110,-3.35920375,1.1825793999999998,3.2892815,-3.19073325,-7.53434915,0.855141025,797
1747532625120,-3.0621862,1.10985035,3.18458095,-2.52733995,-7.1655013,0.2950782455,798
1747532625130,-2.8381418,0.9757409,2.869259,-1.6927052500000002,-6.721818799999999,-0.4652542495,799
1747532625140,-2.7163572,0.8839754,2.6670575,-1.2048141,-6.456568,-0.94275904,800
1747532625150,-2.532094,0.5953776550000001,2.05679255,-0.149669655,-5.590774,-2.2045648,801
1747532625160,-2.37784965,0.309586615,1.4315178,0.475374245,-4.821653,-3.0418626,802
1747532625170,-2.277542,0.11202228,1.0047837,1.0026802,-4.055728,-3.7979341,803
1747532625180,-2.2240935,-0.03099527,0.5512033,1.4330471,-3.0027141,-4.432032749999999,804
1747532625190,-2.170645,-0.17401282,0.0976229,1.6314526,-2.3153522,-4.7233825,805
1747532625200,-2.0133503,-0.189998565,-0.47591163,1.485245,-1.46899965,-4.43416325,806
1747532625210,-1.9407433,-0.17401282,-0.64187056,1.397627,-1.2399678,-4.266384,807
1747532625220,-1.58515185,-0.0848098915,-1.00502775,0.884435815,-0.679638735,-2.5443842,808
1747532625230,-1.45031015,-0.0184263215,-1.0296775,0.8335694499999999,-0.55606805,-1.7952369,809
1747532625240,-1.34170465,0.0097622895,-1.0168645,0.90627375,-0.449807925,-1.051416,810
1747532625250,-1.25713885,-0.0140332924999999,-0.96121947,1.0972224000000002,-0.386158365,-0.37816888,811
1747532625260,-1.2222387,-0.040513504,-0.92400074,1.2181299,-0.37337518,-0.06870956,812
1747532625270,-1.2222387,-0.040513504,-0.92400074,1.2181299,-0.37337518,-0.06870956,813
1747532625280,-1.17220695,-0.31910485,-0.91362835,1.3970943500000002,-0.46525425,0.5954828249999999,814
1747532625290,-1.26702315,-0.4562650299999999,-0.9185095,1.13903402,-0.271109803,0.2652508415,815
1747532625300,-1.37575065,-0.5749988850000001,-0.921438165,0.92038849,0.0969390669999999,-0.1568601935,816
1747532625310,-1.4643434,-0.60184517,-0.878850165,0.88124002,0.44235107,-0.50600061,817
1747532625320,-1.577586,-0.59879445,-0.8211306,0.89162635,0.8130630999999999,-0.875913725,818
1747532625330,-1.7073025,-0.58768987,-0.7980672,0.8857674,1.24023415,-1.2144015,819
1747532625340,-1.7764928,-0.58110034,-0.7975791,0.8708537,1.4689997,-1.3672669,820
1747532625350,-2.1846783,-0.5959877950000001,-0.60550602,0.38535944,2.61921895,-1.4634070499999998,821
1747532625360,-2.2677798,-0.60062486,-0.55864704,0.18482338,2.8554413,-1.3651364,822
1747532625370,-2.4339828,-0.5942794,-0.44345203,-0.2657835,3.2581112,-1.0626013,823
1747532625380,-2.5335584,-0.59916055,-0.23746772,-0.7552725,3.6767602,-0.6982809,824
1747532625390,-2.6084838,-0.58256465,0.08956901,-1.2149341,4.0549293,-0.34621096,825
1747532625400,-2.8684049,-0.39366436,0.8402891,-1.9009644,4.7329698,0.38402784,826
1747532625410,-2.95187235,-0.319592975,1.0900817,-1.989914,4.852812050000001,0.58935757,827
1747532625420,-3.24535135,-0.0702884885,1.88949115,-2.092712,5.1590757,1.2271847,828
1747532625430,-3.39471435,-0.0366085885,2.26143435,-1.86714225,5.459214,1.8612834,829
1747532625440,-3.4814765,-0.04271002,2.4952412,-1.7528926,5.594769,2.0756679,830
1747532625450,-3.6133896,-0.0369746715,2.71806565,-1.68631365,6.71782385,2.24238175,831
1747532625460,-3.69099975,-0.060526195,2.95297065,-1.82399905,7.34606385,2.12653415,832
1747532625470,-3.7211409,-0.08664032,3.0868359,-1.8956381,7.668839,2.0437098,833
1747532625480,-3.76214255,-0.1001855,3.26609615,-1.9893813,8.159925,1.8492991,834
1747532625490,-3.9569001,-0.10933765,3.8460982,-1.9851203,8.517855,1.7193369,835
1747532625500,-4.1695962,-0.00976228985,4.2184075,-1.7686053,8.90348,1.9395803,836
1747532625510,-4.132377399999999,-0.00744374585,4.2700255,-1.6290557,9.006012,2.20935855,837
1747532625520,-3.97288585,-0.031483384,4.23378275,-1.46420605,9.106946,2.4732778,838
1747532625530,-3.57055745,-0.0455166775,4.012789,-1.2293152,9.256083,2.66635695,839
1747532625540,-3.11453665,-0.0612583725,3.74188575,-1.0013486,9.412943,2.7499802,840
1747532625550,-2.72172645,-0.0774881775,3.50502825,-0.8644621,9.4747285,2.69991275,841
1747532625560,-2.2916975,-0.0767560049999999,3.2413243,-0.73982617,9.440906,2.5704831,842
1747532625570,-1.7867431000000005,-0.088958865,2.87950945,-0.576308085,9.19696025,2.33106495,843
1747532625580,-1.4853324,-0.10592084,2.6421638,-0.47297743,8.9913645,2.1779332,844
1747532625590,-1.2129645,-0.1232489049999999,2.42641725,-0.409594195,8.63290325,2.0575583,845
1747532625600,-0.8323572,-0.15656272,2.10767855,-0.372842565,8.0432795,1.886317,846
1747532625610,-0.623810285,-0.18853422,1.89010145,-0.478570055,7.562046,1.78911165,847
1747532625620,-0.435520145,-0.22526484,1.68070025,-0.66898607,7.061904200000001,1.70442315,848
1747532625630,-0.2178210924999999,-0.287987545,1.4771565,-0.994158,6.4608287,1.6231967,849
1747532625640,-0.088104665,-0.32996538,1.368429,-1.2080098,6.109824,1.5803198,850
1747532625650,0.0699223955,-0.37584816,1.4315178,-1.4421017,5.736981650000001,1.73185365,851
1747532625660,0.225508895,-0.43076104,1.5341438,-1.4729944,5.4056845,1.958755,852
1747532625670,0.56352818,-0.5232587399999999,1.68070025,-1.26713205,4.842159499999999,2.30097125,853
1747532625680,0.95670445,-0.60343155,1.81700625,-0.9488843,4.29780935,2.5076325,854
1747532625690,1.2312689,-0.65260908,1.92219485,-0.6721818799999999,3.89247635,2.4655545,855
1747532625700,1.5129109,-0.7300972649999999,1.9954121,-0.403202595,3.4165695,2.3249396,856
1747532625710,1.96880985,-0.8620101849999999,2.01115385,-0.181361275,2.5624937,1.9291939,857
1747532625720,2.3846835,-0.973788385,2.02811575,-0.06631271,1.5832493,1.4173344,858
1747532625730,2.58468845,-1.004783685,2.06606665,0.019707395,0.727042975,0.9049422,859
1747532625740,2.6917075,-1.0068582,2.0946213,0.187486545,-0.160588605,0.323307768,860
1747532625750,2.6815791,-0.98440495,2.0797337,0.40426785,-0.96033588,-0.243945552,861
1747532625760,2.3946898,-0.9054524,1.9817448,0.6285060250000001,-1.7118799,-0.8175904700000001,862
1747532625770,1.97857215,-0.811612375,1.8687464,0.922785375,-2.6623621,-1.5837819,863
1747532625780,1.59723265,-0.7264364050000001,1.7681947999999998,1.1816445999999998,-3.4935348,-2.23172905,864
1747532625790,1.3806318,-0.67555046,1.7054721,1.2538162,-3.7321541,-2.3963125,865
1747532625800,1.0301657,-0.58232063,1.616147,1.3811153,-4.0458746,-2.582201,866
1747532625810,0.542905315,-0.40245041,1.4471374,1.5100124,-4.408064400000001,-2.49990945,867
1747532625820,0.3402158,-0.268707035,1.3543957,1.4785871,-4.963866,-2.1499701,868
1747532625830,0.243569135,-0.192073055,1.36623245,1.36779955,-5.65948365,-1.7558222,869
1747532625840,0.1867038,-0.1598575,1.3862451,1.3145363,-5.9122176,-1.6319852,870
1747532625850,-0.0933518924999999,-0.072362976,1.5380488,1.16406775,-6.69864915,-1.19762355,871
1747532625860,-0.19158493,-0.046858992,1.5995512,1.1190603,-6.9492526,-1.0407634,872
1747532625870,-0.5811003,-0.041367705,1.99284945,0.9685917,-7.999603299999999,-0.50866376,873
1747532625880,-0.7198468,-0.0706545735,2.15197475,0.8250473,-8.752213,-0.31451933,874
1747532625890,-0.7663397,-0.08590815,2.221409,0.7526093,-8.966864,-0.34248254,875
1747532625900,-1.0417583499999998,-0.0212329819999999,2.489262,0.411192075,-9.722136,-1.012001235,876
1747532625910,-1.6483626500000002,0.0833455479999999,3.01483905,0.48070058,-10.4057695,-1.79763375,877
1747532625920,-2.3762633500000003,0.1516815799999999,3.45902325,0.715325085,-10.988203,-2.5398568,878
1747532625930,-2.8895158,0.176575425,3.4424274,0.7611314650000001,-11.1434655,-2.8336035,879
1747532625940,-3.137112,0.18865626,3.3753116,0.716923,-11.162907,-2.9246836,880
1747532625950,-3.695759,0.126543685,3.2224098000000003,0.10040117,-10.7977865,-2.69804845,881
1747532625960,-3.93322665,0.129472375,3.26926895,-1.049818115,-10.470218,-1.70921675,882
1747532625970,-3.92578265,0.178405845,3.4663453,-2.32866805,-10.3727465,-0.503337455,883
1747532625980,-3.893445,0.20988922,3.6071663,-2.7382622,-10.453973,-0.12250541,884
1747532625990,-3.913702,0.29067218,4.038903,-3.4312167,-10.741594,0.3637878,885
1747532626000,-4.0195011,0.5636502,4.67259815,-3.88129115,-10.8124345,0.304399335,886
1747532626010,-4.233905200000001,0.85041745,4.877362,-3.4738275,-10.378872,-0.4764395149999999,887
1747532626020,-4.432445550000001,1.0606727500000002,4.64733785,-2.71589175,-9.616409,-1.34755955,888
1747532626030,-4.426954350000001,1.06884865,4.1387227,-2.02160555,-8.838232999999999,-1.75742005,889
1747532626040,-4.400108,1.0460293,3.8768494,-1.6522251,-8.44009,-1.9206718,890
1747532626050,-4.1292045,0.844438075,3.0239912,-0.0482031999999999,-6.807572349999999,-2.2418491,891
1747532626060,-3.610827,0.457241265,1.9830871,1.2668657,-5.34123585,-2.56355895,892
1747532626070,-3.0760976500000003,0.01037243,0.98123215,2.3331954,-3.8029941,-2.9103025,893
1747532626080,-2.7078153,-0.282374235,0.366451955,2.634399,-2.7680896,-3.0913974,894
1747532626090,-2.5157423,-0.417826,0.05418071,2.696717,-2.290851,-3.1595743,895
1747532626100,-1.9907749,-0.52801785,-0.7485235650000001,1.7765949,-1.1981562,-2.9212215,896
1747532626110,-1.7772248,-0.5217944,-1.0672623,1.109473,-0.8127968,-2.6695528,897
1747532626120,-1.53621835,-0.397081135,-1.2309027,-0.12836436,-0.4735100299999999,-1.7204020999999998,898
1747532626130,-1.3626937,-0.300190405,-1.2250453,-0.5539375200000001,-0.2708434899999999,-1.149953,899
1747532626140,-1.1622006,-0.1397227695,-1.07629245,-0.6892261,-0.033289515,-0.425839472,900
1747532626150,-1.0455412,-0.026846299,-0.9513352,-0.6780408,0.10066749,0.020772656,901
1747532626160,-0.9736664,0.0117147455,-0.8278422000000001,-0.48869006,0.075900092,0.214650788,902
1747532626170,-0.9017916,0.05027579,-0.7043492,-0.189883395,-0.0077231679999999,0.431165785,903
1747532626180,-0.90874715,0.0544247645,-0.6975156499999999,0.0109189599999999,-0.11744541,0.434894205,904
1747532626190,-0.925221,0.049543623,-0.7148437,0.164317045,-0.1600559899999999,0.357928855,905
1747532626200,-1.1363305,0.0412456744999999,-0.81295468,0.30093721,0.089215905,0.1597896715,906
1747532626210,-1.2781278,0.0330697575,-0.7941622500000001,0.43995421,0.49321745,-0.0908137935,907
1747532626220,-1.33816595,0.0317274445,-0.71667408,0.58935755,0.83729785,-0.33103094,908
1747532626230,-1.45555745,0.0269683275,-0.57414466,0.9121327,1.38457745,-0.68389978,909
1747532626240,-1.57307095,-0.020622836,-0.4424757649999999,1.27485525,1.93931395,-0.98190748,910
1747532626250,-1.5993071,-0.05832968,-0.41221267,1.3997575,2.1278658,-1.0567423,911
1747532626260,-1.64763045,-0.163152265,-0.406843425,1.43650915,2.4679514,-1.133974,912
1747532626270,-1.7318303,-0.33936159,-0.373895705,1.3518206,2.91696035,-1.2274509500000002,913
1747532626280,-1.7677068,-0.41074833,-0.34631723,0.773648285,3.20165235,-1.21386885,914
1747532626290,-2.0517893,-0.5532778,-0.14863087,0.31691617,3.377421,-1.1840415,915
1747532626300,-2.3600335,-0.5051985,0.09225364,-0.20719394,3.6304212,-1.0258497,916
1747532626310,-2.6653492,-0.38975942,0.4283205,-0.6221144,4.003264,-0.8175905,917
1747532626320,-3.1289359,-0.076878035,1.034314585,-0.90121375,4.7233825,-0.47510798,918
1747532626330,-3.4645146,0.10201593,1.6282279000000002,-0.720385085,5.5132762,-0.09773802,919
1747532626340,-3.6694007,0.17206036,2.0259192,-0.50387007,6.045376,0.16884442,920
1747532626350,-3.9143123,-0.0316054125,2.55247275,-0.1014664383,6.62701035,0.47004793,921
1747532626360,-4.074902,-0.1476546325,2.8217899,0.0023968450499999,7.0115707,0.5390238,922
1747532626370,-4.16923,-0.18401916,2.9491878,0.0015978967,7.2043834,0.5438175,923
1747532626380,-4.476742,-0.1820667,3.43266515,-0.8724516,8.4139915,0.20506341,924
1747532626390,-4.5304346,-0.16425052,3.5400503,-1.3523532500000002,8.881376,0.0727043015,925
1747532626400,-4.7438626500000005,-0.16547082,3.9284675,-1.778459,9.278986,0.0607200765,926
1747532626410,-4.809392,-0.17425688,4.0642853,-1.9707392,9.462744,0.09427591,927
1747532626420,-4.896520349999999,-0.0693122595,4.3763125,-2.3936492,9.90403,0.685497675,928
1747532626430,-4.676625,-0.1070190994999999,4.45160425,-2.6628948,10.098973,1.80828645,929
1747532626440,-4.1852158500000005,-0.21928543,4.4369608,-2.7963192,10.149839,2.5949843,930
1747532626450,-3.62632455,-0.267242665,4.3325043,-2.65543795,9.8899155,3.24506185,931
1747532626460,-3.3328457,-0.2806658,4.245864,-2.5587652,9.792976,3.3433325,932
1747532626470,-2.5059798,-0.2206277549999999,3.8591552,-2.0860541,9.7394465,3.1334754,933
1747532626480,-1.82920905,-0.21940747,3.44865085,-1.6500947,9.471,2.6871296,934
1747532626490,-1.2268758,-0.240030305,2.99799915,-1.3446301,8.956211,2.248507,935
1747532626500,-0.935471425,-0.287011325,2.72685155,-1.2721921,8.4675215,2.0607541,936
1747532626510,-0.714355525,-0.3366769699999999,2.5081763,-1.22638575,8.028099749999999,1.94863495,937
1747532626520,-0.614048,-0.35754386,2.4049401,-1.2026836,7.8158455,1.8983012,938
1747532626530,-0.2408845,-0.40074198,1.95135975,-1.05194865,6.884005,1.5598135000000002,939
1747532626540,-0.1483868,-0.4183141,1.8550792,-1.0418286,6.715427,1.4764565,940
1747532626550,0.192073053,-0.488480565,1.6526336499999998,-1.2207930500000002,6.230199150000001,1.2330436,941
1747532626560,0.29945824,-0.5022698,1.607117,-1.3145363,6.095976,1.1638014,942
1747532626570,0.88409735,-0.5354616050000001,1.74842615,-1.7435716,5.2251223,1.3028184,943
1747532626580,1.1589058,-0.559379225,1.9132868,-1.64157255,4.75667215,1.41227435,944
1747532626590,1.398326,-0.56291805,2.07436445,-1.32172685,4.2259041,1.4050838,945
1747532626600,1.5810029,-0.53436335,2.1860207000000003,-0.81785675,3.68954335,1.2535499,946
1747532626610,1.87277335,-0.5072730000000001,2.2035929000000003,0.0117179199999999,2.9585056,0.85008102,947
1747532626620,2.23959135,-0.52582135,2.0987703,0.69508505,2.19657525,0.398675235,948
1747532626630,2.5079323,-0.5765852499999999,1.96466085,0.91293165,1.56460715,0.0673779749999999,949
1747532626640,2.6270323,-0.6028214,1.9180459,0.98856544,1.2197278,-0.10705908,950
1747532626650,2.5859085,-0.62588482,1.83543245,1.12545195,-0.174437065,-0.73982617,951
1747532626660,2.3305026,-0.58122232,1.7496464,1.1616709,-1.20907518,-1.17285617,952
1747532626670,2.0583788,-0.50763905,1.7143802,1.1776499,-2.1355889,-1.51587135,953
1747532626680,1.7055941,-0.3738957,1.7123057,1.21520045,-2.7012443,-1.6058862,954
1747532626690,1.3591549,-0.219407465,1.7035196,1.29829105,-3.2336103,-1.55715035,955
1747532626700,1.0262608,-0.096890724,1.6876559000000002,1.57872195,-3.92896165,-1.3560817,956
1747532626710,0.78073915,-0.051740136,1.6550742,1.9837887,-4.612595150000001,-1.17072565,957
1747532626720,0.64528735,-0.067603857,1.5580614000000002,2.2354574,-5.0256515,-1.12305505,958
1747532626730,0.51752338,-0.07785426,1.4215114,2.2943133,-5.32765385,-1.13424035,959
1747532626740,0.46370876,-0.08297946,1.3528093,2.2791333,-5.4632087,-1.1515509,960
1747532626750,0.27407628,-0.076633975,1.1805049,2.0003004,-5.823534499999999,-1.2937637,961
1747532626760,0.19280522,-0.05686534,1.091424,1.71907055,-6.064018,-1.4173344,962
1747532626770,0.02867672,0.02220921,1.18196925,1.230114125,-6.61662385,-1.48817445,963
1747532626780,-0.25723634,0.14570218,1.3827063,0.8314389,-7.2994585,-1.39576275,964
1747532626790,-0.3790209,0.1901206,1.4928981,0.76272935,-7.56178,-1.2980248,965
1747532626800,-0.80685325,0.2903060899999999,1.781984,0.95767275,-8.3231775,-0.7414240999999999,966
1747532626810,-1.18929095,0.24369116,2.02994605,1.2026836,-8.9644665,-0.3446130599999999,967
1747532626820,-1.5530583,0.1665690699999999,2.21506355,1.1763183,-9.58445,-0.20293287,968
1747532626830,-1.8450728,0.107629245,2.3477087,0.8181231,-10.069412,-0.31851407,969
1747532626840,-2.25899385,0.07712209,2.5782206,0.354733065,-10.479539,-0.53582801,970
1747532626850,-2.96944455,0.138136405,2.90659965,-0.26471822,-10.562896,-0.95074855,971
1747532626860,-3.6054577,0.195977975,3.18860795,-0.7307714350000001,-10.275541,-1.29775845,972
1747532626870,-3.82498725,0.198418545,3.3007523,-0.893490565,-9.763415,-1.24236465,973
1747532626880,-3.83194305,0.19536783,3.3221072,-1.070058115,-9.351957,-0.902278975,974
1747532626890,-3.793382,0.18865626,3.3223512,-1.1707256,-9.239572,-0.67697555,975
1747532626900,-3.66427555,0.169985875,3.53956235,-1.66580725,-9.290704,0.2237055499999999,976
1747532626910,-3.61363375,0.26736471,3.8886862,-2.19657525,-9.446499,0.81572625,977
1747532626920,-3.5952073,0.37963104,4.220238,-2.5483789,-9.430786,0.978978,978
1747532626930,-3.5804418,0.410626305,4.280154,-2.455701,-9.1234575,0.55233961,979
1747532626940,-3.50392995,0.3847562399999999,3.89942465,-1.7568874499999998,-8.0366218,-0.7776430400000001,980
1747532626950,-3.39202965,0.30946459,3.3023386,-0.800013585,-6.68453455,-2.30070495,981
1747532626960,-3.2708552,0.203055625,2.81715275,-0.01518002,-5.65788575,-3.2410672,982
1747532626970,-3.10038125,0.0500317314999999,2.29120945,0.805339965,-4.69488665,-4.06025545,983
1747532626980,-2.9045253,-0.1446039184999999,1.7343928000000002,1.55395455,-3.9300269,-4.68423415,984
1747532626990,-2.6468009500000003,-0.431371175,0.93608153,2.2117553,-2.92015625,-5.0083408,985
1747532627000,-2.42641715,-0.6291796000000001,0.14814274,2.45143985,-1.96381505,-4.88903115,986
1747532627010,-2.2808369,-0.60855675,-0.36437747,2.16914475,-1.433846,-4.404336000000001,987
1747532627020,-2.1025531,-0.52301467,-0.7662177299999999,1.59283665,-1.006142275,-3.670635,988
1747532627030,-2.0073707,-0.47542354,-0.9242448,0.9086706,-0.744353525,-2.86502875,989
1747532627040,-1.6813104,-0.21891935,-1.1490215,0.5928197,-0.6743124,-2.4991105,990
1747532627050,-1.5419537,-0.108117364,-1.1668377,-0.35473305,-0.4708469,-1.1558119,991
1747532627060,-1.4736177,0.015863718,-1.06250325,-0.390419425,-0.32810146,-0.6372944425,992
1747532627070,-1.38160815,0.1692537,-0.89703245,-0.27537087,-0.135554905,0.0732369374999999,993
1747532627080,-1.3618395,0.14533609,-0.7104506500000001,0.33688988,-0.0490021655,0.51771853,994
1747532627090,-1.3657444,0.09200958,-0.5850052,0.7984157,-0.012250541,0.7701862,995
1747532627100,-1.3916144,0.0061014313,-0.61502427,1.2884374,0.18801917,0.8852348,996
1747532627110,-1.37282205,-0.1416752299999999,-0.71630802,1.55581875,0.54328486,0.761664075,997
1747532627120,-1.3443894,-0.27310005,-0.74559489,1.59576615,0.79628515,0.54781225,998
1747532627130,-1.329868,-0.3441207,-0.75438094,1.5904398,0.932639,0.4181163,999
1747532627140,-1.2393227,-0.58891016,-0.78610843,1.3907027,1.5249261,-0.26312032,1000
