timestamp,acc_x,acc_y,acc_z,gyro_x,gyro_y,gyro_z,id
1747533366940,-0.152413745,0.520208035,0.82088652,-0.14168017,-0.6673881500000001,-0.5102617015,1
1747533366950,-0.4888467,0.0061014313,-1.3027775,-0.99762017,-1.7038904,0.7094661,2
1747533366960,-0.49446,0.045882765,-1.155611,-1.117995,-1.979794,0.69668293,3
1747533366970,-0.53033644,0.07443746,-1.0540832,-1.2410331,-2.2327943,0.71532506,4
1747533366980,-0.5632841,0.09445015,-0.954996,-1.3827133,-2.4511735,0.763262,5
1747533366990,-0.5696296,0.0993313,-0.8505395,-1.5313177,-2.6003106,0.8404937,6
1747533367000,-0.58158845,0.11617125,-0.5933032,-1.8056233,-2.6658244,1.0663297,7
1747533367010,-0.5850052,0.1295944,-0.48396555,-1.8897791,-2.637062,1.2032162,8
1747533367020,-0.58512725,0.1391126349999999,-0.3470494,-1.9510319,-2.5286715,1.43198175,9
1747533367030,-0.5720702,0.14350566,-0.30604777,-1.959554,-2.4889903,1.5089471,10
1747533367040,-0.49055508,0.16864355,-0.2306341,-1.9425098,-2.424542,1.6266588,11
1747533367050,-0.3431445,0.27773714,-0.14374973,-1.8945729,-2.453304,1.68152,12
1747533367060,-0.26553428,0.3082443,-0.10933765,-1.8615496,-2.530003,1.6096146,13
1747533367070,-0.24161668,0.33460248,-0.08371163,-1.7976338,-2.620018,1.4716629,14
1747533367080,-0.2801777,0.37194324,-0.06858008,-1.7853832,-2.7148266,1.4136059,15
1747533367090,-0.35071027,0.3699908,-0.071020655,-2.0176108,-2.858637,1.4413028,16
1747533367100,-0.38878322,0.3824377,-0.020744866,-2.202967,-2.845854,1.5387745,17
1747533367110,-0.3824377,0.4139211,0.030019043,-2.4474452,-2.7814054,1.6847157,18
1747533367120,-0.3275248,0.42685616,0.14643435,-2.7180223,-2.6642263,1.8221349,19
1747533367130,-0.24503349,0.42929673,0.28871974,-2.9177594,-2.4735441,1.9169434,20
1747533367140,0.11592719,0.47639978,0.53985465,-2.9236183,-1.947836,1.7417074,21
1747533367150,0.16571487,0.5361938,0.59037447,-2.6972497,-1.8136127,1.3369069,22
1747533367160,0.08859278,0.5749989,0.5449798,-2.530003,-1.9121497,1.0098706,23
1747533367170,-0.050763905,0.60062486,0.40635532,-2.5246768,-2.179531,0.8229168,24
1747533367180,-0.1059208425,0.58549333,0.37194325,-2.61309375,-2.37980075,0.7904262200000001,25
1747533367190,-0.25089085,0.5227706,0.63406074,-2.9150963,-3.0152311,0.92944324,26
1747533367200,-0.18279888,0.50544256,0.7641432,-2.9491847,-3.018427,1.107875,27
1747533367210,-0.12056428,0.46273252,0.90374404,-2.938532,-2.95531,1.1768508999999998,28
1747533367220,-0.1049446149999999,0.4538244449999999,0.95975517,-2.7915256,-2.5891252,1.3289174,29
1747533367230,-0.071386745,0.440523345,1.0225999,-2.5449169,-2.1230721,1.4072144,30
1747533367240,0.0010982559999999,0.44564854,0.93705783,-2.2897859,-1.7704695,1.2026836,31
1747533367250,0.02318544,0.460536,0.754625,-2.2343922,-1.8498317,1.0626013,32
1747533367260,0.0322155565,0.46236643,0.7255822000000001,-2.2229406,-1.9635487,0.9978865,33
1747533367270,0.027212382,0.45992588,0.71386745,-2.19737425,-2.25889325,0.889495825,34
1747533367280,0.0019524579999999,0.4544346099999999,0.781349265,-2.1289310500000003,-2.62667575,0.82691151,35
1747533367290,-0.054424766,0.47273886,1.0499343,-1.73212,-3.3688989,0.96619487,36
1747533367300,-0.005857374,0.46688148,1.1099724,-1.5755261,-3.4226947,1.1206582,37
1747533367310,0.037584815,0.46956614,1.0941086,-1.53637765,-3.30737985,1.20827625,38
1747533367320,0.0740713755,0.47298296,1.04188035,-1.5435682000000002,-2.9840721,1.3385048,39
1747533367330,0.149851148,0.47432527,0.920461925,-1.72679365,-2.5092304,1.3872406000000002,40
1747533367340,0.30092257,0.43613032,0.7314396,-2.6210833,-1.2463595,1.2016183,41
1747533367350,0.311783135,0.433933795,0.75633345,-2.72974015,-1.12252245,1.10015185,42
1747533367360,0.31214923,0.426734085,0.8249135,-2.8405276500000003,-0.96486325,0.89002845,43
1747533367370,0.28005569,0.41501933,0.90288975,-2.75211075,-1.0237191,0.695884,44
1747533367380,0.21257386,0.40757559,0.9648803,-2.5015072,-1.3259879,0.5704491,45
1747533367390,0.12837411,0.42929673,1.0238202,-1.675661,-2.9230857,0.59867865,46
1747533367400,0.17401282,0.40171823,1.0682385,-1.4444987,-3.2629051,0.6743124,47
1747533367410,0.20171331,0.392566085,1.08764105,-1.33877115,-3.2802156,0.7235809,48
1747533367420,0.2294138,0.38341394,1.1070436,-1.2330436,-3.2975261,0.7728494,49
1747533367430,0.2757847,0.34595116,1.0482258999999998,-1.09722235,-2.9422605,0.92837798,50
1747533367440,0.3053156,0.23697957,0.89715445,-1.1414309,-2.0948424,1.1675298,51
1747533367450,0.34168017,0.22062775,0.87274873,-1.1243867,-1.9744676,1.1978899,52
1747533367460,0.37023485,0.23527117,0.88104665,-1.0045444,-2.036253,1.1781825,53
1747533367470,0.32386398,0.2362474,0.81539524,-0.64341974,-2.8234835,1.2591426,54
1747533367480,0.32386398,0.2362474,0.81539524,-0.64341974,-2.8234835,1.2591426,55
1747533367490,0.48128092,0.25089085,0.6982478,-0.6625945,-3.662912,1.3747238,56
1747533367500,0.6074585,0.2608972,0.68702114,-0.7819041,-3.77529735,1.3496901,57
1747533367510,0.72631437,0.27090356,0.7490117,-1.2080098,-3.952131,1.2287825,58
1747533367520,0.786596485,0.2501586799999999,0.856274875,-1.8338528,-3.540939,1.0913634,59
1747533367530,0.88788027,0.20061506,1.1597601,-1.9931098,-3.1270838,1.067395,60
1747533367540,0.9242448,0.1871919,1.3479282,-1.9590213,-2.7057717,1.073254,61
1747533367550,0.99550945,0.18816814,1.4809394,-1.2751216,-2.034655,0.9800433,62
1747533367560,0.84858704,0.2328306,1.462635,-0.8900285,-1.9659456,0.9400959,63
1747533367570,0.7986773199999999,0.2331966899999999,1.4147998,-0.729439865,-2.0034961,0.95607485,64
1747533367580,0.686289,0.22502078,1.2647047,-0.33662358,-2.2082932,1.0657971,65
1747533367590,0.66517805,0.22977989,1.20905965,-0.276968765,-2.3031018000000003,1.1241203,66
1747533367600,0.6462636,0.26211748,1.104359,-0.2066613,-2.49857785,1.24076675,67
1747533367610,0.75316066,0.3585201,1.1182703,-0.25033715,-2.8309402,1.3837786,68
1747533367620,0.7883049,0.4253918,1.1702545,-0.6514092,-3.093528,1.3475596,69
1747533367630,0.8278422,0.47835222,1.2495731,-0.9166601,-3.0290794,1.2942963,70
1747533367640,0.92131615,0.48738232,1.3681849,-1.1696603,-2.8320055,1.1856394,71
1747533367650,1.0174747,0.5701177,1.7242645,-1.3028184,-2.4746094,0.99708754,72
1747533367660,0.97696114,0.62503064,1.8711869,-1.194694,-1.5531555,0.5587312,73
1747533367670,0.8844635,0.6628595,2.0020018,-1.0167949,-1.1147993,0.34887412,74
1747533367680,0.8105141,0.68482465,2.0493488,-0.7824367,-0.6988135,0.20080236,75
1747533367690,0.7382732,0.69409883,2.0371459,-0.5294364,-0.34621096,0.10865697,76
1747533367700,0.64821607,0.7219213,1.9768637,-0.0974717,0.087884314,-0.11984225,77
1747533367710,0.61502427,0.7570656,2.008347,0.07829694,0.17204021,-0.24660872,78
1747533367720,0.616122515,0.7636551300000001,2.0261632,0.1704423199999999,0.25353294,-0.31531828,79
1747533367730,0.63381666,0.76438728,2.05483995,0.36218992,0.477771105,-0.44501424,80
1747533367740,0.6788452300000001,0.7382731499999999,1.99834075,0.613858655,1.02531702,-0.6143913,81
1747533367750,0.7145996,0.70068836,1.8284769,0.82185155,1.8461033,-0.8378305,82
1747533367760,0.7149657,0.701786605,1.773686,0.814660995,2.01015405,-0.9001484500000001,83
1747533367770,0.7144775999999999,0.6971495249999999,1.6695956,0.76672407,2.2927154,-1.0375676,84
1747533367780,0.707766,0.66090703,1.560014,0.55340487,2.6083,-1.3198626,85
1747533367790,0.73436826,0.5954997,1.6127303,0.4250405,2.713761,-1.468467,86
1747533367800,0.7487676,0.55840296,1.6688635,0.360592,2.954511,-1.7342505,87
1747533367810,0.745838935,0.53851228,1.69253705,0.39254995,3.030411,-1.78458425,88
1747533367820,0.74169,0.4698102,1.7340268,0.5118596,3.2879388,-1.8993665,89
1747533367830,0.7175283,0.41465324,1.7362232,0.59388494,3.491937,-1.9196066,90
1747533367840,0.733148,0.32288775,1.739152,0.72970617,3.8791604,-1.881257,91
1747533367850,0.72021294,0.28237423,1.7703912,0.8293084,4.0256343,-1.8386464,92
1747533367860,0.7185045,0.24478942,1.7855228,0.99495703,4.166782,-1.726261,93
1747533367870,0.72887695,0.21733298,1.7840585,1.071389765,4.209925200000001,-1.66181255,94
1747533367880,0.7606044,0.17389079,1.7825942,1.23836995,4.28049895,-1.5417040000000002,95
1747533367890,0.79318607,0.13154685,1.7579445,1.8269285,4.3761063,-1.2964269,96
1747533367900,0.8251576,0.12568948,1.705228,2.0831246,4.3121905,-1.2144015,97
1747533367910,0.81783585,0.125567455,1.6702058,2.1923143,4.28156425,-1.18217725,98
1747533367920,0.8088057,0.128862235,1.60699495,2.3971115000000003,4.2400189,-1.11772875,99
1747533367930,0.819300165,0.13264512,1.54463835,2.563559,4.2288334,-1.0556771,100
1747533367940,0.81539524,0.15961345,1.279104,2.7462518,4.417119,-0.9555422,101
1747533367950,0.80343646,0.18694785,1.198077,2.716957,4.5034056,-0.95660746,102
1747533367960,0.758774,0.1952458,1.1668377,2.7457192,4.592888,-0.9800433,103
1747533367970,0.6867771,0.17889395,1.121687,2.8538435,4.6599994,-0.9598033,104
1747533367980,0.5835409,0.16791138,0.9034999,3.0503848,4.5513425,-0.8815063,105
1747533367990,0.5747548,0.18182266,0.7909895,3.0216227,4.3739758,-0.8974853,106
1747533368000,0.5554743,0.19085276,0.7224094,2.9379995,4.2205777,-0.958738,107
1747533368010,0.4927516,0.2037878,0.68262815,2.8469193,4.14814,-1.0077401,108
1747533368020,0.44027928,0.20476402,0.6233222,2.6903255,4.134291,-1.0072075,109
1747533368030,0.41721587,0.20110317,0.586469565,2.515622,4.124704,-0.9981528,110
1747533368040,0.36364532,0.2208718,0.5366819,2.2173479,4.03895,-0.9933591,111
1747533368050,0.38316986,0.23356278,0.5994046,2.1225395,3.8786278,-1.0604708,112
1747533368060,0.3485137499999999,0.2323424949999999,0.650656625,2.13265945,3.8301584,-1.1068098000000002,113
1747533368070,0.27798122,0.22013963,0.703372975,2.229066,3.802994,-1.1664646,114
1747533368080,0.183287,0.18548352,0.6282034,2.2812638,3.8392131,-1.0721886,115
1747533368090,0.16449459,0.17987019,0.5791479,2.288188,3.9169774,-1.0253171,116
1747533368100,0.16913168,0.20696054,0.50641876,2.282329,3.987285,-0.99069595,117
1747533368110,0.13154685,0.2238005,0.4024504,2.1774006,3.9931438,-1.0040118,118
1747533368120,0.096402611,0.208058805,0.38390205,2.1257353,4.0016659,-0.99708755,119
1747533368130,-0.01513155,0.18987654,0.38341394,2.016013,3.9862196,-0.9166601,120
1747533368140,-0.01513155,0.18987654,0.38341394,2.016013,3.9862196,-0.9166601,121
1747533368150,-0.047103047,0.27090356,0.4634647,2.1976407,3.743872,-0.7526093,122
1747533368160,-0.0733392015,0.28213018,0.442109685,2.24584385,3.6759614,-0.753408275,123
1747533368170,-0.126543678,0.30433939,0.388783185,2.31695,3.4493263,-0.72278196,124
1747533368180,-0.1718163,0.31507793,0.35315084,2.3228092,3.365703,-0.6535397,125
1747533368190,-0.1300825,0.281398,0.28164205,2.4623587,3.6229644,-0.55074173,126
1747533368200,-0.18426323,0.27017137,0.24308102,2.6061695,3.6607814,-0.5294364,127
1747533368210,-0.23429495,0.25357547,0.1330112,2.9875343,3.4471958,-0.3920173,128
1747533368220,-0.23429495,0.25357547,0.1330112,2.9875343,3.4471958,-0.3920173,129
1747533368230,-0.21013328,0.27358818,0.040513504,3.2107072,3.2874062,-0.34194988,130
1747533368240,-0.14789869,0.37194324,-0.40391475,3.4669032,2.7798076,-0.4777711,131
1747533368250,-0.19231711,0.3824377,-0.6303999,3.319364,2.3835292,-0.5470133,132
1747533368260,-0.209401115,0.37157715,-0.74925575,3.0437269,2.1201426,-0.5755091,133
1747533368270,-0.10958171,0.3184947,-1.0001466,2.4543693,1.8274611,-0.68176925,134
1747533368280,-0.021477038,0.2945771,-1.155611,2.1124194,1.9052255,-0.8309063,135
1747533368290,0.004148973,0.24918245,-1.3166889,1.7172064,2.0090888,-1.010936,136
1747533368300,-0.010494461,0.15570852,-1.5629426,1.2351742,2.139051,-1.1579424,137
1747533368310,-0.18279888,0.012935034,-1.8035831,0.32756883,2.1528995,-1.2618058,138
1747533368320,-0.21110953,-0.020622838,-1.82127725,0.040480047,1.8881812,-1.2234563,139
1747533368330,-0.2979939,-0.102748096,-1.8528826,-0.12037488,1.3182647,-1.123854,140
1747533368340,-0.3692586,-0.13667206,-1.8960809,-0.18535602,0.7052051,-1.0029465,141
1747533368350,-0.40562314,-0.19719826,-1.9588034,-0.28815404,0.042077947,-0.8516789,142
1747533368360,-0.4263680199999999,-0.2035437399999999,-1.9268319,-0.60560286,-1.1627362,-0.5209143,143
1747533368370,-0.4471129,-0.20988922,-1.8948604,-0.69588403,-1.43224805,-0.440220525,144
1747533368380,-0.46627135,-0.199394775,-1.6868016,-0.879375825,-1.9353191,-0.284425605,145
1747533368390,-0.4829893,-0.17840585,-1.4338363,-1.1558119,-2.5550368,-0.07350325,146
1747533368400,-0.5120321,-0.13374338,-1.0980135,-1.4849787,-3.0450585,0.13688648,147
1747533368410,-0.5474204,-0.11983211,-0.9405966,-1.6873789,-3.2160335,0.24660872,148
1747533368420,-0.5950116,-0.10518867,-0.7856203,-1.8194717,-3.293265,0.35739622,149
1747533368430,-0.63015586,-0.08932495,-0.6626154,-1.929194,-3.3332124,0.50813115,150
1747533368440,-0.65090066,-0.079318605,-0.5757311,-2.031992,-3.333745,0.88203895,151
1747533368450,-0.6495583650000001,-0.04234393225,-0.50690694,-2.2295985,-3.3300166,1.0721886,152
1747533368460,-0.5976962,0.019036464,-0.33631086,-2.3494408,-3.3587787,1.2287825,153
1747533368470,-0.56889745,0.040391475,-0.2466198399999999,-2.372344,-3.35931145,1.2932310500000002,154
1747533368480,-0.51727935,0.085175983,-0.0976229035,-2.3537018,-3.2543828,1.4801849,155
1747533368490,-0.44516042,0.1444819,0.003172744,-2.31695,-3.0360036,1.5968314,156
1747533368500,-0.27334413,0.2255089,-0.0065895454,-2.354767,-2.6194854,1.6160061,157
1747533368510,-0.25455171,0.2528433,-0.0329477257,-2.39071975,-2.5561022,1.6000272,158
1747533368520,-0.224654695,0.3114170349999999,-0.0928637829999999,-2.50630095,-2.51908425,1.5600798500000002,159
1747533368530,-0.186093655,0.371211065,-0.115927195,-2.6831348,-2.64132325,1.485245,160
1747533368540,-0.082003236,0.4275883,0.021477038,-2.9017804,-2.9593046,1.2665994,161
1747533368550,-0.038316987,0.4429639,0.2831064,-2.9044435,-3.163303,0.96619487,162
1747533368560,-0.066261541,0.43832682,0.335578715,-2.871953,-3.1292143,0.922519,163
1747533368570,-0.13911264,0.4087959,0.4702983,-2.8043087,-2.9113677,0.9784454,164
1747533368580,-0.1641285,0.4096500899999999,0.48665015,-2.8032434,-2.81895605,1.0325076,165
1747533368590,-0.18206671,0.4195344,0.60989904,-2.9001825,-2.5949843,1.2154667,166
1747533368600,0.053448535,0.39146784,0.7842779799999999,-3.022688,-2.1885858,1.3427658,167
1747533368610,0.16717921,0.39366436,0.8437059,-2.8703551,-1.9808593,1.2245215,168
1747533368620,0.20281157,0.44833317,0.916679,-2.5118935,-1.9861856,0.9555422,169
1747533368630,0.051740136,0.47225076,0.9076489,-2.031992,-2.2439797,0.7206514,170
1747533368640,-0.18938842,0.47542354,0.6230781,-1.4029533,-3.6037896,0.67058396,171
1747533368650,-0.200981145,0.490189,0.57878175,-1.5893745,-4.2338934,0.7488809,172
1747533368660,-0.04783522,0.44882128,0.6108753,-1.856756,-4.486361,0.8314389,173
1747533368670,0.07175283,0.4249037,0.7682922,-2.0714068,-4.3377566,0.8724516,174
1747533368680,0.1637624,0.3951287,0.8112463,-2.321744,-3.8503983,0.91186637,175
1747533368690,0.15082738,0.3099527,0.8700641,-3.099387,-2.4362597,0.92464954,176
1747533368700,0.117147475,0.26529023,0.9659786,-3.3577135,-1.6655409,0.97418433,177
1747533368710,0.1348416275,0.247718105,1.02125755,-3.37049665,-1.37312585,0.988565415,178
1747533368720,0.117391534,0.2208718,1.168058,-3.1206923,-0.79894835,0.9534117,179
1747533368730,0.12007617,0.35168648,1.1351103,-2.4277377,-0.96406436,0.8681905,180
1747533368740,0.06321083,0.4144092,0.9091133,-1.6415725,-2.7824707,0.72011876,181
1747533368750,0.10518867,0.39268813,0.7311955,-1.8578212,-3.9649143,0.5901565,182
1747533368760,0.15741692,0.405867205,0.7941623,-2.03998145,-4.39608,0.522512215,183
1747533368770,0.32081326,0.42307324,0.9942892,-2.43865665,-5.065066099999999,0.364586765,184
1747533368780,0.55962324,0.3653537,1.3667207,-3.073288,-5.0509515,0.08628642,185
1747533368790,0.49421594,0.21965154,1.7191393,-3.5547874,-2.9683595,-0.0031957934,186
1747533368800,0.34216827,0.18304294,1.798946,-3.5254927,-1.4034859,0.1107875,187
1747533368810,0.18694785,0.14985114,1.8304293,-3.4088463,-0.9371664,0.17097494,188
1747533368820,0.138990602,0.1526578,1.8133453,-3.0919302,-0.215982375,0.26871296,189
1747533368830,0.04905551,0.17889395,1.7035197,-2.61016425,0.139815955,0.325704605,190
1747533368840,-0.082735404,0.21232979,1.4245622,-0.91825795,-0.29933932,0.41971418,191
1747533368850,-0.16766733,0.23136626,1.1841658,-0.2593919,-0.91985583,0.515588,192
1747533368860,-0.19719826,0.23087814,0.9484064,0.24820662,-1.655421,0.6498113,193
1747533368870,-0.19378147,0.22013964,0.750232,0.6040049,-2.392584,0.79628515,194
1747533368880,-0.19378147,0.22013964,0.750232,0.7427556,-3.0730216,0.923317975,195
1747533368890,0.09811102,0.21891935,0.3660859,0.7126619,-4.1140513,1.0769824,196
1747533368900,0.22892569,0.21525851,0.30409533,0.34674358,-4.3036685,1.0620687,197
1747533368910,0.292014485,0.205252155,0.293478835,0.08708537,-4.319381,1.0436929,198
1747533368920,0.3998878,0.17926005,0.3018988099999999,-0.46871635,-4.272509250000001,1.004810735,199
1747533368930,0.48384349,0.139356685,0.37389572,-1.04875288,-4.08875125,0.983771735,200
1747533368940,0.59305908,0.062478651,0.585737405,-1.74197375,-3.69700025,1.0199907,201
1747533368950,0.73388016,-0.02318544,0.9391323,-2.2722092,-3.2261534,1.0599382,202
1747533368960,0.77073278,-0.02745644,1.0162544,-2.2210765,-3.17821645,1.02851287,203
1747533368970,0.8959341,-0.025381953,1.1995413,-2.0881847,-3.17661855,0.946221145,204
1747533368980,0.904964265,-0.024527753,1.2010057,-1.96221715,-3.30791245,0.826911525,205
1747533368990,0.9174112,-0.034168016,1.2376143,-2.1278658,-3.7209687,0.4857606,206
1747533369000,0.9628058,-0.033679903,1.3420708,-2.3473103,-3.8125815,0.34514567,207
1747533369010,0.9867234,-0.06589546,1.7206036,-2.5443842,-3.7486656,0.2130529,208
1747533369020,0.97391045,-0.0798067225,1.8146877,-2.5289378,-3.3899378,0.1624528325,209
1747533369030,0.84907514,-0.09737884,2.0395863,-2.2887206,-2.4959147,0.12250541,210
1747533369040,0.6975156,-0.08419975,2.1067023,-1.9318571,-1.875398,0.20612867,211
1747533369050,0.61539035,-0.075047605,2.13428065,-1.7851169,-1.6927051999999998,0.263120315,212
1747533369060,0.49690055,-0.0305071575,2.1939525,-1.29056787,-1.2293151999999998,0.432231055,213
1747533369070,0.4522380649999999,0.0425879875,2.2323915000000003,-0.73343459,-0.8500810299999999,0.594683875,214
1747533369080,0.458461515,0.1182457349999999,2.2265342,-0.310258285,-0.68816083,0.6793724,215
1747533369090,0.54156303,0.23575929,2.1689367,0.30360037,-0.5523396,0.7004114,216
1747533369100,0.5891542,0.32386398,2.1286674,0.6737798,-0.5049353,0.6146576,217
1747533369110,0.6089228499999999,0.37365164,2.04446765,0.95287905,-0.38775623,0.45140582,218
1747533369120,0.62710512,0.43283552,1.9014501,1.2724584,-0.16884441,0.22184132,219
1747533369130,0.62149179,0.44516043,1.78259415,1.29216585,0.07057377,0.1012001179999999,220
1747533369140,0.6272271,0.44833317,1.6288381,1.1329087,0.5406217,-0.05486112,221
1747533369150,0.6487042,0.42929673,1.5009521,0.94116116,0.9054748,-0.16564862,222
1747533369160,0.655293715,0.417215885,1.487895,0.70600403,1.2548815,-0.282295085,223
1747533369170,0.66188323,0.40513504,1.4748379,0.4708469,1.6042882,-0.39894155,224
1747533369180,0.6804316,0.36279109,1.5133990000000002,0.19947078,1.99657195,-0.5648565,225
1747533369190,0.690438,0.30092257,1.6105338,0.101200126,2.2205439,-0.7126619,226
1747533369200,0.71996886,0.19744232,1.8211553,0.46552056,2.324407,-0.9193232,227
1747533369210,0.69971216,0.14374973,1.9024262,0.7957525,2.3222766,-0.96566224,228
1747533369220,0.6806757,0.08346757,1.9692979,1.1968247,2.3153522,-0.95607483,229
1747533369230,0.6965394,0.020256752,1.9951681,1.41413865,2.34145115,-0.936900065,230
1747533369240,0.7192367,-0.026358182,1.9932156,2.0575583,2.4980452,-0.87351686,231
1747533369250,0.77561396,-0.052472305,1.8357986,2.735599,2.9161615,-0.7089335,232
1747533369260,0.80978193,-0.0491775349999999,1.7762486,2.80856965,3.00271425,-0.6841661,233
1747533369270,0.9022797,-0.020744866,1.6608096,2.9891322,3.2634377,-0.67963874,234
1747533369280,0.91448253,0.013179091,1.6254213,3.069027,3.410977,-0.71319455,235
1747533369290,0.92082804,-0.016595893,1.4819156,3.1121702,3.5515916,-0.7057377,236
1747533369300,0.8927614,-0.012690976,1.4540931,3.192065,3.6304212,-0.64182186,237
1747533369310,0.8817788,0.00024405724,1.4401819,3.293265,3.5462654,-0.6269081,238
1747533369320,0.89849673,0.00475911612,1.4234639,3.349724,3.50365485,-0.64555025,239
1747533369330,0.9205839,0.033191785,1.3359693,3.3827472,3.3981936,-0.78563255,240
1747533369340,0.8710403,0.05735345,1.1443844,3.1750207,3.456783,-0.8314389,241
1747533369350,0.82393724,0.07541369,1.138283,2.9278793,3.7028592,-0.8644621,242
1747533369360,0.81783587,0.09127741,1.1568314,2.779275,3.942011,-0.8831042,243
1747533369370,0.79757911,0.09127741,1.1695223499999998,2.6993802,4.1502705,-0.8767126,244
1747533369380,0.7297312,0.11519502,1.2173575,2.732936,4.2647862,-0.8511463,245
1747533369390,0.72533816,0.17425688,1.1768441,2.9491847,4.252003,-0.912399,246
1747533369400,0.7470592,0.24112856,1.0704352,3.016829,4.220045,-1.0354371,247
1747533369410,0.74193406,0.3214234,0.8942258,2.9462552,4.199006,-1.12145715,248
1747533369420,0.7359546299999999,0.33997175,0.82857437,2.69911385,4.2035334,-1.30175315,249
1747533369430,0.6909261,0.36706212,0.74632704,2.1481059,4.465056,-1.5760587,250
1747533369440,0.49690056,0.32386398,0.8983747,1.7704695,5.2016864,-1.7379789,251
1747533369450,0.38219365,0.2928687,0.9371798,1.8524948,5.416337,-1.6948358,252
1747533369460,0.33777523,0.2796896,0.91375035,1.9904467,5.4632087,-1.6431705,253
1747533369470,0.298482,0.25162303,0.8534682,2.1385183,5.419533,-1.6197346,254
1747533369480,0.11665936,0.1483868,0.6977597,2.4671526,5.342834,-1.4631407,255
1747533369490,0.04881145,0.10640897,0.6245425,2.5901904,5.195295,-1.2863069,256
1747533369500,-0.012935034,0.05906185,0.65797836,2.7462518,4.957208,-1.1222562,257
1747533369510,-0.033191785,0.036852647,0.71313524,3.119627,4.7345676,-0.92464954,258
1747533369520,-0.037218729,0.0530824535,0.687265185,3.27329135,4.6751793,-0.82904205,259
1747533369530,-0.00024405724,0.07565775,0.41611758,3.6021917,4.5438857,-0.55340487,260
1747533369540,0.107629254,0.12471326,0.32044718,3.613377,4.5699844,-0.34301516,261
1747533369550,0.12886222,0.1901206,0.23917611,3.4839475,4.491155,-0.32330775,262
1747533369560,0.130692655,0.195489855,0.2270952749999999,3.43547795,4.47198025,-0.33955304,263
1747533369570,0.0878606125,0.179504105,0.16595893,3.3800842,4.412591750000001,-0.3981425899999999,264
1747533369580,-0.024649782,0.13447554,0.04075756,3.37316,4.372378,-0.44048685,265
1747533369590,-0.090789296,0.14082102,-0.10470056,3.35798,4.2027345,-0.4048004899999999,266
1747533369600,-0.090789296,0.14082102,-0.10470056,3.3428,4.033091,-0.36911413,267
1747533369610,-0.093473926,0.12568948,-0.39634898,2.8533108,3.7806234,-0.386691,268
1747533369620,-0.065407336,0.1403329,-0.49738866,2.2261363,3.75292655,-0.551806985,269
1747533369630,-0.16449459,0.16010156,-0.6772589,1.911617,3.7310886,-0.62744075,270
1747533369640,-0.23819989,0.17328064,-0.71874857,1.6106799,3.5744948,-0.57577544,271
1747533369650,-0.2545517,0.17450093,-0.72655845,1.3747238,3.4120421,-0.47404268,272
1747533369660,-0.18743597,0.1718163,-0.7153318,1.2564794,3.274623,-0.39361522,273
1747533369670,-0.09054524,0.18841219,-0.7324158,1.3060142,3.1089742,-0.38615838,274
1747533369680,-0.04368625,0.2306341,-1.0379754,1.3997575,2.935336,-0.4101268,275
1747533369690,-0.059305906,0.22575295,-1.2136967,1.3608754,2.4197483,-0.40959418,276
1747533369700,-0.08053889,0.21891935,-1.3581786,1.2729911,2.130529,-0.38296258,277
1747533369710,-0.10006347,0.20647243,-1.5102262,1.1606057,1.7832527,-0.34461305,278
1747533369720,-0.11360865,0.20281157,-1.5717286,1.078314,1.5664714,-0.32490565,279
1747533369730,-0.11617125,0.19402552,-1.71377,0.8032094,0.9076053,-0.28336033,280
1747533369740,-0.0707766,0.16254212,-1.833358,0.24341293,0.02876214,-0.26684874,281
1747533369750,-0.105676785,0.16888762,-1.8184706,-0.042077947,-0.32437304,-0.23755397,282
1747533369760,-0.1581491,0.17791773,-1.667399,-0.5816344,-0.94595486,-0.18109496,283
1747533369770,-0.2020794,0.18523945,-1.5622104,-0.8266452,-1.2452941,-0.15925704,284
1747533369780,-0.24771811,0.20598431,-1.4367651,-1.0567423,-1.5680692,-0.13422333,285
1747533369790,-0.2936009,0.22575295,-1.2717823,-1.2463595,-1.8833876,-0.105993815,286
1747533369800,-0.31947094,0.2443013,-1.1011863,-1.3747238,-2.1832595,-0.076166406,287
1747533369810,-0.33875147,0.27065948,-0.93730185,-1.4133396,-2.41894925,-0.024767397,288
1747533369820,-0.35961835,0.30922053,-0.70776602,-1.4500912,-2.73906125,0.064714816,289
1747533369830,-0.37096703,0.36144876,-0.4978768,-1.4253238,-2.8549087,0.16245283,290
1747533369840,-0.35925224,0.3648656,-0.42734426,-1.4157364,-2.7899277,0.20879184,291
1747533369850,-0.34949,0.34631723,-0.39195594,-1.4349113,-2.6471822,0.23595607,292
1747533369860,-0.38426814,0.326426565,-0.37560409,-1.47006495,-2.46661985,0.288952975,293
1747533369870,-0.41209066,0.29945825,-0.3668180199999999,-1.5233281,-2.24690905,0.3776362399999999,294
1747533369880,-0.37609223,0.28579104,-0.35754386,-1.5425029,-2.2503712,0.44368264,295
1747533369890,-0.3214234,0.32093528,-0.32239962,-1.4865766,-2.450641,0.41438788,296
1747533369900,-0.29140437,0.39317623,-0.38487828,-1.5110776,-2.8330708,0.34940675,297
1747533369910,-0.2933568,0.4036707,-0.30848834,-1.8530275,-3.277286,0.24980451,298
1747533369920,-0.28920783,0.398423465,-0.242104775,-1.92253605,-3.28873765,0.244211875,299
1747533369930,-0.26651052,0.36803833,-0.03734076,-2.078331,-3.206446,0.23382555,300
1747533369940,-0.27480847,0.34607318,0.07028849,-2.120409,-2.999252,0.24394555,301
1747533369950,-0.34070393,0.3128814,0.11861181,-2.1118867,-2.7308054,0.29188246,302
1747533369960,-0.35827604,0.30360723,0.082735404,-2.137453,-2.301504,0.51505536,303
1747533369970,-0.33313814,0.28579104,0.090789296,-2.1411815,-2.2349248,0.6221144,304
1747533369980,-0.2809099,0.32069123,0.1147069,-2.0373182,-2.4442494,0.6775082,305
1747533369990,-0.27090356,0.41074833,0.014887493,-2.0138824,-2.8740835,0.6716492,306
1747533370000,-0.17230442,0.40293851,0.09005712,-2.2812638,-3.7960699,0.54275227,307
1747533370010,-0.06980037,0.39488465,0.24015234,-2.3856597,-3.9670448,0.41225734,308
1747533370020,-0.0418558165,0.380607295,0.322277595,-2.40856285,-3.9697079,0.337955145,309
1747533370030,-0.0302631,0.3397277,0.52301466,-2.4474452,-3.8674426,0.15925704,310
1747533370040,-0.09200958,0.30336314,0.5989165,-2.442119,-3.6341498,0.15819177,311
1747533370050,-0.22892569,0.28115395,0.72826684,-2.3813987,-3.2437303,0.49481535,312
1747533370060,-0.24674188,0.29213652,0.79611474,-2.3664849,-3.2543828,0.70680296,313
1747533370070,-0.10543273,0.28798756,0.89861876,-2.3185481,-3.26476915,0.76805568,314
1747533370080,0.053692598,0.36681804,0.9654905,-2.086853,-3.294863,0.7749799,315
1747533370090,0.13911264,0.4471129,0.8241814,-2.0532973,-3.5862129,0.3174488,316
1747533370100,0.111046046,0.41733786,0.70971847,-2.2807312,-3.5995286,0.11717909,317
1747533370110,0.060770255,0.33704305,0.6789673,-2.6056368,-3.4759579,0.013848438,318
1747533370120,0.033801929,0.28969595,0.7327819200000001,-2.8463867,-3.2565134,0.02130529,319
1747533370130,-0.03636453,0.1696198,0.9584128,-2.8405278,-3.0189595,0.120907515,320
1747533370140,-0.08005078,0.19378147,1.0662861,-2.2530344,-3.1260185,0.5486112,321
1747533370150,-0.0536925965,0.22074979,1.0279691,-2.2250712000000004,-3.3316146,0.6215818,322
1747533370160,0.0713867435,0.260653145,1.0129595500000002,-2.2277343,-3.75212775,0.70360715,323
1747533370170,0.2323425,0.29311277,1.1147314,-2.26129005,-4.111920899999999,0.667920815,324
1747533370180,0.3303315,0.31178313,1.2736127499999998,-2.22933225,-4.31139165,0.5672533150000001,325
1747533370190,0.311173,0.23527117,1.4601945,-1.8061559,-3.9910133,0.43569317,326
1747533370200,0.23600335,0.17669745,1.4350566,-1.5403724,-3.7310886,0.535828,327
1747533370210,0.23600335,0.17669745,1.4350566,-1.5403724,-3.7310886,0.535828,328
1747533370220,0.176575425,0.119588052,1.30570625,-1.052747615,-3.4615768,0.818922065,329
1747533370230,0.198174485,0.1156831369999999,1.053473125,-0.7584683,-3.4850128,1.2415657,330
1747533370240,0.36144876,0.17254847,0.66139513,-1.0439591,-3.6890109,1.28897,331
1747533370250,0.511788,0.22648512,0.5789038,-1.5345135,-3.9515984,1.1840415,332
1747533370260,0.59293705,0.24893839,0.63174218,-1.79869905,-4.05732595,1.0785803,333
1747533370270,0.8000197,0.28408262,0.8871481,-2.5086977,-4.280765,0.7094661,334
1747533370280,0.83687234,0.27310005,1.121687,-2.8346686,-4.2674494,0.46179214,335
1747533370290,0.8471227,0.19158493,1.5400012,-3.0237532,-4.1433463,0.29348037,336
1747533370300,0.8293065,0.17572121,1.6630061,-2.95025,-3.498861,0.15233281,337
1747533370310,0.81710365,0.1716942699999999,1.6930252,-2.84398975,-3.3435988,0.13954964,338
1747533370320,0.7570656,0.15717287,1.7271931,-2.59764725,-3.08101115,0.112385398,339
1747533370330,0.7188706499999999,0.15155955,1.7148683,-2.1422467,-2.8506477,0.08522116,340
1747533370340,0.5718261,0.14374973,1.4989996,-1.75236,-2.902313,0.118776985,341
1747533370350,0.5503491,0.13764828,1.380876,-1.8727349,-3.0120351,0.0958738,342
1747533370360,0.5376581149999999,0.12935034,1.38612315,-1.98991395,-3.05145005,0.0782969375,343
1747533370370,0.5366819,0.10884953,1.4887493,-2.3558323,-3.0578415,0.053263225,344
1747533370380,0.5872018,0.10860548,1.8060236,-2.308428,-2.7095,0.07669904,345
1747533370390,0.5347294,0.11519502,1.9080396,-2.0793962,-2.4623587,0.12463594,346
1747533370400,0.46200037,0.13398743,1.9929714,-1.7427727,-2.245045,0.18109496,347
1747533370410,0.447845055,0.14741058,2.0221363,-1.53424715,-2.12413745,0.2055960399999999,348
1747533370420,0.418314125,0.178283825,2.0532536,-1.1092066,-1.88072445,0.25726137,349
1747533370430,0.33265,0.2638259,1.9590476,-0.20453078,-1.375789,0.42983422,350
1747533370440,0.37828872,0.30458343,1.9134089,0.02609898,-1.2623384,0.45912898,351
1747533370450,0.41514137,0.36022848,1.8799729,0.23915187,-1.1403656,0.42717105,352
1747533370460,0.42319527,0.37694642,1.85837395,0.292681415,-1.0705908,0.400805755,353
1747533370470,0.443085935,0.39207798,1.81908075,0.37470678,-0.8950884699999999,0.33768883,354
1747533370480,0.47542354,0.383658,1.7794214,0.4213121,-0.49801114,0.21678132,355
1747533370490,0.5271637,0.37877685,1.7315861,0.41758367,-0.12676647,0.12357068,356
1747533370500,0.51544887,0.37072295,1.6842391,0.35952675,0.7637946,-0.10333065,357
1747533370510,0.474203225,0.340581895,1.6052865,0.22690132,1.3326459,-0.25566345,358
1747533370520,0.47591165,0.33411437,1.6137065,0.19920446,1.4578145,-0.3520699,359
1747533370530,0.47591165,0.33411437,1.6137065,0.19920446,1.4578145,-0.3520699,360
1747533370540,0.4735931,0.30665794,1.6703278,0.277501395,1.44343335,-0.40906155,361
1747533370550,0.48909074,0.28335047,1.709377,0.49055427,1.4072144,-0.52464277,362
1747533370560,0.51618105,0.24332508,1.7166986,0.78296936,1.5797871,-0.6013418,363
1747533370570,0.5427833,0.2203837,1.7157224,0.91186637,1.7864485,-0.628506,364
1747533370580,0.5527897,0.20598431,1.7142582,1.0466223,2.038916,-0.64714813,365
1747533370590,0.58232063,0.19817449,1.6842391,1.1691277,2.2801986,-0.66365975,366
1747533370600,0.6199054,0.19793043,1.6437255,1.2767195,2.5049694,-0.7030745,367
1747533370610,0.6377216,0.20354374,1.6217605,1.3646038,2.7036412,-0.72651035,368
1747533370620,0.64138246,0.19622204,1.6254213,1.406149,2.8176246,-0.70467246,369
1747533370630,0.6633476,0.19402552,1.6444578,1.4674017,2.926814,-0.68176925,370
1747533370640,0.6872652,0.20329969,1.688388,1.5760587,3.0216227,-0.68816084,371
1747533370650,0.695197065,0.20390983,1.7260949,1.7720674,3.128149,-0.7174556,372
1747533370660,0.699468065,0.196832165,1.75501565,2.00216455,3.2248218,-0.733434575,373
1747533370670,0.682628115,0.181334535,1.72682705,2.32707025,3.3726273,-0.743820905,374
1747533370680,0.65260905,0.1598575,1.667399,2.6269422,3.5910065,-0.69987875,375
1747533370690,0.68458056,0.14692247,1.5924735,2.8826056,3.85679,-0.6860303,376
1747533370700,0.6648119,0.17059602,1.4758141,2.8826056,3.85679,-0.6860303,377
1747533370710,0.6554157,0.176331365,1.4229758,2.9912626,3.8527952,-0.706004,378
1747533370720,0.63454884,0.16888762,1.2493291,3.0850058,3.7758298,-0.7643272,379
1747533370730,0.6279593,0.17450093,1.1973449,3.0519826,3.7316215,-0.80587256,380
1747533370740,0.630888,0.19988288,1.1648853,3.0333405,3.683152,-0.86606,381
1747533370750,0.57988006,0.19329333,1.1133891,2.958772,3.645335,-1.0135992,382
1747533370760,0.560721545,0.1863377,1.12632415,2.9843383,3.680755,-1.0242518,383
1747533370770,0.530702465,0.18719191,1.12827665,3.04053105,3.7444045,-1.03037705,384
1747533370780,0.5271637,0.18621568,1.0555476,3.0850058,3.8072553,-1.0354371,385
1747533370790,0.5176454,0.17328064,1.0133257,3.1127028,3.8733015,-1.0668623,386
1747533370800,0.4737151,0.21232979,0.82759815,3.158509,3.8967373,-1.1744541,387
1747533370810,0.45760733,0.216234715,0.7656075950000001,3.0999195,3.8488004,-1.2109394,388
1747533370820,0.41245675,0.210987495,0.6868991,2.9617015,3.73748025,-1.2780510500000002,389
1747533370830,0.30043447,0.18621568,0.72167724,2.8160267,3.594735,-1.3156016,390
1747533370840,0.20818083,0.15033926,0.7250941,2.9598372,3.4866107,-1.1883025,391
1747533370850,0.16205402,0.15009521,0.6672525,3.0109699,3.384878,-1.1456919,392
1747533370860,0.16205402,0.15009521,0.6672525,3.0109699,3.384878,-1.1456919,393
1747533370870,0.0820032374999999,0.157172865,0.56145365,2.97448465,3.26370395,-1.0634002,394
1747533370880,0.08102701,0.19475769,0.44882128,2.7142937,3.118029,-1.0173275,395
1747533370890,0.08029483,0.25601605,0.5227706,2.51935035,3.139068,-1.035437,396
1747533370900,0.07858644,0.2596769,0.536926,2.201369,3.3001893,-1.0823087,397
1747533370910,0.07370529,0.23795582,0.50568664,2.1214743,3.5782232,-1.113734,398
1747533370920,0.022453265,0.25137895,0.45589894,2.0836573,3.6996634,-1.113734,399
1747533370930,-0.082247294,0.24869433,0.41465324,2.0714068,3.716175,-1.107875,400
1747533370940,-0.1313028,0.2511349,0.34631723,2.2040322,3.652259,-1.0162623,401
1747533370950,-0.17913802,0.2608972,0.25748038,2.2066953,3.5212317,-0.92731273,402
1747533370960,-0.20793676,0.28701133,0.17035197,2.1342573,3.3571808,-0.8543421,403
1747533370970,-0.23209843,0.31654227,0.117391534,2.0080235,3.2117724,-0.81013364,404
1747533370980,-0.21965154,0.3248402,0.08786061,1.92653075,3.1622376,-0.8061388700000001,405
1747533370990,-0.19915071,0.31873876,0.10201593,1.5494272,3.252785,-0.8447547,406
1747533371000,-0.19622204,0.30580372,0.11177822,1.4988271,3.4711642,-0.8447547,407
1747533371010,-0.2114756099999999,0.29958026,0.089446985,1.48444605,3.58594645,-0.8277104799999999,408
1747533371020,-0.241982755,0.295553325,0.0388051055,1.4474281,3.7659762,-0.7872304299999999,409
1747533371030,-0.2306341,0.3328941,-0.08981306,1.4466292,3.9164448,-0.71319455,410
1747533371040,-0.28042176,0.37487194,-0.17987019,1.5542208,3.8551922,-0.644485,411
1747533371050,-0.33020946,0.4002539,-0.31434575,1.5747272,3.7414751,-0.59628177,412
1747533371060,-0.318250655,0.39708115,-0.344608845,1.61627255,3.4993937,-0.516653255,413
1747533371070,-0.30629185,0.3939084,-0.37487194,1.6373115,3.3710294,-0.48522797,414
1747533371080,-0.238932035,0.443207985,-0.53106857,1.75901795,2.99072995,-0.46685215,415
1747533371090,-0.16205402,0.45004156,-0.88836837,1.567004,2.5081651,-0.71798825,416
1747533371100,-0.1601015599999999,0.43844886,-0.967320935,1.4658039,2.43466185,-0.7850999249999999,417
1747533371110,-0.174867015,0.4095280799999999,-1.1232735,1.22425515,2.3017701,-0.91958955,418
1747533371120,-0.21965152,0.36266907,-1.27410085,0.91186632,2.20057,-1.02078965,419
1747533371130,-0.340948,0.24283697,-1.4199251,0.1486044,2.0005667,-0.9193232,420
1747533371140,-0.36388937,0.21159762,-1.4030851,0.03195793,1.8626149,-0.7749799,421
1747533371150,-0.4229512,0.16351835,-1.4301754,0.039947417,1.6069515,-0.49375007,422
1747533371160,-0.4229512,0.16351835,-1.4301754,0.039947417,1.6069515,-0.49375007,423
1747533371170,-0.4229512,0.16351835,-1.4301754,0.039947417,1.6069515,-0.49375007,424
1747533371180,-0.414043115,0.11055793,-1.53389975,0.49454902,0.17576864,0.3733752,425
1747533371190,-0.31581008,0.108117364,-1.6815544,0.75580513,-1.0476876,0.71958613,426
1747533371200,-0.29506522,0.09274176,-1.7630696,0.6402239,-1.5536882,0.79255676,427
1747533371210,-0.289207845,0.0950603,-1.7775910499999998,0.4988100599999999,-1.763279,0.8077367799999999,428
1747533371220,-0.277615115,0.1016498399999999,-1.77087945,0.1555286075,-2.1473069,0.8114652,429
1747533371230,-0.270049345,0.111900242,-1.69583175,-0.61891866,-2.6509106,0.7206514,430
1747533371240,-0.2933568,0.11543907,-1.2849613,-1.5233282,-3.0104373,0.567786,431
1747533371250,-0.34851375,0.12495731,-1.040416,-1.8775285,-3.1004522,0.5454154,432
1747533371260,-0.377068445,0.12654368,-0.908259035,-1.99310975,-3.11856175,0.5600628,433
1747533371270,-0.45174995,0.13740423,-0.53717,-2.2210765,-3.1143007,0.64768076,434
1747533371280,-0.5264315,0.1330112,-0.16913168,-2.2125542,-2.9438584,0.9438243,435
1747533371290,-0.53033644,0.153512,-0.04148973,-2.1315942,-2.8314729,1.1377025,436
1747533371300,-0.47981656,0.19304928,0.076633975,-1.9824572,-2.7521107,1.2958943,437
1747533371310,-0.3913457999999999,0.289817975,0.1437497125,-1.7017600000000002,-2.84159285,1.25914265,438
1747533371320,-0.34973404,0.4497975,0.13227904,-1.2729911,-3.1595743,1.117995,439
1747533371330,-0.37291947,0.4639528,0.0061014313,-1.3592775,-3.3257556,1.0583402,440
1747533371340,-0.36681804,0.47151858,-0.04783522,-1.5925703,-3.3683662,1.0253171,441
1747533371350,-0.35363895,0.48128092,-0.014887493,-1.8674086,-3.3198967,0.9901633,442
1747533371360,-0.3316738,0.44564855,0.17498904,-2.2860575,-2.958772,0.9331717,443
1747533371370,-0.33582276,0.4373506,0.2506468,-2.4224114,-2.735599,0.9651296,444
1747533371380,-0.353883,0.4058672,0.36706212,-2.4612935,-2.449043,1.0343717,445
1747533371390,-0.42954078,0.43613032,0.47054234,-2.4037693,-2.275405,1.1867046,446
1747533371400,-0.28335047,0.5535218,0.50446635,-2.556102,-2.240251,1.4333134,447
1747533371410,-0.28335047,0.5535218,0.50446635,-2.556102,-2.240251,1.4333134,448
1747533371420,-0.0373407555,0.644677215,0.66993715,-2.4977788,-2.2370554,1.1968245999999998,449
1747533371430,-0.05198419,0.69385475,0.6645679,-2.263687,-2.3329291,0.7824367,450
1747533371440,-0.12690976,0.6321083,0.48665017,-2.2205439,-2.422944,0.5965481,451
1747533371450,-0.28042176,0.46883395,0.34509695,-2.428803,-2.5624936,0.525708,452
1747533371460,-0.30543764,0.4515059,0.4389369749999999,-2.40163875,-2.6069684,0.586428065,453
1747533371470,-0.3149558799999999,0.414897325,0.6249085999999999,-2.2639533,-2.6354643,0.7313040500000001,454
1747533371480,-0.31995904,0.38658667,0.81271064,-1.8690065,-2.5715485,1.0226538,455
1747533371490,-0.3236199,0.44808912,0.78586435,-1.7113473,-2.6104305,1.2495552,456
1747533371500,0.0319715,0.5469323,0.6799435,-1.9750003,-2.6173549,1.3571469,457
1747533371510,0.09274175,0.566945,0.69849185,-2.06341725,-2.52520945,1.2655342,458
1747533371520,0.16095575,0.5920829000000001,0.72033495,-2.22480485,-2.31029225,1.052215,459
1747533371530,0.123981082,0.577683515,0.7188706,-2.35743025,-2.07833095,0.82611257,460
1747533371540,-0.17279254,0.41977844,0.83174706,-2.3094933,-1.6245283,0.7052051,461
1747533371550,-0.23185438,0.41611758,0.8859278,-2.0815268,-1.6207999,0.8527442,462
1747533371560,-0.22916975,0.433689715,0.83833665,-2.03545405,-1.65648625,0.93690005,463
1747533371570,-0.06418706,0.45907167,0.66993713,-2.0687436,-1.75129475,1.0530138999999998,464
1747533371580,0.0530824549999999,0.488480555,0.67603859,-2.2740734,-1.8943065,1.007473885,465
1747533371590,0.2626056,0.6291796,0.92497694,-2.6306705,-2.1624868,0.6593987,466
1747533371600,0.22648512,0.58305275,1.0152781,-3.0264163,-2.3105586,0.13209279,467
1747533371610,0.1720603525,0.5533998,1.07836695,-3.1201596,-2.1960428,0.004261058,468
1747533371620,0.0053692595,0.46444094,1.292283,-3.005111,-1.9196066,-0.0005326322,469
1747533371630,-0.06479720025,0.41709384,1.4268806500000002,-2.8320055,-1.7869811,0.0412789969,470
1747533371640,-0.20085911,0.3572998,1.5016843,-1.4887071,-1.3166668,0.39787626,471
1747533371650,-0.2186753,0.35705575,1.3310882,-0.968858,-1.3480922,0.5816344,472
1747533371660,-0.17230442,0.36901456,1.0311419,-0.70147663,-1.4865766,0.7137272,473
1747533371670,-0.08346757,0.38658667,0.81271064,-0.680704,-1.6724652,0.7488809,474
1747533371680,-0.0102504045,0.40781966,0.65846646,-0.9528791,-2.107093,0.62584287,475
1747533371690,-0.021477038,0.37584817,0.6711574,-1.0780476,-2.2972429,0.598146,476
1747533371700,-0.0134231495,0.32044718,0.7302193,-1.123854,-2.4453146,0.6412892,477
1747533371710,-0.0134231495,0.32044718,0.7302193,-1.123854,-2.4453146,0.6412892,478
1747533371720,-0.0135451772,0.28152005,0.848098925,-0.919855875,-2.55770005,0.8119978299999999,479
1747533371730,0.0660174873,0.27810325,0.8086836900000001,-0.702541875,-2.62108325,0.9590043,480
1747533371740,0.2511349,0.30946457,0.5759751,-0.88896316,-2.8160267,1.1377025,481
1747533371750,0.39024755,0.31995904,0.5186216,-1.4397049,-2.8304076,1.0567423,482
1747533371760,0.467613675,0.31861673,0.5491288000000001,-1.77792635,-2.7867318,0.96752643,483
1747533371770,0.605384,0.31422371,0.682750175,-2.4144218,-2.6514432,0.7470167,484
1747533371780,0.63284045,0.23307467,1.2949678,-3.1419976,-2.2370553,0.27217507,485
1747533371790,0.5784157,0.1683995,1.466296,-3.123888,-1.7971011,-0.03355583,486
1747533371800,0.54851865,0.150461295,1.52816445,-2.9784794,-1.7092168,-0.06791061,487
1747533371810,0.47444727,0.121418485,1.6190757,-2.62348,-1.5507587,-0.09827065,488
1747533371820,0.386220605,0.10396839,1.65031505,-2.1622205,-1.45861335,-0.05006743225,489
1747533371830,0.20110317,0.059305906,1.4497001,-0.97045594,-1.6516925,0.34088463,490
1747533371840,0.19060871,0.054912884,1.3120518,-0.6508766,-1.8743328,0.54275227,491
1747533371850,0.20073708,0.058817797,1.24847485,-0.5667207000000001,-1.9957729,0.6253102349999999,492
1747533371860,0.243203035,0.071996885,1.14645895,-0.44208475,-2.23226165,0.7707188,493
1747533371870,0.31129502,0.092009578,1.099844,-0.38988679,-2.3835293,0.8564726,494
1747533371880,0.38194957,0.12739788,1.0753163,-0.37710361,-2.41708505,0.90440952,495
1747533371890,0.49250755,0.1701079,1.0704352,-0.3616573,-2.324407,0.99229383,496
1747533371900,0.532777,0.19548985,1.0465174,-0.35153726,-2.2647521,0.99495703,497
1747533371910,0.5513253149999999,0.1992727349999999,1.02955545,-0.362189905,-2.2445122,0.987233845,498
1747533371920,0.58817795,0.2091570649999999,0.984160865,-0.4183826149999999,-2.21202175,0.96060223,499
1747533371930,0.673842,0.26504618,0.8944698,-0.9933591,-2.2658174,0.7121293,500
1747533371940,0.6894617,0.307024,0.9437694,-1.3140037,-2.3526366,0.5438175,501
1747533371950,0.70361704,0.34851375,1.0379754,-1.6804547,-2.4383903,0.35100463,502
1747533371960,0.72509407,0.361448775,1.1285207000000002,-1.855957,-2.44131985,0.2514024099999999,503
1747533371970,0.78684056,0.3756041,1.7755165,-2.2801986,-2.3174827,-0.05965481,504
1747533371980,0.70996255,0.36291313,2.0700936,-2.2343922,-1.5297197,-0.44474792,505
1747533371990,0.6406503,0.32557237,2.254601,-1.953695,-0.88949585,-0.5438175,506
1747533372000,0.5222825,0.31263736,2.3129306,-1.5984293,-0.22903186,-0.5651228,507
1747533372010,0.469078015,0.313857645,2.2985312,-1.42851965,0.0487358449999999,-0.5438175000000001,508
1747533372020,0.364011365,0.322643695,2.2620447,-1.0652645,0.5067995750000001,-0.4846953149999999,509
1747533372030,0.29396695,0.347415505,2.2438624000000003,-0.55233964,0.76406095,-0.412523655,510
1747533372040,0.3077562,0.3653537,2.2824233,0.18002969,0.9054748,-0.3749731,511
1747533372050,0.35485923,0.366574,2.1694248,1.0215886,1.158475,-0.4133226,512
1747533372060,0.36730617,0.35607952,2.0564265,1.3331785,1.3038837,-0.4293016,513
1747533372070,0.37194325,0.353760975,1.9922394,1.4322481,1.37791955,-0.439954225,514
1747533372080,0.39878955,0.35241866,1.8355545,1.6213325,1.613343,-0.4809669,515
1747533372090,0.44369608,0.35290676,1.7738081,1.6437031,1.8775285,-0.545948,516
1747533372100,0.49079913,0.34778157,1.7108413,1.5947009,2.1411815,-0.60080916,517
1747533372110,0.58183247,0.3568117,1.6468983,1.383246,2.6466496,-0.799481,518
1747533372120,0.61770886,0.35290676,1.6483628,1.2767195,2.8554413,-0.9539443,519
1747533372130,0.61673263,0.3413140449999999,1.65422015,1.24156575,2.95850565,-1.02425175,520
1747533372140,0.59794027,0.28920785,1.6678872,1.1723236,3.2549155,-1.1893678,521
1747533372150,0.5349735,0.20256752,1.6486067,1.1984226,3.577158,-1.2314457,522
1747533372160,0.520086,0.18719191,1.65324385,1.23091315,3.6349486,-1.211472,523
1747533372170,0.49348375,0.15253578,1.6637384,1.32545535,3.7420077,-1.1470235,524
1747533372180,0.497266625,0.142285375,1.6642264999999998,1.45302075,3.81844045,-1.066596,525
1747533372190,0.50495446,0.10592084,1.683263,1.7022926,3.8882153,-0.9576728,526
1747533372200,0.52399087,0.076389916,1.6625179,2.2248049,3.8578553,-0.82824314,527
1747533372210,0.523136685,0.076633973,1.62273665,2.34651135,3.82536465,-0.7984157199999999,528
1747533372220,0.55791485,0.079562664,1.4643435,2.6019084,3.683152,-0.7419567,529
1747533372230,0.588178,0.082003236,1.3906382,2.644519,3.6011264,-0.7728494,530
1747533372240,0.60867876,0.08444381,1.3828284,2.6759443,3.5840824,-0.8341021,531
1747533372250,0.5359497,0.0622346,1.3493925,2.8373318,3.8237667,-0.84635264,532
1747533372260,0.514716725,0.0636989425,1.31156365,2.8581045,3.8898132,-0.81039995,533
1747533372270,0.477497995,0.0634548855,1.22956045,2.87861085,4.01098705,-0.73849458,534
1747533372280,0.45126185,0.0572314245,1.16281075,2.8937908,4.105529199999999,-0.66658925,535
1747533372290,0.44442827,0.12032023,0.9959976,2.9822078,4.1619883,-0.5550028,536
1747533372300,0.42246306,0.12422514,0.95426387,2.9012477,3.7918088,-0.53529537,537
1747533372310,0.401962265,0.13276714,0.991604585,2.9220204,3.6858149,-0.5531385550000001,538
1747533372320,0.37706846,0.15668476,1.0496902,3.0722227,3.4072483,-0.5949502,539
1747533372330,0.36169282,0.1381364,1.0416363,3.2533176,3.2304144,-0.6380934,540
1747533372340,0.2506468,0.14179726,0.9396204,3.5196338,3.1686292,-0.5992113,541
1747533372350,0.2596769,0.12178457,0.82198477,3.5068505,3.3310819,-0.55340487,542
1747533372360,0.250524765,0.126177595,0.781349285,3.4740937,3.45065785,-0.530235385,543
1747533372370,0.20329969,0.15302388,0.6262509,3.3401368,3.8019288,-0.4543353,544
1747533372380,0.19744231,0.16107778,0.5769513500000001,3.26743245,3.8884815,-0.44368265,545
1747533372390,0.21330604,0.294089,0.35144243,2.789395,3.99847,-0.51292485,546
1747533372400,0.1867038,0.3743838,0.31385764,2.6184201,3.8615835,-0.586161775,547
1747533372410,0.17254848,0.41294485,0.320081085,2.30949345,3.57236425,-0.74754935,548
1747533372420,0.13349932,0.488236515,0.364499495,2.0554278,3.2975261,-0.9299759,549
1747533372430,0.108117364,0.53228885,0.58158845,1.6895094,3.384878,-1.3017532,550
1747533372440,0.0822472945,0.529116125,0.606238225,1.64077355,3.543336,-1.3313143,551
1747533372450,0.021477038,0.47591165,0.7280228,1.6000272,4.0890174,-1.3582122,552
1747533372460,0.010494461,0.42587993,0.80392456,1.8002969,4.5060687,-1.3246564,553
1747533372470,-0.0417337895,0.400253915,0.79794518,1.97979395,4.6626625,-1.27165945,554
1747533372480,-0.17230442,0.25870067,0.4803047,3.0280142,4.708469,-0.89855057,555
1747533372490,-0.23380683,0.24186075,0.2596769,3.3912694,4.3936834,-0.79042625,556
1747533372500,-0.31483385,0.22892569,0.05027579,3.5963328,3.8562574,-0.6854977,557
1747533372510,-0.34851375,0.2109874849999999,-0.02745644,3.6325518,3.58035385,-0.6279734,558
1747533372520,-0.39036956,0.194513625,-0.164006475,3.6501286,3.1161648,-0.51319114,559
1747533372530,-0.3487578,0.18206671,-0.31605414,3.4514568,2.7654266,-0.39148468,560
1747533372540,-0.2779812,0.1858495949999999,-0.3153219699999999,3.2517197,2.7936561,-0.42637209,561
1747533372550,-0.20866893,0.18865626,-0.34387666,3.0519826,2.8218856,-0.4612595,562
1747533372560,-0.24015234,0.15204766,-0.3612047,2.674879,3.0477216,-0.6018744,563
1747533372570,-0.2306341,0.1210524,-0.4322254,2.593919,3.1158986,-0.55287224,564
1747533372580,-0.2443013,0.12520137,-0.5108118,2.7409256,2.9257488,-0.5230448,565
1747533372590,-0.24454537,0.12935033,-0.6882414,2.8708878,2.6338663,-0.4777711,566
1747533372600,-0.20403185,0.08932495,-0.9171671,2.8943236,2.3137543,-0.43356264,567
1747533372610,-0.17889395,0.057109397,-1.1907552,2.803776,2.0383835,-0.39148468,568
1747533372620,-0.20305562,0.022941383,-1.4433545,2.5731463,1.7646105,-0.34780884,569
1747533372630,-0.23697957,-0.06955632,-1.7376877,1.8429075,1.0428939,-0.3057309,570
1747533372640,-0.23356278,-0.11006982,-1.7845466,1.3891048,0.65513766,-0.257794,571
1747533372650,-0.23039004,-0.19304928,-1.8440965,1.2117382499999998,0.5416869799999999,-0.22716765,572
1747533372660,-0.2774931,-0.23551524,-1.8716751,0.680704,0.20453078,-0.08522116,573
1747533372670,-0.3141017,-0.25772443,-1.8938842,0.5006743,0.0732369334999999,-0.016245285,574
1747533372680,-0.33899552,-0.22404456,-1.8365307,-0.046871636,-0.37071204,0.17097494,575
1747533372690,-0.30629185,-0.17035197,-1.6964419,-0.7355651,-1.1350393,0.2790993,576
1747533372700,-0.2889638,-0.12398108,-1.5490314,-0.99708754,-1.4935007,0.25672874,577
1747533372710,-0.289695965,-0.1070191,-1.48313595,-1.11692982,-1.64743145,0.23995082,578
1747533372720,-0.30726805,-0.071020655,-1.3022895,-1.4695324,-2.0335898,0.2066613,579
1747533372730,-0.36096066,-0.030507157,-1.0047837,-1.9318571,-2.398443,0.20932446,580
1747533372740,-0.40293851,-0.025137896,-0.8293065,-2.0421119,-2.4980452,0.25246766,581
1747533372750,-0.4515059,-0.029042812,-0.68433654,-2.0943098,-2.5363946,0.34514567,582
1747533372760,-0.58964235,-0.012690976,-0.46029195,-2.08419,-2.4703484,0.6988135,583
1747533372770,-0.58964235,-0.012690976,-0.46029195,-2.08419,-2.4703484,0.6988135,584
1747533372780,-0.6279593,0.034900185,-0.3824377,-2.040514,-2.3776703,1.2325109,585
1747533372790,-0.55840296,0.07565775,-0.3990336,-2.0639498,-2.359028,1.4732608,586
1747533372800,-0.456143,0.13593988,-0.40147418,-2.1273332,-2.4309335,1.6309199,587
1747533372810,-0.456143,0.13593988,-0.40147418,-2.2421154,-2.5803368,1.5899072,588
1747533372820,-0.22355644,0.37072295,-0.39537275,-2.5699506,-2.9039109,1.4098775,589
1747533372830,-0.18450728,0.40293851,-0.307024,-2.7824707,-2.9726205,1.2783173,590
1747533372840,-0.13960074,0.38463423,-0.13593988,-2.910835,-2.922553,1.1712582,591
1747533372850,-0.16229807,0.40000984,0.1147069,-2.8639636,-2.7851338,1.1206582,592
1747533372860,-0.2277054,0.50641876,0.1867038,-2.8016455,-2.3574302,1.1488878,593
1747533372870,-0.19475769,0.52960426,0.14765464,-3.0003173,-2.0793962,1.1424961,594
1747533372880,-0.10933765,0.5720702,0.1210524,-3.3822145,-1.6628778,1.051416,595
1747533372890,-0.084443811,0.6142921,0.09859913,-3.57609275,-1.54969345,0.95607485,596
1747533372900,-0.03465613,0.6655441,0.17328064,-4.5785065,-1.6559536,0.2034655,597
1747533372910,-0.079318605,0.63332855,0.27834729,-4.625644449999999,-1.8301243,0.0676442875,598
1747533372920,-0.1768194699999999,0.55523022,0.51898772,-4.4874268,-2.4612935,-0.19228023,599
1747533372930,-0.42368335,0.40147418,1.1529264,-3.8860848,-2.9678268,-0.12250541,600
1747533372940,-0.60697037,0.30677995,1.6998588,-1.3635385,-3.482882,0.7254451,601
1747533372950,-0.6399181,0.39366436,1.4938743,-0.048469532,-3.5068505,1.2729911,602
1747533372960,-0.6274711850000001,0.43637438,1.186972375,0.2870887589999999,-3.5465317,1.52412715,603
1747533372970,-0.50666285,0.5198419,0.2677308,0.21145499,-3.6043222,1.9963056,604
1747533372980,-0.21769907,0.55962324,-0.22135992,-0.8186557,-3.3172336,1.9867182,605
1747533372990,0.17938207,0.59086263,-0.34241232,-2.0586236,-2.8842034,1.6783241,606
1747533373000,0.39830142,0.5959878,0.10933765,-3.943609,-2.347843,0.5299691,607
1747533373010,0.33814131,0.54302739,0.3082442999999999,-4.1015345,-2.33266285,0.2854908909999999,608
1747533373020,0.197930422,0.4286865749999999,0.6972715549999999,-4.176902,-2.3110912,-0.083889579,609
1747533373030,-0.09445015,0.28164205,1.1983211,-3.472762,-2.3148196,-0.1486044,610
1747533373040,-0.37169918,0.3133695,1.3264512,-1.3337111,-2.8698225,0.6775082,611
1747533373050,-0.36901456,0.35461518,1.0199152,-0.902279,-3.3561156,1.0434265,612
1747533373060,-0.32581642,0.347293465,0.8648168350000001,-0.9582054,-3.52069905,1.1899004,613
1747533373070,-0.18914436,0.34680535,0.6306439349999999,-1.2442289,-3.7470678,1.4367754499999998,614
1747533373080,0.20329969,0.41904628,0.52911615,-2.0831246,-3.7241645,1.4913702,615
1747533373090,0.52423495,0.41587353,0.6994681,-3.222425,-3.3156357,0.8293084,616
1747533373100,0.49470404,0.37365165,0.97744924,-3.5228295,-3.115366,0.39041942,617
1747533373110,0.37243137,0.3214234,1.2732466,-3.4754252,-2.8437235,0.087884314,618
1747533373120,0.2362474,0.30751213,1.445795,-3.05145,-2.4133565,-0.016511599,619
1747533373130,0.1615659,0.31751847,1.3240106,-2.7968519,-2.1369205,0.025566347,620
1747533373140,0.16693515,0.22624107,0.88275504,-3.290602,-1.8833876,0.03781689,621
1747533373150,0.16986385,0.18816814,0.9127741,-3.47329475,-1.7997643,0.040213735,622
1747533373160,0.2139161849999999,0.17328065,0.99965845,-3.7622477,-1.65728515,0.0340884635,623
1747533373170,0.25796852,0.15839316,1.0865428,-3.8685079,-1.5984293,0.025566347,624
1747533373180,0.22941381,0.150461295,1.40296305,-3.65811815,-1.6833842,-0.098803275,625
1747533373190,0.16791138,0.15961345,1.5827112,-2.026133,-2.3936493,0.0,626
1747533373200,0.15082738,0.18548352,1.5741693,-1.1478225,-2.7547739,0.128897,627
1747533373210,0.1465563799999999,0.19292726,1.5331676500000002,-0.70440615,-2.9457226,0.20186762,628
1747533373220,0.15753896,0.217455,1.40723405,0.0993359,-3.3204293,0.33981937,629
1747533373230,0.3785328,0.25748038,0.69239044,0.42717105,-3.8717036,0.40373522,630
1747533373240,0.43832684,0.23478307,0.47493544,0.062584295,-3.81471205,0.374440445,631
1747533373250,0.4790844,0.21891935,0.49128726,-1.1483551,-3.371562,0.33662358,632
1747533373260,0.5513253,0.18450728,0.6484601,-1.8988339,-2.8309402,0.3520699,633
1747533373270,0.566944975,0.14887492,0.8373603999999999,-2.14890475,-2.5553031,0.3536678,634
1747533373280,0.58988637,0.09859913,1.1795286,-2.48020195,-2.04477515,0.34008568,635
1747533373290,0.6262509,0.07980672,1.2798362,-2.2546322,-1.8716697,0.257794,636
1747533373300,0.635525065,0.0793186075,1.3042419,-2.0242688,-1.95449395,0.22210764,637
1747533373310,0.640772315,0.0780983175,1.31534655,-1.5395735,-2.1726068,0.16671389,638
1747533373320,0.609288935,0.06626154,1.2509155,-1.067395,-2.4908546,0.151800185,639
1747533373330,0.55108124,0.03636453,1.0780008,-0.58909124,-3.1089742,0.20612867,640
1747533373340,0.5784157,0.00976229,0.8834872,-0.7637946,-3.820571,0.28655612,641
1747533373350,0.6125837,-0.008542004,0.8849516,-1.0887003,-3.9888828,0.2977414,642
1747533373360,0.6389418499999999,-0.0278225255,0.9238787,-1.31480265,-4.0101879,0.3150519499999999,643
1747533373370,0.69690545,-0.0708986285,1.03101985,-1.6844494,-3.9800941,0.342748835,644
1747533373380,0.7739055,-0.122760795,1.4296874,-1.89297495,-3.8157772,0.357396235,645
1747533373390,0.7990434,-0.110801995,1.5585496,-1.7688717,-3.0216227,0.3073288,646
1747533373400,0.7797629,-0.10543273,1.6388444,-1.64130625,-2.8069719500000003,0.28282771,647
1747533373410,0.7608484799999999,-0.1040904129999999,1.6458,-1.361408,-2.4090956500000003,0.25353294,648
1747533373420,0.68214005,-0.09542638,1.6137065,-0.908138,-2.0010993,0.27856666,649
1747533373430,0.605506,-0.08029483,1.462147,-0.4878911,-2.0181434,0.34408042,650
1747533373440,0.56548065,-0.04783522,1.4367651,-0.4463458,-2.193912,0.33662358,651
1747533373450,0.545712,-0.015375607,1.4482356,-0.4788364,-2.3718114,0.32756883,652
1747533373460,0.5581589,-0.0039049159999999,1.4936303,-0.5219796,-2.4335967,0.30546458,653
1747533373470,0.5848831750000001,0.0284326695,1.62468915,-0.5912218,-2.468484,0.251136085,654
1747533373480,0.6191732,0.10372432,1.8804612,-0.6066681,-2.1928468,0.17789917,655
1747533373490,0.6782351,0.174745,2.1457515,-0.33981937,-0.9582054,0.12516858,656
1747533373500,0.71020657,0.21452633,2.1735737,-0.118776985,-0.12942964,0.08628642,657
1747533373510,0.699468085,0.2366135,2.15673385,-0.0047936874999999,0.2407497799999999,0.065247447,658
1747533373520,0.6679847000000001,0.280299735,2.0909605,0.24314662,0.91053485,0.0242347659999999,659
1747533373530,0.67579454,0.32630453,1.8465372,0.6924219,1.6895094,-0.16085494,660
1747533373540,0.66896087,0.34704942,1.7757605,0.819721,1.798699,-0.23915187,661
1747533373550,0.6626154,0.3572998,1.7232883,0.92092115,1.8109496,-0.28549087,662
1747533373560,0.67530644,0.38853914,1.7071804,1.1142666,1.7150757,-0.37710363,663
1747533373570,0.7219213,0.38439015,1.7342708,1.2602079,1.717739,-0.45912898,664
1747533373580,0.78488815,0.37121108,1.7528191,1.4301175,1.8157432,-0.5523396,665
1747533373590,0.8429737,0.36340126,1.7733198,1.6740631,2.0511668,-0.6956177,666
1747533373600,0.8588374,0.34778157,1.6991266,1.9989687,2.5305357,-0.8655274,667
1747533373610,0.8581052499999999,0.340825935,1.65470815,2.03891615,2.63839375,-0.88763163,668
1747533373620,0.8717724499999999,0.3291112,1.5669696000000002,2.0948424,2.918292,-0.94808537,669
1747533373630,0.93181056,0.3116611,1.4672722,2.0916467,3.0322752,-1.0253171,670
1747533373640,0.950359,0.3145898,1.4296874,2.0847225,3.0796795,-1.1323761,671
1747533373650,0.959267025,0.2992141849999999,1.4216335,2.07992885,3.07355425,-1.23117935,672
1747533373660,0.982696475,0.280787855,1.42675865,2.0876521,3.06796165,-1.3883059,673
1747533373670,1.0011228,0.2689511,1.4841121,2.2045648,3.1143007,-1.5984293,674
1747533373680,0.99197065,0.255649975,1.50510105,2.2716764,3.1446607,-1.6474315000000002,675
1747533373690,0.9174112,0.20622836,1.5241375,2.572081,3.4024546,-1.7092168,676
1747533373700,0.81832397,0.16449459,1.4726415,2.6349316,3.5659728,-1.6410398,677
1747533373710,0.814174985,0.159979525,1.4489679,2.6469158,3.66078125,-1.6066851,678
1747533373720,0.8103921000000001,0.1575389549999999,1.3890518,2.6471821,3.845072,-1.5451661,679
1747533373730,0.82198477,0.17035197,1.2830089,2.560363,4.074104,-1.4871092,680
1747533373740,0.78537625,0.18401916,1.2351737,2.4266725,4.1241713,-1.4652712,681
1747533373750,0.7641432,0.17450093,1.194172,2.3856597,4.088485,-1.4530207,682
1747533373760,0.73680884,0.16278619,1.1883147,2.3792682,4.0634513,-1.4492923,683
1747533373770,0.6919023,0.1598575,1.1888028,2.4298682,4.0224385,-1.4434333,684
1747533373780,0.64235866,0.16986385,1.1709867,2.5023062,3.9510658,-1.423726,685
1747533373790,0.5994046,0.18523945,1.0435888,2.5443842,3.8866174,-1.3848438,686
1747533373800,0.5784157,0.18523945,0.9828185,2.5124261,3.9510658,-1.3853765,687
1747533373810,0.524479,0.17987019,0.95279956,2.475142,4.017645,-1.3677995,688
1747533373820,0.4417436,0.16107778,0.97793734,2.492719,4.052266,-1.3065468,689
1747533373830,0.3900035,0.15961345,0.9989263,2.612561,4.0240364,-1.1877699,690
1747533373840,0.32020313,0.12202863,0.8998391,2.8266792,3.904194,-1.0402308,691
1747533373850,0.3090985149999999,0.125445425,0.86432875,2.861034,3.83548455,-1.00853915,692
1747533373860,0.274442375,0.144603915,0.78208145,2.8940572500000004,3.67729295,-0.95154745,693
1747533373870,0.21940747,0.16351835,0.66920495,2.8101676,3.409379,-0.8948221,694
1747533373880,0.22843759,0.16913168,0.6972716,2.761698,3.3422673,-0.8708537,695
1747533373890,0.25381953,0.20403185,0.7670719,2.7795412500000003,3.3462620000000003,-0.85860317,696
1747533373900,0.25015867,0.20866893,0.8022162,2.9518478,3.3641052,-0.8836369,697
1747533373910,0.235515235,0.22343441,0.76817022,3.0647658,3.3742252500000003,-0.8969526999999999,698
1747533373920,0.19671014,0.24600971,0.59159476,3.2197618,3.3822145,-0.9395633,699
1747533373930,0.17767367,0.24112856,0.41465324,3.037069,3.4946,-0.9720538,700
1747533373940,0.19158493,0.26211748,0.38853914,2.954511,3.5734296,-1.0088054,701
1747533373950,0.142041315,0.276760925,0.376458305,2.9188246,3.56357585,-1.01972435,702
1747533373960,0.0416117625,0.288231615,0.365353705,2.850914,3.50232315,-1.01546335,703
1747533373970,-0.0525943375,0.2733441,0.37133311,2.8005802500000003,3.4221621000000004,-0.96885805,704
1747533373980,-0.11617125,0.24869433,0.33435842,2.7036412,3.5238948,-0.7174556,705
1747533373990,-0.10665302,0.25137895,0.3773125,2.7696877,3.5462654,-0.6689861,706
1747533374000,-0.15936938,0.294089,0.42514774,2.86263195,3.4972632,-0.64661555,707
1747533374010,-0.19219508,0.28798755,0.459071695,3.10897435,3.3579799,-0.5648565000000001,708
1747533374020,-0.3104408,0.2774931,0.5771954,3.47888745,3.1593081,-0.39254995,709
1747533374030,-0.3773125,0.27773714,0.59745216,4.752145,2.4762073,0.31851408,710
1747533374040,-0.33094162,0.30507156,0.5100796,5.282114,2.1470406,0.5784386,711
1747533374050,-0.21379416,0.3275248,0.37145513,5.6996975,1.8636801,0.7387609,712
1747533374060,-0.157660985,0.33277205,0.278835405,5.83977975,1.78378525,0.74754933,713
1747533374070,-0.0017084008,0.36632994,-0.050031736,6.129532,1.6218652,0.57790595,714
1747533374080,0.020256752,0.3590082,-0.50690687,5.7732005,1.5755261,0.10066749,715
1747533374090,0.020500809,0.28994003,-0.673842,5.424859,1.6607473,-0.19441076,716
1747533374100,0.008542004,0.21721096,-0.869576,4.9625344,1.7997643,-0.47670585,717
1747533374110,0.013789234,0.176697455,-0.9681751,4.6839677,1.8900455,-0.6226470749999999,718
1747533374120,-0.035876416,0.08346757,-1.1602482,3.8312237,2.1278658,-1.0178602,719
1747533374130,-0.03099527,-0.1244692,-1.244448,2.9071066,2.4053671,-1.4908376,720
1747533374140,-0.08029483,-0.2809099,-1.4162643,2.398443,2.606702,-1.7166736,721
1747533374150,-0.20110317,-0.45199403,-1.6727684,1.9132149,2.68926,-1.788579,722
1747533374160,-0.260409085,-0.509591535,-1.7899159,1.6431704,2.65597055,-1.7819211,723
1747533374170,-0.43051702,-0.6653,-2.0947433,0.81918836,2.3803334,-1.6682042,724
1747533374180,-0.5347294,-0.75999427,-2.2441063,-0.21624869,1.5254587,-1.2804478,725
1747533374190,-0.5347294,-0.75999427,-2.2441063,-0.21624869,1.5254587,-1.2804478,726
1747533374200,-0.5347294,-0.75999427,-2.2441063,-0.21624869,1.5254587,-1.2804478,727
1747533374210,-0.5742667,-0.74705925,-2.1182949,-0.95128113,0.4261058,-0.773382,728
1747533374220,-0.49860895,-0.47444725,-1.5592817,-1.4610102,-1.5286545,-0.032490566,729
1747533374230,-0.46444094,-0.40684342,-1.4086984,-1.5717977,-1.9648803,0.101200126,730
1747533374240,-0.45760733,-0.34119204,-1.2764194,-1.7427727,-2.2919164,0.22530343,731
1747533374250,-0.44662476,-0.2884757,-1.1473131,-1.9648803,-2.4714136,0.33502567,732
1747533374260,-0.44882128,-0.23819989,-0.9972179,-2.189651,-2.5241442,0.42077947,733
1747533374270,-0.48176903,-0.13496366,-0.6645679,-2.5241442,-2.51722,0.5906891,734
1747533374280,-0.4949481,-0.08297946,-0.55693865,-2.6280074,-2.444782,0.68336713,735
1747533374290,-0.49470404,-0.060770255,-0.50715095,-2.7441213,-2.3430493,0.7717841,736
1747533374300,-0.49470404,-0.060770255,-0.50715095,-2.7441213,-2.3430493,0.7717841,737
1747533374310,-0.54717636,0.029530926,-0.29872608,-3.0024478,-2.1534321,1.2362394,738
1747533374320,-0.5222825,0.09859913,-0.23380683,-2.97049,-2.2343922,1.3768543,739
1747533374330,-0.5100796,0.1696198,-0.18255483,-2.918292,-2.3584955,1.5164039,740
1747533374340,-0.47103047,0.23673552,-0.14423785,-2.8581045,-2.4474452,1.6367788,741
1747533374350,-0.379509,0.31751847,-0.0370967,-2.6695528,-2.5390577,1.7699369,742
1747533374360,-0.365109635,0.335090585,-0.0247718095,-2.6088327,-2.55157455,1.8005632500000002,743
1747533374370,-0.33313814,0.36022848,0.019036464,-2.401106,-2.5726137,1.8775285,744
1747533374380,-0.34961202,0.368404405,0.043564217,-2.299906,-2.5747442,1.93238965,745
1747533374390,-0.384634235,0.407331555,0.081759175,-2.14544265,-2.59498415,2.0820594,746
1747533374400,-0.26065314,0.55059314,0.183287,-2.0631509,-2.6088326,2.2825954,747
1747533374410,-0.16937573,0.595743745,0.202445495,-1.9944414,-2.49911045,2.44824395,748
1747533374420,0.048567392,0.7897693,0.22453266,-1.9350529,-2.3409185,2.368083,749
1747533374430,0.067359805,0.8749452,0.21086545,-1.9702066,-2.3377228,2.150769,750
1747533374440,0.084687866,0.87030816,0.18109047,-2.049569,-2.2817965,1.9302592,751
1747533374450,0.015375607,0.74339837,0.25870067,-2.09937,-2.12600155,1.7233315500000002,752
1747533374460,-0.0399033565,0.70666775,0.31129502,-2.08205935,-1.9044265,1.49350075,753
1747533374470,-0.19915071,0.60989904,0.38463423,-1.8365159,-1.7315874,1.556884,754
1747533374480,-0.31825066,0.60941094,0.35168648,-1.7012273,-1.7337179,1.804558,755
1747533374490,-0.34509695,0.65895456,0.3328941,-1.700162,-1.907356,2.1891184,756
1747533374500,-0.20390983,0.6860449,0.42185295,-1.6998957,-2.1190773,2.47221245,757
1747533374510,0.28871974,0.788549,0.65675807,-1.6048209,-2.4013724,2.690858,758
1747533374520,0.32703672,0.8347978250000001,0.699101985,-1.341168,-2.5393241,2.44185245,759
1747533374530,0.19329333,0.87030816,0.6365013,-0.9054748,-2.7387948,1.9659456,760
1747533374540,0.03099527,0.677747,0.47591165,-0.85061365,-2.7079022,1.8855181,761
1747533374550,-0.14204131,0.64235866,0.56596875,-0.88044107,-2.428803,2.4224114,762
1747533374560,-0.05344854,0.63503695,0.62063754,-0.77924097,-2.2258701,2.6695528,763
1747533374570,0.07687803,0.6765267,0.5525456,-0.7584683,-2.0501015,2.8107002,764
1747533374580,0.23307467,0.75438094,0.40269446,-0.9193232,-1.9387813,2.8202877,765
1747533374590,0.45174995,0.8085616,0.28701133,-1.4823155,-1.8684739,2.3829966,766
1747533374600,0.38731885,0.7907455,0.28335047,-1.7528926,-1.8722023,2.1315942,767
1747533374610,0.28335047,0.69507504,0.3018988,-2.056493,-1.8024274,1.9675435,768
1747533374620,0.23722365,0.6264949449999999,0.34814765,-2.1238710000000003,-1.7289242,1.97100555,769
1747533374630,0.12690976,0.48054874,0.49982923,-2.171009,-1.506284,2.0793962,770
1747533374640,0.12202863,0.45370242,0.58378494,-1.9105518,-1.520665,2.4517062,771
1747533374650,0.19768637,0.5620638,0.57988006,-1.8876486,-1.7433053,2.676477,772
1747533374660,0.318860795,0.6499244200000001,0.60843473,-2.0197413,-2.060754,2.8245487,773
1747533374670,0.7138674,0.86518294,0.79709095,-2.1672804,-2.2775354,2.7723508,774
1747533374680,0.8789721500000001,0.94023052,0.956704425,-2.163552,-2.069276,2.1102889,775
1747533374690,0.96768695,1.0074683,1.121443,-2.1294637,-1.5499598,1.6692694,776
1747533374700,0.8000197,0.90447617,1.0352908,-2.1832595,-1.0785803,1.4572818,777
1747533374710,0.6574902,0.82003236,0.9706156,-2.241849,-0.67963874,1.3592775,778
1747533374720,0.5620638,0.74437463,0.92497694,-2.245045,-0.4261058,1.3001553,779
1747533374730,0.31239326,0.56499255,0.719724805,-2.179531,-0.33822146,1.2623384,780
1747533374740,0.27187976,0.52960426,0.66871685,-2.0010993,-0.55287224,1.3869743,781
1747533374750,0.22599702,0.4651731,0.5976962,-1.9244002,-0.8064052,1.5355787,782
1747533374760,0.22526483,0.41977844,0.5771954,-1.8178738,-1.1313108,1.6964337,783
1747533374770,0.33777523,0.36584184,0.5620638,-1.6325178,-1.5664713,1.8647454,784
1747533374780,0.42734426,0.35046622,0.5593792,-1.3560816,-2.191249,2.0516994,785
1747533374790,0.535095525,0.3173964449999999,0.53228885,-1.2852416,-2.347843,2.0777984,786
1747533374800,0.5544981,0.30287504,0.5142286,-1.3124058,-2.3691483,2.1438446,787
1747533374810,0.57170413,0.28371656,0.49189737,-1.3904364,-2.34304915,2.19258045,788
1747533374820,0.6789673,0.22258021,0.447601,-1.717739,-2.2104237,2.3377228,789
1747533374830,0.83443177,0.20110317,0.53985465,-2.273807,-2.027731,2.4815335,790
1747533374840,0.9174112,0.20915705,0.6347929,-2.485262,-2.0373182,2.5033715,791
1747533374850,0.9901402,0.22209209,0.72729063,-2.6652918,-2.120409,2.4841967,792
1747533374860,1.03590095,0.22904772,0.7850101650000001,-2.7071034000000003,-2.16355215,2.4636904,793
1747533374870,1.1573195,0.25796852,0.9484064,-2.7723508,-2.2791333,2.3734093,794
1747533374880,1.2459122,0.34582913,1.1812371,-2.7302728,-2.372344,2.1694112,795
1747533374890,1.313028,0.43661842,1.3559821,-2.6871295,-2.2929816,2.010154,796
1747533374900,1.3369455,0.5405868,1.5165718,-2.610963,-2.0863204,1.834918,797
1747533374910,1.3467078,0.6303999,1.6632501,-2.463424,-1.7694043,1.6559536,798
1747533374920,1.2651927,0.8009959,1.824328,-1.9542277,-0.9672601,1.2058793,799
1747533374930,1.214917,0.90130347,1.850198,-1.6698021,-0.63702816,0.96779275,800
1747533374940,1.154879,0.96671075,1.8226196,-1.3496901,-0.36218992,0.6993461,801
1747533374950,1.039928,1.0169866,1.7550157,-1.0237192,-0.1454086,0.45327002,802
1747533374960,0.91204196,1.0426126,1.645434,-0.87777795,-0.065513765,0.3696467599999999,803
1747533374970,0.86420673,1.06347945,1.52450365,-0.5075985,0.111852765,0.18322548,804
1747533374980,0.7507201,1.1219312,1.3528093,-0.23755397,0.18908444,0.041545313,805
1747533374990,0.7658516,1.1390152,1.3125398,-0.14061491,0.21518342,-0.053795855,806
1747533375000,0.7721971,1.1475571,1.2908187,-0.058056913,0.24341293,-0.1667139,807
1747533375010,0.771953035,1.14511655,1.28447325,0.054328486,0.29827404,-0.30466563,808
1747533375020,0.81246656,1.1265682,1.2293164,0.20985709,0.39947417,-0.55553544,809
1747533375030,0.83809257,1.125348,1.2146729,0.2593919,0.45327002,-0.7185209,810
1747533375040,0.8932495,1.1033828,1.2161373,0.29294774,0.5336975,-0.92038846,811
1747533375050,0.90472018,1.0854446000000002,1.2082054,0.29614353,0.608532315,-1.01865913,812
1747533375060,0.9525554,0.97793734,1.1902672,0.24074976,1.0301107,-1.4705976,813
1747533375070,0.9288819,0.9418169,1.2222387,0.24181503,1.1451592,-1.6303873,814
1747533375080,0.90789294,0.8834872,1.2607998,0.30360037,1.2245215,-1.7912422,815
1747533375090,0.8925173,0.80172807,1.3181533,0.40266997,1.2825783,-1.8993665,816
1747533375100,0.83882475,0.6572462,1.4174845,0.72970617,1.4966966,-1.9707392,817
1747533375110,0.823449125,0.627837285,1.4291992,0.9310411,1.591505,-1.9515644,818
1747533375120,0.7941623,0.55840296,1.4509203,1.1472899,1.6644757,-1.9217371,819
1747533375130,0.80343645,0.515448895,1.42224355,1.3709954,1.7054884,-1.8881812,820
1747533375140,0.8095379,0.50593066,1.40699,1.5792545,1.7006947,-1.8684739,821
1747533375150,0.8578612,0.4978768,1.342559,1.8482338,1.6559536,-1.897236,822
1747533375160,0.90789294,0.49909708,1.3237665,1.8945729,1.7347832,-1.9755329,823
1747533375170,0.95524013,0.50666285,1.300093,1.8743328,1.8716697,-2.0698087,824
1747533375180,0.9850151,0.5195979,1.2561626,1.7853832,2.0474384,-2.1747375,825
1747533375190,1.0106411,0.5095915,1.2197981,1.6559536,2.241849,-2.295645,826
1747533375200,0.9530435,0.4927516,1.3284036,1.5531555,2.5742116,-2.4985778,827
1747533375210,0.90740484,0.456143,1.3628157,1.6458336,2.7302728,-2.5166874,828
1747533375220,0.87152842,0.438814925,1.3658664,1.8018948,2.8410604,-2.4788704,829
1747533375230,0.77073276,0.40733153,1.3647681,2.0010993,2.8858013,-2.3973777,830
1747533375240,0.7314396,0.38975942,1.3103434,2.2690134,2.8549087,-2.2658174,831
1747533375250,0.72533816,0.39464056,1.2859375,2.7233486,2.6961844,-2.0596888,832
1747533375260,0.73729694,0.42099872,1.2346857,2.9491847,2.586462,-2.0170782,833
1747533375270,0.76072645,0.43661842,1.1453607,3.1111047,2.4762073,-2.0240026,834
1747533375280,0.76292294,0.45052966,1.0416363,3.193663,2.4218788,-2.0570257,835
1747533375290,0.75194037,0.46956614,0.82906246,3.1041806,2.5465147,-2.1470406,836
1747533375300,0.73388016,0.49348375,0.74583894,2.9774141,2.637062,-2.202967,837
1747533375310,0.71118283,0.4983649,0.66871685,2.815494,2.7041738,-2.2791333,838
1747533375320,0.6550496,0.4825012,0.6472398,2.6583674,2.7728834,-2.3840618,839
1747533375330,0.54034275,0.47591165,0.6106312,2.5704832,2.7856665,-2.4453146,840
1747533375340,0.47176263,0.47664383,0.61673266,2.4282703,2.6652918,-2.4820662,841
1747533375350,0.39268813,0.47810817,0.6240544,2.3611586,2.5507758,-2.4282703,842
1747533375360,0.3692586,0.47225076,0.69385475,2.330266,2.450641,-2.3568976,843
1747533375370,0.3699908,0.4685899,0.810026,2.4016387,2.3813987,-2.3078954,844
1747533375380,0.32337585,0.4288086,0.9515792,2.834136,2.4016387,-2.2525017,845
1747533375390,0.29701766,0.4036707,0.9232686,3.167564,2.457565,-2.1955101,846
1747533375400,0.24112856,0.38390204,0.7968469,3.3720946,2.5539715,-2.128931,847
1747533375410,0.23161033,0.3487578,0.6047739,3.4269557,2.6823359,-2.0676782,848
1747533375420,0.23039004,0.33777523,0.42954078,3.3561156,2.8064392,-2.0245352,849
1747533375430,0.23185438,0.35168648,0.1701079,3.00085,2.8485172,-2.0271983,850
1747533375440,0.19475769,0.33069757,0.14399378,2.845854,2.7686224,-2.08419,851
1747533375450,0.11495096,0.31385764,0.17157225,2.7941887,2.6557043,-2.1124194,852
1747533375460,0.063943,0.32508424,0.16132185,2.779275,2.4612935,-2.086853,853
1747533375470,0.048323333,0.33582276,0.13618395,2.743056,2.2626216,-2.0772657,854
1747533375480,0.007565775,0.30214286,0.12398108,2.6780748,2.156628,-2.0437098,855
1747533375490,-0.023673553,0.28627914,0.11373068,2.670618,2.2285333,-1.9734024,856
1747533375500,-0.039537275,0.2835945199999999,0.10457853,2.6818033000000003,2.27167645,-1.9241339,857
1747533375510,-0.08444381,0.2779812,0.05418071,2.7084349000000003,2.34810915,-1.8237327,858
1747533375520,-0.102504045,0.29897013,-0.016351834,2.7238812,2.376605,-1.6804547,859
1747533375530,-0.06931226,0.29579738,-0.11275445,2.7089674,2.2828617,-1.6325178,860
1747533375540,-0.08078295,0.30604777,-0.15229172,2.743056,2.183792,-1.6644757,861
1747533375550,-0.12422514,0.2967736,-0.22331238,2.7590349,2.0421119,-1.7129452,862
1747533375560,-0.1901206,0.25650415,-0.33533466,2.718555,2.0021646,-1.7188042,863
1747533375570,-0.34070393,0.2630937,-0.55645055,2.386725,1.9169434,-1.5579493,864
1747533375580,-0.37096703,0.27871338,-0.6245425,2.1278658,1.8290591,-1.4716629,865
1747533375590,-0.3648656,0.26651052,-0.6445552,1.8983012,1.7598169,-1.4450313,866
1747533375600,-0.3734076,0.25723633,-0.6572462,1.7086842,1.6911073,-1.4551512,867
1747533375610,-0.3990336,0.22184804,-0.6577343,1.5648735,1.6330504,-1.4727281,868
1747533375620,-0.5344854,0.13032657,-0.6760386,1.4082797,1.4748586,-1.4146712,869
1747533375630,-0.59794027,0.07370529,-0.68360436,1.3891048,1.335309,-1.2921658,870
1747533375640,-0.65065664,0.019280521,-0.70239675,1.4231933,1.2330436,-1.1403656,871
1747533375650,-0.6728658,-0.029286869,-0.7480355,1.4807175,1.1787151,-0.94968325,872
1747533375660,-0.68604493,-0.071020655,-0.8295506,1.5291871,1.1494204,-0.71798825,873
1747533375670,-0.71167094,-0.099575356,-1.0355349,1.4578145,0.97471696,-0.16245283,874
1747533375680,-0.70337296,-0.06882414,-1.0945967,1.3821807,0.79202414,0.09534117,875
1747533375690,-0.6740861,-0.041245673,-1.1521943,1.293231,0.58483016,0.283893,876
1747533375700,-0.66188323,-0.0039049159,-1.197833,1.1739215,0.35792887,0.44315,877
1747533375710,-0.632230265,0.04026944705,-1.2268758,0.7866978,-0.10865697,0.6711166,878
1747533375720,-0.58280873,0.1342315,-1.2622641,0.6796386999999999,-0.217047635,0.6892261,879
1747533375730,-0.5757311,0.18377511,-1.2459122,0.32490566,-0.5454154,0.72278196,880
1747533375740,-0.5615757,0.22599702,-1.211012,0.05219796,-0.71159667,0.71958613,881
1747533375750,-0.5193538,0.25479576,-1.1653733,-0.0964064299999999,-0.7629956600000001,0.704139795,882
1747533375760,-0.54961693,0.33948365,-1.0250404,-0.8793758,-0.90281165,0.66206187,883
1747533375770,-0.55803689,0.361570825,-0.97208,-0.8793758,-0.90281165,0.66206187,884
1747533375780,-0.5691415,0.42099872,-0.7992875,-1.397627,-0.9369001,0.71798825,885
1747533375790,-0.56987363,0.464685,-0.652365,-1.5883093,-0.9422264,0.773382,886
1747533375800,-0.5603554,0.52203846,-0.5027579,-1.6442357,-0.9715212,0.8362326,887
1747533375810,-0.5132524,0.5850052,-0.3533949,-1.5749935,-0.9779128,0.85061365,888
1747533375820,-0.4458926,0.65846646,-0.22306833,-1.2793826,-0.9358348,0.7600662,889
1747533375830,-0.44345203,0.68531275,-0.24625377,-1.1659319,-0.8900285,0.6854977,890
1747533375840,-0.46273252,0.69287854,-0.29262465,-1.1222562,-0.83729786,0.6135923,891
1747533375850,-0.4834774,0.6286915,-0.38268176,-1.1329087,-0.76912093,0.54168695,892
1747533375860,-0.53912246,0.5947675,-0.41611758,-1.2559468,-0.628506,0.42983422,893
1747533375870,-0.59672,0.5774395,-0.45248213,-1.3592775,-0.588026,0.4809669,894
1747533375880,-0.6245425,0.55010504,-0.47932845,-1.4807175,-0.55553544,0.5795039,895
1747533375890,-0.6282034,0.528628,-0.46688148,-1.5856462,-0.55340487,0.6940198,896
1747533375900,-0.62320018,0.543027375,-0.42868654,-1.65435575,-0.6029396650000001,0.839961025,897
1747533375910,-0.528384,0.5872018,-0.31239328,-1.7347832,-0.6924218799999999,1.045290725,898
1747533375920,-0.528384,0.5872018,-0.31239328,-1.7465011,-0.7323693,1.1046792,899
1747533375930,-0.44003524,0.609777075,-0.255283885,-1.65808415,-0.78802938,1.07964555,900
1747533375940,-0.29774985,0.6242984,-0.19915071,-1.5520903,-0.7866978,0.93849796,901
1747533375950,-0.34656128,0.5920829,-0.28335047,-1.4940335,-0.7392935,0.7052051,902
1747533375960,-0.38170552,0.5831748,-0.320813255,-1.53717665,-0.7659251300000001,0.71079775,903
1747533375970,-0.46932206,0.5703618,-0.39756927,-1.73212,-0.9038769,0.80800307,904
1747533375980,-0.4566311,0.55059314,-0.36242503,-1.866876,-1.0498182,0.9139969,905
1747533375990,-0.40269446,0.5000733,-0.19109683,-1.8562233,-1.274589,1.0482203,906
1747533376000,-0.4002539,0.47103047,-0.1598575,-1.7805896,-1.3321131,1.1302456,907
1747533376010,-0.37682438,0.44003522,-0.15107143,-1.7092168,-1.3326459,1.2106731,908
1747533376020,-0.3824377,0.43246946,-0.16058967,-1.6527578,-1.3017532,1.32945,909
1747533376030,-0.3956168,0.4458926,-0.23893206,-1.8178738,-1.3550164,1.5819178,910
1747533376040,-0.29018408,0.4356422,-0.20769271,-1.9137475,-1.3928332,1.6341157,911
1747533376050,-0.23942018,0.43588626,-0.1598575,-1.9489013,-1.4594123,1.6468989,912
1747533376060,-0.21721096,0.4617563,-0.1261776,-1.9462382,-1.6330504,1.6479641,913
1747533376070,-0.23087814,0.5108118,-0.102748096,-1.9632823,-1.9259981,1.7038904,914
1747533376080,-0.12202863,0.4983649,0.04344219,-1.9078887,-2.3915186,1.8157432,915
1747533376090,-0.09396204,0.51618105,0.09200958,-1.8274611,-2.5379925,1.875398,916
1747533376100,-0.06662763,0.49812084,0.11348662,-1.7592843,-2.6354642,1.9403793,917
1747533376110,-0.062478654,0.46541715,0.14887492,-1.6990968,-2.6168222,2.0005667,918
1747533376120,-0.07492557,0.4229512,0.17157225,-1.6341157,-2.5353293,2.0746026,919
1747533376130,-0.13960074,0.40293851,0.17718557,-1.5925703,-2.4602282,2.229066,920
1747533376140,-0.09298581,0.400742,0.22306833,-1.6772588,-2.4857945,2.713761,921
1747533376150,0.019036464,0.39781332,0.31385764,-1.6650083,-2.4517062,2.8815403,922
1747533376160,0.10884953,0.44467232,0.38658667,-1.5835156,-2.4208136,2.9933932,923
1747533376170,0.21159762,0.51520485,0.4041588,-1.5393071,-2.4873924,3.0711575,924
1747533376180,0.4720067,0.6125837,0.47786412,-1.5084145,-2.683401,2.9113677,925
1747533376190,0.48835856,0.61941725,0.47762007,-1.4689997,-2.6754117,2.7510455,926
1747533376200,0.4566311,0.5708499,0.42734426,-1.4833808,-2.6162896,2.6051042,927
1747533376210,0.37316352,0.5127643,0.38829508,-1.5350461,-2.4980452,2.535862,928
1747533376220,0.29018408,0.44052333,0.35583547,-1.6160061,-2.3574302,2.572081,929
1747533376230,0.21647878,0.47054234,0.38683072,-1.871137,-2.3323965,3.0178943,930
1747533376240,0.35827604,0.520086,0.43613032,-2.0586236,-2.4351945,3.2900693,931
1747533376250,0.55864704,0.5632841,0.55693865,-2.1981733,-2.5023062,3.430684,932
1747533376260,0.76121455,0.6252747,0.68311626,-2.278068,-2.492719,3.391802,933
1747533376270,0.969639425,0.6915362300000001,0.796846895,-2.2684808,-2.417085,3.1867387,934
1747533376280,0.98379475,0.71728426,0.82296103,-2.102832,-2.095908,2.5209484,935
1747533376290,0.86152214,0.67140144,0.7494998,-2.078331,-1.9441077,2.2844596,936
1747533376300,0.7219213,0.57451075,0.66993713,-2.126268,-1.7875137,2.1789985,937
1747533376310,0.6386978,0.5210622,0.65041256,-2.1843247,-1.6682042,2.1965754,938
1747533376320,0.6631035,0.5288721,0.65846646,-2.3872576,-1.7715348,2.4831314,939
1747533376330,0.81197846,0.53887844,0.7438865,-2.5001757,-1.861017,2.5422537,940
1747533376340,0.91155386,0.58305275,0.8305268,-2.515622,-1.8801918,2.499643,941
1747533376350,0.97427654,0.601113,0.8429737,-2.5470474,-1.8599517,2.3936493,942
1747533376360,0.9938011,0.60184515,0.8793382,-2.5587652,-1.824798,2.2658174,943
1747533376370,0.97403246,0.59086263,0.90398806,-2.534264,-1.7816548,2.1699438,944
1747533376380,0.91570276,0.51740134,0.9647583,-2.3600934,-1.7864485,2.0916467,945
1747533376390,0.91619086,0.49250755,1.0040516,-2.15503,-1.8114822,2.0937772,946
1747533376400,0.9169231,0.47054234,1.0257727,-1.8764633,-1.8482338,2.1118867,947
1747533376410,0.90081537,0.44906533,1.0284572,-1.5488945,-1.8903117,2.146508,948
1747533376420,0.8756774,0.41099238,0.9313224,-0.84581995,-2.036253,2.324407,949
1747533376430,0.8768977,0.4075756,0.85127175,-0.6428871,-2.1268005,2.4266725,950
1747533376440,0.8847075,0.4148973,0.7726852,-0.52464277,-2.2221417,2.5363946,951
1747533376450,0.9303462,0.41807005,0.7224094,-0.48363006,-2.3276029,2.6253443,952
1747533376460,0.96890725,0.425757875,0.7150877,-0.47990164,-2.3678166000000003,2.64798115,953
1747533376470,1.0653099,0.4556549,0.71118283,-0.47830373,-2.4442494,2.6839337,954
1747533376480,1.198077,0.4932397,0.7238738,-0.5422196,-2.343582,2.6253443,955
1747533376490,1.198077,0.4932397,0.7238738,-0.5422196,-2.343582,2.6253443,956
1747533376500,1.3449996,0.5464442,0.72216535,-0.79415464,-1.9201392,2.3750072,957
1747533376510,1.3842927,0.58085626,0.7399816,-0.92784536,-1.7124126,2.18539,958
1747533376520,1.3752626,0.622346,0.75657743,-1.0546118,-1.504686,1.9829898,959
1747533376530,1.3252308,0.71264714,0.7414459,-1.347027,-1.073254,1.6341157,960
1747533376540,1.3186413,0.7404697,0.7268025,-1.5243934,-0.84422207,1.4652712,961
1747533376550,1.30765875,0.75133023,0.72863295,-1.62213145,-0.738494585,1.37472375,962
1747533376560,1.28044635,0.78012898,0.7504760699999999,-1.814678,-0.547545935,1.19229725,963
1747533376570,1.2427394,0.8539563,0.8944698,-2.2264028,-0.16724652,0.7057377,964
1747533376580,1.24652235,0.86554905,0.946454,-2.238387,-0.12197278,0.609331275,965
1747533376590,1.2766634,0.9025237,1.1063116,-2.150769,0.036751624,0.283893,966
1747533376600,1.2618979499999998,0.90862513,1.1759898999999998,-1.9094866,0.151533872,0.0543285,967
1747533376610,1.1861182,0.9132622,1.2559186,-1.53344825,0.29720879,-0.2623213749999999,968
1747533376620,1.1490215,0.89032084,1.2822767,-1.2551479,0.343015165,-0.41998051,969
1747533376630,1.1197346,0.8463905,1.346952,-0.7568704,0.33502567,-0.6087986,970
1747533376640,1.0584763,0.82906246,1.4289552,-0.2977414,0.25992453,-0.69029135,971
1747533376650,1.0367552,0.80490078,1.41687435,0.27963192,0.201601295,-0.714792425,972
1747533376660,1.0477377,0.76341105,1.3281596,1.2761868,0.13209279,-0.773382,973
1747533376670,1.0670183,0.7726852,1.2268758,1.5941683,0.13954964,-0.8293084,974
1747533376680,1.104359,0.77195305,1.1050912,1.7859159,0.17736652,-0.9241169,975
1747533376690,1.1487775,0.77024466,0.88031447,1.8615496,0.27483824,-1.0530139,976
1747533376700,1.18807075,0.76463133,0.83321145,1.7920411,0.45220477,-1.20880885,977
1747533376710,1.2237030999999998,0.74974385,0.757553715,1.6357135500000002,0.7238472,-1.44662915,978
1747533376720,1.1983211,0.72631437,0.7067898,1.3113406,1.0263823,-1.7070863,979
1747533376730,1.1888028,0.6970275,0.7058135,1.1377025,1.1771172,-1.8327875,980
1747533376740,1.189779,0.6870211500000001,0.7327818500000001,1.064998165,1.24050045,-1.8873823,981
1747533376750,1.20857145,0.678967285,0.7830576650000001,0.913464265,1.40508385,-2.0453078,982
1747533376760,1.26250815,0.6851907349999999,0.83101493,0.83996105,1.5947009,-2.3110912,983
1747533376770,1.3115636,0.6892177,0.90789294,0.8990832,1.68152,-2.4932516,984
1747533376780,1.2722704,0.67555046,0.9401085,0.99069595,1.7459685,-2.6450517,985
1747533376790,1.1585398,0.62063754,0.9794017,1.0956244,1.8216022,-2.7830033,986
1747533376800,1.1238836,0.5933032,0.98892,1.3459617,1.8716697,-2.7883296,987
1747533376810,1.11802625,0.58854407,0.9825745,1.38031645,1.9078887,-2.7782097,988
1747533376820,1.1273005,0.5806122,0.9606094,1.4492923,2.0511668,-2.7680898,989
1747533376830,1.1407236,0.59232694,0.9994144,1.5558188,2.3052323,-2.8463867,990
1747533376840,1.1404796,0.6025773,1.0186949,1.6405072,2.4261398,-2.8911278,991
1747533376850,1.13669665,0.60135703,1.023332,1.69163995,2.4871262,-2.9084383000000003,992
1747533376860,1.1158297,0.59183884,1.03163,1.80216115,2.60403895,-2.9353362,993
1747533376870,1.10350485,0.5847611699999999,1.03053175,1.9307918,2.6937874500000003,-2.9483857,994
1747533376880,1.086909,0.580368125,1.02589465,2.2008364,2.7174897,-2.948652,995
1747533376890,1.1055794,0.62014943,1.0418804,2.62854,2.4644892,-3.029612,996
1747533376900,1.09496285,0.624542515,1.0239422,2.7369307000000003,2.38912175,-3.06423315,997
1747533376910,1.06933685,0.62637295,0.96890728,2.9116341,2.26288795,-3.12362165,998
1747533376920,1.0387076,0.6123396,0.86371857,3.0013826,2.20483115,-3.1758196,999
1747533376930,0.97598493,0.60013676,0.69117016,2.994991,2.305765,-3.2655683,1000
