timestamp,acc_x,acc_y,acc_z,gyro_x,gyro_y,gyro_z,id
1747532943260,0.07175283,0.3577879,0.85273606,0.27696875,-0.26365295,0.32277513,1
1747532943270,0.117391534,0.28115395,1.1346222,-0.3834952,0.283893,-0.74728304,2
1747532943280,0.09005712,0.30238694,1.1390152,-0.22583607,0.2695119,-0.6743124,3
1747532943290,0.08956901,0.3277689,1.120955,-0.051665325,0.31372038,-0.58962387,4
1747532943300,0.099087246,0.32459614,1.0963051,0.13315806,0.41065946,-0.52411014,5
1747532943310,0.107873306,0.2933568,1.0689708,0.3089267,0.5187838,-0.49854377,6
1747532943320,0.16522676,0.2608972,0.9789136,0.5384912,0.7174556,-0.5811018,7
1747532943330,0.1849953899999999,0.2685849999999999,0.9459659,0.5323659249999999,0.7387608999999999,-0.6093313,8
1747532943340,0.21379415,0.2829843749999999,0.8831211800000001,0.484695325,0.7558051299999999,-0.6609966,9
1747532943350,0.238199875,0.2979939,0.83748248,0.381364665,0.73796195,-0.70227558,10
1747532943360,0.307024,0.33045352,0.7941623,0.066046394,0.6114618,-0.7813715,11
1747532943370,0.2831064,0.30970863,0.81149036,-0.0127831735,0.5699165,-0.8133294,12
1747532943380,0.25552794,0.30409533,0.835408,-0.061252706,0.5837649,-0.84635264,13
1747532943390,0.26919514,0.3338703,0.8754333,-0.020506344,0.773382,-0.90973585,14
1747532943400,0.2928687,0.37145513,0.94206095,0.024501082,0.8655274,-0.9331717,15
1747532943410,0.37023485,0.4075756,1.1346222,0.19547603,1.045557,-0.92038846,16
1747532943420,0.41294485,0.4053791,1.206375,0.79255676,1.4002901,-0.79415464,17
1747532943430,0.43613032,0.40147418,1.2412751,1.1456919,1.5425029,-0.7052051,18
1747532943440,0.49006698,0.4041588,1.2671453,1.4711303,1.6825852,-0.62104917,19
1747532943450,0.5806122,0.41172457,1.2720264,1.7326527,1.7779263,-0.545948,20
1747532943460,0.74461865,0.39927766,1.2146729,2.016013,1.6490294,-0.42397526,21
1747532943470,0.7643873,0.40049794,1.1199788,1.9845877,1.427987,-0.34940675,22
1747532943480,0.76292295,0.41074833,1.04700563,1.84903275,1.2689963,-0.2956108899999999,23
1747532943490,0.7475473,0.44906533,0.8576172,1.325189,0.8580705,-0.16138756,24
1747532943500,0.69898,0.47054234,0.7636551,0.8213189,0.62371236,-0.09960223,25
1747532943510,0.5791479,0.5037342,0.7592621,-0.31638354,0.2892193,-0.03195793,26
1747532943520,0.51544887,0.5418071,0.8576172,-0.8186557,0.14274544,-0.011185277,27
1747532943530,0.4419877,0.579636,0.9781815,-1.2010857,-0.017044231,0.03888215,28
1747532943540,0.36852646,0.61111933,1.1116807,-1.4391723,-0.20399815,0.13688648,29
1747532943550,0.302631,0.6540734,1.3596429,-1.5361114,-0.3882889,0.28549087,30
1747532943560,0.2936009,0.6452874,1.4562895,-1.2452941,-0.6940198,0.71958613,31
1747532943570,0.2889638,0.6160005,1.4904575,-0.9443569,-0.7669904,0.91186637,32
1747532943580,0.286767275,0.5970860499999999,1.48496625,-0.7677893250000001,-0.77604515,0.997620135,33
1747532943590,0.27822527,0.5215503,1.4209013,-0.2396845,-0.74248934,1.2117383,34
1747532943600,0.22111587,0.4024504,1.1580516,0.21198763,-0.41545314,1.2879047,35
1747532943610,0.24161668,0.36632994,1.0548154,0.25832662,-0.13156016,1.2053467,36
1747532943620,0.29506522,0.35119838,1.001611,0.175236,0.112918034,1.0322412,37
1747532943630,0.30214286,0.35412705,0.9869675,-0.07882957,0.20879184,0.7600662,38
1747532943640,0.24186075,0.3863426,0.9898962,-0.36325517,0.14274544,0.58696073,39
1747532943650,0.0959145,0.48738232,1.0665302,-0.96406436,-0.22796659,0.4958806,40
1747532943660,0.04271002,0.50690687,1.1460928,-1.1696603,-0.43782368,0.5363607,41
1747532943670,0.004148973,0.5042223,1.2351737,-1.2634037,-0.6002765,0.5885586,42
1747532943680,-0.0370967,0.49128726,1.3162007,-1.2442288,-0.6924219,0.624245,43
1747532943690,-0.061502427,0.47835222,1.3840486,-1.1297129,-0.6924219,0.62531024,44
1747532943700,-0.06199054,0.47103047,1.4465274,-0.70840085,-0.5784386,0.5635249,45
1747532943710,-0.040513504,0.43539813,1.4291992,-0.40053943,-0.5006743,0.5091964,46
1747532943720,-0.032215554,0.38975942,1.3789234,-0.17204021,-0.49641323,0.46818373,47
1747532943730,-0.006345488,0.34192422,1.2935034,-0.015978966,-0.49161956,0.4293016,48
1747532943740,0.084931925,0.2443013,1.091668,0.04261058,-0.49055427,0.27856666,49
1747532943750,0.114218794,0.19744232,1.0101529,-0.027696876,-0.5044027,0.17789917,50
1747532943760,0.09737884,0.18011424,0.9901402,-0.13795175,-0.5603291,0.09374327,51
1747532943770,0.051007964,0.19817449,1.0143019,-0.24234766,-0.63915867,0.03888215,52
1747532943780,0.0359984435,0.203299685,1.04090415,-0.270577165,-0.6900250649999999,0.0218379199999999,53
1747532943790,-0.017084008,0.20598431,1.1355984,-0.2647182,-0.89322424,-0.0063915867,54
1747532943800,-0.05662128,0.19915071,1.1534146,-0.14594123,-0.9651296,0.0026631611,55
1747532943810,-0.08981306,0.15082738,1.11705,0.24234766,-0.83942837,-0.06924219,56
1747532943820,-0.048567392,0.1210524,1.0787331,0.45167214,-0.7121293,-0.175236,57
1747532943830,-0.0281886119,0.100063475,1.0516427,0.54301855,-0.6607302749999999,-0.2479403,58
1747532943840,-0.002928687,0.037584815,0.9271735,0.757403,-0.545948,-0.46711847,59
1747532943850,-0.0147654645,0.027700497,0.8206424999999999,0.74621775,-0.49401638,-0.550741715,60
1747532943860,-0.06980037,0.021965152,0.65163285,0.567786,-0.39840892,-0.6775082,61
1747532943870,-0.16717921,0.042465962,0.63357264,0.41864893,-0.32170987,-0.7174556,62
1747532943880,-0.31190515,0.043198135,0.7390053,0.3089267,-0.21252026,-0.78776306,63
1747532943890,-0.3692586,0.052472305,0.77610207,0.2657835,-0.15659387,-0.9241169,64
1747532943900,-0.4097721,0.05662128,0.7665838,0.26844665,-0.1949434,-0.94808537,65
1747532943910,-0.44345203,0.038561042,0.72216535,0.23755397,-0.221575,-0.96086854,66
1747532943920,-0.5205741,-0.01586372,0.6474839,0.19707392,-0.224770795,-0.96299907,67
1747532943930,-0.5269196,-0.04258799,0.64077232,0.0268979249999999,-0.1866875949999999,-0.96592855,68
1747532943940,-0.545712,-0.14057697,0.64235866,-0.24181503,-0.060720075,-1.010936,69
1747532943950,-0.5691415,-0.1986626,0.65382934,-0.32490566,-0.0010652645,-1.0711234,70
1747532943960,-0.5976962,-0.2489384,0.6733539,-0.3920173,0.03195793,-1.1419635,71
1747532943970,-0.707766,-0.30873242,0.73339206,-0.50653327,-0.010652645,-1.2591426,72
1747532943980,-0.77634615,-0.32386398,0.7812273,-0.57098174,-0.03781689,-1.2602079,73
1747532943990,-0.8195442,-0.340948,0.8241814,-0.6359629,-0.06178534,-1.2479573,74
1747532944000,-0.8712844,-0.34851375,0.86567104,-0.69135666,-0.084155895,-1.2575446,75
1747532944010,-0.9178993,-0.32972133,0.9010593,-0.7233146,-0.018109497,-1.2895026,76
1747532944020,-1.01479,-0.18255483,1.0260166,-0.6087986,0.4990764,-1.2852416,77
1747532944030,-1.0533512,-0.0959145,1.147069,-0.3898868,0.7414241,-1.2016183,78
1747532944040,-1.0921562,-0.016595893,1.2661691,-0.06764429,0.8490158,-1.0375676,79
1747532944050,-1.1338899,0.05344854,1.3279155,0.30466563,0.83250415,-0.77924097,80
1747532944060,-1.1582958,0.123004854,1.3118078,0.6556703,0.7643272,-0.44581318,81
1747532944070,-1.0811737,0.15204766,1.1658615,1.091896,0.51665324,0.2711098,82
1747532944080,-1.0028312,0.102504045,1.0662861,1.1329087,0.3387541,0.5970807,83
1747532944090,-0.90374404,0.019036464,0.98330665,1.0423613,0.10972224,0.91825795,84
1747532944100,-0.7905014,-0.06443111,0.89349353,0.966727515,0.0181094949999999,0.999750675,85
1747532944110,-0.5695076,-0.137160175,0.74632705,0.45380265,-0.33662358,1.2010857,86
1747532944120,-0.5418071,-0.14228538,0.7285109,0.19920446,-0.41758367,1.2277173,87
1747532944130,-0.4978768,-0.15033926,0.7387613,-0.049002163,-0.4878911,1.267132,88
1747532944140,-0.4554108,-0.1564407,0.77317333,-0.27004454,-0.55287224,1.3124058,89
1747532944150,-0.4046469,-0.17254847,0.8305268,-0.43888897,-0.6269081,1.3257216,90
1747532944160,-0.30726805,-0.17059602,0.9418169,-0.53742594,-0.6828345,1.2863069,91
1747532944170,-0.284326675,-0.1542441849999999,0.96243975,-0.525175395,-0.66845345,1.2010857,92
1747532944180,-0.2294138,-0.10470056,1.0079564,-0.4079963,-0.5933523,1.0594054,93
1747532944190,-0.19719826,-0.087616555,1.0294335,-0.27217507,-0.5294364,1.0135992,94
1747532944200,-0.087616555,-0.06296677,0.98452693,-0.12197278,-0.44847634,0.964597,95
1747532944210,-0.02391761,-0.043930303,0.93522733,0.013848438,-0.3291667,0.8974853,96
1747532944220,0.020500809,-0.02831064,0.8849516,0.18855181,-0.03195793,0.7041398,97
1747532944230,0.071264714,-0.013179091,0.84150934,0.22743396,0.14753912,0.5800365,98
1747532944240,0.10421244,0.0024405725,0.82247293,0.23169503,0.29667616,0.44741106,99
1747532944250,0.08322352,0.028554698,0.83077085,0.18855181,0.3797668,0.31318775,100
1747532944260,-0.022941383,0.07224095,0.8932495,0.03195793,0.39095205,0.26897928,101
1747532944270,-0.0051252022,0.09884319,0.9786696,-0.015978966,0.36485308,0.26205507,102
1747532944280,0.012935034,0.13252309,1.0577441,0.00958738,0.28708878,0.23276028,103
1747532944290,0.008053889,0.17498904,1.1175382,0.10333065,0.15393071,0.20879184,104
1747532944300,-0.010738519,0.24576566,1.0638455,0.22370553,0.014913702,0.23276028,105
1747532944310,0.0026846298,0.25552794,0.99550945,0.40906155,-0.0974717,0.34567833,106
1747532944320,0.013911263,0.23527117,0.91399443,0.4596616,-0.039947417,0.36325517,107
1747532944330,0.035144243,0.18182266,0.8422416,0.45486793,0.07243799,0.32597092,108
1747532944340,0.06028214,0.13203497,0.8078295,0.4149205,0.2066613,0.23116238,109
1747532944350,0.059794027,0.09469421,0.80172807,0.26631612,0.4000068,-0.0127831735,110
1747532944360,0.049787678,0.13667206,0.8266219,0.17736652,0.45327002,-0.111852765,111
1747532944370,0.021721095,0.1889003,0.8439499,0.08042747,0.44421527,-0.16884442,112
1747532944380,-0.04368625,0.23087814,0.8834872,-0.026631612,0.37017938,-0.1667139,113
1747532944390,-0.10128376,0.2596769,0.91863143,-0.12836437,0.2759035,-0.09960223,114
1747532944400,-0.102259986,0.27358818,1.0030752,-0.24074976,0.010652645,0.07882957,115
1747532944410,-0.107873306,0.25308737,1.0152781,-0.21358553,-0.09534117,0.11345066,116
1747532944420,-0.12129646,0.22355644,1.0079564,-0.17630127,-0.15286545,0.13528858,117
1747532944430,-0.122272685,0.21525851,0.9813542,-0.14434333,-0.14487597,0.14753912,118
1747532944440,-0.1044565,0.2306341,0.94620997,-0.13262543,-0.083090626,0.14434333,119
1747532944450,-0.07028849,0.25650415,0.91423845,-0.16618125,0.0974717,0.12410331,120
1747532944460,-0.073949344,0.24527754,0.92229235,-0.20453078,0.16298546,0.13315806,121
1747532944470,-0.051496077,0.21525851,0.95572823,-0.27004454,0.17789917,0.13954964,122
1747532944480,-0.03099527,0.18621568,0.993313,-0.3206446,0.13369069,0.11664646,123
1747532944490,-0.033191785,0.17132819,1.0328503,-0.36005938,0.05752428,0.08468852,124
1747532944500,-0.09640261,0.1632743,1.0994779,-0.39734364,-0.13582122,0.090014845,125
1747532944510,-0.1330112,0.17132819,1.1207108,-0.3787015,-0.20293288,0.13635385,126
1747532944520,-0.14204131,0.17791773,1.1390152,-0.32170987,-0.22583607,0.1784318,127
1747532944530,-0.12983845,0.18182266,1.1431642,-0.23382555,-0.21678132,0.18429075,128
1747532944540,-0.12642166,0.1803583,1.1282767,-0.12197278,-0.19228023,0.16298546,129
1747532944550,-0.13862452,0.16693515,1.069947,0.090014845,-0.16937704,0.11558119,130
1747532944560,-0.1769415,0.18377511,1.0389518,0.12676647,-0.21624869,0.14274544,131
1747532944570,-0.19036464,0.19793043,1.0079564,0.113983296,-0.2593919,0.20719394,132
1747532944580,-0.188046105,0.194635655,1.00161095,0.094808538,-0.28336035,0.2428803,133
1747532944590,-0.17157225,0.1696198,0.99770606,0.046871636,-0.35100463,0.33449304,134
1747532944600,-0.12910628,0.09567044,0.99184865,0.05752428,-0.3834952,0.35260254,135
1747532944610,-0.10884953,0.0690682,0.97500867,0.07989483,-0.35792887,0.30466563,136
1747532944620,-0.07297312,0.05832968,0.96304995,0.09960223,-0.30945933,0.22370553,137
1747532944630,-0.05344854,0.05832968,0.9498709,0.12410331,-0.24980451,0.09534117,138
1747532944640,-0.11177822,0.102748096,0.88690406,0.10226539,-0.067910608,-0.0018642128,139
1747532944650,-0.111290105,0.12178457,0.87274873,0.08735169,-0.03089267,0.0,140
1747532944660,-0.102259986,0.1300825,0.8812907,0.060720075,0.02609898,0.007989483,141
1747532944670,-0.082735404,0.12935033,0.895446,0.0479369,0.0793622,0.007456851,142
1747532944680,-0.082735404,0.12935033,0.895446,0.0479369,0.0793622,0.007456851,143
1747532944690,-0.04490653,0.13716017,0.98062205,0.02130529,0.13102753,-0.017576864,144
1747532944700,-0.008297946,0.14545812,1.0257727,0.023435818,0.07456851,-0.025566347,145
1747532944710,0.046858992,0.13471961,1.0682385,0.05965481,-0.009054748,-0.051132694,146
1747532944720,0.08664032,0.11861181,1.0789771,0.118776985,-0.12942964,-0.08841695,147
1747532944730,0.10006347,0.1147069,0.96719885,0.18855181,-0.3355583,-0.13795175,148
1747532944740,0.08053889,0.118855886,0.88421935,0.16564862,-0.32597092,-0.15606125,149
1747532944750,0.08542004,0.13398743,0.83101493,0.16564862,-0.32597092,-0.15606125,150
1747532944760,0.08786061,0.15375607,0.82027644,0.056991648,-0.104928546,-0.17949706,151
1747532944770,0.107385196,0.15912533,0.8432178,0.021837922,0.051665325,-0.2082592,152
1747532944780,0.139112638,0.179504105,0.88129075,0.015978967,0.1488707075,-0.29161615,153
1747532944790,0.19768637,0.22819352,0.9513352,0.002130529,0.24980451,-0.43303,154
1747532944800,0.20964517,0.25333142,0.96817505,-0.007456851,0.21944448,-0.4596616,155
1747532944810,0.21403822,0.26943922,0.9686632,-0.00958738,0.19014971,-0.45060685,156
1747532944820,0.25528386,0.2796896,0.9808661,0.014913702,0.18855181,-0.44741106,157
1747532944830,0.2762728,0.28286235,0.988187775,0.045540054,0.209324465,-0.46738477,158
1747532944840,0.28225222,0.28286235,0.996729725,0.118776983,0.25486451,-0.49641324,159
1747532944850,0.252233165,0.2668765899999999,0.99416717,0.20532972,0.334493035,-0.49881009,160
1747532944860,0.24295898,0.248206215,0.98501507,0.299339315,0.498277455,-0.49641324,161
1747532944870,0.37096703,0.24649782,0.9855032,0.49375007,0.9166601,-0.6492787,162
1747532944880,0.3943965,0.24649782,0.9869675,0.5486112,0.9816412,-0.74035877,163
1747532944890,0.3939084,0.25992095,0.9693954,0.567786,0.97897804,-0.8085357,164
1747532944900,0.37169918,0.28408262,0.9476743,0.54168695,0.9267801,-0.8628642,165
1747532944910,0.34949,0.31776255,0.92912596,0.46978164,0.850081,-0.90014845,166
1747532944920,0.28749946,0.38048524,0.93303084,0.27377295,0.66365975,-0.9006811,167
1747532944930,0.27480847,0.39659303,0.9520673,0.20080236,0.59761333,-0.90281165,168
1747532944940,0.24967057,0.42075467,0.96256185,0.1917476,0.55606806,-0.912399,169
1747532944950,0.22160399,0.43442193,0.94962674,0.21518342,0.57364494,-0.9331717,170
1747532944960,0.17840585,0.4417436,0.9366917,0.24181503,0.6375608,-0.9582054,171
1747532944970,0.18377511,0.42783237,0.96353805,0.25353295,0.9289106,-1.0231866,172
1747532944980,0.21623473,0.4373506,1.0272369,0.294013,1.0604708,-1.1025487,173
1747532944990,0.2306341,0.47347105,1.0819057,0.3717773,1.1100056,-1.1579424,174
1747532945000,0.21428227,0.5095915,1.1251038,0.4676511,1.0737866,-1.154214,175
1747532945010,0.15839316,0.605262,1.1168059,0.644485,0.81013364,-0.9358348,176
1747532945020,0.1381364,0.64260274,1.0679946,0.6679208,0.6924219,-0.79202414,177
1747532945030,0.119588055,0.6518769,1.0211354,0.64714813,0.5997439,-0.65034395,178
1747532945040,0.12178457,0.65090066,0.9928249,0.59388494,0.54914385,-0.5225122,179
1747532945050,0.13838045,0.6491923,0.97696114,0.52837116,0.53529537,-0.41545314,180
1747532945060,0.174745,0.6562699,0.97330034,0.43675843,0.55606806,-0.23489082,181
1747532945070,0.18182266,0.6465077,0.97330034,0.4048005,0.5928197,-0.12410331,182
1747532945080,0.19158493,0.630888,0.9696394,0.39068575,0.6127933999999999,-0.0617853389,183
1747532945090,0.2135501,0.61502427,0.9691513,0.3291667,0.6428871,0.15180019,184
1747532945100,0.25772443,0.5874458,0.99550945,0.2615224,0.59867865,0.24021713,185
1747532945110,0.2626056,0.5950116,0.9962417,0.043675844,0.3552657,0.36645097,186
1747532945120,0.268463,0.6016011,1.0008788,-0.10333065,0.1933455,0.44315,187
1747532945130,0.26895111,0.5970860499999999,1.0030753,-0.18162759,0.104129601,0.4809669,188
1747532945140,0.24674188,0.571338,1.0045396,-0.42344263,-0.17097494,0.58749336,189
1747532945150,0.200371,0.5266756,1.0250404,-0.7078682,-0.41705105,0.7307714,190
1747532945160,0.19109683,0.50568664,1.0633575,-0.7914915,-0.46658584,0.81705785,191
1747532945170,0.20183535,0.47981656,1.1246158,-0.7861652,-0.48522797,0.92784536,192
1747532945180,0.21623473,0.45858356,1.1702545,-0.6870956,-0.48469532,1.0002834,193
1747532945190,0.25845662,0.4368625,1.2002735,-0.525708,-0.46339005,1.0583402,194
1747532945200,0.29042813,0.42612398,1.1824573,-0.34088463,-0.41278997,1.1089402,195
1747532945210,0.31263736,0.41733786,1.1531705,-0.007456851,-0.3355583,1.1515509,196
1747532945220,0.32166746,0.3990336,1.1165619,0.09267801,-0.33768883,1.149953,197
1747532945230,0.32239962,0.38097337,1.0748281,0.12037488,-0.37444046,1.1403656,198
1747532945240,0.33020946,0.36340126,1.0252845,0.08362326,-0.4101268,1.1009508,199
1747532945250,0.29604146,0.36974674,0.92448884,-0.15446335,-0.42663842,0.97897804,200
1747532945260,0.26870704,0.40611124,0.8942258,-0.2796319,-0.33981937,0.92944324,201
1747532945270,0.22672918,0.45370242,0.8991069,-0.3797668,-0.20293288,0.8676579,202
1747532945280,0.2048860599999999,0.47322701,0.920583925,-0.413322615,-0.132625425,0.83729785,203
1747532945290,0.1615659,0.50715095,1.0260166,-0.47031426,0.03888215,0.7616641,204
1747532945300,0.22990192,0.5022698,1.1709867,-0.47244477,-0.15286545,0.66206187,205
1747532945310,0.27139166,0.524479,1.1714748,-0.485227955,-0.263120315,0.6340986850000001,206
1747532945320,0.29872608,0.53912246,1.138039,-0.5603291,-0.64075655,0.5486112,207
1747532945330,0.31776255,0.5298483,1.0853225,-0.6215818,-0.7952199,0.53529537,208
1747532945340,0.28335047,0.5183776,1.0345587,-0.6689861,-0.8580705,0.55553544,209
1747532945350,0.28335047,0.5183776,1.0345587,-0.6689861,-0.8580705,0.55553544,210
1747532945360,0.16303024,0.4229512,0.97354436,-0.66579026,-0.27057716,0.51292485,211
1747532945370,0.13032657,0.39537275,1.0472497,-0.58269966,0.05752428,0.37390783,212
1747532945380,0.1044565,0.3841461,1.1460928,-0.43516052,0.31052458,0.1917476,213
1747532945390,0.07614586,0.39927766,1.2525018,-0.2609898,0.39095205,0.020772656,214
1747532945400,0.023429496,0.46224442,1.3110756,0.042077947,0.006924219,-0.05752428,215
1747532945410,0.011226633,0.44418418,1.2725145,0.0958738,-0.3270362,0.0063915867,216
1747532945420,-0.009518232,0.39927766,1.2185779,0.112918034,-0.6711166,0.09321064,217
1747532945430,0.032459613,0.24723,1.1024066,0.13315806,-1.1004182,0.22903186,218
1747532945440,0.08078295,0.15473229,1.0135698,0.18216023,-1.1824435,0.21784659,219
1747532945450,0.093717985,0.08029483,0.91863143,0.2444782,-1.1552793,0.15020229,220
1747532945460,0.0735832625,0.0575975075,0.858837415,0.2676477,-1.0575413,0.088949583,221
1747532945470,-0.015375607,0.009030119,0.7128912,0.31318775,-0.57364494,-0.1587244,222
1747532945480,-0.0705325434999999,-0.000732171,0.72887697,0.316916175,-0.08495486,-0.4695152999999999,223
1747532945490,-0.19475769,0.029530926,0.84248555,0.32490566,0.59228706,-0.99762017,224
1747532945500,-0.27456442,0.10518867,0.95597225,0.34514567,0.55606806,-1.0636666,225
1747532945510,-0.33826336,0.1466784,1.0326062,0.36005938,0.3121225,-0.98803276,226
1747532945520,-0.36242503,0.16522676,1.0819057,0.36645097,-0.04261058,-0.81013364,227
1747532945530,-0.3082443,0.15082738,1.0130817,0.39734364,-0.6897587,-0.42077947,228
1747532945540,-0.28261828,0.082247294,0.91814333,0.44687843,-0.7946873,-0.29880667,229
1747532945550,-0.24942651,-0.03294773,0.82491344,0.52411014,-0.73290193,-0.27643612,230
1747532945560,-0.23942018,-0.15058333,0.7167961,0.6247776,-0.4910869,-0.4133226,231
1747532945570,-0.27639484,-0.207814755,0.6199053800000001,0.6447513,-0.34594463,-0.51691957,232
1747532945580,-0.3738957,-0.31190515,0.54766446,0.55287224,0.3323625,-1.1835088,233
1747532945590,-0.49690056,-0.3270367,0.63406074,0.44687843,0.35739622,-1.4791197,234
1747532945600,-0.71118283,-0.2626056,0.69409883,0.330232,0.20133498,-1.6213325,235
1747532945610,-0.86469483,-0.20964517,0.71948075,0.19760656,-0.006924219,-1.5797871,236
1747532945620,-0.9898962,-0.27334413,0.7304634,-0.0314253,-0.34141725,-1.4029533,237
1747532945630,-1.023088,-0.307024,0.70068836,-0.17044231,-0.33662358,-1.4524881,238
1747532945640,-1.0670183,-0.2677308,0.6723777,-0.2908172,-0.13369069,-1.5563514,239
1747532945650,-1.125348,-0.17889395,0.6919023,-0.38296258,0.23009712,-1.6698021,240
1747532945660,-1.1503639,-0.12788599,0.722287425,-0.389354165,0.44661211,-1.7182716500000002,241
1747532945670,-1.3008251,0.1889003,1.0157663,-0.099069595,1.3507553,-1.7054884,242
1747532945680,-1.3567142,0.29823795,1.1053354,0.16138756,1.4769892,-1.4471618,243
1747532945690,-1.3977158,0.38756293,1.1514622,0.38935417,1.4034859,-1.0418286,244
1747532945700,-1.3618395,0.44003522,1.1614684,0.5363607,1.2000204,-0.5550028,245
1747532945710,-1.1185144,0.3824377,1.1485333,0.59761333,0.7909589,0.056459017,246
1747532945720,-1.0006347,0.2962855,1.0921562,0.505468,-0.039947417,0.8357,247
1747532945730,-0.88641596,0.19671014,1.0199152,0.4101268,-0.34567833,1.1100056,248
1747532945740,-0.75169635,0.10372432,0.946454,0.30360037,-0.531567,1.2916331,249
1747532945750,-0.6960512999999999,0.070776597,0.904720225,0.245543455,-0.586161775,1.3438311,250
1747532945760,-0.37487194,-0.06858008,0.73290396,-0.06231797,-0.5944176,1.3619406,251
1747532945770,-0.2638259,-0.07907455,0.69556314,-0.18162759,-0.50600064,1.2405005,252
1747532945780,-0.20085911,-0.06662763,0.6643238,-0.3009372,-0.44794372,1.1243867,253
1747532945790,-0.17620933,-0.043930303,0.6325964,-0.47670585,-0.40906155,1.037035,254
1747532945800,-0.165348785,-0.038561044,0.62503062,-0.562992275,-0.3832288849999999,1.01519705,255
1747532945810,-0.107629254,-0.051007964,0.7556012,-0.9805759,-0.24341293,0.8378305,256
1747532945820,-0.088836834,-0.04075756,0.8876362,-1.0657971,-0.24181503,0.73822826,257
1747532945830,-0.088836834,-0.04075756,0.8876362,-1.0657971,-0.24181503,0.73822826,258
1747532945840,-0.117879644,0.0302631,1.1517061,-0.9651296,-0.2806972,0.6199839,259
1747532945850,-0.1164153,0.10494461,1.2642165,-0.5390238,-0.21571605,0.49321744,260
1747532945860,-0.117391534,0.12349297,1.2468885,-0.22210763,-0.12676647,0.41598576,261
1747532945870,-0.11690342,0.11836776,1.176356,-0.017044231,-0.03355583,0.34301516,262
1747532945880,-0.1244692,0.10470056,1.087031,0.113983296,0.09054748,0.24554345,263
1747532945890,-0.1432616,0.09518232,1.01479,0.17470337,0.24927188,0.13475595,264
1747532945900,-0.17962612,0.11324256,0.9752528,0.17310548,0.51931643,-0.066046394,265
1747532945910,-0.23551524,0.15790504,1.0257727,0.16298546,0.53316486,-0.11824436,266
1747532945920,-0.2774931,0.21843125,1.0787331,0.1736381,0.4745753,-0.08894958,267
1747532945930,-0.29262465,0.27846932,1.1190025,0.20932446,0.360592,0.011185277,268
1747532945940,-0.27358818,0.30604777,1.147069,0.26045716,0.20026971,0.13102753,269
1747532945950,-0.23966423,0.2591888,1.0884954,0.38562572,-0.11611383,0.2514024,270
1747532945960,-0.24967057,0.23331872,1.0118613,0.39361522,-0.16085494,0.25033715,271
1747532945970,-0.25992095,0.22428861,0.93254274,0.35153726,-0.1257012,0.24660872,272
1747532945980,-0.25040275,0.22258021,0.8771418,0.27643612,-0.050600063,0.24074976,273
1747532945990,-0.23917611,0.21306199,0.85322416,0.19707392,0.030360037,0.221575,274
1747532946000,-0.20744865,0.21672285,0.86933196,0.08735169,0.18109496,0.17204021,275
1747532946010,-0.183287,0.24918245,0.869576,0.061252706,0.2263687,0.15978967,276
1747532946020,-0.17108414,0.28042176,0.8600578,0.016511599,0.26045716,0.17257284,277
1747532946030,-0.16229807,0.29042813,0.84809893,-0.04527374,0.26312032,0.1949434,278
1747532946040,-0.20525214,0.27505252,0.87274873,-0.13475595,0.21411815,0.23595607,279
1747532946050,-0.19402552,0.2545517,0.92912596,-0.3536678,0.02876214,0.35952675,280
1747532946060,-0.1889003,0.23356278,0.98111016,-0.43249738,-0.108124346,0.39840892,281
1747532946070,-0.18938842,0.20354374,1.0143019,-0.4809669,-0.25300032,0.4261058,282
1747532946080,-0.19378147,0.18084641,1.0269929,-0.50600064,-0.34993938,0.43782368,283
1747532946090,-0.173158625,0.170473985,1.0423685,-0.50280483,-0.36405413,0.43169841,284
1747532946100,-0.11592719,0.18450728,1.0575,-0.34088463,-0.33129725,0.294013,285
1747532946110,-0.12202863,0.21623473,1.0289453,-0.25300032,-0.29987195,0.2561961,286
1747532946120,-0.14521407,0.23014598,0.9942892,-0.18429075,-0.22796659,0.2545982,287
1747532946130,-0.15619664,0.2277054,0.9647583,-0.13795175,-0.12250541,0.2615224,288
1747532946140,-0.15619664,0.22135992,0.9513352,-0.09427591,-0.013848438,0.25832662,289
1747532946150,-0.16571487,0.1867038,0.9613415,-0.02130529,0.15925704,0.2247708,290
1747532946160,-0.1786499,0.16888762,0.9798898,0.002130529,0.1917476,0.2082592,291
1747532946170,-0.18597162,0.1598575,1.0138137,0.020240024,0.16298546,0.1949434,292
1747532946180,-0.19329334,0.167789355,1.0311418,0.034354778,0.09720538,0.2029328799999999,293
1747532946190,-0.20134723,0.19231711,1.0677505,0.090014845,-0.10705908,0.24554345,294
1747532946200,-0.17425688,0.23502712,1.0167425,0.21198763,-0.39894155,0.33768883,295
1747532946210,-0.1666911,0.2523552,0.9540198,0.26312032,-0.45912898,0.3920173,296
1747532946220,-0.16620298,0.24991462,0.86518294,0.28442562,-0.44368264,0.44581318,297
1747532946230,-0.1403329,0.22648512,0.81197846,0.27537087,-0.3339604,0.47404268,298
1747532946240,-0.06199054,0.17620933,0.7980672,0.22796659,-0.0793622,0.41864893,299
1747532946250,-0.038561042,0.14985114,0.82149667,0.20399815,-0.004261058,0.33076462,300
1747532946260,-0.05686534,0.13520771,0.83174706,0.1768339,-0.0037284256,0.28229508,301
1747532946270,-0.09811102,0.13276714,0.8439499,0.14008227,-0.042077947,0.2796319,302
1747532946280,-0.10518867,0.15570852,0.8751893,0.054328486,-0.18429075,0.34567833,303
1747532946290,-0.06638357,0.17816179,0.8812907,0.034621093,-0.2759035,0.3520699,304
1747532946300,-0.037584815,0.1849954,0.8778739,0.02130529,-0.37763625,0.34248254,305
1747532946310,-0.041977845,0.18768002,0.85590875,-0.0063915867,-0.46818373,0.34088463,306
1747532946320,-0.05515694,0.20476402,0.8102701,-0.049002163,-0.52624065,0.3536678,307
1747532946330,0.0012202862,0.19793043,0.8122225,-0.13795175,-0.4250405,0.37710363,308
1747532946340,0.026846299,0.16937573,0.8327233,-0.13688648,-0.30519825,0.33182988,309
1747532946350,-0.003172744,0.14423785,0.8500514,-0.11664646,-0.16831179,0.2657835,310
1747532946360,-0.029042812,0.13520771,0.8644508,-0.084155895,0.008522116,0.20186761,311
1747532946370,-0.0053692595,0.14716652,0.8834872,-0.05486112,0.16192019,0.13635385,312
1747532946380,-0.01415532,0.208913,0.9242448,-0.05539375,0.16937704,0.091080114,313
1747532946390,0.008542004,0.22819352,0.9520673,-0.077231675,0.06551377,0.12410331,314
1747532946400,0.047347106,0.24942651,0.96671075,-0.0958738,-0.06924219,0.16937704,315
1747532946410,0.094206095,0.24698594,0.95987713,-0.10439592,-0.20932446,0.20293288,316
1747532946420,0.14741059,0.21623473,0.90838104,-0.06924219,-0.12996227,0.12516858,317
1747532946430,0.16888762,0.21257387,0.9010593,-0.029827405,0.040480047,0.025566347,318
1747532946440,0.1632743,0.20818083,0.8956901,0.016511599,0.23329292,-0.09960223,319
1747532946450,0.14423785,0.21208574,0.90398806,0.051132694,0.40533313,-0.22583607,320
1747532946460,0.058817793,0.2806658,0.92961407,0.051132694,0.5635249,-0.36804888,321
1747532946470,0.012446919,0.3116611,0.95694846,-0.002130529,0.5044027,-0.37284255,322
1747532946480,-0.0078098318,0.35095432,1.0067362,-0.08575379,0.34461305,-0.3520699,323
1747532946490,0.026846299,0.39146784,1.0770246,-0.13156016,0.1555286,-0.33609092,324
1747532946500,0.027822526,0.41343296,1.1055794,-0.12942964,-0.05006743,-0.3158509,325
1747532946510,-0.008786061,0.41977844,1.09118,-0.0053263223,-0.29454562,-0.22370553,326
1747532946520,-0.00707766,0.4322254,1.0223558,0.043675844,-0.31158987,-0.15339808,327
1747532946530,0.008786061,0.4229512,0.9696394,0.07190535,-0.23702134,-0.094808534,328
1747532946540,0.04637088,0.3939084,0.94620997,0.0958738,-0.096939065,-0.05273059,329
1747532946550,0.088104665,0.34802565,0.93986446,0.12037488,0.058589544,-0.046871636,330
1747532946560,0.18426323,0.2506468,0.9413288,0.1486044,0.39468047,-0.19867182,331
1747532946570,0.2186753,0.23502712,0.9606094,0.12197278,0.48149952,-0.29667616,332
1747532946580,0.22990192,0.24137263,1.001367,0.0777643,0.49960902,-0.36911413,333
1747532946590,0.21745501,0.24576566,1.0291895,0.023435818,0.45060685,-0.4101268,334
1747532946600,0.20915705,0.2889638,1.0887394,-0.028229509,0.36485308,-0.43196473,335
1747532946610,0.24332508,0.31825066,1.1231514,-0.050600063,0.19867182,-0.45806372,336
1747532946620,0.2596769,0.32630453,1.1441404,0.019707393,0.13475595,-0.4926848,337
1747532946630,0.23966423,0.3231318,1.1334019,0.11771172,0.08575379,-0.5305017,338
1747532946640,0.19841854,0.3380193,1.0941086,0.23116238,0.07989483,-0.531567,339
1747532946650,0.18548352,0.37218732,1.0067362,0.32330775,0.22370553,-0.50387007,340
1747532946660,0.19060871,0.35656762,0.9864794,0.3472762,0.32277513,-0.5267733,341
1747532946670,0.18401916,0.3316738,0.97500867,0.36005938,0.41864893,-0.57098174,342
1747532946680,0.18060236,0.31898284,0.96451426,0.34834146,0.49854377,-0.6348976,343
1747532946690,0.19817449,0.33045352,0.97281224,0.30786142,0.5278385,-0.7318367,344
1747532946700,0.16132185,0.4356422,0.99160457,0.18588865,0.4063984,-0.871919,345
1747532946710,0.12398108,0.4720067,0.99453324,0.09640643,0.30040458,-0.86020106,346
1747532946720,0.099819414,0.50446635,0.9906283,0.041012682,0.23169503,-0.82557994,347
1747532946730,0.09200958,0.528628,0.99770606,0.025033714,0.19600865,-0.7701862,348
1747532946740,0.088836834,0.554254,0.9972179,0.05539375,0.19121496,-0.700944,349
1747532946750,0.118855886,0.5874458,0.9689073,0.23595607,0.29028457,-0.54275227,350
1747532946760,0.119099945,0.5994046,0.9401085,0.36751625,0.37816888,-0.47510794,351
1747532946770,0.16205402,0.6050179,0.93010217,0.50333744,0.49161956,-0.41278997,352
1747532946780,0.19548985,0.5994046,0.916435,0.6109292,0.58056915,-0.35313517,353
1747532946790,0.24356914,0.58305275,0.8856837,0.680704,0.644485,-0.2790993,354
1747532946800,0.272856,0.58378494,0.86884385,0.71479243,0.70627034,-0.08681905,355
1747532946810,0.29945824,0.5781716,0.8644508,0.7025419,0.7419567,0.016511599,356
1747532946820,0.3270367,0.5710939,0.86347455,0.69295454,0.7946873,0.13741912,357
1747532946830,0.366574,0.55571836,0.86884385,0.7041398,0.8772453,0.26045716,358
1747532946840,0.42392743,0.511544,0.87982637,0.73290193,0.96566224,0.3536678,359
1747532946850,0.53228885,0.43661842,0.87323684,0.75633776,1.0924287,0.37710363,360
1747532946860,0.55840296,0.43051702,0.8432178,0.67963874,1.0508834,0.32170987,361
1747532946870,0.5532778,0.447601,0.81368685,0.46658584,0.9038769,0.25726137,362
1747532946880,0.52423495,0.46761367,0.7839119,0.21198763,0.73769563,0.23009712,363
1747532946890,0.4881145,0.47542354,0.77781045,-0.08948222,0.551807,0.22050974,364
1747532946900,0.34045986,0.512276145,0.8882463199999999,-0.644485,0.22050974,0.24820662,365
1747532946910,0.32239962,0.52423495,0.93620354,-0.82078624,0.13582122,0.28336033,366
1747532946920,0.30067852,0.54253924,1.0387076,-0.88949585,0.07882957,0.32384038,367
1747532946930,0.28505886,0.55523026,1.1319375,-0.8426242,0.036751624,0.38029942,368
1747532946940,0.27041543,0.5549862,1.1929518,-0.70627034,0.00958738,0.4495416,369
1747532946950,0.24552159,0.53058046,1.194172,-0.27164245,0.024501082,0.6279734,370
1747532946960,0.24723,0.5025139,1.1802609,-0.10013486,0.039414786,0.69029135,371
1747532946970,0.24796216,0.4549227,1.1578076,0.020240024,0.048469532,0.74248934,372
1747532946980,0.24600971,0.4139211,1.1360865,0.082025364,0.04527374,0.77870834,373
1747532946990,0.27297804,0.41001617,1.1147315,0.101200126,0.015978966,0.77924097,374
1747532947000,0.3031191,0.42002252,1.0648217,0.08894958,-0.10652645,0.6466155,375
1747532947010,0.26870704,0.43246946,1.0311419,0.07989483,-0.17257284,0.55553544,376
1747532947020,0.19890666,0.4510178,0.9947773,0.058589544,-0.23009712,0.4958806,377
1747532947030,0.05588911,0.5181335,1.0091767,-0.024501082,-0.32597092,0.52464277,378
1747532947040,0.0078098318,0.5366819,1.0426126,-0.024501082,-0.32597092,0.52464277,379
1747532947050,-0.027090356,0.53058046,1.0762925,-0.0031957934,-0.36591834,0.6114618,380
1747532947060,-0.048323333,0.52472305,1.0970373,0.06231797,-0.3616573,0.6173208,381
1747532947070,-0.035998443,0.50202575,1.104115,0.20879184,-0.33129725,0.5267733,382
1747532947080,-0.027334413,0.47493544,1.087031,0.24181503,-0.36591834,0.44847634,383
1747532947090,-0.044174362,0.4807928,1.0579882,0.22423817,-0.42237735,0.41225734,384
1747532947100,-0.058817793,0.47078642,1.0416363,0.15446335,-0.49002165,0.4181163,385
1747532947110,-0.05686534,0.42978483,1.0133257,0.08948222,-0.5342301,0.40906155,386
1747532947120,-0.09445015,0.3829258,0.97598493,-0.0010652645,-0.4383563,0.3339604,387
1747532947130,-0.094206095,0.37023485,0.95328766,-0.029827405,-0.29134983,0.23648871,388
1747532947140,-0.10518867,0.3704789,0.94279313,-0.06231797,-0.10013486,0.10972224,389
1747532947150,-0.1513155,0.37706846,0.954996,-0.08735169,0.10333065,-0.018109497,390
1747532947160,-0.27480847,0.44662476,1.070191,-0.10759171,0.23169503,-0.10759171,391
1747532947170,-0.30287504,0.48542988,1.1334019,-0.14807177,0.024501082,-0.05006743,392
1747532947180,-0.29921418,0.5025139,1.1927078,-0.15765914,-0.2615224,0.068176925,393
1747532947190,-0.25723633,0.4803047,1.2158931,-0.13741912,-0.58056915,0.19068234,394
1747532947200,-0.22599702,0.45223808,1.1902672,-0.08894958,-0.8580705,0.28975195,395
1747532947210,-0.24698594,0.41929033,1.0997219,-0.028229509,-0.9683254,0.34780884,396
1747532947220,-0.25845662,0.32972133,0.8766537,0.034088463,-0.6199839,0.24554345,397
1747532947230,-0.22624107,0.32044718,0.8090498,0.01917476,-0.30999196,0.11504856,398
1747532947240,-0.21013328,0.32386398,0.7824476,-0.018642128,-0.05219796,-0.012250541,399
1747532947250,-0.19353738,0.3270367,0.7787867,-0.08681905,0.10705908,-0.113983296,400
1747532947260,-0.20671648,0.33142975,0.8449261,-0.22903186,0.1470065,-0.18375812,401
1747532947270,-0.1803583,0.32996538,0.8886124,-0.51452273,-0.27803403,-0.12197278,402
1747532947280,-0.15424417,0.31312546,0.91155386,-0.6359629,-0.5832323,-0.056459017,403
1747532947290,-0.14130914,0.2979939,0.9088692,-0.7036072,-0.8159926,0.0053263223,404
1747532947300,-0.16742326,0.27846932,0.87226063,-0.7052051,-0.8708537,0.03568636,405
1747532947310,-0.24308102,0.21818718,0.82857436,-0.5432849,-0.48149952,-0.06231797,406
1747532947320,-0.25845662,0.18987654,0.8329674,-0.41225734,-0.13528858,-0.19867182,407
1747532947330,-0.294089,0.17547716,0.8351639,-0.21518342,0.26365295,-0.40533313,408
1747532947340,-0.3333822,0.15692882,0.8217408,-0.094808534,0.49161956,-0.54807854,409
1747532947350,-0.32996538,0.14399378,0.8110022,-0.072970614,0.588026,-0.6498113,410
1747532947360,-0.32288775,0.18621568,0.8793382,-0.29348037,0.25086978,-0.7036072,411
1747532947370,-0.32581642,0.20574026,0.8983747,-0.48043427,-0.08362326,-0.6428871,412
1747532947380,-0.3829258,0.20256752,0.90789294,-0.65460503,-0.37710363,-0.5209143,413
1747532947390,-0.4024504,0.15619664,0.92082804,-0.7387609,-0.5336975,-0.39041942,414
1747532947400,-0.35412705,0.01952458,0.9242448,-0.71159667,-0.5704491,-0.3206446,415
1747532947410,-0.33704305,-0.033435844,0.8751893,-0.39468047,-0.23276028,-0.45593318,416
1747532947420,-0.35168648,-0.06858008,0.8261338,-0.25246766,0.02130529,-0.5906891,417
1747532947430,-0.38390204,-0.08639627,0.78684056,-0.15180019,0.26418558,-0.7275756,418
1747532947440,-0.42368335,-0.094206095,0.7924539,-0.0974717,0.41278997,-0.84635264,419
1747532947450,-0.5042223,-0.073461235,0.89080894,-0.04261058,0.32863408,-0.9651296,420
1747532947460,-0.58085626,-0.041001618,0.8917852,-0.017044231,0.15020229,-0.9267801,421
1747532947470,-0.6284474,-0.020012695,0.84517026,0.0010652645,0.006924219,-0.81918836,422
1747532947480,-0.65846646,-0.02831064,0.77414954,0.004261058,-0.056991648,-0.7052051,423
1747532947490,-0.68214005,-0.05418071,0.69971216,-0.017044231,0.1257012,-0.60773337,424
1747532947500,-0.6562699,-0.09030118,0.68360436,-0.14487597,0.2908172,-0.6460829,425
1747532947510,-0.6465077,-0.09396204,0.7609705,-0.2146508,0.4314321,-0.71958613,426
1747532947520,-0.6901939,-0.07370529,0.8571291,-0.2514024,0.515588,-0.77924097,427
1747532947530,-0.75145227,-0.046858992,0.9623177,-0.24820662,0.57098174,-0.8021441,428
1747532947540,-0.780251,-0.00073217176,1.0575,-0.19441076,0.6061355,-0.80374205,429
1747532947550,-0.8402891,0.14106509,1.1678139,0.049534798,0.40906155,-0.65673554,430
1747532947560,-0.862010175,0.17193833,1.16281075,0.049534798,0.40906155,-0.65673554,431
1747532947570,-0.90838104,0.22526483,1.1014304,0.23595607,-0.087884314,-0.091080114,432
1747532947580,-0.85908157,0.21257387,1.0518868,0.25353295,-0.22530343,0.18588865,433
1747532947590,-0.63308454,0.106164895,0.9974619,0.33502567,-0.28655612,0.43196473,434
1747532947600,-0.5205741,0.058573738,0.9615856,0.41172472,-0.23222765,0.42663842,435
1747532947610,-0.44027928,0.045638707,0.9191196,0.49747851,-0.14061491,0.39148468,436
1747532947620,-0.35974038,0.05515694,0.86469483,0.5629923,-0.034088463,0.34621096,437
1747532947630,-0.27187976,0.06833603,0.81149036,0.59601545,0.08042747,0.28655612,438
1747532947640,-0.16229807,0.07370529,0.69312257,0.5773733,0.175236,0.20719394,439
1747532947650,-0.1552204,0.08322352,0.6706693,0.28229508,0.2514024,0.0015978967,440
1747532947660,-0.20281157,0.113974735,0.68994987,0.058056913,0.20559604,-0.05912218,441
1747532947670,-0.24869433,0.1683995,0.7512082,-0.16831179,0.12623383,-0.06231797,442
1747532947680,-0.25723633,0.2111095,0.8334555,-0.35153726,0.03355583,-0.028229509,443
1747532947690,-0.24308102,0.22526483,1.0194272,-0.44581318,-0.046339005,-0.007456851,444
1747532947700,-0.2562601,0.23014598,1.053107,-0.3339604,-0.12197278,-0.012250541,445
1747532947710,-0.28042176,0.2306341,1.0545714,-0.21038973,-0.08948222,-0.011717909,446
1747532947720,-0.2848148,0.21525851,1.0287013,-0.21038973,-0.08948222,-0.011717909,447
1747532947730,-0.28627914,0.20110317,0.98818773,0.007989483,0.08681905,-0.087884314,448
1747532947740,-0.3785328,0.16693515,0.9340071,0.058056913,0.23329292,-0.18695392,449
1747532947750,-0.43539813,0.16010156,0.93986446,0.047404267,0.30626354,-0.1965413,450
1747532947760,-0.4742032,0.18206671,0.9864794,0.043675844,0.3392867,-0.18482338,451
1747532947770,-0.47469133,0.2306341,1.0494461,0.0777643,0.31372038,-0.14274544,452
1747532947780,-0.477620035,0.2506468,1.06921475,0.11371698,0.25965821,-0.107591715,453
1747532947790,-0.5252112,0.27871338,1.0662861,0.34194988,-0.06657903,0.17150758,454
1747532947800,-0.5181335,0.2545517,1.0167425,0.4213121,-0.11504856,0.26205507,455
1747532947810,-0.46712556,0.23112221,0.9757409,0.505468,-0.10439592,0.3110572,456
1747532947820,-0.42148685,0.21623473,0.92278045,0.5949502,-0.07563378,0.3254383,457
1747532947830,-0.36047253,0.15180361,0.76463133,0.6556703,-0.04474111,0.29667616,458
1747532947840,-0.33118567,0.15717287,0.6638357,0.55766594,-0.02876214,0.25992453,459
1747532947850,-0.30433938,0.16888762,0.58085626,0.3653857,-0.007456851,0.21092236,460
1747532947860,-0.34656128,0.16522676,0.52496713,0.08948222,-0.010120012,0.18002969,461
1747532947870,-0.41099238,0.15936938,0.58891016,-0.2790993,-0.066046394,0.1917476,462
1747532947880,-0.38609856,0.23502712,0.88055855,-0.5949502,-0.36005938,0.35420042,463
1747532947890,-0.3414361,0.25040275,1.0001466,-0.52837116,-0.5438175,0.4415521,464
1747532947900,-0.30677997,0.2591888,1.02357605,-0.4388889549999999,-0.593086,0.47058056,465
1747532947910,-0.21672285,0.2962855,1.001611,-0.14114754,-0.64182186,0.5230448,466
1747532947920,-0.17987019,0.2779812,0.9344952,0.008522116,-0.57577544,0.51452273,467
1747532947930,-0.1849954,0.21794313,0.7883049,0.022370555,-0.4032026,0.4910869,468
1747532947940,-0.18109047,0.16620298,0.75486904,-0.12623383,-0.330232,0.46019423,469
1747532947950,-0.18450728,0.119588055,0.7397375,-0.30040458,-0.3536678,0.41225734,470
1747532947960,-0.192073055,0.1520476674999999,0.7878168000000001,-0.40107207,-0.38589205,0.40187101,471
1747532947970,-0.200371,0.21452633,0.9188756,-0.7355651,-0.56459016,0.4245079,472
1747532947980,-0.19671014,0.22135992,0.9994144,-0.69348717,-0.61199445,0.4596616,473
1747532947990,-0.17035197,0.21891935,1.0509106,-0.5539375,-0.6125271,0.4825648,474
1747532948000,-0.0776102,0.22331238,1.0736078,-0.35739622,-0.54807854,0.4564658,475
1747532948010,-0.010738519,0.2362474,1.0601847,-0.13102753,-0.4383563,0.37124467,476
1747532948020,-0.0662615444999999,0.2511349,0.99441128,0.063383235,-0.315318265,0.34141727,477
1747532948030,-0.1786499,0.29213652,0.86884385,0.29188246,-0.0644485,0.4133226,478
1747532948040,-0.1598575,0.28725538,0.8439499,0.2609898,0.054328486,0.5022722,479
1747532948050,-0.143993775,0.272245855,0.8479769,0.23995082,0.0830906255,0.5123922,480
1747532948060,-0.11519502,0.2306341,0.87226063,0.18535602,0.13635385,0.49694586,481
1747532948070,-0.11519502,0.2306341,0.87226063,0.18535602,0.13635385,0.49694586,482
1747532948080,-0.05418071,0.2277054,0.88836837,0.033023197,0.08362326,0.3637878,483
1747532948090,-0.07907455,0.22428861,0.8642067,-0.06977482,-0.0026631611,0.360592,484
1747532948100,-0.06931226,0.22355644,0.85493255,-0.23169503,-0.11664646,0.4016047,485
1747532948110,-0.0014643435,0.19329333,0.86518294,-0.41278997,-0.22903186,0.41065946,486
1747532948120,0.0102504045,0.1666911,0.8742131,-0.44315,-0.20240025,0.3669836,487
1747532948130,0.017816179,0.15180361,0.8834872,-0.44421527,-0.104928546,0.28495824,488
1747532948140,0.024649782,0.17352471,0.8956901,-0.42290998,0.029827405,0.18535602,489
1747532948150,0.03465613,0.2135501,0.90520835,-0.40426785,0.12144015,0.103863284,490
1747532948160,0.004026944485,0.27944556,0.94974875,-0.41545314,0.087884314,0.087884314,491
1747532948170,0.00097622897,0.28798756,0.9525554,-0.46232477,-0.076166406,0.15020229,492
1747532948180,0.011958805,0.29116032,0.9344952,-0.5182512,-0.20080236,0.21092236,493
1747532948190,0.036608588,0.27554062,0.91253006,-0.5699165,-0.30999196,0.24767399,494
1747532948200,0.031483386,0.20574026,0.8932495,-0.6450176,-0.46179214,0.2130529,495
1747532948210,0.016351834,0.19841854,0.8747012,-0.68389976,-0.4511395,0.17150758,496
1747532948220,-0.040269446,0.19426957,0.8754333,-0.71958613,-0.40746364,0.120907515,497
1747532948230,-0.020500809,0.20866893,0.9171671,-0.7451525,-0.34993938,0.07084008,498
1747532948240,0.003782887,0.223068325,0.9384001,-0.7502125,-0.34434674,0.0524642715,499
1747532948250,0.04807928,0.25162303,1.0047837,-0.7190535,-0.41225734,0.026631612,500
1747532948260,0.039781332,0.23942018,0.9894081,-0.5613944,-0.49481535,0.112918034,501
1747532948270,0.07297312,0.20793676,0.9825745,-0.44741106,-0.4745753,0.123038046,502
1747532948280,0.08053889,0.19963883,0.9525554,-0.31798145,-0.43569317,0.098004326,503
1747532948290,0.093473926,0.1986626,0.9698835,-0.16777915,-0.32969934,0.06391586,504
1747532948300,0.13838045,0.16473864,1.0396838,0.26897928,-0.075101145,-0.11558119,505
1747532948310,0.099575356,0.15595257,1.0177187,0.4910869,0.06018744,-0.22050974,506
1747532948320,0.09884319,0.17303659,0.9894081,0.68389976,0.330232,-0.3371562,507
1747532948330,0.15277983,0.1849954,0.9901402,0.7590009,0.51771855,-0.43516052,508
1747532948340,0.28286234,0.12324891,1.1004542,0.8431568,0.7978831,-0.70147663,509
1747532948350,0.33875147,0.12324891,1.1814811,0.9139969,0.8341021,-0.8724516,510
1747532948360,0.36413342,0.15546446,1.2427394,1.009338,0.7957525,-1.026915,511
1747532948370,0.36413342,0.15546446,1.2427394,1.009338,0.7957525,-1.026915,512
1747532948380,0.36413342,0.15546446,1.2427394,1.009338,0.7957525,-1.026915,513
1747532948390,0.38439015,0.31507793,1.26202,1.4945661,0.47031426,-1.2479573,514
1747532948400,0.38805103,0.34582913,1.1927078,1.6293219,0.4878911,-1.3907027,515
1747532948410,0.3612047,0.38658667,1.1287647,1.6884441,0.58056915,-1.5334482,516
1747532948420,0.36340126,0.45785138,1.0684826,1.6740631,0.65513766,-1.6383767,517
1747532948430,0.37243137,0.5462001,0.9952655,1.5515577,0.64075655,-1.6671388,518
1747532948440,0.4417436,0.7426662,0.9171671,1.0290455,0.3834952,-1.5345135,519
1747532948450,0.48494175,0.8295506,0.9479183,0.7584683,0.21997711,-1.3683321,520
1747532948460,0.503490105,0.86030178,0.97647305,0.57098174,0.08841695,-1.1685951,521
1747532948470,0.5693855,0.9374239,1.0697029,0.49321744,0.05965481,-0.964597,522
1747532948480,0.584029,0.9794017,1.1143653,0.5470133,0.13848437,-0.69508505,523
1747532948490,0.53643787,1.0365112,1.0523748,0.7840346,0.44687843,-0.10279802,524
1747532948500,0.49641246,0.98452693,0.96451426,0.8165252,0.5837649,0.23062976,525
1747532948510,0.50641876,0.88836837,0.88055855,0.7073356,0.6716492,0.5091964,526
1747532948520,0.5328989799999999,0.814296985,0.851149675,0.59468389,0.676709225,0.5917544,527
1747532948530,0.5933032,0.6037976,0.7995315,0.18961707,0.6114618,0.72437984,528
1747532948540,0.56426036,0.47176263,0.86518294,-0.48149952,0.2892193,0.63383234,529
1747532948550,0.5271637,0.47835222,0.9396204,-0.850081,0.049002163,0.5853628,530
1747532948560,0.44271985,0.4915313,1.0448091,-1.0604708,-0.13954964,0.58483016,531
1747532948570,0.401230115,0.495680265,1.09923385,-1.170193,-0.2625877,0.6087986,532
1747532948580,0.32508424,0.5105677,1.2542102,-1.1691277,-0.34141725,0.6215818,533
1747532948590,0.3031191,0.54912883,1.3628157,-1.0620687,-0.4394216,0.61838603,534
1747532948600,0.25992095,0.5613316,1.3286476,-0.66365975,-0.5906891,0.65726817,535
1747532948610,0.2323425,0.5520575,1.2549424,-0.44368264,-0.59388494,0.7089335,536
1747532948620,0.20818083,0.53717,1.163909,-0.24394555,-0.535828,0.75633776,537
1747532948630,0.17498904,0.5269196,1.0867869,-0.054328486,-0.41278997,0.8090684,538
1747532948640,0.17132819,0.5015376,1.0287013,0.165116,-0.1933455,0.8591358,539
1747532948650,0.1917069699999999,0.4201445499999999,0.85127168,0.37763625,-0.029827405,0.8330368,540
1747532948660,0.1871919,0.4127008,0.79489446,0.33129725,-0.007456851,0.8111989,541
1747532948670,0.18475133,0.39586085,0.69239044,0.254864525,-0.009321064,0.7965515,542
1747532948680,0.16034561,0.38121742,0.59086263,-0.33609092,0.022370555,0.6876282,543
1747532948690,0.10958171,0.40342662,0.6640798,-0.57577544,0.034088463,0.66365975,544
1747532948700,0.07736614,0.4322254,0.8097819,-0.71585774,0.027696876,0.6844324,545
1747532948710,0.08590815,0.43759465,0.9484064,-0.7238472,-0.020772656,0.7099988,546
1747532948720,0.10470056,0.4170938,1.078489,-0.64235445,-0.099868548,0.6729808500000001,547
1747532948730,0.09176553,0.4053791,1.0694588,-0.49481535,-0.17204021,0.5656554,548
1747532948740,0.0832235249999999,0.4011080999999999,1.05713395,-0.47004795,-0.148604395,0.53529535,549
1747532948750,0.06809197,0.3738957,1.0333383,-0.4133226,-0.06924219,0.46498793,550
1747532948760,0.07809832,0.35046622,1.036023,-0.39521313,-0.019707393,0.41864893,551
1747532948770,0.077122085,0.3328941,1.0638455,-0.36005938,0.070307456,0.33502567,552
1747532948780,0.0959145,0.30458343,1.0711672,-0.34194988,0.096939065,0.283893,553
1747532948790,0.13740423,0.27139166,1.069947,-0.33822146,0.070307456,0.19281286,554
1747532948800,0.141553205,0.26663254,1.0706791999999998,-0.34008567,0.0266316125,0.15526229,555
1747532948810,0.13520771,0.27261195,1.0665302,-0.3536678,-0.14913702,0.07563378,556
1747532948820,0.06711575,0.26968327,1.0682385,-0.33502567,-0.3270362,0.060720075,557
1747532948830,0.0134231495,0.27822527,1.0894716,-0.25406557,-0.3339604,0.03355583,558
1747532948840,-0.030751213,0.31385764,1.1136333,-0.10972224,-0.29134983,-0.0015978967,559
1747532948850,-0.0482013065,0.32715876,1.1142434,-0.0117179099999999,-0.247407665,-0.01837581235,560
1747532948860,-0.14765464,0.36047253,1.0125935,0.515588,0.082025364,-0.056459017,561
1747532948870,-0.13618395,0.35119838,0.9308343,0.60293967,0.21358553,-0.072970614,562
1747532948880,-0.09518232,0.3265486,0.87030816,0.59122175,0.25246766,-0.12996227,563
1747532948890,-0.061014313,0.31776255,0.8156393,0.4676511,0.17896444,-0.18429075,564
1747532948900,-0.0051252022,0.2979939,0.76926845,0.2444782,0.04580637,-0.21092236,565
1747532948910,-0.0051252022,0.2979939,0.76926845,-0.018109497,-0.11984225,-0.21784659,566
1747532948920,0.0200126939,0.30946459,0.821252645,-0.2095907785,-0.269778215,-0.1949434,567
1747532948930,0.04515059,0.32093528,0.87323684,-0.40613208,-0.45886266,-0.15419703,568
1747532948940,0.07248501,0.32239962,0.9408407,-0.24660872,-0.46552056,-0.13262543,569
1747532948950,-0.029286869,0.30507156,0.971836,0.17150758,-0.14168017,-0.17896444,570
1747532948960,-0.055645052,0.29652956,0.93840015,0.35579833,0.06551377,-0.2247708,571
1747532948970,-0.06613952,0.29555333,0.89764255,0.49534798,0.23755397,-0.28975195,572
1747532948980,-0.10994779,0.3223996249999999,0.8236932,0.54568173,0.35420044,-0.3616572799999999,573
1747532948990,-0.12837411,0.33191785,0.8075854,0.53316486,0.36218992,-0.37550572,574
1747532949000,-0.11519502,0.36901456,0.7917217,0.2615224,0.15446335,-0.29614353,575
1747532949010,-0.09859913,0.375116,0.81368685,0.049534798,-0.09374327,-0.20985709,576
1747532949020,-0.076389916,0.35559142,0.8195442,-0.10705908,-0.27164245,-0.13528858,577
1747532949030,-0.06931226,0.31751847,0.8266219,-0.2146508,-0.34301516,-0.091080114,578
1747532949040,-0.07614586,0.22819352,0.8395569,-0.24980451,-0.2977414,-0.1257012,579
1747532949050,-0.14228538,0.22013964,0.83077085,-0.17949706,-0.00479369,-0.3339604,580
1747532949060,-0.17840585,0.2362474,0.83491987,-0.11345066,0.23329292,-0.4213121,581
1747532949070,-0.20793676,0.24308102,0.85175985,-0.030360037,0.4314321,-0.49375007,582
1747532949080,-0.2294138,0.22965786,0.87226063,0.047404267,0.49055427,-0.54435015,583
1747532949090,-0.22721729,0.2181871699999999,0.882022915,0.0657800809999999,0.452737385,-0.557665945,584
1747532949100,-0.23039004,0.19207305,0.8959341,-0.013848438,-0.0053263223,-0.5592638,585
1747532949110,-0.2562601,0.17230442,0.87909424,-0.10439592,-0.22796659,-0.5107943,586
1747532949120,-0.25748038,0.117635585,0.86152214,-0.19707392,-0.37444046,-0.4628574,587
1747532949130,-0.25589402,0.077976286,0.85175979,-0.22983081,-0.4016046949999999,-0.46046056,588
1747532949140,-0.22502078,-0.13252309,0.746083,-0.30040458,-0.39947417,-0.5475459,589
1747532949150,-0.21928544,-0.14875289,0.7209451,-0.34860779,-0.1715075765,-0.78802935,590
1747532949160,-0.2806658,-0.16205402,0.69312257,-0.46179214,0.30466563,-1.2969595,591
1747532949170,-0.43442193,-0.0993313,0.7878168,-0.5203817,0.44208476,-1.4476944,592
1747532949180,-0.5264315,-0.052472305,0.88788027,-0.5209143,0.44741106,-1.4034859,593
1747532949190,-0.59232694,-0.110801995,1.0086887,-0.4676511,0.37550572,-1.315069,594
1747532949200,-0.6518769,-0.18206671,1.0387076,-0.18855181,0.2625877,-1.3017532,595
1747532949210,-0.707522,-0.22062775,1.0216236,-0.051665325,0.34194988,-1.3821807,596
1747532949220,-0.7319277,-0.20842488,0.9952655,0.037284255,0.5086638,-1.4993597,597
1747532949230,-0.7641432,-0.1432616,0.9767171,0.07350325,0.6578008,-1.6197346,598
1747532949240,-0.8102701,-0.049543623,0.9691513,0.08362326,0.76272935,-1.675661,599
1747532949250,-0.9247329,0.09542638,1.023088,0.1571265,0.74035877,-1.4519554,600
1747532949260,-0.9247329,0.09542638,1.023088,0.20213393,0.67404607,-1.3622069,601
1747532949270,-0.9061846,0.1683995,1.039928,0.30466564,0.513457465,-1.1837751,602
1747532949280,-0.93327487,0.20159128,0.97500867,0.44528055,0.22849922,-0.8974853,603
1747532949290,-0.9791577,0.25943285,0.8095379,0.39947417,0.054328486,-0.40959418,604
1747532949300,-0.9664667,0.27505252,0.77024466,0.29827404,0.07669904,-0.16618125,605
1747532949310,-0.9242448,0.24723,0.788549,0.20080236,0.13102753,0.0314253,606
1747532949320,-0.8546885,0.19963883,0.844194,0.13156016,0.19867182,0.19441076,607
1747532949330,-0.74632707,0.154732295,0.90874717,0.13795175,0.21198763,0.29933932,608
1747532949340,-0.71215904,0.136428,0.91497064,0.221575,0.14221281,0.56672066,609
1747532949350,-0.64992446,0.108117364,0.91155386,0.25246766,0.10865697,0.7030745,610
1747532949360,-0.55718267,0.07907455,0.90325594,0.2545982,0.0825579935,0.7488809000000001,611
1747532949370,-0.4756676,0.05027579,0.89300543,0.21837921,-0.04474111,0.8404937,612
1747532949380,-0.41562948,0.033191785,0.85566473,0.123038046,-0.18588865,0.86233157,613
1747532949390,-0.32532832,-0.0061014313,0.77756643,-0.31691617,-0.43782368,0.8831042,614
1747532949400,-0.29164842,-0.022453265,0.76463133,-0.5763081,-0.5225122,0.8383631,615
1747532949410,-0.26480213,0.00048811449,0.77610207,-0.82611257,-0.5422196,0.773382,616
1747532949420,-0.24137263,0.0302631,0.82857436,-1.0258497,-0.54435015,0.7030745,617
1747532949430,-0.2294138,0.06028214,0.90081537,-1.1318434,-0.5278385,0.64555025,618
1747532949440,-0.22965786,0.093717985,1.0089327,-1.0663297,-0.4607269,0.5832323,619
1747532949450,-0.21965154,0.10323621,1.0213796,-0.94595486,-0.3392867,0.56245965,620
1747532949460,-0.21623473,0.10079564,1.0460293,-0.79894835,-0.17896444,0.5107943,621
1747532949470,-0.19817449,0.107873306,1.1368186,-0.38615838,0.22423817,0.27803403,622
1747532949480,-0.22526483,0.12886222,1.1785524,-0.17417073,0.30945933,0.20772657,623
1747532949490,-0.277005,0.15204766,1.1983211,0.027164243,0.30999196,0.21411815,624
1747532949500,-0.32337585,0.17206036,1.2002735,0.19813919,0.2545982,0.2796319,625
1747532949510,-0.34070393,0.17889395,1.180993,0.33182988,0.18695392,0.35633096,626
1747532949520,-0.17620933,0.20451997,1.048958,0.51665324,0.13582122,0.3669836,627
1747532949530,-0.12837411,0.21501444,0.96768695,0.53156695,0.1163801425,0.33742251,628
1747532949540,-0.1330112,0.20549619,0.88788027,0.5086638,0.046871636,0.26844665,629
1747532949550,-0.141797265,0.197320275,0.842607635,0.43489423,0.032756882,0.261522425,630
1747532949560,-0.15155955,0.18816814,0.7311955,0.17736652,0.027164243,0.25033715,631
1747532949570,-0.1483868,0.16034561,0.7133793,-0.0197074,0.0617853365,0.228499225,632
1747532949580,-0.14228538,0.13886857,0.76121455,-0.36112466,0.14487597,0.14327806,633
1747532949590,-0.15778301,0.140699,0.801728075,-0.40426786,0.156061245,0.11424961,634
1747532949600,-0.208913,0.17596528,0.94865054,-0.46339005,0.16138756,0.054328486,635
1747532949610,-0.20964517,0.2979939,1.1121689,-0.42077947,0.11611383,0.06018744,636
1747532949620,-0.21049937,0.31776254,1.12705635,-0.272974025,0.0095873824999999,0.136087535,637
1747532949630,-0.19890666,0.3441207,1.1192465,0.046339005,-0.16884442,0.31052458,638
1747532949640,-0.18792409,0.3162982,1.0623811,0.1949434,-0.2082592,0.38722363,639
1747532949650,-0.17035197,0.27090356,0.9886759,0.294013,-0.18535602,0.42663842,640
1747532949660,-0.11690342,0.17352471,0.86225426,0.30466563,-0.046339005,0.37923414,641
1747532949670,-0.09664667,0.13520771,0.8390688,0.23755397,0.034088463,0.29880667,642
1747532949680,-0.08956901,0.12202863,0.82857436,0.14594123,0.09534117,0.20559604,643
1747532949690,-0.114462845,0.12886222,0.82076454,0.046339005,0.1257012,0.12516858,644
1747532949700,-0.15229172,0.15546446,0.827354,-0.07137272,0.16192019,0.058589544,645
1747532949710,-0.178649905,0.22282427,0.87518925,-0.12809805,0.130228575,0.083889577,646
1747532949720,-0.19036464,0.3248402,0.97085977,-0.19707392,-0.029827405,0.19707392,647
1747532949730,-0.17816179,0.32044718,1.0099089,-0.17576863,-0.19600865,0.28442562,648
1747532949740,-0.1718163,0.28213018,1.0313859,-0.13156016,-0.34408042,0.34301516,649
1747532949750,-0.1803583,0.25162303,1.0118613,-0.08841695,-0.46978164,0.38029942,650
1747532949760,-0.18304294,0.21525851,0.9520673,-0.0479369,-0.5225122,0.45486793,651
1747532949770,-0.16815543,0.19036464,0.93473923,-0.01438107,-0.46498793,0.4612595,652
1747532949780,-0.1461903,0.16620298,0.91570276,0.033023197,-0.38456047,0.4261058,653
1747532949790,-0.12373702,0.16522676,0.88934463,0.082025364,-0.27483824,0.3637878,654
1747532949800,-0.13349932,0.20159128,0.82759815,0.11558119,-0.13582122,0.29561087,655
1747532949810,-0.13911264,0.21940747,0.8236932,0.08628642,0.12410331,0.17576863,656
1747532949820,-0.17230442,0.24527754,0.8407772,0.012250541,0.11771172,0.16085494,657
1747532949830,-0.20744865,0.26406994,0.8747012,-0.082558,0.017044231,0.2034655,658
1747532949840,-0.22453266,0.25723633,0.9178993,-0.18056233,-0.15180019,0.2625877,659
1747532949850,-0.22672918,0.23039004,0.98403883,-0.31798145,-0.5028048,0.36218992,660
1747532949860,-0.2438132,0.21037734,0.9867234,-0.3291667,-0.60720074,0.39947417,661
1747532949870,-0.25259924,0.19548985,0.97208,-0.3158509,-0.6247776,0.43196473,662
1747532949880,-0.25357547,0.19158493,0.9440134,-0.2790993,-0.57098174,0.45912898,663
1747532949890,-0.1952458,0.16547081,0.8917852,-0.22423817,-0.45007423,0.4612595,664
1747532949900,-0.16815543,0.15204766,0.88958865,-0.07669904,-0.15978967,0.37923414,665
1747532949910,-0.16742326,0.13496366,0.8859278,-0.012250541,-0.123038046,0.32650355,666
1747532949920,-0.1615659,0.12544543,0.8717725,0.022903185,-0.12676647,0.29507825,667
1747532949930,-0.17718557,0.10689708,0.8542004,-0.041012682,-0.18908444,0.29134983,668
1747532949940,-0.16571487,0.10201593,0.869576,-0.15978967,-0.2545982,0.30786142,669
1747532949950,-0.15692882,0.09518232,0.90447617,-0.41918156,-0.37230992,0.31851408,670
1747532949960,-0.1295944,0.08078295,0.9613415,-0.46711847,-0.4250405,0.28176245,671
1747532949970,-0.071264714,0.05344854,1.0182068,-0.44794372,-0.4857606,0.20879184,672
1747532949980,-0.008542004,0.04368625,1.0550594,-0.37444046,-0.5613944,0.099069595,673
1747532949990,-0.010494461,0.08590815,0.9706156,-0.2647182,-0.60560286,0.0005326322,674
1747532950000,-0.04759116,0.10079564,0.9027678,-0.04261058,-0.5656554,-0.08362326,675
1747532950010,-0.061014313,0.13398743,0.8390688,0.00958738,-0.44687843,-0.06711166,676
1747532950020,-0.0491775365,0.139844805,0.818079875,0.015446335,-0.367249915,-0.064182183,677
1747532950030,0.017572122,0.15863721,0.76926845,-0.002130529,-0.15233281,-0.096939065,678
1747532950040,0.10665302,0.19841854,0.7648754,-0.05965481,-0.03888215,-0.14753912,679
1747532950050,0.1199541399999999,0.209767205,0.78012898,-0.135288585,0.03036004,-0.18402443,680
1747532950060,0.13764828,0.23405088,0.81295466,-0.27537087,0.123038046,-0.22903186,681
1747532950070,0.12764193,0.24527754,0.8232051,-0.3334278,0.12623383,-0.21784659,682
1747532950080,0.12642166,0.26529023,0.85175985,-0.38456047,0.15180019,-0.18056233,683
1747532950090,0.182920915,0.221115875,0.9839168,-0.32730251,0.28842035,-0.20532972,684
1747532950100,0.18865626,0.19963883,1.0025872,-0.2972088,0.31372038,-0.23702134,685
1747532950110,0.20354374,0.18060236,1.0311419,-0.22530343,0.37390783,-0.34088463,686
1747532950120,0.25894472,0.20159128,1.0379754,-0.15286545,0.4426174,-0.47351006,687
1747532950130,0.25259924,0.22746135,1.0164984,-0.135554905,0.4561995199999999,-0.53289856,688
1747532950140,0.20671648,0.25015867,0.9967298,-0.1272991,0.4857606,-0.6540724,689
1747532950150,0.13862452,0.27944556,0.9432813,-0.26631612,0.65460503,-0.6460829,690
1747532950160,0.16522676,0.3018988,0.9752528,-0.2892193,0.7664578,-0.6631271,691
1747532950170,0.17852788,0.31227125,1.00832255,-0.262321375,0.8077368,-0.68469872,692
1747532950180,0.21135357,0.35705575,1.1190025,-0.10173275,0.86659265,-0.7281082,693
1747532950190,0.12715383,0.38805103,1.129985,0.25406557,0.8005462,-0.67005134,694
1747532950200,0.12520137,0.3939084,1.1104605,0.3888215,0.82078624,-0.6279734,695
1747532950210,0.16254212,0.39024755,1.1104605,0.48842376,0.89322424,-0.60933125,696
1747532950220,0.19036465,0.389759435,1.1241277,0.5326322299999999,0.912398995,-0.6122607250000001,697
1747532950230,0.26870704,0.3829258,1.1526824,0.6924219,0.9060074,-0.63223445,698
1747532950240,0.3372871,0.4002539,1.1024066,0.79255676,0.78776306,-0.57577544,699
1747532950250,0.37926495,0.43198135,1.0599406,0.76592517,0.7653925,-0.50387007,700
1747532950260,0.43832684,0.4893348,1.0448091,0.7041398,0.75580513,-0.40906155,701
1747532950270,0.4879924949999999,0.5170353,1.0535951,0.67058398,0.7520767150000001,-0.357928855,702
1747532950280,0.7055695,0.6801876,1.0931324,0.5917544,0.71532506,-0.1949434,703
1747532950290,0.7175283,0.74169,1.0709232,0.5496765,0.65034395,0.11717909,704
1747532950300,0.7058135,0.77073276,1.0592085,0.53316486,0.690824,0.3355583,705
1747532950310,0.70312893,0.74364245,1.0616491,0.5113269,0.71798825,0.5837649,706
1747532950320,0.72704655,0.6216138,1.0694588,0.39787626,0.45859635,0.74302197,707
1747532950330,0.7158199,0.5769514,1.0535952,0.27217507,0.221575,0.7462177,708
1747532950340,0.673598,0.53350914,1.036023,0.08948222,-0.03888215,0.75580513,709
1747532950350,0.5972081,0.47273886,1.0287013,-0.13262543,-0.26684874,0.7813715,710
1747532950360,0.5271637,0.43515408,1.0545714,-0.36218992,-0.43303,0.81066626,711
1747532950370,0.49055508,0.41684976,1.1739154,-0.62584287,-0.5613944,0.809601,712
1747532950380,0.48054874,0.42075467,1.2432276,-0.5752428,-0.5299691,0.7803062,713
1747532950390,0.464685,0.4085518,1.2827649,-0.4394216,-0.4607269,0.72917354,714
1747532950400,0.41684976,0.3756041,1.2827649,-0.26738137,-0.40586576,0.6689861,715
1747532950410,0.34949,0.31434575,1.2551864,-0.10865697,-0.36591834,0.6199839,716
1747532950420,0.22099385,0.255527945,1.1816032,-0.022104235,-0.3587278,0.591221775,717
1747532950430,-0.0370967,0.1666911,1.0282133,0.058056913,-0.2972088,0.5299691,718
1747532950440,-0.1300825,0.16205402,0.9515792,-0.006924219,-0.13209279,0.47670585,719
1747532950450,-0.17450093,0.16888762,0.933519,-0.13475595,0.04474111,0.36645097,720
1747532950460,-0.2550398,0.3121492,0.9874556,-0.376571,0.22743396,0.17789917,721
1747532950470,-0.3141017,0.39317623,1.0689708,-0.8048073,0.4181163,0.05273059,722
1747532950480,-0.37755656,0.44271985,1.202226,-0.9044095,0.46552056,0.12676647,723
1747532950490,-0.40147418,0.46322066,1.3459758,-0.85753787,0.4857606,0.24554345,724
1747532950500,-0.33704305,0.456143,1.4614148,-0.6764429,0.46339005,0.35153726,725
1747532950510,-0.058085624,0.34265637,1.5270662,-0.17257284,0.16564862,0.36804888,726
1747532950520,0.017328065,0.3141017,1.4433545,-0.018642128,-0.08735169,0.3153183,727
1747532950530,0.051007964,0.3248402,1.3059504,0.015446335,-0.30200246,0.27377295,728
1747532950540,0.056499252,0.32593845,1.23480765,-0.0380832024999999,-0.36245622,0.26205505,729
1747532950550,0.0641870549999999,0.289207825,1.11753815,-0.161653885,-0.4133226,0.240749765,730
1747532950560,0.105676785,0.20793676,1.0992339,-0.40266997,-0.21092236,0.09960223,731
1747532950570,0.11275445,0.18694785,1.1251038,-0.3797668,-0.12357068,0.011717909,732
1747532950580,0.114462845,0.18426323,1.1392592,-0.30306774,-0.055926383,-0.06657903,733
1747532950590,0.14082102,0.18450728,1.1297411,-0.2082592,-0.030360037,-0.14114754,734
1747532950600,0.13057062,0.23917611,1.0970373,-0.10013486,-0.18269286,-0.22583607,735
1747532950610,0.12471326,0.2928687,1.1099724,-0.06764429,-0.350472,-0.15659387,736
1747532950620,0.10714114,0.32337585,1.1221752,-0.010652645,-0.46924898,-0.07403588,737
1747532950630,0.071264714,0.31263736,1.1287647,0.11132014,-0.5502091,-0.0053263223,738
1747532950640,0.056133166,0.27993366,1.1258361,0.29827404,-0.56245965,0.039414786,739
1747532950650,0.013911263,0.20793676,1.0287013,0.7350325,-0.41705105,0.096939065,740
1747532950660,0.011714748,0.17254847,0.93522733,0.902279,-0.2647182,0.105993815,741
1747532950670,0.0268462965,0.149729115,0.89373764,0.9986854,-0.072970614,0.0479369,742
1747532950680,0.09469421,0.084687866,0.78757274,1.0199907,0.08575379,-0.0958738,743
1747532950690,0.114462845,0.077122085,0.74535084,0.9337043,0.15126756,-0.3073288,744
1747532950700,0.044418417,0.122760795,0.68336034,0.5704491,0.012250541,-0.51292485,745
1747532950710,-0.0039049159,0.18182266,0.6889736,0.34088463,-0.12197278,-0.5209143,746
1747532950720,-0.007565775,0.2443013,0.7170402,0.13795175,-0.22530343,-0.48735848,747
1747532950730,-0.007565775,0.29701766,0.7670719,0.007456851,-0.26897928,-0.43356264,748
1747532950740,-0.0046370877,0.32581642,0.852492,-0.017576864,-0.2657835,-0.37923414,749
1747532950750,-0.011714748,0.3065359,0.96256185,0.23861924,-0.15233281,-0.30146983,750
1747532950760,-0.03807293,0.25870067,0.95011485,0.44421527,-0.054328486,-0.27803403,751
1747532950770,-0.0396593014999999,0.22221412,0.931078405,0.56965016,0.0524642769999999,-0.288154035,752
1747532950780,-0.026846299,0.1300825,0.8529801,0.85487473,0.3392867,-0.38402784,753
1747532950790,-0.08078295,0.11983211,0.707766,0.94808537,0.48735848,-0.50813115,754
1747532950800,-0.12129646,0.16595893,0.66798466,0.87032104,0.7105314,-0.7281082,755
1747532950810,-0.1581491,0.21306199,0.66749656,0.7174556,0.7387609,-0.7771104,756
1747532950820,-0.1581491,0.21306199,0.66749656,0.7174556,0.7387609,-0.7771104,757
1747532950830,-0.22868164,0.21086545,0.73485637,0.33981937,0.53263223,-0.7765778,758
1747532950840,-0.3116611,0.2135501,0.76121455,-0.022370555,0.17949706,-0.6780408,759
1747532950850,-0.34949,0.24234885,0.7831797,-0.15393071,0.09161274,-0.61625546,760
1747532950860,-0.36266908,0.25601605,0.82100856,-0.25513083,0.07563378,-0.5587312,761
1747532950870,-0.35168648,0.2362474,0.8705522,-0.30306774,0.10226539,-0.5336975,762
1747532950880,-0.3248402,0.18304294,0.9266854,-0.2806972,0.111852765,-0.56938386,763
1747532950890,-0.33265,0.08615221,0.9130182,-0.14274544,0.12197278,-0.70627034,764
1747532950900,-0.32972133,0.07468152,0.8546885,-0.105993815,0.1603223,-0.7707188,765
1747532950910,-0.30970863,0.10689708,0.7905014,-0.1107875,0.26844665,-0.8175905,766
1747532950920,-0.2757847,0.15180361,0.74583894,-0.16990969,0.40426785,-0.83516735,767
1747532950930,-0.25650415,0.18206671,0.7311955,-0.23169503,0.46711847,-0.81439465,768
1747532950940,-0.2550398,0.12398108,0.8407772,-0.33609092,0.32384038,-0.7137272,769
1747532950950,-0.2550398,0.12398108,0.8407772,-0.33609092,0.32384038,-0.7137272,770
1747532950960,-0.3380193,0.067847915,0.8324793,-0.3834952,-0.017576864,-0.67963874,771
1747532950970,-0.38048524,0.044418417,0.7695125,-0.45699844,-0.1304949,-0.68176925,772
1747532950980,-0.4288086,0.02318544,0.707766,-0.5651228,-0.15925704,-0.6982809,773
1747532950990,-0.5361938,-0.009030119,0.64821607,-0.88203895,-0.10918961,-0.7073356,774
1747532951000,-0.5959878,-0.033923957,0.7145996,-1.0146644,-0.123038046,-0.68869346,775
1747532951010,-0.6535853,-0.05296042,0.7770783,-1.1132014,-0.1438107,-0.64821345,776
1747532951020,-0.707522,-0.05735345,0.844194,-1.1638014,-0.15659387,-0.58962387,777
1747532951030,-0.7316837,-0.06687169,0.9237567,-1.1377025,-0.15606125,-0.5320996,778
1747532951040,-0.7048373,-0.14204131,1.1185144,-0.7845673,-0.1486044,-0.6109292,779
1747532951050,-0.74291027,-0.12764193,1.1312053,-0.49481535,-0.20559604,-0.6737798,780
1747532951060,-0.81539524,-0.08590815,1.074584,-0.22423817,-0.30626354,-0.6487461,781
1747532951070,-0.8849516,-0.039537273,0.97208,-0.049002163,-0.376571,-0.5182512,782
1747532951080,-0.9405966,-0.0061014313,0.8912971,0.05273059,-0.39787626,-0.26738137,783
1747532951090,-0.8439499,0.08297946,0.94254905,0.3818973,-0.2428803,0.396811,784
1747532951100,-0.6496804,-0.13911264,0.93620354,0.4415521,-0.22050974,0.05273059,785
1747532951110,-0.47859627,-0.3648656,0.9520673,0.43249738,-0.360592,-0.43995422,786
1747532951120,-0.9957536,0.08005078,0.797335,0.14753912,-0.084155895,-0.30626354,787
1747532951130,-0.99917036,0.15741692,0.8751893,0.023435818,-0.12623383,0.16564862,788
1747532951140,-0.801484,0.13203497,1.0077124,-0.012250541,-0.17150758,0.51718587,789
1747532951150,-0.7294871,0.127886,1.1185144,0.06178534,-0.350472,0.7765778,790
1747532951160,-0.74413055,0.15839316,1.0862988,0.15126756,-0.42663842,0.9805759,791
1747532951170,-0.6452874,0.058573738,1.445063,0.62584287,-0.8900285,1.3523532,792
1747532951180,-0.57402265,-0.0039049159,1.615903,0.95234644,-1.4263891,1.4130733,793
1747532951190,-0.5349735,0.0605262,1.4145558,1.2420983,-1.6479641,1.4487597,794
1747532951200,-0.5533998,0.08627424,1.30607235,1.3209279,-1.6130767,1.47672285,795
1747532951210,-0.40513504,0.09274176,0.72777873,1.459945,-1.267132,1.5707325,796
1747532951220,-0.18304294,-0.0078098318,0.6914142,1.38058275,-0.7408914,1.35981015,797
1747532951230,-0.07248501,0.020744866,0.56816524,1.0237192,0.012250541,0.8586032,798
1747532951240,-0.054668825,0.082003236,0.5008055,0.6098639,0.16990969,0.66632295,799
1747532951250,-0.045638707,0.13520771,0.48957884,0.12942964,0.26684874,0.5470133,800
1747532951260,-0.00097622897,0.17157225,0.70361704,-0.6785734,0.20186761,0.3190467,801
1747532951270,-0.012446919,0.19646609,0.8429737,-0.90707266,0.09321064,0.2146508,802
1747532951280,-0.041001618,0.21525851,0.93205464,-1.0125339,0.029827405,0.14807177,803
1747532951290,-0.057841565,0.2208718,0.98574716,-1.0072075,0.03781689,0.11717909,804
1747532951300,-0.06296677,0.20915705,1.0072243,-0.9171927,0.12783173,0.08042747,805
1747532951310,-0.07834238,0.16522676,1.0211354,-0.59867865,0.51931643,-0.09267801,806
1747532951320,-0.12349297,0.1696198,1.0196712,-0.46498793,0.68816084,-0.1486044,807
1747532951330,-0.16303024,0.18255483,1.0621371,-0.34780884,0.7590009,-0.165116,808
1747532951340,-0.18426323,0.2020794,1.1102165,-0.23808661,0.73290193,-0.12996227,809
1747532951350,-0.18548352,0.19915071,1.1412116,-0.13635385,0.6103965,-0.060720075,810
1747532951360,-0.15668476,0.14399378,1.134134,0.04474111,0.20879184,0.023435818,811
1747532951370,-0.15143753,0.1316688879999999,1.10789785,0.060453758,0.1041296039,0.023435818,812
1747532951380,-0.13960074,0.09176553,1.0003906,0.02876214,-0.19068234,-0.020772656,813
1747532951390,-0.1342315,0.0741934,0.9005712,-0.080960095,-0.2695119,-0.082025364,814
1747532951400,-0.1342315,0.0741934,0.9005712,-0.080960095,-0.2695119,-0.082025364,815
1747532951410,-0.15326796,0.064919226,0.848831075,-0.2703108475,-0.1592570315,-0.183758117,816
1747532951420,-0.2020794,0.0615024285,0.803802525,-0.491619525,0.0223705535,-0.297741415,817
1747532951430,-0.24186075,0.0707766,0.84931916,-0.55074173,0.23116238,-0.3254383,818
1747532951440,-0.25870067,0.06028214,0.8942258,-0.53103435,0.3520699,-0.35100463,819
1747532951450,-0.3116611,0.04368625,0.9850151,-0.3616573,0.52144694,-0.4213121,820
1747532951460,-0.32923323,0.061258372,1.0389518,-0.2545982,0.5022722,-0.4564658,821
1747532951470,-0.34460884,0.09640261,1.0665302,-0.207193935,0.4476774,-0.46525424,822
1747532951480,-0.40513504,0.14252943,1.0553036,-0.10066749,0.20186761,-0.42557314,823
1747532951490,-0.46932206,0.17669745,1.001855,-0.104928546,0.021837922,-0.29614353,824
1747532951500,-0.46102414,0.21184167,0.90740484,-0.23542345,-0.09161274,0.029294772,825
1747532951510,-0.4170938,0.18597162,0.9030118,-0.28495824,-0.08522116,0.10972224,826
1747532951520,-0.402328365,0.169375725,0.9063066,-0.290550885,-0.072437985,0.128098055,827
1747532951530,-0.37584817,0.12764193,0.9196077,-0.2806972,0.004261058,0.16085494,828
1747532951540,-0.34778157,0.119099945,0.94035256,-0.18429075,0.23329292,0.175236,829
1747532951550,-0.3385074,0.122760795,0.9615856,-0.10972224,0.3291667,0.18535602,830
1747532951560,-0.33704305,0.1210524,0.9984382,-0.00958738,0.38935417,0.20719394,831
1747532951570,-0.33265,0.11519502,1.0282133,0.055127435,0.400805755,0.21678132,832
1747532951580,-0.324840185,0.12690977,1.03931785,0.1898833899999999,0.40533313,0.238086605,833
1747532951590,-0.27724904,0.21037734,1.0426126,0.46552056,0.15606125,0.3637878,834
1747532951600,-0.2801777,0.2203837,0.9925808,0.48522797,-0.05006743,0.46498793,835
1747532951610,-0.27724904,0.21086545,0.9237567,0.41971418,-0.27537087,0.6040049,836
1747532951620,-0.24723,0.17254847,0.8573731,0.32756883,-0.39148468,0.6695187,837
1747532951630,-0.21428227,0.13569583,0.79831123,0.22050974,-0.43089947,0.6823019,838
1747532951640,-0.191829,0.11177822,0.7614586,0.11132014,-0.38402784,0.6535397,839
1747532951650,-0.17572121,0.07980672,0.75950617,-0.0644485,-0.05752428,0.53316486,840
1747532951660,-0.16571487,0.10128376,0.8175918,-0.092145376,0.12676647,0.47297743,841
1747532951670,-0.13862452,0.13496366,0.8876362,-0.07243799,0.2695119,0.43729106,842
1747532951680,-0.11324256,0.16400647,0.9488945,-0.01438107,0.34887412,0.40959418,843
1747532951690,-0.09127741,0.2135501,1.0418804,0.13475595,0.1933455,0.39095205,844
1747532951700,-0.08688438,0.2306341,1.0355349,0.16245283,0.04314321,0.40107206,845
1747532951710,-0.09469421,0.22624107,1.0074683,0.15925704,-0.12357068,0.4282363,846
1747532951720,-0.12129646,0.20085911,0.9654905,0.12942964,-0.25672874,0.46498793,847
1747532951730,-0.15058333,0.15766099,0.92448884,0.08575379,-0.3206446,0.48203218,848
1747532951740,-0.16425052,0.12739788,0.8922733,-0.0042610577,-0.26844664,0.38615838,849
1747532951750,-0.16034561,0.14277348,0.88226694,-0.012250541,-0.24501082,0.36112466,850
1747532951760,-0.17230442,0.1552204,0.87079626,-0.020772656,-0.20612867,0.3222425,851
1747532951770,-0.186825825,0.157172865,0.86396268,-0.025832663,-0.1850897,0.31318775,852
1747532951780,-0.2072046,0.16107778,0.8395569,-0.056991648,-0.11717909,0.30626354,853
1747532951790,-0.21452633,0.2111095,0.86249834,-0.12516858,-0.10918961,0.35473305,854
1747532951800,-0.21184167,0.21452633,0.88983274,-0.15606125,-0.14647387,0.42290998,855
1747532951810,-0.18011424,0.17840585,0.9447456,-0.16138756,-0.21252026,0.48735848,856
1747532951820,-0.15058332,0.15009521,0.9657345,-0.147539125,-0.258592945,0.49534796,857
1747532951830,-0.088348724,0.077122085,0.99136055,-0.082558,-0.41918156,0.4660532,858
1747532951840,-0.064919226,0.0622346,0.90789294,-0.01438107,-0.5075985,0.32810146,859
1747532951850,-0.07297312,0.07736614,0.8432178,-0.0479369,-0.4527374,0.27483824,860
1747532951860,-0.06980037,0.07809832,0.8266219,-0.10226539,-0.36751625,0.221575,861
1747532951870,-0.0656513985,0.10384636,0.8275981299999999,-0.143544385,-0.294012995,0.17736653,862
1747532951880,-0.084931925,0.15326795,0.8412653,-0.20985709,-0.18801917,0.13315806,863
1747532951890,-0.13105874,0.14741059,0.87909424,-0.22796659,-0.16990969,0.16138756,864
1747532951900,-0.13496366,0.13179092,0.9413288,-0.21997711,-0.12836437,0.19228023,865
1747532951910,-0.097134784,0.119588055,1.00576,-0.16618125,-0.07350325,0.18801917,866
1747532951920,-0.088348724,0.08712844,1.0704352,-0.03941478,-0.085487475,0.131027525,867
1747532951930,-0.06272271,0.08127106,1.0662861,0.18588865,-0.16937704,0.020772656,868
1747532951940,-0.037828874,0.10323621,1.0116173,0.23169503,-0.27057716,-0.013315806,869
1747532951950,-0.04344219,0.12886222,0.94157284,0.22264028,-0.38136467,-0.022903185,870
1747532951960,-0.07492557,0.13057062,0.87982637,0.16192019,-0.46978164,-0.02609898,871
1747532951970,-0.0676038549999999,0.125445425,0.83821461,0.0844222045,-0.4543353049999999,-0.065513763,872
1747532951980,0.011958805,0.1313028,0.79562664,-0.070307456,-0.3552657,-0.18322548,873
1747532951990,0.04905551,0.16351835,0.7963588,-0.1486044,-0.25246766,-0.2593919,874
1747532952000,0.04612682,0.1786499,0.8049008,-0.2247708,-0.120907515,-0.33076462,875
1747532952010,0.04148973,0.2518671,0.9098454,-0.2593919,0.046339005,-0.3158509,876
1747532952020,0.060770255,0.26724269,0.94413545,-0.22503712,0.0649811325,-0.30386668,877
1747532952030,0.08590815,0.28261828,1.0318741,-0.05486112,0.04527374,-0.29454562,878
1747532952040,0.119099945,0.27505252,1.0448091,0.113983296,-0.03568636,-0.32330775,879
1747532952050,0.09884319,0.2801777,0.99111646,0.24980451,-0.15020229,-0.35899413,880
1747532952060,-0.058573738,0.30751213,0.80246025,0.2695119,-0.2428803,-0.35899413,881
1747532952070,-0.061746486,0.30555966,0.75340474,0.1486044,-0.04314321,-0.3254383,882
1747532952080,0.022453265,0.2848148,0.80441266,0.07137272,0.15073492,-0.34887412,883
1747532952090,0.06760386,0.25748038,0.86298645,0.043675844,0.24873926,-0.41278997,884
1747532952100,0.19500175,0.22258021,0.93303084,0.018109497,0.23009712,-0.58749336,885
1747532952110,0.20134723,0.23819989,0.9108216,-0.049534798,0.16085494,-0.65247446,886
1747532952120,0.15912533,0.27846932,0.9442575,-0.13102753,0.06764429,-0.6514092,887
1747532952130,0.13716017,0.31727442,0.9930689,-0.18482338,-0.012250541,-0.58429754,888
1747532952140,0.139478715,0.31654225,1.01332565,-0.177632845,-0.0295610885,-0.54701327,889
1747532952150,0.15009521,0.27480847,1.0450531,-0.072970614,-0.08948222,-0.5161206,890
1747532952160,0.12154051,0.27334413,0.93278676,0.049002163,0.07243799,-0.64714813,891
1747532952170,0.06809197,0.3104408,0.8593256,0.019707393,0.19920446,-0.6785734,892
1747532952180,0.07297312,0.34070393,0.8422416,-0.053795855,0.36112466,-0.680704,893
1747532952190,0.095182327,0.3510763449999999,0.8546885,-0.0913464275,0.4242415699999999,-0.6772419000000001,894
1747532952200,0.163396327,0.370967,0.97208,-0.148604395,0.527305915,-0.6378271,895
1747532952210,0.30897647,0.43027294,1.1905112,-0.06977482,0.535828,-0.54435015,896
1747532952220,0.4127008,0.48835856,1.25299,0.1123854,0.48469532,-0.5001417,897
1747532952230,0.4825012,0.54839665,1.2232149,0.37923414,0.4495416,-0.44474792,898
1747532952240,0.5400987,0.6123396,1.1560992,0.5390238,0.53263223,-0.36591834,899
1747532952250,0.6770148,0.750232,1.0770246,0.6764429,0.88470215,-0.12783173,900
1747532952260,0.7585299,0.79391825,1.0853225,0.66152924,1.0418286,-0.019707393,901
1747532952270,0.7946504,0.8190561,1.1050912,0.5944176,1.0855045,0.061252706,902
1747532952280,0.7895252,0.8390688,1.1348661,0.48363006,1.0343717,0.16245283,903
1747532952290,0.73583263,0.8454143,1.185142,0.3387541,0.8857674,0.30253512,904
1747532952300,0.6384538,0.8095379,1.3364575,0.03834952,0.32863408,0.727043,905
1747532952310,0.6262509,0.7390053,1.4316398,0.0058589545,0.07829694,0.87831056,906
1747532952320,0.5867136,0.6491923,1.4784988,0.05219796,-0.15073492,0.9709886,907
1747532952330,0.5349735,0.5613316,1.475082,0.14913702,-0.2972088,1.0226538,908
1747532952340,0.473227,0.43320164,1.3349931,0.36112466,-0.2428803,1.0167949,909
1747532952350,0.43417785,0.39268813,1.2212625,0.40373522,-0.14168017,0.96140116,910
1747532952360,0.4024504,0.38829508,1.125348,0.37071204,-0.040480047,0.9060074,911
1747532952370,0.38146147,0.37169918,1.0657979,0.2412824,0.00958738,0.85327685,912
1747532952380,0.3436326,0.33411437,1.0438329,-0.0314253,-0.13741912,0.78083885,913
1747532952390,0.21257387,0.25601605,1.0313859,-0.5640575,-0.56459016,0.6956177,914
1747532952400,0.10665302,0.22648512,1.0548154,-0.74461985,-0.6988135,0.6530071,915
1747532952410,-0.021477038,0.21940747,1.0723876,-0.82344943,-0.70467246,0.6173208,916
1747532952420,-0.117879644,0.24405725,1.1133891,-0.809601,-0.5475459,0.5885586,917
1747532952430,-0.17547716,0.28383857,1.1429201,-0.72011876,-0.22690132,0.5603291,918
1747532952440,-0.19353738,0.30555966,1.168058,-0.561927,0.18375812,0.53795856,919
1747532952450,-0.15473229,0.3014107,1.2776396,-0.09534117,0.9012137,0.5699165,920
1747532952460,0.019036464,0.27187976,1.291795,0.10865697,0.97471696,0.4990764,921
1747532952470,0.12202863,0.28798756,1.2256554,0.09853696,0.7957525,0.39468047,922
1747532952480,0.19060871,0.30287504,1.1319375,-0.084155895,0.57311225,0.30999196,923
1747532952490,0.29652956,0.33191785,1.0672623,-0.38722363,0.36325517,0.25246766,924
1747532952500,0.340581895,0.32630454,1.1580516,-0.797616715,-0.0237021449999999,0.1757686275,925
1747532952510,0.38463423,0.32069123,1.2488409,-1.2080098,-0.41065946,0.099069595,926
1747532952520,0.360228495,0.306779965,1.28911035,-1.2301141,-0.52091433,0.0687095574999999,927
1747532952530,0.22575295,0.29652956,1.3608632,-1.1611383,-0.7275756,-0.0031957934,928
1747532952540,0.059794027,0.35437113,1.3525653,-0.6695187,-0.45486793,-0.050600063,929
1747532952550,0.0134231495,0.38951537,1.3413386,-0.3850931,-0.21145499,-0.06231797,930
1747532952560,-0.023429496,0.39927766,1.342559,-0.091080114,0.027164243,-0.03781689,931
1747532952570,-0.0206228375,0.38634263,1.34878245,0.0551274329999999,0.0990695915,-0.023169503,932
1747532952580,0.0063454889999999,0.357055765,1.346952,0.33369409,0.1818939,-0.00559263855,933
1747532952590,0.117635585,0.2796896,1.2461562,0.6759103,0.09374327,-0.020772656,934
1747532952600,0.14741059,0.2848148,1.2112561,0.8511463,-0.36432046,-0.036751624,935
1747532952610,0.18109047,0.29164842,1.1480453,0.8527442,-0.6993461,-0.0127831735,936
1747532952620,0.1701079,0.26406994,1.0636015,0.8511463,-0.9438243,0.033023197,937
1747532952630,0.10592084,0.20598431,0.9476743,0.8692558,-1.0924287,0.08841695,938
1747532952640,0.0713867435,0.154366203,0.82857435,0.8809737,-0.9632654,0.0628506024999999,939
1747532952650,0.021965152,0.09493827,0.6343048,0.8740495,-0.46818373,-0.08948222,940
1747532952660,-0.011470691,0.09493827,0.63064396,0.8697884,-0.10066749,-0.2711098,941
1747532952670,-0.12471326,0.15473229,0.7148437,0.8644621,0.29987195,-0.5342301,942
1747532952680,-0.1564407,0.19085276,0.77317333,0.8314389,0.3158509,-0.5422196,943
1747532952690,-0.146312325,0.20842489,0.813930915,0.8088020499999999,0.24261397,-0.52411012,944
1747532952700,-0.09469421,0.24552159,0.9117979,0.77125144,-0.046871636,-0.47510794,945
1747532952710,-0.08712844,0.25772443,0.9303462,0.79042625,-0.304133,-0.4293016,946
1747532952720,-0.11592719,0.24771811,0.81417495,0.85487473,-0.6311692,-0.29294774,947
1747532952730,-0.17084008,0.20525214,0.6787232,0.84422207,-0.57417756,-0.2444782,948
1747532952740,-0.19732029,0.1658369,0.6070924,0.8122641349999999,-0.47297743,-0.25513085,949
1747532952750,-0.25723633,0.055400997,0.43149322,0.6562029,-0.051665325,-0.35473305,950
1747532952760,-0.234539,0.0449065335,0.44503839,0.435959475,0.2868224575,-0.51825115,951
1747532952770,-0.201591275,0.04954362,0.5177674800000001,0.1089232894999999,0.63809342,-0.74355459,952
1747532952780,-0.20549619,0.10006347,0.6796995,-0.1933455,0.5161206,-0.84422207,953
1747532952790,-0.22282428,0.13032657,0.7839119,-0.34993938,0.26525086,-0.7930894,954
1747532952800,-0.237955825,0.14472595,0.81075818,-0.4024036549999999,0.1134506699999999,-0.7302388,955
1747532952810,-0.27505252,0.12593354,0.8358961,-0.505468,-0.3057309,-0.4990764,956
1747532952820,-0.24625377,0.06833603,0.8092938,-0.47137952,-0.5091964,-0.28016454,957
1747532952830,-0.23893206,0.0039049159,0.76804817,-0.4133226,-0.42557314,-0.32756883,958
1747532952840,-0.2711476,-0.061258372,0.72607034,-0.3552657,-0.25672874,-0.46711847,959
1747532952850,-0.34192422,-0.10933765,0.68653303,-0.31851408,-0.015446335,-0.6780408,960
1747532952860,-0.4656612,-0.10470056,0.6792113,-0.396811,0.30626354,-0.83729786,961
1747532952870,-0.4471129,-0.10836142,0.7106947,-0.48309743,0.39095205,-0.86233157,962
1747532952880,-0.41880223,-0.09786696,0.7636551,-0.56245965,0.36911413,-0.89855057,963
1747532952890,-0.4249037,-0.06613952,0.81368685,-0.6428871,0.19867182,-0.908138,964
1747532952900,-0.46273252,-0.06028214,0.82027644,-0.7568704,-0.0479369,-0.86233157,965
1747532952910,-0.5981843,-0.09835507,0.82906246,-1.0338391,-0.4809669,-0.64714813,966
1747532952920,-0.57524294,-0.18133454,0.84907514,-1.1680624,-0.54648066,-0.57417756,967
1747532952930,-0.53912246,-0.22916976,0.8768977,-1.200553,-0.45007423,-0.63862604,968
1747532952940,-0.5525456,-0.21843125,0.89349353,-1.1627362,-0.28868666,-0.74035877,969
1747532952950,-0.55718267,-0.18401916,0.9349833,-0.93903065,0.17097494,-0.93423694,970
1747532952960,-0.5703618,-0.15912533,0.9684192,-0.763262,0.39787626,-1.0247844,971
1747532952970,-0.5952556,-0.12178457,0.9984382,-0.56938386,0.5422196,-1.1052119,972
1747532952980,-0.6648119,-0.051252022,1.0301657,-0.40053943,0.5603291,-1.1073424,973
1747532952990,-0.7382732,0.030019043,1.0660421,-0.2860235,0.47990164,-1.010936,974
1747532953000,-0.83101493,0.19231711,1.1226633,-0.2412824,-0.015978966,-0.4841627,975
1747532953010,-0.8432178,0.21721096,1.1238836,-0.25726137,-0.19707392,-0.18588865,976
1747532953020,-0.7787867,0.19036464,1.151218,-0.21837921,-0.30519825,0.048469532,977
1747532953030,-0.6889736,0.14277348,1.1665937,-0.091080114,-0.34194988,0.17257284,978
1747532953040,-0.61160743,0.10006347,1.1495095,0.08681905,-0.32810146,0.20026971,979
1747532953050,-0.5762192,0.058085624,1.0265048,0.4245079,-0.12250541,0.17310548,980
1747532953060,-0.54986095,0.06369894,0.950359,0.52411014,0.039947417,0.20186761,981
1747532953070,-0.49763274,0.076389916,0.8881243,0.56938386,0.20453078,0.26418558,982
1747532953080,-0.43442193,0.06711575,0.8266219,0.54807854,0.28549087,0.30679616,983
1747532953090,-0.3704789,0.013667206,0.7905014,0.34514567,0.34940675,0.3637878,984
1747532953100,-0.33875147,0.008297946,0.839801,0.20399815,0.33609092,0.3685815,985
1747532953110,-0.27602875,0.022453265,0.9030118,0.09427591,0.30306774,0.36485308,986
1747532953120,-0.25662619,0.024283695,0.92583117,0.06870956,0.2759034999999999,0.3568636,987
1747532953130,-0.22209209,0.013179091,0.97793734,0.048469532,0.20133498,0.31478566,988
1747532953140,-0.1867038,-0.022697324,0.9830626,0.07243799,0.2130529,0.1635181,989
1747532953150,-0.16400647,-0.02757847,0.9686632,0.010120012,0.2412824,-0.00479369,990
1747532953160,-0.17669745,-0.0134231495,0.9498709,-0.070307456,0.27803403,-0.14594123,991
1747532953170,-0.23356278,0.010494461,0.9366917,-0.15020229,0.32330775,-0.2428803,992
1747532953180,-0.31385764,0.040513504,0.9279056,-0.2066613,0.406931,-0.27537087,993
1747532953190,-0.4127008,0.13716017,1.0343146,-0.1933455,0.509729,-0.18216023,994
1747532953200,-0.3968371,0.16010156,1.1004542,-0.111852765,0.50120693,-0.11025487,995
1747532953210,-0.35949633,0.16058967,1.1541467,0.025033714,0.4527374,-0.060720075,996
1747532953220,-0.33948365,0.1444819,1.1700104,0.109189607,0.4077299749999999,-0.047404269,997
1747532953230,-0.33704305,0.114462845,1.1236396,0.37017938,0.25672874,-0.02130529,998
1747532953240,-0.31556603,0.06418706,0.9606094,0.39361522,0.2247708,-0.0777643,999
1747532953250,-0.31263736,0.05662128,0.89032084,0.27856666,0.23169503,-0.1470065,1000
1747532953260,-0.33533466,0.06199054,0.8439499,0.11664646,0.24607609,-0.20080236,1001
