id,timestamp,acc_x,acc_y,acc_z,gyro_x,gyro_y,gyro_z
1,1747532716210,0.09298580975,0.10055159,0.4486992374999999,0.39867524,-1.91641076,1.152882415
2,1747532716220,4.6783333,1.2544543,-2.5389276,7.2251563,-0.39627838,4.7020774
3,1747532716230,4.029629,1.5636748,-3.20618,3.6943371,0.78563255,3.31244
4,1747532716240,3.0492513,1.6447018,-2.7785916,-1.9776635,3.129747,1.6591494
5,1747532716250,2.5909119,1.4343245,-2.092547,-3.7651772,4.0325584,0.9757822
6,1747532716260,1.67435475,1.19697875,-1.1054573,-4.8962219000000005,4.540157,0.36458676
7,1747532716270,1.338654,1.1275444,-0.801484,-5.0525494,4.570517,0.24394555
8,1747532716280,0.53509551,1.19649065,-0.0567433115,-3.96890915,3.34359885,0.284425605
9,1747532716290,0.52301466,1.2366381,0.031239327,-3.5835497,2.9214878,0.29188246
10,1747532716300,0.50812715,1.3213259,0.10006347,-2.6988475,1.8913771,0.2444782
11,1747532716310,0.41855815,1.4367651,0.048567392,-1.29722577,0.438356323,0.1486043925
12,1747532716320,0.333626255,1.5651391,-0.26663254,-0.70919982,-0.132359107,0.078563254
13,1747532716330,0.259310825,1.63603775,-0.5460781,-0.5483449,-0.308660375,0.0231695024999999
14,1747532716340,0.2677308,1.6744767500000002,-0.63845375,-0.77018623,-0.14674018,-0.0119842255
15,1747532716350,0.34887983,1.70962095,-0.61172945,-0.90973586,-0.04580637,-0.034088463
16,1747532716360,0.57865974,1.73817565,-0.444794315,-1.1675299,0.13209279,-0.2649845375
17,1747532716370,0.8682336500000001,1.7703912,-0.182676853,-1.04822025,-0.089482205,-0.60959758
18,1747532716380,1.0607948,1.81944675,0.076145862,-0.67164925,-0.52837117,-0.97205385
19,1747532716390,1.20039555,1.85044205,0.250768815,-0.2154497325,-0.958471685,-1.3134711
20,1747532716400,1.2654368,1.8528826,0.30458343,0.015446335,-1.1558119,-1.4780544
21,1747532716410,1.4667841,1.8284769,0.31751847,0.38083205,-1.3869743,-1.8445054
22,1747532716420,1.77722495,1.7624594,0.129594395,0.5395564749999999,-1.28817105,-2.2900522
23,1747532716430,2.0876658,1.6964419,-0.05832968,0.5384912,-0.78989357,-3.2458608
24,1747532716440,2.2565534,1.5997953,-0.19890666,0.2247708,-0.34408042,-3.7678404
25,1747532716450,2.464246,1.48338,-0.23673552,-0.13635385,0.013848438,-4.2770367
26,1747532716460,2.7261195,1.3652563,-0.1632743,-0.4495416,0.2647182,-4.8948903
27,1747532716470,3.70991405,1.05884235,0.1698638449999999,-0.4399542349999999,-0.1587244,-6.2696138
28,1747532716480,3.9293215,1.001855,0.24796216,-0.37390783,-0.36005938,-6.56629
29,1747532716490,4.3847327,0.84883106,0.38268176,-0.18482338,-0.83516735,-7.1958613
30,1747532716500,4.8511257,0.6191732,0.40952805,-0.07350325,-1.2069446,-7.857923
31,1747532716510,5.217456,0.33509058,0.37218732,-0.08894958,-1.3725933,-8.505072
32,1747532716520,5.6380885,-0.4361302849999999,0.494337975,-0.4641889849999999,-0.94409065,-9.7485015
33,1747532716530,5.66920565,-0.6837263849999999,0.6816519,-0.5041363999999999,-0.5552691,-9.930395
34,1747532716540,5.6931233,-0.80123997,0.8117344,-0.4644553,-0.3850931,-9.955961
35,1747532716550,5.7359554500000005,-0.87567741,0.9596331,-0.28975193,-0.299339315,-9.92719925
36,1747532716560,6.262509,-1.0301657,1.40784425,1.081509735,-0.66685555,-9.8387825
37,1747532716570,6.5443953,-1.03699925,1.40162075,1.7006947,-1.0546118,-9.880328
38,1747532716580,6.4704458,-1.04151435,1.28569355,2.21575,-1.6253272,-10.1943145
39,1747532716590,6.399669,-1.0509106,1.2210184,2.3132217,-1.7571537,-10.286194
40,1747532716600,6.13926,-1.1192465,1.0506665,2.2988408,-1.6847157,-10.377807
41,1747532716610,5.36877135,-1.2689756,0.871894535,1.8796591,-0.7813714500000001,-10.26116
42,1747532716620,4.9607077,-1.3481722,0.84004503,1.7038904,-0.3435478,-10.17008
43,1747532716630,4.5768056,-1.4628792,0.83882475,1.6607473,-0.036218993,-10.046509
44,1747532716640,4.1970525,-1.6119982,0.84150934,1.7225326,0.16085494,-9.890448
45,1747532716650,3.8082693,-1.7821059,0.8300387,1.8556907,0.24607609,-9.683786
46,1747532716660,2.6773081000000003,-1.93696035,0.95524005,2.60164215,-0.1672465119999999,-8.9165295
47,1747532716670,2.3220828,-1.9375705,0.96427015,2.97634895,-0.43729105,-8.491223
48,1747532716680,2.165032,-1.9341537,0.9589009,3.1622376,-0.5768407,-8.266452
49,1747532716690,1.7156005,-1.84116795,0.76499745,3.518036,-0.81013364,-7.696003
50,1747532716700,1.564407,-1.8048034,0.6645679,3.6794233,-0.7281082,-6.946057
51,1747532716710,1.4243181,-1.837019,0.55645055,3.6027243,-0.38562572,-6.705307
52,1747532716720,1.2130865,-2.03983055,0.428442495,3.4365432,0.02130529,-6.544452
53,1747532716730,0.99733995,-2.21689405,0.33911756,3.13826905,0.37736994,-6.58147
54,1747532716740,0.8417535,-2.2916975,0.28920785,3.0349383,0.44847634,-6.612629
55,1747532716750,0.614170085,-2.33562775,0.21757704,2.87434965,0.438622635,-6.5487132500000005
56,1747532716760,-0.4893348,-2.370528,-0.053692598,1.6421051,0.25033715,-5.2650695
57,1747532716770,-0.672499745,-2.4136041500000003,-0.062844744,1.1313108,0.1587244,-4.4879594
58,1747532716780,-0.67555046,-2.456192,-0.053692598,0.6593987,0.10865697,-3.784352
59,1747532716790,-0.6496804,-2.574072,-0.006833603,0.28495824,0.13262543,-3.2586439
60,1747532716800,-0.99184865,-2.7192857,-0.05418071,-0.07084009,0.17124126,-2.75104535
61,1747532716810,-1.32425465,-2.8038516,-0.100307533,-1.00960435,0.28336035,-1.071922325
62,1747532716820,-1.49387445,-2.8263048,-0.104456508,-1.3843111,0.33076461,-0.071639025
63,1747532716830,-1.5487873,-2.82459655,-0.076756006,-1.74543575,0.33875409,1.19522675
64,1747532716840,-1.5397571,-2.8210578,-0.054424766,-1.9265307,0.32969934,1.9196066
65,1747532716850,-1.1048472,-2.6485093,0.10933765,-2.2253375,0.13315806,4.026167
66,1747532716860,-0.55718268,-2.50439335,0.231122215,-2.2029668,-0.0804274645,5.24642755
67,1747532716870,-0.135451775,-2.40957715,0.28542495,-2.08578775,-0.239418185,5.8445735
68,1747532716880,0.31227124,-2.2438623,0.222824265,-1.89457285,-0.45113948,6.4099627
69,1747532716890,0.620393515,-2.1262266500000004,0.0768780315,-1.8226675,-0.55739962,6.8816085000000005
70,1747532716900,0.75072008,-2.12854525,-0.047469131,-1.8647454,-0.53742594,7.041398
71,1747532716910,0.8706742199999999,-2.1763805,-0.1599795275,-2.3979102,-0.183225485,7.775099
72,1747532716920,1.03248417,-2.28523005,-0.220017615,-2.8636972,0.034887415,8.2677835
73,1747532716930,1.34194875,-2.51049485,-0.164250528,-3.557717,0.48389637,9.1322455
74,1747532716940,1.5509838,-2.6641288,-0.102259986,-4.000068,0.8383631,9.740778
75,1747532716950,1.9260999,-2.7824967,-0.0319715,-4.4277716,1.081776,10.493387
76,1747532716960,2.7556505,-2.7356377,0.14301755,-4.7382965,0.9171927,11.051053
77,1747532716970,3.620345,-2.5184267,0.30726805,-4.8725195,0.4708469,11.231616
78,1747532716980,4.936058,-2.0554502,0.56718904,-4.785168,-0.32330775,10.801782
79,1747532716990,5.106776,-1.9081616,0.74046967,-4.6086003,-0.1653823005,10.7839385
80,1747532717000,4.99194715,-1.91389695,0.9900182,-4.1553302,0.0476705845,11.030813
81,1747532717010,5.00537015,-2.00200165,1.28264285,-3.42029775,0.0551274355,11.6891465
82,1747532717020,5.6196620500000005,-2.15746605,1.62334675,-1.53770918,-0.2362223945,12.7629335
83,1747532717030,6.4316406,-2.3104899000000003,1.8155418,0.72331457,-0.66898607,13.6178085
84,1747532717040,6.937205049999999,-2.3758973,1.7561139,2.3989756,-1.0524813,13.738183
85,1747532717050,7.27131935,-2.3325771,1.47703455,3.9337552,-1.3342438,13.4702685
86,1747532717060,7.3724813,-2.2804708,1.2578712,4.629639,-1.4215955,13.256683
87,1747532717070,7.16027375,-1.7090109,-0.0349001999999999,5.17239135,-0.674312373,11.7631825
88,1747532717080,6.756114950000001,-1.2096698,-0.750232,4.3460125,0.206927627,10.752246499999998
89,1747532717090,6.6007724,-1.0418804,-0.869576,3.349724,0.83063995,10.0965765
90,1747532717100,6.06860535,-0.4641969,-0.8479769,2.354767,1.4186659499999998,9.424661
91,1747532717110,5.51374135,0.0823693299999999,-0.674940315,1.46393965,1.91081815,8.70401
92,1747532717120,5.127887,0.42734426,-0.54912883,1.0524813,2.1268005,8.333032
93,1747532717130,4.38814925,0.821130565,-0.397813305,-0.54887751,2.2911176,6.014483
94,1747532717140,4.1204185,0.93522733,-0.34387666,-0.8644621,2.233327,5.461611
95,1747532717150,3.50136745,1.10240655,-0.240152315,-1.47459235,2.12733305,4.14813975
96,1747532717160,2.8654762,1.19722275,-0.175721205,-1.85302755,2.14411105,3.0120352500000003
97,1747532717170,2.16869275,1.300215,-0.1286181625,-2.08925,2.18006375,2.03944875
98,1747532717180,1.70303155,1.3866113,-0.0940840675,-2.1007016,2.1385184,1.60455455
99,1747532717190,1.4985116,1.4235859,-0.07370529,-2.0815268,2.088451,1.4365091
100,1747532717200,1.2261436,1.4484798,-0.04515059,-1.952097,1.8791265,1.2777847
101,1747532717210,1.02504045,1.56025805,-0.0262361539999999,-1.35688065,1.25434887,1.1400993
102,1747532717220,1.03101985,1.6598333,-0.066871684,-0.8524779,0.6783071350000001,0.9635317
103,1747532717230,1.0794652,1.6878998,-0.10518867,-0.7089335,0.48629323,0.8612663
104,1747532717240,1.1761118,1.730854,-0.23087814,-0.52837116,0.16298546,0.5368933
105,1747532717250,1.1740374,1.7751505,-0.41990049,-0.5616606799999999,-0.1286306865,-0.017576855
106,1747532717260,1.15170615,1.81603005,-0.475789605,-0.8338357,-0.208259205,-0.51691957
107,1747532717270,1.18636225,1.8239619,-0.439913195,-1.16007295,-0.17789916,-0.97072227
108,1747532717280,1.2866698,1.7974816,-0.336921035,-1.3534185,-0.077231668,-1.31054165
109,1747532717290,1.3408505,1.7857668,-0.27090356,-1.4327807,-0.015978966,-1.5100124
110,1747532717300,1.4587301,1.7572123,-0.122272685,-1.448227,0.06657903,-1.8556907
111,1747532717310,1.7138919499999998,1.6398206,-0.07638992,-1.47246175,0.170175995,-2.67248215
112,1747532717320,1.9417194,1.4966810499999998,-0.06211257,-1.5590145,0.2247708,-3.36730085
113,1747532717330,2.09047235,1.38417065,0.0178161799999999,-1.63198515,0.207193935,-3.8812909
114,1747532717340,2.1542933,1.3269392,0.07028849,-1.6602147,0.18961707,-4.1364217
115,1747532717350,2.3170795,1.1687901,0.19915071,-1.6607473,0.15978967,-4.634433
116,1747532717360,2.66901005,0.828452325,0.38695278,-1.3680659,0.2625877,-5.457349649999999
117,1747532717370,3.0449803,0.546810275,0.4386929,-1.0972224000000002,0.327568835,-6.010222
118,1747532717380,3.3640852,0.384024075,0.4613902,-0.92837798,0.291349835,-6.3889235
119,1747532717390,3.5183294,0.30629185,0.4724948,-0.84209156,0.2609898,-6.592389
120,1747532717400,3.7841077,0.12324891,0.42783237,-0.78723043,0.14913702,-7.0291476
121,1747532717410,4.5300685000000005,-0.348757795,0.62466457,-0.819987295,0.188019178,-7.9378177
122,1747532717420,5.059794650000001,-0.726070285,0.885439735,-0.66765447,0.446345815,-8.574845499999999
123,1747532717430,5.345707900000001,-1.0250404,0.992092735,-0.399207835,0.770452515,-8.9823095
124,1747532717440,5.7336371,-1.4177286,1.2327332000000002,-0.0577905949999999,1.0689929,-9.3104115
125,1747532717450,6.0690935,-1.74537555,1.53780475,0.75127774,1.17179095,-9.595636
126,1747532717460,6.174037950000001,-1.89241995,1.69912655,1.7550232,1.05594342,-9.802297
127,1747532717470,6.234930500000001,-2.02628525,1.7116955,2.4575651,0.86206527,-9.8803275
128,1747532717480,6.233710200000001,-2.15880835,1.58063675,3.02135625,0.7406250999999999,-9.987919000000002
129,1747532717490,6.203935,-2.2228734,1.4885051,3.2586439,0.7094661,-10.057161
130,1747532717500,5.49726715,-2.34416985,1.01332565,3.5515917,0.87884322,-10.1772705
131,1747532717510,5.061991,-2.3815105,0.7695125,3.5452,1.0104034,-10.155699
132,1747532717520,4.3207893,-2.34331575,0.5300923399999999,3.2977924,1.37445745,-9.8353205
133,1747532717530,3.9086989,-2.2873046500000003,0.454434585,3.1598407,1.5318503,-9.581255
134,1747532717540,3.3610345,-2.19334255,0.40074198,3.07728265,1.53264925,-9.2145375
135,1747532717550,2.7938453,-2.0865674,0.38451219,3.08527215,1.3986922000000002,-8.855277000000001
136,1747532717560,2.400303,-1.99956105,0.396470995,3.1723576,1.2058793,-8.590558999999999
137,1747532717570,2.05386375,-1.9243914,0.40220633,3.30098825,0.97098852,-8.284828000000001
138,1747532717580,1.54732295,-1.8122471,0.340093765,3.4461305,0.71825457,-7.930095
139,1747532717590,1.2078394,-1.7337828,0.2779812,3.5185685,0.5901565,-7.739679
140,1747532717600,0.91094365,-1.66117565,0.202811565,3.6019253,-0.102531706,-6.6533753
141,1747532717610,0.7562113699999999,-1.63310905,0.1516815799999999,3.579821,-0.1949434,-6.464557
142,1747532717620,0.68702114,-1.6249331,0.12544543,3.472762,-0.32170987,-6.104498
143,1747532717630,0.5258213350000001,-1.6631281,0.0213550075,3.0650322,-0.4745753299999999,-5.643771
144,1747532717640,0.45345837,-1.7081566,-0.043198135,2.815494,-0.5251754,-5.477057
145,1747532717650,0.33362624,-1.7813739,-0.12813005,2.4426515,-0.4809669,-5.344432
146,1747532717660,0.048689415,-1.89717905,-0.27749309,1.6146745500000002,-0.1422127939999999,-5.08104515
147,1747532717670,-0.0707766,-1.9380586,-0.3321619,1.257012,0.026631612,-4.9635997
148,1747532717680,-0.490311025,-2.12720295,-0.3871968249999999,0.05566007,0.50466904,-4.37903585
149,1747532717690,-0.6909261,-2.2375169,-0.38219365,-0.51984906,0.69295454,-4.046407
150,1747532717700,-1.008810625,-2.44740605,-0.3170303599999999,-1.1209245,0.725711405,-3.39925885
151,1747532717710,-1.23261115,-2.6059213000000003,-0.29128232,-1.4261228,0.68523136,-2.8447887
152,1747532717720,-1.43493455,-2.74076295,-0.27700497,-1.6671389,0.6261091750000001,-2.14650785
153,1747532717730,-1.7260947999999998,-2.8548597,-0.2496705599999999,-1.9457055,0.63409867,-0.512924825
154,1747532717740,-1.9195102,-2.9081862,-0.22819352,-2.1166804,0.67484504,0.73130405
155,1747532717750,-1.86667185,-2.84936835,-0.115195025,-2.1470405,0.72278196,2.8027107
156,1747532717760,-1.7855228,-2.8247187,-0.07150877,-2.1294637,0.72278196,3.4983284
157,1747532717770,-0.8499294,-2.6727929,0.0601601094999999,-1.93984665,0.542485915,5.23417685
158,1747532717780,-0.2923806,-2.5726075,0.11226633,-1.8551581,0.45007423,5.7236657
159,1747532717790,0.14936304,-2.431054,0.06369894,-1.4572818,-0.025033714,6.7425914
160,1747532717800,0.61417007,-2.2311712000000004,-0.0556450504999999,-1.4269218,-0.429834215,7.007842500000001
161,1747532717810,0.73436826,-2.1638114,-0.09200958,-1.4567492,-0.55074173,7.073889
162,1747532717820,0.935105365,-2.01859745,-0.144603925,-1.7739316,-0.6708503100000001,7.438741800000001
163,1747532717830,0.9813542,-1.9895546,-0.15058333,-1.8887138,-0.66632295,7.5894766
164,1747532717840,1.3969837,-2.0493488,-0.058573738,-2.3899207,-0.608266,8.347412
165,1747532717850,1.3969837,-2.0493488,-0.058573738,-2.3899207,-0.608266,8.347412
166,1747532717860,1.6817985,-2.0999907,0.0200126959999999,-2.58566305,-0.37390782,8.806541
167,1747532717870,2.8890276,-2.2957245,0.180846425,-3.176885,0.32224249,9.9809955
168,1747532717880,3.6694007,-2.276932,0.2611412549999999,-3.3662357,0.45327002,10.223876
169,1747532717890,3.9036958,-2.2287307,0.2997023,-3.4562504,0.37230992,10.456635
170,1747532717900,4.215357,-2.183092,0.37609223,-3.4360106,0.376571,10.703244
171,1747532717910,4.536902250000001,-2.1215897,0.6455314,-2.97501735,0.492152185,11.2830145
172,1747532717920,4.6314745,-2.1030414,0.759018,-2.728675,0.5219796,11.531487
173,1747532717930,5.5748775,-2.09938035,1.1490215,-0.84155893,0.3057309,12.693691
174,1747532717940,5.8224735,-2.1394057,1.1375508,0.3291667,0.058056913,13.0138035
175,1747532717950,6.262265,-2.3114662,1.082638,1.5899072,-0.06870956,12.950953
176,1747532717960,6.65409865,-2.2269003,0.8878803,3.59340335,-0.65646924,12.369052
177,1747532717970,6.63201165,-1.93561805,0.40342663795,4.89169435,-1.23197835,11.66145
178,1747532717980,6.5353650000000005,-1.5891788,-0.18877827705,5.4237938,-1.2804479,10.99273
179,1747532717990,6.526335,-1.4601945,-0.38146147,5.3790526,-1.0860372,10.741594
180,1747532718000,6.26385135,-0.92766155,-0.736198665,4.6482816,-0.1025317,9.6755305
181,1747532718010,5.669694,-0.3676722511,-0.8559087299999999,3.98515435,0.528903815,8.8984205
182,1747532718020,4.974497,0.1463123238999999,-0.8965443,2.84505495,1.231978335,7.6909433
183,1747532718030,4.481379349999999,0.410016175,-0.8805586,1.5451660500000002,1.8216022,6.3654878
184,1747532718040,4.2353697,0.5222825,-0.8673795,1.0301107,1.9947077,5.850965
185,1747532718050,3.695515,0.69507504,-0.78684056,0.22104238,2.2178805,5.0829096
186,1747532718060,3.2811058,0.7907455,-0.6919023,-0.51292485,2.3819313,4.367584
187,1747532718070,2.552595,0.92497694,-0.40903994,-1.4929681,2.4122913,3.0248184
188,1747532718080,2.1386735,0.97354436,-0.2294138,-1.6836505,2.253567,2.51722
189,1747532718090,1.8399476,1.002099,-0.088104665,-1.6745957,2.0325246,2.1225395
190,1747532718100,1.5851518,1.0394398,0.030019043,-1.4716629,1.7656758,1.8274611
191,1747532718110,1.2653148,1.14511665,0.06589546,-0.63543025,1.205613035,1.50841445
192,1747532718120,1.1392592,1.20283615,-0.0679699429999999,-0.0423442599999999,0.826645235,1.30601425
193,1747532718130,1.10765375,1.24640035,-0.2130619799999999,0.122239095,0.6218481499999999,1.13503935
194,1747532718140,1.104603,1.2698299,-0.27724904,0.17044231,0.5203817,1.0365024
195,1747532718150,1.1775762,1.3303561,-0.34119204,0.23009712,0.2860235,0.72651035
196,1747532718160,1.1292529,1.3963736,-0.407087505,0.29055087,-0.1768338925,0.1350222575
197,1747532718170,1.10191845,1.4294433,-0.420632675,0.295344575,-0.471645845,-0.2319613275
198,1747532718180,1.1246158,1.4435986,-0.41514137,0.29614353,-0.56725335,-0.34514567
199,1747532718190,1.219066,1.4545813,-0.43100512,0.28122982,-0.7488809,-0.61838603
200,1747532718200,1.39149245,1.4288332,-0.46139021,0.1225054149999999,-1.09029817,-1.22931515
201,1747532718210,1.5742913,1.34609785,-0.45004156,-0.16058862,-1.2961605,-1.91507915
202,1747532718220,1.75757825,1.22126255,-0.4301509,-0.54168696,-1.4122743,-2.66103065
203,1747532718230,1.86679385,1.0971594,-0.35144243,-0.8554073,-1.36114165,-3.160107
204,1747532718240,1.9138969,1.0277251,-0.28725538,-1.0077401,-1.3038837,-3.3971283
205,1747532718250,2.016401,0.8876362,-0.105676785,-1.2085425,-1.0546118,-3.8072553
206,1747532718260,2.39713025,0.63198625,0.149729123,-1.2101404,-0.5576659500000001,-4.64508555
207,1747532718270,2.7755411,0.464318915,0.278469315,-1.1382351,-0.3787015,-5.1127367
208,1747532718280,3.0354621,0.364499495,0.346805335,-0.94036218,-0.605869165,-5.8909123
209,1747532718290,3.163226,0.31019676,0.38439015,-0.87351686,-0.73290193,-6.159359
210,1747532718300,3.3958127,0.17376876,0.49055508,-0.7595336,-1.0684602,-6.6499133
211,1747532718310,4.08051525,-0.13728220825,0.853590285,-0.456732125,-1.4266554500000002,-7.44193735
212,1747532718320,4.4994397,-0.29018408,1.0679946,-0.2727077,-1.530785,-7.804127
213,1747532718330,5.34046085,-0.5695076,1.34682995,0.273506645,-1.5904399,-8.544486500000001
214,1747532718340,5.600382,-0.6879974,1.3886857,0.47564057,-1.5723304,-8.836902
215,1747532718350,6.2407877,-1.30680455,1.2140628,0.8088020300000001,-1.22398885,-10.4571685
216,1747532718360,6.3902728,-1.4904576,1.20308025,0.62344601,-1.17711725,-10.7967215
217,1747532718370,6.5125455500000005,-1.72231195,1.2609218,0.41412156,-1.02318655,-11.0318785
218,1747532718380,6.538903749999999,-1.9714944,1.4388394999999998,0.3648530749999999,-0.7086672,-11.2079135
219,1747532718390,6.526579,-2.0881538,1.5719727,0.39574575,-0.5448828,-11.277422
220,1747532718400,5.70032285,-2.30597495,1.94391605,1.51853445,-0.3520699,-11.113105
221,1747532718410,5.569386,-2.2914536,1.9600239,1.8327875,-0.29188246,-11.003649
222,1747532718420,5.239665,-2.2921855,1.8050474,2.6498454,-0.11824436,-10.864633
223,1747532718430,4.7259245,-2.1845565,1.359399,2.9816751,-0.027164243,-10.627078
224,1747532718440,4.1411633,-2.2275105,0.7734174,3.0216227,0.028229509,-10.44119
225,1747532718450,3.3870264,-2.1956609,0.6718896,2.6008432,-0.0346210955,-10.185526
226,1747532718460,3.125641,-2.191878,0.6806757,2.5278726,-0.017044231,-10.089652
227,1747532718470,2.68243305,-2.204203,0.6906820300000001,2.5337315,0.0964064295,-9.7596865
228,1747532718480,2.2392251,-2.216528,0.70068836,2.5395904,0.20985709,-9.429721
229,1747532718490,1.786255,-2.1994438,0.6638357,2.6567695,0.29987195,-8.967929
230,1747532718500,1.4011327,-2.14770365,0.56511454,2.72814225,0.310258275,-8.3554018
231,1747532718510,0.6825061,-2.1065802,0.419412355,2.8655613,0.132092791,-6.976150499999999
232,1747532718520,0.5959878,-2.1245184,0.41733786,2.9028456,0.026631612,-6.7527113
233,1747532718530,0.261385305,-2.24056755,0.22135992,2.8791435,-0.3470099,-6.069077999999999
234,1747532718540,0.05418071,-2.2916975,0.06272271,2.763296,-0.46392268,-5.711948
235,1747532718550,-0.13789235,-2.3244014,-0.08322352,2.3537018,-0.44900897,-5.2389708
236,1747532718560,-0.311173,-2.3226929,-0.16913168,1.8189391,-0.35420042,-4.705273
237,1747532718570,-0.47103047,-2.2790065,-0.18401916,1.107875,-0.16138756,-3.991546
238,1747532718580,-0.65029055,-2.27278305,-0.067847915515,0.5970807,0.017044231,-3.4450653
239,1747532718590,-0.72021294,-2.2970667,0.00097622897,0.19387813,0.19121496,-2.9582393
240,1747532718600,-0.95841285,-2.35734895,-0.0130570635,-0.38083203,0.38296257,-1.84583695
241,1747532718610,-1.16891215,-2.37382285,-0.072729062,-0.57204701,0.333427775,-1.2279836
242,1747532718620,-1.2776396,-2.374677,-0.11202228,-0.67484504,0.29348037,-0.8772453
243,1747532718630,-1.3308442,-2.3656468,-0.19280522,-0.91452956,0.19813919,-0.056459017
244,1747532718640,-1.2351737,-2.3561287,-0.19256116,-1.5318503,0.14008227,1.9441077
245,1747532718650,-0.99038434,-2.3551524,-0.12715383,-1.7773937,0.11025487,2.7814054
246,1747532718660,-0.71264714,-2.3622303,-0.027090356,-1.88578435,0.0543284874999999,3.8488003
247,1747532718670,-0.254063602,-2.2692442,0.063576912,-1.7891116500000002,-0.114782245,4.701278
248,1747532718680,0.037340763,-2.1330604,0.0518621655,-1.6506273,-0.35926044,5.437376
249,1747532718690,0.10689708,-2.062528,0.024161667,-1.6058862,-0.45540056,5.652826
250,1747532718700,0.24064046,-1.9775959,-0.054912884,-1.6181368,-0.6359629,6.0560284
251,1747532718710,0.38805103,-1.9270761,-0.123004854,-1.7299895,-0.7845673,6.4384584
252,1747532718720,0.55791485,-1.8992535,-0.14814276,-1.9158782,-0.86872315,6.8118334
253,1747532718730,1.14536065,-1.88900315,0.016717923,-2.2439796000000003,-0.860201035,7.6435385
254,1747532718740,1.2363939,-1.8782645,0.06687169,-2.2365227,-0.87564737,7.776963
255,1747532718750,1.57990455,-1.84629305,0.14143118,-2.0775319,-0.864728425,8.2105255
256,1747532718760,2.01615685,-1.7363453,0.13410946,-1.96514655,-0.766457795,8.469650999999999
257,1747532718770,2.4835265,-1.5752674999999998,0.0901791535,-1.9126823,-0.71106404,8.586564
258,1747532718780,2.6370385,-1.5077857,0.057109397,-1.8327875,-0.79255676,8.868859
259,1747532718790,2.9462593,-1.3596429,-0.10470056,-2.026133,-0.8346347,9.035573
260,1747532718800,3.48342915,-1.14206585,-0.434543955,-3.0642332,-0.357928848,9.390839
261,1747532718810,3.8467085,-1.026016635,-0.40159622,-3.4706316,-0.113983296,9.530389
262,1747532718820,4.28271675,-1.040782085,0.0884707399999999,-4.881574499999999,0.723847225,10.44838
263,1747532718830,4.7204335,-1.1456046999999998,1.00283128,-4.82804475,0.783502025,10.9093735
264,1747532718840,4.9460645,-1.185142,1.5551329,-4.3308325,0.57790595,10.928016
265,1747532718850,5.2413732,-1.18624025,2.5624790500000003,-2.2487733,-0.27696875,10.791129
266,1747532718860,5.35876485,-1.40772215,2.37284655,3.597664275,-1.8650118,10.799651
267,1747532718870,5.56255265,-1.684239,1.6044324,7.4794877,-2.45729885,10.8241525
268,1747532718880,5.7287557,-1.7286575,0.82344919,8.8265145,-2.18086265,10.639329
269,1747532718890,5.7741504,-1.7084008,0.43515408,9.308813,-1.9393139,10.502442
270,1747532718900,5.7741504,-1.7084008,0.43515408,9.308813,-1.9393139,10.502442
271,1747532718910,5.7548697,-1.4767904,-0.24808416,9.125854,-1.1275824,9.9381185
272,1747532718920,5.1956127,-0.2064724282499999,-1.61675725,6.277070800000001,1.68498205,7.11756445
273,1747532718930,4.75862835,0.18084641175,-1.70181125,5.646967,1.9723371,6.5875955
274,1747532718940,4.5021243,0.36022848,-1.7230443,4.3004727,2.3537018,5.529788
275,1747532718950,4.006444,0.59964865,-1.6813104,2.599778,2.6668897,4.327104
276,1747532718960,3.0793923000000003,0.75547923,-1.3938109,0.3153183,3.1473238500000003,2.7587687
277,1747532718970,2.6807246,0.77024466,-1.2363939,-0.7094661,3.355583,2.0474384
278,1747532718980,2.15258495,0.7576757000000001,-0.956704425,-1.7062873,3.3193641,1.139034
279,1747532718990,1.9636846,0.7602383,-0.85127175,-1.9611518,3.2613072,0.8591358
280,1747532719000,1.6220044,0.73778504,-0.6958072,-2.269546,3.0104373,0.41438788
281,1747532719010,1.01479,0.773051355,-0.292868705,-2.0101539500000003,2.1544974000000003,0.170176
282,1747532719020,0.7222874,0.8556647,-0.06125837,-1.3651364,1.42372595,0.2793656049999999
283,1747532719030,0.6872652,0.89349353,-0.0319715,-0.8050736299999999,0.96140115,0.37657098
284,1747532719040,0.7304634,0.95279956,-0.09322987,-0.53316486,0.7307714,0.396811
285,1747532719050,0.7656076,1.0223558,-0.20769271,0.0175768624999999,0.2399508149999999,0.235157135
286,1747532719060,0.822717,1.12412765,-0.5575487800000001,0.0764327245,0.0969390619999999,-0.0612527149999999
287,1747532719070,0.87189452,1.16988835,-0.79623675,-0.1368864805,0.124103312,-0.4119910499999999
288,1747532719080,0.90740484,1.1824572999999998,-0.8639626499999999,-0.4599279149999999,0.258326635,-0.6788397749999999
289,1747532719090,0.94108477,1.18855875,-0.86774555,-0.80081253,0.39308259,-0.953677975
290,1747532719100,0.96524647,1.18770455,-0.81600542,-1.12784875,0.476439535,-1.25568045
291,1747532719110,1.05652382,1.17562375,-0.70386112,-1.4152038500000002,0.431165795,-1.6519588500000002
292,1747532719120,1.21320855,1.1654954000000002,-0.59671995,-1.56434085,0.314785655,-2.04876985
293,1747532719130,1.3603751,1.163909,-0.539366485,-1.618403,0.223971855,-2.3941818
294,1747532719140,1.4345685,1.1619565,-0.51496077,-1.6500946,0.17949706,-2.576342
295,1747532719150,1.7306099499999998,1.11009435,-0.35363895,-1.74117475,0.099868545,-3.1649007
296,1747532719160,2.03067835,1.02382013,-0.166691109,-1.6919062500000002,0.073769563,-3.8059237
297,1747532719170,2.2311714,0.95694846,-0.041001618,-1.6250609,0.054328486,-4.240818
298,1747532719180,2.66669155,0.8400450500000001,0.08688438,-1.4016217,0.0109189605,-4.9827745
299,1747532719190,3.02911665,0.73912738,0.14924101,-1.20641195,0.0596548084999999,-5.6637448
300,1747532719200,3.4272959,0.6505346,0.162054015,-1.08204235,0.0572579634999999,-6.3433835
301,1747532719210,3.6054575,0.62600684,0.15180361,-1.0807108,0.024501082,-6.557768
302,1747532719220,4.35568975,0.465051075,0.0683360245,-1.18057935,-0.01384843795,-7.32502485
303,1747532719230,4.553132,0.37877685,0.009030119,-1.2559468,-0.030360037,-7.61238
304,1747532719240,4.84112,0.18133454,-0.09005712,-1.6000272,-0.15393071,-8.289355
305,1747532719250,5.094695,-0.19231711,0.16278619,-2.66502535,-0.320378285,-9.756491
306,1747532719260,5.24674295,-0.52606541,0.71972485,-2.84984875,-0.19414445,-10.006029
307,1747532719270,5.2833514,-0.62600684,0.9374239,-2.77022025,0.08202537,-10.0864565
308,1747532719280,5.3338714,-0.7924539,1.4167523,-2.64878,0.25300032,-10.084326
309,1747532719290,5.4544353,-1.1453607,2.2023726,-2.0586236,0.6609966,-9.963418
310,1747532719300,5.4261246,-1.2566508,2.3434377,-0.10705908,1.3321131,-9.805226
311,1747532719310,5.2408853,-1.3220581,2.3270857,0.98110855,1.3843112,-9.773802
312,1747532719320,4.8396551500000005,-1.4780107,2.05776865,2.4855282,1.21839625,-9.705358
313,1747532719330,4.26880515,-1.6293262,1.6273737499999998,2.9870014,1.1345067,-9.673134
314,1747532719340,3.863426,-1.7252407,1.3232784,3.8157773,0.8165252,-9.42546
315,1747532719350,3.3101485000000004,-1.8350665,1.03346042,4.0538639,0.724113485,-9.2243915
316,1747532719360,3.1246648,-1.8658178,0.94913864,4.110323,0.7078682,-9.157546
317,1747532719370,2.54844585,-1.92292705,0.70630165,4.16944505,0.642354465,-8.909872
318,1747532719380,2.3756533,-1.9329334,0.6399181,4.1699777,0.6194513,-8.811335
319,1747532719390,1.8165181,-1.9544104,0.40293851,4.000068,0.5320996,-8.188155
320,1747532719400,1.4221216,-1.9157274,0.2397862399999999,3.69646765,0.513457475,-7.55831775
321,1747532719410,1.15463485,-1.8837559,0.160467635,3.4977958,0.5267732700000001,-7.192133
322,1747532719420,0.8965443,-1.905599,0.10225999,3.20724495,0.40373522,-6.6813385
323,1747532719430,0.723385665,-2.0055404500000003,0.0604041715,2.9643646500000003,0.105194865,-6.2877233
324,1747532719440,0.68653303,-2.0718021,0.048323333,2.9113677,-0.06231797,-6.2163506
325,1747532719450,0.335456705,-2.17967525,-0.05979402675,2.6935211,-0.4508732,-5.9388491000000005
326,1747532719460,0.19451363,-2.1979795,-0.114218794,2.5848641,-0.55553544,-5.8056912
327,1747532719470,-0.15570852,-2.2755898,-0.2809098849999999,1.9491677,-0.6282397200000001,-5.1508197
328,1747532719480,-0.25845662,-2.3043885,-0.32801294,1.6698021,-0.5997439,-4.881574
329,1747532719490,-0.69458693,-2.42056,-0.43710655,0.7222493,-0.4383563,-3.8839543
330,1747532719500,-0.88983274,-2.4901161,-0.48689422,0.26205507,-0.39627838,-3.2794166
331,1747532719510,-1.1063116,-2.5345345,-0.5256993,-0.17470337,-0.3898868,-2.5667548
332,1747532719520,-1.3122959,-2.558208,-0.56670094,-0.59867865,-0.45486793,-1.722
333,1747532719530,-1.5570853,-2.5887153,-0.5947675,-1.3480922,-0.922519,0.41971418
334,1747532719540,-1.5151074,-2.5516186,-0.56474847,-1.663943,-1.2660668,1.5978967
335,1747532719550,-1.4213894,-2.5156201,-0.520574125,-1.78778,-1.4295849,2.15369835
336,1747532719560,-0.88824635,-2.3156152,-0.28188612,-2.15556265,-2.0250677,4.41552115
337,1747532719570,-0.7246059,-2.2565534,-0.22013964,-2.2003038,-2.1145499,4.8554754
338,1747532719580,0.147898686,-2.0272615,0.0251378965,-2.15236675,-2.3648871,6.30157185
339,1747532719590,0.30580372,-1.9888225,0.054424766,-2.1193435,-2.4005735,6.499711
340,1747532719600,0.64492125,-1.91536125,0.0580856235,-2.06102035,-2.46395675,6.9625685
341,1747532719610,0.8772638,-1.909626,0.0893249535,-2.0676783,-2.4889904,7.240868750000001
342,1747532719620,1.11741615,-1.92866245,0.18096845,-1.94916765,-2.4578315,7.761783250000001
343,1747532719630,1.2882562,-1.92256095,0.28994001,-1.6498283,-2.3299997,8.3415535
344,1747532719640,1.3586667,-1.9012059,0.34509695,-1.4759239,-2.2407837,8.536497
345,1747532719650,1.67325645,-1.8357987,0.33997174,-0.84129258,-1.77260005,9.203885
346,1747532719660,2.19468475,-1.78173995,0.138258425,-0.446079495,-1.4676681,9.7522295
347,1747532719670,2.5821257,-1.7450093,-0.0353883,-0.321709865,-1.29056785,10.20017325
348,1747532719680,3.218627,-1.7712455,-0.229535835,-0.50493535,-1.11533188,10.39218725
349,1747532719690,3.51296,-1.7816179,-0.2716357,-0.6215818,-0.97951066,10.461962
350,1747532719700,3.743106,-1.73719945,-0.29994635,-0.7496798650000001,-0.76752305,10.414558
351,1747532719710,4.2022998000000005,-1.52584595,-0.296773615,-1.5052187,-0.0689758789999999,10.553841
352,1747532719720,4.2634363,-1.4887493,-0.22916976,-1.79310645,-0.047404267,11.1692975
353,1747532719730,4.467468,-1.5011961,-0.020988923,-1.7267937,-0.128630678,11.709653
354,1747532719740,4.9233665,-1.560258,0.25601605,-1.6229304,-0.15233281,11.935223
355,1747532719750,5.4231963,-1.5395131,0.6889736,-1.0844392,-0.21038973,12.109926
356,1747532719760,5.83357835,-1.4617809,0.8506615,0.493483805,-0.070573769,11.842545
357,1747532719770,6.08507935,-1.3698933,0.60843469,1.3973607,-0.0303600375,11.186342
358,1747532719780,6.1059462,-1.15390265,0.252965335,1.46340705,-0.0106526454999999,10.474479
359,1747532719790,6.0677514,-1.0262607,0.04515059,1.3667343,0.020772656,10.136524
360,1747532719800,5.8710413,-0.8175918,-0.1564407,0.9044095,0.1736381,9.487246
361,1747532719810,5.2938459,-0.328134965,0.0046370849999999,0.1438107049999999,0.4913532,8.29761125
362,1747532719820,4.7886474,0.026480205,0.21721095,-0.16085493,0.6085323,7.38148355
363,1747532719830,4.5924253,0.14985114,0.29555333,-0.18162759,0.5949502,7.0563116
364,1747532719840,4.206815,0.3585201,0.3360668,-0.16405073,0.52357745,6.3846626
365,1747532719850,3.810466,0.5198419,0.2884757,-0.21997711,0.44687843,5.713013
366,1747532719860,3.4224148,0.6645679,0.21501444,-0.39627838,0.4612595,5.068528
367,1747532719870,2.725387,0.8881243,0.11861181,-1.3030848000000002,1.0599381,3.4767568
368,1747532719880,2.4015234,0.9581688,0.13716017,-1.4828482,1.2074772,3.2256207
369,1747532719890,2.0984042,1.0150341,0.21477039,-1.7528926,1.5084145,2.7984498
370,1747532719900,1.8704547,1.0657979,0.32215557,-1.8743328,1.7736653,2.4213462
371,1747532719910,1.6206621499999998,1.1873385,0.38731885,-1.66580725,2.16621525,1.7646105
372,1747532719920,1.5293847,1.29325935,0.301776785,-1.38670795,2.3465112,1.2349078
373,1747532719930,1.4975352,1.3340169,0.23575929,-1.2926984,2.359028,1.031176
374,1747532719940,1.415044,1.3957634,0.020744866,-1.2479573,2.2200112,0.46711847
375,1747532719950,1.3418267,1.4233419,-0.14204131,-1.3667343,2.0351877,0.009054748
376,1747532719960,1.1816032,1.44774755,-0.296651585,-1.86447915,1.65249145,-0.8250473
377,1747532719970,1.05981865,1.4212673,-0.3320398799999999,-2.2959113,1.43624275,-1.32838475
378,1747532719980,1.0312639,1.37745905,-0.3130034149999999,-2.583799,1.40242065,-1.55288925
379,1747532719990,1.1735493,1.3377998,-0.24369116,-2.9121667,1.5193333999999998,-1.9329223
380,1747532720000,1.39625155,1.29777445,-0.1741348449999999,-3.1526501,1.7494305,-2.48659345
381,1747532720010,1.5758777,1.2507934,-0.1521697,-3.2200282,1.94437395,-3.02721525
382,1747532720020,1.6676433,1.2254114,-0.14374973,-3.235741,2.0287962,-3.2943304
383,1747532720030,1.84861155,1.10204045,-0.163274305,-3.2807482500000003,2.1723405,-4.1087249
384,1747532720040,1.910236,1.0494461,-0.16766733,-3.294863,2.2050974,-4.369182
385,1747532720050,2.1357448,0.8473667,-0.102992155,-3.2250881,2.1209416,-5.1505537
386,1747532720060,2.49743785,0.7388833,0.0284326665,-3.04372695,1.86021805,-5.57559395
387,1747532720070,2.642896,0.7175283,0.10396838,-2.9454563,1.7651432,-5.7226005
388,1747532720080,3.0848835,0.6787232,0.23673552,-2.6056368,1.6245283,-6.0991716
389,1747532720090,3.9339588,0.43246946,0.22233616,-1.6969663,1.6303873,-7.415306
390,1747532720100,4.2190175,0.27187976,0.17108414,-1.17232358,1.59896195,-8.457134499999999
391,1747532720110,4.4025483,0.071264714,0.1701079,-0.99548966,1.5781893,-8.77991
392,1747532720120,4.484308,-0.14814276,0.19109683,-0.6247776,1.5398397,-9.212407
393,1747532720130,4.5719247,-0.353883,0.25162303,-0.23329292,1.4881744,-9.439841
394,1747532720140,4.722508,-0.52960426,0.5125202,0.2444782,1.4524881,-9.484582
395,1747532720150,4.722508,-0.52960426,0.5125202,0.2444782,1.4524881,-9.484582
396,1747532720160,4.96034135,-0.62734918,0.6072144500000001,1.7374463,0.96166745,-9.2390385
397,1747532720170,5.3077571500000005,-0.7786646349999999,0.515326885,2.8748825,0.18535602,-9.4664725
398,1747532720180,5.06211355,-0.887270085,0.30019041,3.08101115,-0.1139832949999999,-9.658753
399,1747532720190,4.8111005,-0.9525554,0.15497635,3.113768,-0.27324033,-9.732256
400,1747532720200,4.514571,-1.0240642,0.071264714,2.9390647,-0.3158509,-9.672602
401,1747532720210,4.0274325,-1.11949065,0.062722713,2.63599695,-0.28016454,-9.527992
402,1747532720220,3.7104024,-1.2049107,0.0988431875,2.47727255,-0.2668487499999999,-9.4172045
403,1747532720230,3.17542895,-1.33963025,0.1355738025,2.4117587,-0.2657835,-9.362077
404,1747532720240,2.8051941,-1.4262705,0.14887492,2.28659,-0.33289513,-8.981245
405,1747532720250,2.48865185,-1.492166,0.1450920299999999,2.252768,-0.376304655,-8.727179
406,1747532720260,2.01188595,-1.5486653,0.1409430549999999,2.2101575,-0.48229849,-8.29841
407,1747532720270,1.8516623,-1.5392691,0.14057697,2.201369,-0.5448828,-8.123707
408,1747532720280,1.28130055,-1.4985115,0.103968388,2.04690565,-0.87990842,-7.2688323
409,1747532720290,1.0133257,-1.4648316,0.08908089,1.9366508,-1.0535465,-6.8192906
410,1747532720300,0.7012985,-1.39295675,0.1111680754999999,1.7981664,-1.1632688,-6.382532
411,1747532720310,0.6040417,-1.3679409,0.111290105,1.54223665,-1.16593195,-5.658685
412,1747532720320,0.3261825,-1.3918585,0.108605475,1.2327773,-1.02851282,-4.988633699999999
413,1747532720330,0.1837751,-1.4518965499999998,0.143993775,0.97311905,-0.92864427,-4.4653223
414,1747532720340,0.1564407,-1.4780107,0.1718163,0.912399,-0.932639,-4.3334956
415,1747532720350,-0.02818861,-1.60418825,0.18365308,0.8495484,-0.97738016,-4.1039314
416,1747532720360,-0.1867037999999999,-1.7151123,0.156562725,0.728640875,-1.04795395,-3.72949085
417,1747532720370,-0.26943922,-1.7630696,0.13886857,0.68176925,-1.0604708,-3.5968654
418,1747532720380,-0.6487042,-1.9214628,0.046614934,0.42876893,-1.1084076,-2.8873992
419,1747532720390,-0.8358961,-1.9883344,-0.0156196635,0.20293288,-1.2234563,-2.263687
420,1747532720400,-1.0448091,-2.0434911,-0.08029483,0.091346428,-1.27006155,-1.9449066
421,1747532720410,-1.25713885,-2.07631705,-0.1211744275,-0.40400155,-1.4016217,-0.4359594755
422,1747532720420,-1.3176651,-2.0815644,-0.122272685,-0.5336975,-1.4146712,-0.007456851
423,1747532720430,-1.16037015,-2.06801915,-0.0458827629999999,-1.0583402,-1.34596165,2.3108249
424,1747532720440,-1.0816617,-2.059355,-0.012690976,-1.1318434,-1.3177321,2.757437
425,1747532720450,-0.99111645,-2.0403186,0.016351836,-1.18031295,-1.3006879,3.1771512
426,1747532720460,-0.529116095,-1.96380665,0.130692664,-1.21147205,-1.28976895,5.043761
427,1747532720470,-0.044052335,-1.8922978,0.22441064,-1.0953582000000002,-1.31933005,5.96761155
428,1747532720480,0.16900966,-1.8599603,0.227705405,-0.98856543,-1.3270532,6.3886573
429,1747532720490,0.268463,-1.8416561,0.22258021,-0.93849796,-1.3273195,6.579606
430,1747532720500,0.506418815,-1.8173723,0.13764829,-0.90174637,-1.30175315,7.0909328
431,1747532720510,0.754625025,-1.82396185,0.066139512,-0.98137487,-1.1829762,7.5473985
432,1747532720520,1.022111775,-1.83848325,0.024039637,-1.0466223,-1.0881677,7.83502
433,1747532720530,1.23566185,-1.8437305,0.02660224,-1.20161835,-0.9819075,8.178834
434,1747532720540,1.3493925,-1.8389714,0.03734076,-1.2500879,-0.9470201,8.273909
435,1747532720550,1.7169427000000002,-1.8162741,0.0545467949999999,-1.38005015,-0.73769562,8.5609975
436,1747532720560,1.867282,-1.8123692,0.05222825,-1.5877767,-0.50946273,8.7713875
437,1747532720570,2.45509385,-1.74818205,-0.0547908545,-1.8682075,-0.25832663,9.0214585
438,1747532720580,2.65778335,-1.7828383,-0.0633328555,-2.1166805,-0.07323693,9.293101
439,1747532720590,2.7656567,-1.8135895,-0.059305906,-2.245045,0.02609898,9.451559
440,1747532720600,3.0363162,-1.9014499,-0.03294773,-2.4682178,0.29507825,9.851565
441,1747532720610,3.76714565,-1.89303005,0.1078733006499999,-2.70683695,0.532632235,10.66383
442,1747532720620,4.1326213,-1.8453168,0.20964517,-2.7073696,0.448742675,11.2009895
443,1747532720630,4.7110375,-1.73780965,0.40781966,-2.5702168,0.291083525,11.4212325
444,1747532720640,4.912873,-1.7096211,0.46956614,-2.4825988,0.2146508,11.501127
445,1747532720650,5.323621,-1.6639824,0.5952556,-2.2413163,0.14274544,11.446266
446,1747532720660,5.5747557,-1.6256653,0.7311955,-1.911617,0.18322548,11.202853
447,1747532720670,5.495193,-1.4650757,0.8502954300000001,-1.01519702,0.465520575,10.6526445
448,1747532720680,5.51996475,-1.36464615,0.72668045,-0.88843054,0.53263223,10.565293
449,1747532720690,5.58525,-1.3159567,0.6433349,-0.85487473,0.6423545,10.276073
450,1747532720700,5.6594434,-1.1407236,0.49909708,-1.0945592,0.73130405,9.672602
451,1747532720710,5.3704795,-0.6578563399999999,0.506052705,-1.7534252499999998,0.911600055,8.57431375
452,1747532720720,5.181579,-0.43808278,0.62356627,-2.0431771,0.96992326,8.001734
453,1747532720730,4.9233665,-0.20183535,0.8268659,-2.016013,0.8410263,7.309312
454,1747532720740,4.595354,0.025381953,0.9938011,-1.7731327,0.63915867,6.560431
455,1747532720750,3.80668285,0.4327135,1.01820685,-1.1875036,0.28362666,5.35002445
456,1747532720760,3.1879979,0.661761225,0.85505455,-0.7645935749999999,0.132625425,4.21924625
457,1747532720770,2.76785335,0.7670719,0.6798214499999999,-0.59068915,0.203998145,3.1467912
458,1747532720780,2.38309715,0.8461464750000001,0.5525456,-0.716390325,0.463390015,2.56435785
459,1747532720790,2.2106707,0.8776299,0.5112999,-0.8005462,0.6040049,2.3366575
460,1747532720800,1.8275007,0.94962675,0.5163031,-1.027980165,1.202683615,1.68631365
461,1747532720810,1.3476841,1.0578661,0.53192277,-1.0285128,1.60162515,1.2913668
462,1747532720820,1.1983211,1.12022275,0.5363158,-0.87191895,1.77712745,1.086836015
463,1747532720830,1.12547005,1.1744035,0.51544893,-0.617853385,1.882056,0.8910937000000001
464,1747532720840,1.1053354,1.2024701,0.5008055,-0.46711847,1.9169434,0.78989357
465,1747532720850,1.0172306,1.2808125,0.23136626,0.0958738,1.6783241,0.22796659
466,1747532720860,0.953897725,1.3312102499999998,0.019890671,0.16431704,1.2570121,-0.2386192425
467,1747532720870,0.9401085,1.3418267,-0.032703668,0.1555286,1.1110709,-0.40213734
468,1747532720880,0.93156655,1.33706765,-0.104456505,-0.0053263229999999,0.784567275,-0.8857674
469,1747532720890,0.9113098,1.30009295,-0.11641531,-0.218911845,0.810399925,-1.18217725
470,1747532720900,0.9066727,1.2686096,-0.12007617,-0.3685815,0.90014845,-1.3347764
471,1747532720910,0.92595315,1.2493291,-0.15204766,-0.5656554,1.0530139,-1.4157364
472,1747532720920,1.134256,1.2294384,-0.160101555,-0.8628642,1.2583437,-1.6695357
473,1747532720930,1.2434716,1.2227268,-0.15448824,-0.96086854,1.3326459,-1.8136127
474,1747532720940,1.7037637,1.1702545,-0.123004854,-1.1467572,1.3267869,-2.6871295
475,1747532720950,1.8877828,1.1204668,-0.09884319,-1.1968247,1.2106731,-3.2415998
476,1747532720960,2.1552695,0.97330033,-0.0125689485,-1.1941615,1.05887285,-3.96597935
477,1747532720970,2.38797805,0.86445081,0.0626006815,-1.1198593,1.0191918,-4.3856937
478,1747532720980,2.5074441,0.81734776,0.09518232,-0.90307798,0.969657,-4.97345355
479,1747532720990,2.8762147,0.66700846,0.09640261,-0.74089146,0.9289106,-5.3561497
480,1747532721000,3.0665793,0.53936654,0.023429496,-0.65034395,0.7653925,-5.82966
481,1747532721010,3.5523752,0.292502605,0.06845806,-0.62051654,0.63862604,-6.260559
482,1747532721020,3.7182121,0.20769271,0.110801995,-0.5299691,0.6199839,-6.698383
483,1747532721030,4.0276766,0.039537273,0.2186753,-0.33822146,0.72437984,-7.0840087
484,1747532721040,4.7593603,-0.22453266,0.40293851,0.37550572,0.8330368,-7.882957
485,1747532721050,5.251867649999999,-0.4811589,0.40000983,0.97764643,0.41864892,-8.510664
486,1747532721060,5.580978849999999,-0.6972716,0.364987615,1.27698575,-0.0202400099999999,-8.934639
487,1747532721070,5.7963592,-0.96902935,0.369136585,1.49749555,-0.6831008000000001,-9.5263935
488,1747532721080,5.855665,-1.1307173,0.39195594,1.5952336,-1.1046792,-9.903231
489,1747532721090,5.8312597,-1.227852,0.44418418,1.5632756,-1.180313,-10.033194
490,1747532721100,5.7177735,-1.3515890499999998,0.4872603,1.5062839,-0.745951425,-10.10589725
491,1747532721110,5.594158500000001,-1.39076025,0.44223173,1.4202638,-0.32463933,-10.10589725
492,1747532721120,5.3313086,-1.4464053,0.36889253,1.2010857,0.1872202349999999,-10.080864
493,1747532721130,5.0218439,-1.55501075,0.34460884,1.0024139,0.52917014,-10.0912505
494,1747532721140,4.9006696,-1.6176114,0.36266908,0.964597,0.5763081,-10.115751
495,1747532721150,4.342144449999999,-1.80761,0.4679797499999999,1.0972224,0.447677385,-10.1429155
496,1747532721160,3.92090165,-1.92756415,0.5560844,1.34516275,0.26764769,-10.118681
497,1747532721170,3.7248018,-1.9829651,0.6016011,1.4940335,0.17204021,-10.105099
498,1747532721180,2.67755215,-2.1823599,0.6701812250000001,2.50070835,-0.37310888,-9.784454
499,1747532721190,2.467419,-2.2035928,0.65163285,2.6935213,-0.47351006,-9.655557
500,1747532721200,2.0944993,-2.2189684,0.5588911,2.9800773,-0.65460503,-9.322662
501,1747532721210,1.71035315,-2.1741841,0.360960665,3.10471335,-0.799747275,-8.745289
502,1747532721220,1.6007715,-2.1494124,0.2975058,3.0919302,-0.8271778,-8.545019
503,1747532721230,0.99477735,-2.046664,0.0306291835,2.3877903,-0.8660600249999999,-7.25578235
504,1747532721240,0.8956901,-2.0464199,-0.006833603,2.197108,-0.86659265,-7.0046463
505,1747532721250,0.73180565,-2.1646657,0.046004793,1.700961,-0.94728645,-6.368151
506,1747532721260,0.6987359,-2.2201886,0.06687169,1.5622103,-1.0135992,-6.205698
507,1747532721270,0.16498269,-2.4281254,0.0622346,1.1909657,-1.2564794,-5.7630806
508,1747532721280,-0.396715065,-2.5837121,-0.072851083,0.7384946,-1.15634455,-5.1295147
509,1747532721290,-0.58110034,-2.6338658,-0.11861181,0.561927,-1.0924287,-4.8783784
510,1747532721300,-1.14060157,-2.7101337,-0.1500952099999999,0.19600865,-0.9491506,-4.247742
511,1747532721310,-1.3240106,-2.7231908,-0.14570218,-0.18269286,-0.7526093,-3.2506545
512,1747532721320,-1.8478794,-2.7299024000000003,-0.01500952,-0.448742645,-0.55686695,-0.7174556
513,1747532721330,-1.8858303,-2.7317328,0.00707766,-0.44048685,-0.5592638,-0.1736381
514,1747532721340,-1.9187781,-2.7012258,0.010494461,-0.3653857,-0.64395237,0.9651296
515,1747532721350,-1.86496345,-2.6854839,-0.001708401,-0.3057309,-0.78296936,2.1081583
516,1747532721360,-1.5629426,-2.625812,-0.022697324,-0.26525086,-0.91133374,3.1654334
517,1747532721370,-0.79269795,-2.42214625,-0.0023185435,-0.22264028,-1.0503508,4.934838
518,1747532721380,-0.4177039849999999,-2.32696395,0.0128130054999999,-0.2055960399999999,-1.14995295,6.046973700000001
519,1747532721390,-0.21940747,-2.2731493,0.019768637,-0.19867182,-1.1829761,6.308496
520,1747532721400,0.2146483625,-2.1463615,0.0151315499999999,-0.17923075,-1.2615394,6.8786787
521,1747532721410,0.560477485,-2.06289385,-0.0525943385,-0.299339315,-1.20880885,7.29146875
522,1747532721420,0.8772638,-1.99419175,-0.133011202,-0.5371596000000001,-1.0713897499999998,7.646201749999999
523,1747532721430,0.9752528,-1.973691,-0.15790504,-0.6562029,-1.0045444,7.753527
524,1747532721440,1.1412116,-1.9851615,-0.19939478,-0.95927066,-0.9193232,7.968711
525,1747532721450,1.5080296999999998,-2.05191135,-0.1190999349999999,-1.52838815,-0.92544852,8.3442165
526,1747532721460,1.82762265,-2.07595085,-0.0045150589999999,-1.9017634,-0.78509992,8.853679
527,1747532721470,2.1729636,-2.05410765,0.0262361534999999,-2.1411816,-0.57364492,9.346364
528,1747532721480,2.5845661,-1.9782059,0.0229413809999999,-2.26981225,-0.4500742199999999,9.5655425
529,1747532721490,2.9909215,-1.9035245,0.0280665835,-2.3355923,-0.406931,9.647568
530,1747532721500,3.3134432,-1.83470035,0.072118918,-2.5366609,-0.380033095,9.7825895
531,1747532721510,3.4424274,-1.7967494,0.107873306,-2.6525085,-0.1621865129999999,10.1743405
532,1747532721520,4.2302444,-1.63652595,0.277249035,-2.7169571,0.0942759069999999,10.6688895
533,1747532721530,4.6686932500000005,-1.4969252000000002,0.42368339,-2.62667585,0.21278658,10.882741500000002
534,1747532721540,4.884806,-1.4294434,0.5127643,-2.5369272,0.25726137,10.932809
535,1747532721550,5.3786557,-1.31485845,0.68360433,-1.85782125,0.16591494,10.435064
536,1747532721560,5.516792349999999,-1.2263877,0.77951883,-1.163535075,-0.0197073949999999,9.949836
537,1747532721570,5.32020405,-1.2173575,0.7950165,-0.6066681,-0.17310547,9.7607515
538,1747532721580,5.1088502,-1.232123,0.772685275,-0.0524642749999999,-0.26871296,9.7620835
539,1747532721590,5.1291072,-1.17928465,0.7111828250000001,0.7091998500000001,-0.2428803,9.958092
540,1747532721600,5.37597135,-1.012715535,0.60599415,1.40108915,-0.168045465,9.932792
541,1747532721610,5.567678000000001,-0.733147985,0.5265535,1.74889795,-0.180828645,9.4707335
542,1747532721620,5.6228347,-0.5779276,0.511788,1.8924423,-0.21784659,9.179916
543,1747532721630,5.376947400000001,-0.1252013665,0.33240597,2.1715416000000003,-0.328367765,8.000935
544,1747532721640,5.2245336,0.002928687,0.2506468,2.2125542,-0.35100463,7.591607
545,1747532721650,4.337385,0.37243137,-0.1330112,1.7678064,-0.04527374,6.0879865
546,1747532721660,3.6573198,0.600380835,-0.3354567,0.92784535,0.516386935,5.1883705
547,1747532721670,3.22680275,0.72253145,-0.41453125,0.233825555,0.99229385,4.6823699
548,1747532721680,3.0158153,0.7721971,-0.43637437,-0.13369069,1.2474247,4.4496098
549,1747532721690,2.298531,1.0284572,-0.3738957,-1.6879115,2.269546,3.5153728
550,1747532721700,2.00309985,1.14645895,-0.240396385,-2.194445,2.4474452,3.1100395
551,1747532721710,1.9358622,1.1675699,-0.19793043,-2.5497105,2.4474452,2.6754117
552,1747532721720,1.62505525,1.2665351,-0.128496145,-2.8549087,2.1475732,2.0064256
553,1747532721730,1.300337,1.34194875,-0.081149035,-3.03120995,1.6431703999999998,1.5068166
554,1747532721740,1.1075318,1.3742863,-0.05027579,-3.1302795,1.2879047,1.2181299
555,1747532721750,1.03138585,1.3924686,0.01159272,-3.2807482,1.00214755,0.8551410500000001
556,1747532721760,1.00258717,1.4246842000000002,0.062600683,-3.37821995,0.92571483,0.60507022
557,1747532721770,0.99038434,1.4416462,0.08932495,-3.4205642,0.90973586,0.49321744
558,1747532721780,1.06079485,1.471055,0.222824265,-3.5907401,1.04822022,0.076965355
559,1747532721790,1.23456365,1.49863355,0.3449749199999999,-3.63361705,1.2460931,-0.28948562
560,1747532721800,1.41602025,1.5270662499999998,0.43112711,-3.56091285,1.3877733,-0.653007125
561,1747532721810,1.59064315,1.547445,0.50458835,-3.4381411,1.4849787,-1.1166635
562,1747532721820,1.7509887,1.51571755,0.5974521500000001,-3.10924065,1.61334305,-1.9739351
563,1747532721830,1.8769223,1.4320059,0.67884525,-2.6767433,1.75449055,-2.81149925
564,1747532721840,1.96136605,1.32706125,0.71008457,-2.28366065,1.84610325,-3.2823461
565,1747532721850,2.05557215,1.1934399,0.7204569700000001,-1.8162758,1.91854125,-3.7446708
566,1747532721860,2.1600287,1.042124425,0.703495,-1.2868394,1.9694077,-4.1699775
567,1747532721870,2.35271185,0.821496695,0.5640163,-0.45833001,1.9987025,-4.664793
568,1747532721880,2.59542685,0.612461685,0.3559575,0.31318774,1.9648803,-5.1074105
569,1747532721890,2.6968327,0.54961693,0.2711476,0.535828,1.9244002,-5.252819
570,1747532721900,3.09903895,0.3730415099999999,-0.0007321679999999,0.97764645,1.67938945,-5.81607775
571,1747532721910,3.3269883,0.259920965,-0.17230441,1.14089825,1.4064154,-6.315686749999999
572,1747532721920,3.419486,0.20403185,-0.25479576,1.1989552,1.2341089,-6.5918565
573,1747532721930,3.7972865,0.0417337849999999,-0.377068445,1.0737866,0.9661949,-7.1718929
574,1747532721940,4.314688,-0.1986625899999999,-0.494582015,0.8815063249999999,0.6647250499999999,-7.951133649999999
575,1747532721950,4.53848865,-0.3422902799999999,-0.462122415,0.776311455,0.6282397200000001,-8.3045355
576,1747532721960,4.80146025,-0.46761368,-0.43173729,0.689492405,0.7366303700000001,-8.555938000000001
577,1747532721970,4.9802322,-0.5274077,-0.42905265,0.5512743449999999,0.917725315,-8.6832365
578,1747532721980,5.45211685,-0.60953298,-0.5047104,0.46179214,0.98750013,-8.71333
579,1747532721990,5.6162457,-0.64235866,-0.4983649,0.031957935,1.02052335,-9.0896355
580,1747532722000,6.0537181,-0.7597502,-0.19426957,-0.078296938,0.9209211,-9.429721
581,1747532722010,6.1519511,-0.887148075,0.07724412,0.0034621094999999,0.81732415,-9.819075000000002
582,1747532722020,5.7995324,-1.185874175,0.43539812,0.5685848975,0.75101145,-10.224142
583,1747532722030,5.22709605,-1.4852104499999998,0.69043794,1.3728596,0.7478156499999999,-10.3786055
584,1747532722040,4.769610849999999,-1.6252993,0.686777075,2.03492145,0.790692525,-10.206299
585,1747532722050,4.33226,-1.7035196,0.58683565,2.6216158,0.768588305,-9.93732
586,1747532722060,3.79984915,-1.76648635,0.38133946,3.18221135,0.485227975,-9.5639445
587,1747532722070,3.3056334,-1.82506005,0.188778275,3.5057854,0.134755956,-9.2531535
588,1747532722080,2.9811592,-1.85886195,0.1049446175,3.49646425,-0.0631169239999999,-9.074722
589,1747532722090,2.64411615,-1.8920538,0.0418558194999999,3.38541045,-0.21012342,-8.8622015
590,1747532722100,2.28132495,-1.9123106,0.0067115735,3.1939291,-0.3139867,-8.5921565
591,1747532722110,1.7578222,-1.90401265,-0.010494462,2.799515,-0.413588925,-8.05260015
592,1747532722120,1.2864257,-1.87008865,-0.020256751,2.3441145,-0.451672125,-7.43927465
593,1747532722130,1.03053173,-1.8442185,-0.0226973239999999,1.9377161,-0.328367765,-6.9330075
594,1747532722140,0.91204196,-1.8375069,-0.022941383,1.7044232,-0.2247708,-6.651511
595,1747532722150,0.480914825,-1.9079175,0.054058681,1.0697918,0.0434095245,-5.801163900000001
596,1747532722160,0.27358818,-2.0541078,0.1338654,0.771517785,0.060986388,-5.325256700000001
597,1747532722170,0.047713195,-2.2074977,0.0938400115,0.66632292,-0.023702135,-5.10448065
598,1747532722180,-0.10372432,-2.2902331,0.049543623,0.60293967,-0.07137272,-4.9827743
599,1747532722190,-0.41489733,-2.3761413,-0.0353883034999999,0.37177729,-0.123836995,-4.584365399999999
600,1747532722200,-0.98879797,-2.4871874,-0.14374972,0.00319579,-0.191747605,-3.89833525
601,1747532722210,-1.3403624,-2.5140338,-0.144847977,-0.341949915,-0.2455434699999999,-2.78247085
602,1747532722220,-1.4817936,-2.51549815,-0.104700562,-0.55899755,-0.3201119799999999,-1.552623
603,1747532722230,-1.56513915,-2.510983,-0.08859278,-0.5571333,-0.4106594449999999,-0.73370092
604,1747532722240,-1.6128523,-2.5003665,-0.1092156149999999,-0.545948,-0.46498793,-0.31638354
605,1747532722250,-1.594426,-2.42873575,-0.171084135,-0.629571275,-0.69029135,1.5891083
606,1747532722260,-1.4684924499999998,-2.32013035,-0.20207941,-0.7827030500000001,-0.84235785,3.06982585
607,1747532722270,-1.2550644,-2.2304392,-0.159369385,-0.8993495,-0.8921589750000001,4.00859015
608,1747532722280,-0.97842555,-2.1365991,-0.0748035465,-0.9622001,-0.8807073750000001,4.8549428
609,1747532722290,-0.8246695,-2.08913,-0.020988923,-0.9736517,-0.8612663,5.248558
610,1747532722300,-0.1996388215,-1.93268935,0.0645531425,-0.817324165,-0.6791061,6.48825955
611,1747532722310,0.059794027,-1.8770443,0.065163285,-0.7331682850000001,-0.60906495,7.11490135
612,1747532722320,0.3446088499999999,-1.8511742,0.0120808346,-0.7355651350000001,-0.651941825,7.439807
613,1747532722330,0.5592572,-1.8494659,-0.0071996889,-0.7621967350000001,-0.768321995,7.699998
614,1747532722340,0.6816519,-1.8514184,-0.011714748,-0.7765778,-0.84635264,7.811052
615,1747532722350,0.99258075,-1.7811298,-0.06284474,-0.7893609500000001,-1.1177287,7.9034634
616,1747532722360,1.22114045,-1.7075466,-0.132889175,-0.96512955,-1.40082275,7.82250315
617,1747532722370,1.41675235,-1.64531195,-0.18548352,-1.25062045,-1.6207999,7.7577885
618,1747532722380,1.4804512,-1.6256653,-0.19378147,-1.371528,-1.6474315,7.763115
619,1747532722390,1.74574145,-1.6904626,-0.126543685,-2.00722455,-1.17099195,8.1910845
620,1747532722400,2.00346585,-1.74391115,-0.0296529555,-2.5358621,-0.6311692,8.691492499999999
621,1747532722410,2.33086875,-1.79540725,0.0523502795,-2.89911725,-0.2790992825,9.069928
622,1747532722420,2.6930497,-1.8403137,0.15705084,-3.2344092,0.0647148175,9.451559
623,1747532722430,3.04571235,-1.8604484,0.29445507,-3.3907368,0.2412824,9.647035
624,1747532722440,3.2283893,-1.8594722,0.3687705,-3.6139097,0.5763081,9.975137
625,1747532722450,3.92370835,-1.8270126,0.66835078,-3.47356105,0.827444175,9.93439
626,1747532722460,4.33238215,-1.83348015,0.8778739200000001,-3.0506511,0.7131946,9.7447725
627,1747532722470,4.41096865,-1.8813153,0.97427652,-2.5566347,0.553671225,9.72399975
628,1747532722480,4.41499575,-2.03189855,0.9907504,-1.9827235,0.3898867849999999,9.91681275
629,1747532722490,4.4054775,-2.148924,0.9659786,-1.6852484,0.30786142,10.082195
630,1747532722500,4.8502717,-2.23763885,0.83833665,-0.54088803,-0.049801114,11.275292
631,1747532722510,5.220628700000001,-2.22470385,0.758163825,-0.2261023875,-0.1123854,11.391938
632,1747532722520,5.588300950000001,-2.13293845,0.698857915,0.0327568825,-0.0716390345,11.1900705
633,1747532722530,5.814419750000001,-1.7814959999999995,0.705935595,0.5020058700000001,-0.01331580615,10.2867265
634,1747532722540,5.714234,-1.30924515,0.7217993149999999,1.1108045,-0.11797803665,9.1530185
635,1747532722550,5.3718218,-0.933519,0.6822620349999999,1.62692515,-0.406664705,8.32850385
636,1747532722560,4.9333733,-0.557060675,0.58000205,2.13479,-0.760598835,7.49866285
637,1747532722570,4.4610005,-0.2118417,0.3932982499999999,2.5124262,-1.097755065,6.660565999999999
638,1747532722580,4.233417,-0.05906185,0.281398,2.64878,-1.2500879,6.239254
639,1747532722590,3.8192518,0.18182266,0.004148973,1.8998991,-1.051416,4.43789175
640,1747532722600,2.83191825,0.628935515,-0.46407487,0.78536618,-0.389087824,3.20378295
641,1747532722610,2.6553428,0.68604493,-0.4803047,0.35153726,-0.056991648,2.898052
642,1747532722620,2.2332457,0.73571055,-0.371211065,-0.767256735,1.08310767,2.2389196
643,1747532722630,1.91462905,0.7562113500000001,-0.196100005,-1.3930996,2.000833,1.7861821999999998
644,1747532722640,1.7169427,0.7734174,-0.07443746,-1.7006947,2.541721,1.5132082
645,1747532722650,1.4726414,0.83711633,-0.0029286875,-1.7451694999999998,2.7664917,1.20161835
646,1747532722660,1.4033291,0.861278,0.017328065,-1.7198695,2.755839,1.1073424
647,1747532722670,1.2913069,0.949870795,0.0008542009999999,-1.5078817999999998,2.3073629,0.724646125
648,1747532722680,1.18477585,1.042978625,-0.0517401375,-1.381648,1.6511599499999998,0.331030915
649,1747532722690,1.09288835,1.112901,-0.088104667,-1.30921,0.9622001,-0.03621899
650,1747532722700,1.0869089500000002,1.1260801,-0.0727290585,-1.2942963,0.586428085,-0.23995082
651,1747532722710,1.1028947,1.11961265,0.0003660864999999,-1.2508867499999998,0.347808835,-0.4117247149999999
652,1747532722720,1.1150976,1.1111927,0.05222825,-1.08577075,0.27643612,-0.636761825
653,1747532722730,1.22321495,1.09288835,0.242959005,-0.9539443,0.28815404,-0.7866978
654,1747532722740,1.2505494,1.0963051,0.2706595,-0.7680557,0.43729106,-0.9912286
655,1747532722750,1.3869774,1.0285793,0.23319671,-0.4908206149999999,0.680703995,-1.489506
656,1747532722760,1.46910265,0.978669615,0.180114245,-0.4117247149999999,0.76246303,-1.81308005
657,1747532722770,1.5077857,0.95572823,0.15717287,-0.386691,0.78723043,-1.9760655
658,1747532722780,1.8699667,0.80185005,0.132156995,-0.2593919,0.7307714,-2.612561
659,1747532722790,1.9829651,0.76267886,0.12690976,-0.18375812,0.5747102,-2.9694247
660,1747532722800,2.2116468,0.63418277,0.1834090199999999,0.000798948,0.2780340249999999,-3.53028645
661,1747532722810,2.32171665,0.52545524,0.223434415,0.119575935,0.06737798,-3.87436675
662,1747532722820,2.374433,0.46639338,0.24576566,0.17150758,-0.04580637,-4.0384173
663,1747532722830,2.8563241,0.2340509,0.5363158,0.6729807999999999,-0.500141665,-4.952947
664,1747532722840,2.9958029,0.191829,0.57524294,0.7840346,-0.5273059,-5.154282
665,1747532722850,3.448529,0.0529604199,0.583052755,1.0887003000000002,-0.46658583,-5.871205
666,1747532722860,3.8993027,-0.1244692001,0.45138388,1.1265172,-0.4181163049999999,-6.6587017500000005
667,1747532722870,4.211452,-0.25162303,0.3385074,1.0812434,-0.39894155,-7.1942635
668,1747532722880,4.463563,-0.4183141,0.29604146,0.8309063,-0.34621096,-7.710917
669,1747532722890,4.822449199999999,-0.6583444,0.443696065,0.452737375,-0.22370554,-8.4464825
670,1747532722900,4.940207,-0.7385172,0.52423495,0.34461305,-0.17257284,-8.710668
671,1747532722910,5.50971425,-1.1971008,1.00966483,0.50813115,-0.1528654549999999,-9.4150735
672,1747532722920,5.5652375,-1.2764194,1.087031,0.6870956,-0.15925704,-9.733321
673,1747532722930,5.6477284,-1.4006445,1.2134526,0.99495703,-0.16990969,-9.933591
674,1747532722940,5.6822629,-1.55281425,1.34902645,1.58617875,-0.28655614,-10.1618245
675,1747532722950,5.64150545,-1.63176675,1.3645241,2.00988775,-0.37950047,-10.270481
676,1747532722960,5.40843075,-1.77527245,1.3108315,2.69272235,-0.587759665,-10.4734135
677,1747532722970,5.209402,-1.8775325,1.2666571,3.29379775,-0.811465215,-10.657172
678,1747532722980,4.539953000000001,-2.02469895,0.95133515,3.49406745,-0.913197975,-10.7120335
679,1747532722990,4.335433,-2.0735104,0.8751893,3.5654402,-0.95447695,-10.738399
680,1747532723000,3.4452341000000004,-2.1418463,0.55181343,3.4333474,-1.092695,-10.52215
681,1747532723010,2.8315521500000003,-2.15148665,0.374383825,3.1308122000000003,-1.15261615,-10.199907
682,1747532723020,2.5084204,-2.1368432000000004,0.35449314,2.84505495,-1.1672636,-9.905894
683,1747532723030,2.20103035,-2.08729955,0.386830715,2.58806,-1.1757857,-9.553025
684,1747532723040,2.0532537,-2.0566704,0.4131889,2.4730115,-1.1776499,-9.360478
685,1747532723050,1.66874145,-1.9674676,0.4766437999999999,2.2058964,-1.1169298,-8.564726
686,1747532723060,1.5338998,-1.9456245,0.49055508,2.143312,-1.0823087,-8.320248
687,1747532723070,1.0792211,-1.8916876,0.52301466,1.96274975,-0.773914625,-7.1125045
688,1747532723080,0.7571876500000001,-1.9026703,0.49909705,1.87965915,-0.7091997999999999,-6.64591885
689,1747532723090,0.6897058,-1.9239032,0.4881145,1.8311896,-0.7105314,-6.421947
690,1747532723100,0.36974673,-2.0032219,0.41990049,1.7603495,-0.75101143,-6.081595
691,1747532723110,0.098721157,-2.0316545,0.33313815,1.3219932,-0.82557998,-5.0277817
692,1747532723120,0.032215554,-2.042515,0.2979939,0.99415805,-0.7203851,-4.52497695
693,1747532723130,-0.086396267,-2.1453853,0.235271185,0.68043767,-0.57630805,-4.14307975
694,1747532723140,-0.13496366,-2.1816278,0.22258021,0.52411014,-0.5028048,-3.969708
695,1747532723150,-0.40952806,-2.25252655,0.1735247,0.071106405,-0.3320962,-3.43627685
696,1747532723160,-0.7793968,-2.3168355500000004,0.1116561849999999,-0.351537265,-0.22397186,-2.7150928
697,1747532723170,-1.1545128,-2.3650367,0.05771954,-0.7555388249999999,-0.154463345,-1.82666215
698,1747532723180,-1.33633545,-2.3828529,0.049055505,-0.9882991,-0.11371698,-1.04102965
699,1747532723190,-1.4091865,-2.3895645,0.05296042,-1.0929613,-0.08735169,-0.6146576
700,1747532723200,-1.479231,-2.3871238,0.09737884,-1.2373047,0.04261058,0.5635249
701,1747532723210,-1.3203497,-2.26668165,0.171572235,-1.25354995,0.236222385,1.9952402
702,1747532723220,-1.2478647,-2.2328796,0.17572121,-1.2405005,0.29827404,2.466087
703,1747532723230,-0.89459183,-2.1117053,0.133987433,-1.0894992,0.3765709849999999,4.4839642
704,1747532723240,-0.4829893,-2.0199398,0.05564505162,-1.04209495,0.297208785,5.3561497
705,1747532723250,-0.21501444,-1.9666133,0.00024405724,-1.0215886,0.23861924,5.8839884
706,1747532723260,-0.21501444,-1.9666133,0.00024405724,-1.0215886,0.23861924,5.8839884
707,1747532723270,0.21281794,-1.9529461,-0.10860548,-1.0263823,0.18162759,6.741526
708,1747532723280,0.4870162449999999,-2.04629805,-0.21403821,-1.0370349,0.107858027,7.364972099999999
709,1747532723290,0.8299166649999999,-2.1368432000000004,-0.30616982,-1.1379687,-0.109455923,7.99640785
710,1747532723300,1.1021625,-2.1987116,-0.36755022,-1.2303804,-0.29188246,8.409198
711,1747532723310,1.4421343,-2.1684487,-0.4253918,-1.4807176,-0.73609775,8.761267499999999
712,1747532723320,2.05471795,-2.03812205,-0.449065345,-1.69483575,-1.05487815,8.9085405
713,1747532723330,2.2492316,-2.0071268,-0.45126185,-1.8109496,-1.2010857,8.970592
714,1747532723340,2.762484,-1.9495293,-0.37584817,-2.485262,-1.1089402,9.448363
715,1747532723350,3.0067853,-1.9129207,-0.1281300465,-2.8493161,-0.356863587,10.183129
716,1747532723360,3.0919614,-1.9170696,-0.048323333,-2.9449236,-0.044208474,10.507236
717,1747532723370,3.4380345,-1.9993169,0.12471326,-2.77980775,0.92225268,11.461447
718,1747532723380,3.4380345,-1.9993169,0.12471326,-2.5411885,1.2777847,11.684886
719,1747532723390,5.303486,-1.8814373,0.518865715,-1.72945685,0.9803096,11.308315
720,1747532723400,5.4158741500000005,-1.7830823,0.56426035,-1.07298767,0.43888895,11.0904685
721,1747532723410,5.4382055000000005,-1.7339048,0.535949715,-0.297208785,-0.178698115,10.921091
722,1747532723420,5.4305177,-1.7240205,0.49885303,0.12996227,-0.48629323,10.842261
723,1747532723430,5.3990345,-1.7601409,0.36047253,0.66525763,-0.82557994,10.779943
724,1747532723440,5.4938504,-1.80748795,0.0885927785,1.21839625,-0.640490245,11.002584
725,1747532723450,5.565481,-1.786255,0.033923957,1.2277173,-0.46658584,11.043064
726,1747532723460,5.76475465,-1.581735,-0.0390491605,0.9893644,0.1115864525,10.836136
727,1747532723470,5.8193015,-1.1746474999999998,0.021965152,0.8303736500000001,0.336623565,10.4499775
728,1747532723480,5.804658,-0.8671354,0.065163285,0.7680557,0.41278997,10.208429
729,1747532723490,5.4434530500000005,-0.28029976,0.087372493,0.788828325,0.206128668,7.978564299999999
730,1747532723500,4.98767615,0.140332925,0.08517598,0.901213725,-0.075101142,6.8437915
731,1747532723510,4.48015905,0.485429875,0.0218431249999999,0.9518138,-0.21145499,6.3500414
732,1747532723520,4.2224345,0.63284045,-0.02831064,0.908138,-0.43036684,5.40888
733,1747532723530,3.0171578,1.0330943,-0.25552794,-0.1025317,-0.08868327,3.3907367
734,1747532723540,2.7695618,1.0970373,-0.2716357,-0.39414784,0.09161274,3.0525153
735,1747532723550,2.250696,1.163665,-0.219163415,-1.22079305,0.844488385,2.26421955
736,1747532723560,2.097184,1.1670818,-0.19451363,-1.468467,1.1174624,2.0378509
737,1747532723570,1.5143752,1.2313908,-0.0525943385,-2.03998135,2.0916468,1.1515509
738,1747532723580,1.34329105,1.257749,-0.01293503415,-1.9917782,2.08898365,0.87325055
739,1747532723590,1.2654368,1.2683655,-0.0056133163,-1.9441077,2.0314593,0.7419567
740,1747532723600,1.0340706,1.30534015,0.048689421,-1.70788525,1.4783206999999998,0.444747925
741,1747532723610,0.9148486,1.3265732,0.11263242,-1.6144083,1.2452941,0.36751625
742,1747532723620,0.8668914,1.3352373,0.14545812,-1.19336255,0.38056574835,0.211188675
743,1747532723630,0.90996745,1.3808759,0.28505886,-0.87165263,-0.11957593165,0.0961401135
744,1747532723640,0.9615856,1.3903941,0.311173,-0.76485986,-0.24074976,0.039947417
745,1747532723650,1.1481674000000002,1.39649555,0.3807293,-0.426904735,-0.377369935,-0.30599722
746,1747532723660,1.3163228,1.39832595,0.400253875,-0.235689765,-0.2173139475,-0.72837456
747,1747532723670,1.428223,1.3889297,0.40440285,-0.13156016,-0.068176925,-1.0301107
748,1747532723680,1.6019917499999998,1.3353593,0.373041495,-0.11584751,0.20346551,-1.61067985
749,1747532723690,1.6683753,1.3103434,0.36413342,-0.12197278,0.28868666,-1.8173412
750,1747532723700,1.7735641,1.2468885,0.37682438,-0.120907515,0.42770368,-2.2551649
751,1747532723710,1.92012035,1.087031,0.42331729,0.0484695375,0.50679959,-2.96329945
752,1747532723720,2.1046276,0.85712907,0.47908438,0.31158986,0.58536283,-3.84906675
753,1747532723730,2.1911459000000004,0.72472799,0.4892127699999999,0.40533313,0.58483016,-4.0266995
754,1747532723740,2.2397132,0.66237134,0.49006698,0.6045376,0.5640575,-4.337224
755,1747532723750,2.52379585,0.4766438149999999,0.440645335,0.83383575,0.499076415,-4.831507
756,1747532723760,2.631181,0.41929033,0.42124277,0.8942895,0.46818373,-5.012602
757,1747532723770,3.32222915,0.102870132,0.407575585,1.0104033,0.41412157,-6.03818515
758,1747532723780,3.467077,0.032215554,0.40659937,1.0098706,0.42983422,-6.2573633
759,1747532723790,3.7767859,-0.13593988,0.42417148,0.97897804,0.47670585,-6.6973176
760,1747532723800,4.1143174,-0.29530928,0.4737151,0.9816412,0.53103435,-7.1575117
761,1747532723810,4.6207358,-0.5590131,0.5299703,1.1739214,0.64022395,-8.112255
762,1747532723820,4.8450246,-0.6631035,0.5198419,1.2543489,0.6562029,-8.525844
763,1747532723830,5.05479175,-0.84309575,0.48323336,1.1448930000000002,0.548078565,-9.081912
764,1747532723840,5.118857,-0.91521466,0.47932845,1.0759171,0.51452273,-9.240104
765,1747532723850,5.3867095,-1.28081245,0.624420465,0.9171927,0.5075985,-9.47606
766,1747532723860,5.473228,-1.4421343,0.71826047,0.83383575,0.63756078,-9.84970125
767,1747532723870,5.4297857,-1.5451264,0.8649389,0.88044107,0.7238472,-10.015083
768,1747532723880,5.2757854,-1.6307905,0.9830626,1.2271847,0.7978831,-10.093913
769,1747532723890,5.2757854,-1.6307905,0.9830626,1.2271847,0.7978831,-10.093913
770,1747532723900,4.71945695,-1.7517209,1.03297235,2.21282055,0.7720504,-9.8952415
771,1747532723910,4.5858355,-1.7655101,1.0116173,2.4117587,0.7552725,-9.82813
772,1747532723920,3.88893025,-1.72975575,0.6327184,2.9438584,0.5512743499999999,-9.419068
773,1747532723930,3.760434,-1.7245085,0.5469323,2.9635658,0.5070659,-9.368468
774,1747532723940,3.4702501,-1.7269491,0.4378387,2.9060414,0.44581318,-9.302955
775,1747532723950,2.97493575,-1.74354495,0.352540685,2.737996,0.444481595,-9.125322
776,1747532723960,2.477303,-1.75843245,0.320813255,2.5766084,0.507864835,-8.803079
777,1747532723970,2.0179874,-1.7739301,0.316298205,2.45729875,0.572047025,-8.4398235
778,1747532723980,1.75379545,-1.7868651,0.30934257,2.40083985,0.66365975,-8.169512999999998
779,1747532723990,1.6202961,-1.7899158,0.302631,2.3539682,0.8162588749999999,-7.8952075
780,1747532724000,1.2855715,-1.8318938,0.297505795,2.3339944,0.90494215,-7.759919
781,1747532724010,1.0056378499999998,-1.8864406,0.30250896,2.3273365000000004,1.12811505,-7.28774035
782,1747532724020,0.7043492,-1.9112124,0.27895743,2.369947,1.0969560500000002,-6.85178075
783,1747532724030,0.4648070199999999,-1.9015721,0.19890665,2.3499733,0.96113487,-6.4368605500000005
784,1747532724040,0.1765754165,-1.90145,0.088226691,2.15769315,0.808003095,-5.7873156
785,1747532724050,0.016595893,-1.9053549,0.026602242,2.0048277,0.71798825,-5.3476276
786,1747532724060,-0.0809049785,-1.9939477,-0.030019039,1.81414535,0.6498113249999999,-4.951881800000001
787,1747532724070,-0.17840585,-2.0825405,-0.08664032,1.623463,0.5816344,-4.556136
788,1747532724080,-0.3231318,-2.2009084,-0.16571487,1.3933659,0.5438175,-4.1816955
789,1747532724090,-0.75499105,-2.26143455,-0.290916225,0.6415555,0.313720385,-2.8578382
790,1747532724100,-1.1868503,-2.3219607,-0.41611758,0.1768339,0.15393071,-1.9861856
791,1747532724110,-1.4145558,-2.3080494,-0.4698102,-0.34834146,0.049534798,-0.9038769
792,1747532724120,-1.4497001,-2.2895012,-0.45394647,-0.87990844,-0.0031957934,0.21411815
793,1747532724130,-1.3511009,-2.2484994,-0.35583547,-1.3369069,0.023435818,1.2580773
794,1747532724140,-0.80221615,-2.0359255000000003,-0.0246497799999999,-1.98458775,0.147006495,3.335343
795,1747532724150,-0.6872652,-1.9880903,0.03441207,-2.0511668,0.14114754,3.6810212
796,1747532724160,-0.353272855,-1.83921545,0.17730759,-2.0698087,0.077231675,4.283428
797,1747532724170,-0.24845028,-1.7950411,0.21647878,-1.9925772,-0.03888215,4.819789
798,1747532724180,-0.059549972,-1.7074246,0.2550398,-1.7971011,-0.30519825,5.424859
799,1747532724190,0.302631,-1.5336558,0.23356278,-1.383246,-0.8490158,6.2019696
800,1747532724200,0.46224442,-1.4587301,0.18597162,-1.2117383,-1.0135992,6.502374
801,1747532724210,0.540586785,-1.42834505,0.153145925,-1.1638014,-1.0474213,6.6342005
802,1747532724220,0.78659654,-1.3552499,0.047347106,-1.1142666,-1.0785803,6.983874
803,1747532724230,0.9474302,-1.3081468,-0.009274175,-1.1744541,-0.9619338,7.1756215
804,1747532724240,1.2195541,-1.2510375,-0.07224095,-1.4072144,-0.41545314,7.6485987
805,1747532724250,1.6099237,-1.17757625,-0.12117443,-1.7153421,0.042876895,7.949802
806,1747532724260,1.81090485,-1.0623812,-0.132157005,-1.89670335,0.1802960049999999,8.135690499999999
807,1747532724270,1.8677702,-0.9864794,-0.13203497,-1.9867182,0.22690132,8.258995
808,1747532724280,2.5817596,-0.6900719,-0.058573742,-2.4458473,0.183491805,9.2542185
809,1747532724290,3.1786015,-0.5793919000000001,0.019524578,-2.48552835,0.149669655,9.187107
810,1747532724300,3.63157175,-0.441133465,0.076511945,-2.43918935,0.076699041,8.796155
811,1747532724310,3.7651931,-0.335212635,0.100429555,-2.35876185,-0.023435819,8.3119925
812,1747532724320,3.5406605,-0.36669602,0.151315495,-2.1608889,-0.054062172,8.042214000000001
813,1747532724330,3.2424227,-0.4757896,0.25223316,-1.88312125,-0.030360037,8.205199
814,1747532724340,3.1678631,-0.5176454,0.307024,-1.7576864,-0.02396845,8.406534
815,1747532724350,3.2493782500000004,-0.7000782249999999,0.389759415,-1.2618057500000002,-0.062850603,9.23531
816,1747532724360,3.3228395,-0.7592621,0.3943965,-1.0988203,-0.070307456,9.520268
817,1747532724370,3.7714165,-0.85920355,0.1845072784999999,-1.056475975,0.1163801395,10.40497025
818,1747532724380,4.03451,-0.8927614,0.061502427,-1.194694,0.24980451,10.7549095
819,1747532724390,4.3717976,-0.95646036,0.08346757,-1.5302523,0.38456047,10.76503
820,1747532724400,4.7657058,-0.9800119,0.3829258,-1.7488979,0.517984835,10.1844605
821,1747532724410,4.830625,-0.9615856,0.51788944,-1.7214674,0.53476274,9.875534
822,1747532724420,4.5924252,-0.6379656650000001,0.9355935,-0.9882991,0.05033375,8.9072085
823,1747532724430,4.365452,-0.42587993,1.09118,-0.6359629,-0.175236,8.546084
824,1747532724440,3.7954562,-0.21367212,0.9204619,1.1829761,-1.1318434,7.325291
825,1747532724450,3.4512135,-0.10287013,0.67335393,2.09777205,-1.50042495,6.6400597
826,1747532724460,3.3003862,-0.05344854,0.53863436,2.304167,-1.5472966,6.4214144
827,1747532724470,2.6402112,0.223312365,-0.102626071,1.63677885,-0.82291675,5.336175900000001
828,1747532724480,2.536731,0.2806658,-0.18768002,1.2436962,-0.5161206,5.0669303
829,1747532724490,2.3602777,0.37975308,-0.25284332,0.08602011,0.532365905,4.364921000000001
830,1747532724500,2.2057894,0.46700355,-0.1441158075,-0.614923895,1.26020785,3.83894685
831,1747532724510,2.0814422,0.59647593,0.0502757925,-0.93849796,1.6080167,3.5590487
832,1747532724520,1.9934596,0.69971216,0.18816814,-1.5425029,2.6354642,2.1369205
833,1747532724530,1.8521506,0.7494998,0.25479576,-1.5382419,2.8985846,1.4695324
834,1747532724540,1.6292041,0.7652414999999999,0.20586228,-1.4253238,3.0024478,0.88044107
835,1747532724550,1.46751625,0.79147765,0.132279025,-1.1938952,2.8075045000000003,-0.0623179749999999
836,1747532724560,1.27336875,0.811002215,-0.0268462949999999,-1.1171961,2.24877325,-0.64555025
837,1747532724570,1.0969153,0.8140529400000001,-0.15607461,-1.16460035,1.6413062,-0.8878979
838,1747532724580,1.0416363,0.81368685,-0.16888762,-1.2096078,1.4455639,-0.9869675
839,1747532724590,0.976961135,0.77195305,-0.1181237125,-1.2911005,1.154214,-1.0871024
840,1747532724600,0.994167165,0.762312785,-0.039049161,-1.33530905,0.93769905,-1.18297615
841,1747532724610,1.0543273000000002,0.777932485,0.0141553205,-1.3046827,0.877511585,-1.3523532
842,1747532724620,1.15585515,0.7941623,0.020012694,-1.24955525,0.880707385,-1.6383766999999998
843,1747532724630,1.214917,0.8009959,0.01854835,-1.2239889,0.9038769,-1.7896442
844,1747532724640,1.3901501,0.8083176,0.01952458,-1.1835088,0.932639,-2.1161478
845,1747532724650,1.5991851,0.78952518,0.0507639065,-1.1163971,0.9864349,-2.4804683
846,1747532724660,1.7452534,0.73326998,0.090911325,-0.87138633,0.9906959,-3.31616825
847,1747532724670,1.82737865,0.68067565,0.133987425,-0.80107886,0.9720538,-3.46424
848,1747532724680,1.8704547,0.6484601,0.1552204,-0.6194513,0.8543421,-3.7028592
849,1747532724690,1.9678336,0.5933032,0.20671648,-0.38136467,0.67963874,-3.9239016
850,1747532724700,2.127203,0.56548065,0.24234885,-0.11345066,0.4362258,-4.169445
851,1747532724710,2.6712065,0.36755021,0.3325279949999999,0.720651385,-0.61305968,-5.35401915
852,1747532724720,2.77907985,0.276760915,0.316542255,0.91452953,-0.91452953,-5.7284598
853,1747532724730,2.813248,0.23527117,0.29774985,0.97738016,-1.0279802,-5.8765316
854,1747532724740,2.9096506,0.2037878,0.24161668,1.000816,-0.9816412,-6.1007695
855,1747532724750,3.07805,0.18084641,0.21940747,0.9576728,-0.82877576,-6.3527045
856,1747532724760,3.309416,0.14985114,0.19426957,0.8266452,-0.73609775,-6.6541743
857,1747532724770,3.7423737,-0.0012202862,0.24161668,0.4990764,-0.63436496,-7.3828154
858,1747532724780,3.948114,-0.13471961,0.29701766,0.37550572,-0.6562029,-7.8211718
859,1747532724790,4.057696,-0.23502712,0.3738957,0.26738137,-0.76485986,-8.254734
860,1747532724800,4.132377,-0.25259924,0.43295756,0.20612867,-0.74195671,-8.517321500000001
861,1747532724810,4.6509990000000005,-0.53863436,0.68214,0.3025351,-0.69907981,-8.8339715
862,1747532724820,4.523235,-0.5717041199999999,0.76524148,0.51905009,-0.654871345,-8.995093
863,1747532724830,4.339826,-0.5012936,0.72094506,0.65247446,-0.57364494,-8.980712
864,1747532724840,4.4591703,-0.58280873,0.55840296,0.721184,-0.43036684,-8.793758
865,1747532724850,4.3681364,-0.7409578,0.61746484,0.8026768,-0.36591834,-8.847021
866,1747532724860,3.9920444,-0.5937913,0.6379657,1.1675298,-0.355265705,-8.77192
867,1747532724870,3.764583,-0.83553,0.53655987,1.43437855,-0.251668735,-8.808139
868,1747532724880,3.627911,-0.8534682,0.5337532,1.5121429,-0.2412824,-8.839564
869,1747532724890,3.3308933,-0.7897693,0.5405868,1.7070863,-0.3222425,-8.801215
870,1747532724900,3.04607855,-0.93608158,0.386952765,1.8823223,-0.34674358,-8.784171
871,1747532724910,2.61995455,-1.1110706,0.3188608,1.9973708,-0.31798145,-8.832641
872,1747532724920,2.1383075,-1.21418485,0.31068487,2.19444475,-0.40107207,-8.717858
873,1747532724930,1.9793042,-1.2337095,0.30848834,2.231729,-0.41758367,-8.619587
874,1747532724940,1.458242,-1.3310882,0.25845662,2.2897859,-0.47244477,-8.280833
875,1747532724950,1.2964321,-1.3576905,0.25284332,2.2988408,-0.525708,-7.9623194
876,1747532724960,1.1247378499999998,-1.41101695,0.283228425,2.2375880500000003,-0.5904228499999999,-7.09306335
877,1747532724970,1.0088106,-1.4489678499999998,0.302997065,2.2253375,-0.5629923,-6.9146314
878,1747532724980,0.9474302,-1.4667841,0.30751213,2.193912,-0.4245079,-6.576943
879,1747532724990,0.6299118,-1.6090695,0.260165,2.0532973,0.0063915867,-5.9196744
880,1747532725000,0.5039782,-1.6893643,0.23185438,1.9286613,0.09427591,-5.596367
881,1747532725010,0.36181487,-1.77222175,0.16290821,1.70974945,0.1150485649999999,-5.29489715
882,1747532725020,0.147410585,-1.8966909,0.0584517114999999,1.32998265,0.144875965,-4.85787215
883,1747532725030,0.07516963,-1.9383026,0.022941383,1.1691277,0.15393071,-4.722317
884,1747532725040,-0.25845662,-2.1306198,-0.09835507,0.38242993,0.30839407,-4.1555967
885,1747532725050,-0.5213063,-2.2389812,-0.15448824,-0.051132694,0.37230992,-3.7689056
886,1747532725060,-1.02516245,-2.331967,-0.19085276,-0.62957129,0.30972564,-2.82534765
887,1747532725070,-1.1992973,-2.3483188,-0.20085911,-0.80747044,0.24714136,-2.4319987
888,1747532725080,-1.5257239,-2.33880065,-0.12093037,-1.31693315,-0.15632756,-0.18402445
889,1747532725090,-1.5973547,-2.310246,-0.04368625,-1.5036207,-0.3552657,1.0887003
890,1747532725100,-1.3652562499999998,-2.2035928,0.0727290565,-1.4695323,-0.400805755,2.7174896
891,1747532725110,-1.13413405,-2.1250064,0.126909765,-1.3848438,-0.3768373,3.67170025
892,1747532725120,-0.73863928,-1.95855935,0.161687925,-1.2106731000000002,-0.33182988,4.811799499999999
893,1747532725130,-0.46419686,-1.8365307,0.17376876,-1.0881677,-0.30626354,5.5042214
894,1747532725140,-0.21721096,-1.7603849,0.15424417,-0.92624745,-0.3534015,6.2176823500000005
895,1747532725150,0.08883683935,-1.6815544,0.08017281,-0.8607337,-0.4250405299999999,6.6003787
896,1747532725160,0.18377511,-1.6608096,0.05344854,-0.8426242,-0.47031426,6.770821
897,1747532725170,0.3526627,-1.6032121,0.006345488,-0.8612663,-0.60507023,7.0925307
898,1747532725180,0.43466598,-1.5238935,-0.05832968,-0.9076053,-0.65673554,7.3247585
899,1747532725190,0.7302193,-1.530483,-0.082491346,-1.1302456,-0.8319715,7.8126497
900,1747532725200,0.96427015,-1.4769125,-0.067359802,-1.31080795,-0.84874945,8.2171835
901,1747532725210,1.20478865,-1.42553845,-0.076023832,-1.45541755,-0.7355651000000001,8.558068500000001
902,1747532725220,1.51840215,-1.3902721,-0.0831014925,-1.81707475,-0.44661212,9.07632
903,1747532725230,1.6691074,-1.381608,-0.076633975,-2.0948424,-0.23702134,9.408416
904,1747532725240,2.0388544,-1.3545178,-0.019768637,-2.4655545,0.105993815,9.579924
905,1747532725250,2.4437451,-1.3254749499999998,0.0333138135,-2.84798455,0.6676545,9.6592855
906,1747532725260,2.5560114,-1.3166889,0.041977845,-2.9720879,0.8543421,9.677395
907,1747532725270,3.2165525,-1.2615319500000002,0.265290215,-3.26317135,1.16033935,9.895241
908,1747532725280,3.4006937,-1.2300485,0.35412705,-3.2240229,1.123854,9.990582
909,1747532725290,3.5866654,-1.19978545,0.432835525,-3.07808165,1.0498181,10.0851245
910,1747532725300,4.20754685,-1.09996605,0.7016646,-2.08685305,0.679905025,10.2036355
911,1747532725310,4.4378148500000005,-1.09276635,0.75743165,-1.2269183,0.3278351379999999,10.16262275
912,1747532725320,4.617441149999999,-1.1560992,0.70764395,0.13795177,-0.3802994119999999,10.10296825
913,1747532725330,4.6780896,-1.2017379,0.6562699,0.98856544,-0.8527442,10.059825
914,1747532725340,4.8352623,-1.2488409,0.45467865,1.7544906,-1.1345067,9.900568
915,1747532725350,4.94338,-1.279104,0.26162934,2.326005,-1.4199976,9.636382
916,1747532725360,4.90469635,-1.029921625,-0.27627281,2.7190876,-1.6676715,8.9290465
917,1747532725370,4.78474235,-0.83333349,-0.422951225,2.6197517,-1.51187655,8.3324985
918,1747532725380,4.6539278,-0.6160005150000001,-0.5109338449999999,2.23412595,-1.17312245,7.806257899999999
919,1747532725390,4.4819893,-0.35571345,-0.56401631,1.7145431,-0.78909465,7.2041171
920,1747532725400,4.2730765,-0.078952518,-0.59733013,1.167796125,-0.380299415,6.577209
921,1747532725410,4.171671,0.049299564,-0.6062382,0.88203895,-0.16245283,6.2397866
922,1747532725420,3.4006938,0.540342725,-0.5370479699999999,-0.7893609749999999,0.602673355,4.3050001
923,1747532725430,3.02399135,0.63723345,-0.446624755,-1.1382351,0.75154406,3.9201732
924,1747532725440,2.8537614,0.6621273,-0.38707477,-1.8018948,1.0791129,3.2160335
925,1747532725450,2.22409355,0.674208135,-0.032093535,-2.6085663,1.75795265,2.056493
926,1747532725460,1.75074465,0.675672465,0.288841745,-2.7859328,2.1781994,1.38750695
927,1747532725470,1.4697127,0.6820179500000001,0.47395919,-2.5398568,2.31668385,1.1515509
928,1747532725480,1.2483528000000002,0.69678343,0.58793395,-2.11961,2.38699135,1.01359915
929,1747532725490,1.1524384,0.70337296,0.6299118,-1.8706044,2.4032366,0.9672601
930,1747532725500,0.9659786,0.711914985,0.539366515,-1.0351708,2.09937,0.87032108
931,1747532725510,0.90423215,0.73168365,0.380607275,-0.316649885,1.62186515,0.75979988
932,1747532725520,0.9027678,0.7492558,0.31751847,0.289751925,1.1009508,0.61652182
933,1747532725530,0.8859278,0.79538256,0.21745501,0.45327002,0.813862,0.53742594
934,1747532725540,0.90325594,0.8334555,0.12544543,0.69987875,0.19973709,0.37444046
935,1747532725550,0.94157288,0.90057126,0.04087959,0.945688545,-0.751544065,0.135554905
936,1747532725560,1.01832885,0.921316085,0.047347108,0.98856544,-0.98750013,0.07563378
937,1747532725570,1.0575,0.921072,0.061746486,0.9768475,-1.4572818,-0.21518342
938,1747532725580,1.21235435,0.88348727,0.107751275,0.8330367750000001,-1.36460375,-0.4985437699999999
939,1747532725590,1.2739788,0.8600578,0.12495731,0.7707188,-1.293231,-0.60560286
940,1747532725600,1.4382293,0.8139309,0.18743597,0.6402239,-1.0450244,-0.928378
941,1747532725610,1.6466542,0.7690244,0.32996538,0.5028048,-0.44581318,-1.7374463
942,1747532725620,1.72414245,0.68470262,0.3685264299999999,0.5560680250000001,-0.282827715,-2.1166805
943,1747532725630,1.8016307,0.60038084,0.40708748,0.60933125,-0.11984225,-2.4959147
944,1747532725640,1.8860743,0.5261874,0.40684342,0.69029135,-0.1257012,-2.7803402
945,1747532725650,1.9597796,0.46224442,0.41221267,0.773382,-0.22583607,-3.033873
946,1747532725660,2.234344,0.29018408,0.45248213,0.9369001,-0.5422196,-3.5606465
947,1747532725670,2.43727765,0.218675285,0.46883395,1.0343718000000002,-0.6538060649999999,-4.014449
948,1747532725680,2.56235705,0.18182265,0.481402915,1.09083085,-0.62078285,-4.34920835
949,1747532725690,2.6228833,0.1615659,0.49397188,1.1185277,-0.5885586,-4.524178
950,1747532725700,2.7461321,0.08371163,0.6672525,1.4365091,-0.46711847,-5.5516257
951,1747532725710,2.76638885,-0.094328127,0.7028849,1.7251958,-0.48363006,-6.189719
952,1747532725720,2.77175815,-0.2255088999999999,0.6897058,1.8743328,-0.463922665,-6.5026405
953,1747532725730,2.76150775,-0.34643926,0.6573682000000001,1.9627498,-0.42663841,-6.710101
954,1747532725740,2.7596773,-0.42356135,0.618197,1.991512,-0.39787626,-6.782539
955,1747532725750,2.8280134500000003,-0.472250775,0.595865775,1.9917782,-0.19520971,-6.7953218500000006
956,1747532725760,2.8791435,-0.49568027,0.59013045,1.9872508,-0.11930962,-6.783604
957,1747532725770,3.0754874,-0.445770565,0.69068202,2.2969764,-0.11930962,-6.79159355
958,1747532725780,3.1158788,-0.43539813,0.68433654,2.3840618,-0.16085494,-6.8113008
959,1747532725790,3.2310739,-0.43588626,0.58232063,2.5699506,-0.4612595,-7.0392675
960,1747532725800,3.28415655,-0.42966281,0.48030467,2.5324,-0.66365975,-7.36417325
961,1747532725810,3.2958712500000003,-0.454556645,0.41758196,2.49698,-0.7126619,-7.487744
962,1747532725820,3.2896478,-0.47591165,0.39708114,2.373942,-0.77924097,-7.76418
963,1747532725830,3.1097775,-0.4339338,0.36632994,2.1875205,-0.8367652,-7.9170456
964,1747532725840,2.8188612,-0.42978483,0.2757847,1.6410398,-0.44101948,-7.7833548
965,1747532725850,2.64643465,-0.38768495,0.278225255,1.397627,-0.15499598,-7.6203694
966,1747532725860,2.609704,-0.3699908,0.28432667,1.2080098,0.11930962,-7.45259
967,1747532725870,2.536487,-0.3321619,0.31263736,1.0855045,0.3355583,-7.3055835
968,1747532725880,2.396154,-0.26236153,0.3607166,1.015197,0.479369,-7.147392
969,1747532725890,2.396154,-0.26236153,0.3607166,0.9720538,0.57417756,-7.0030484
970,1747532725900,2.2455708000000003,-0.246985935,0.323131785,0.960602225,0.5688512,-6.90717465
971,1747532725910,2.1906579,-0.24918245,0.30897647,0.9582054,0.515588,-6.912501
972,1747532725920,1.8621568,-0.29665159,0.26382588,0.8926916149999999,0.387489945,-6.80384395
973,1747532725930,1.6844832,-0.328257,0.23209843,0.83729786,0.38935417,-6.7058396
974,1747532725940,1.5246257,-0.3653537,0.19500175,0.72917354,0.49534798,-6.568953
975,1747532725950,1.377215,-0.39878955,0.1615659,0.5933523,0.644485,-6.412892
976,1747532725960,1.14658095,-0.44528246,0.135817855,0.3880225699999999,0.87378318,-6.14471175
977,1747532725970,0.93559345,-0.472616865,0.136428,0.2000033949999999,1.07804765,-5.8032945
978,1747532725980,0.74132385,-0.484209595,0.146678405,0.0410126795,1.27006155,-5.4317835
979,1747532725990,0.5991605499999999,-0.45968184,0.16046764,-0.0335558304999999,1.37472375,-5.0815778
980,1747532726000,0.47542355,-0.4166057199999999,0.18206671,-0.090014845,1.4261228,-4.65200995
981,1747532726010,0.381583515,-0.335456675,0.22013964,-0.109988555,1.3992249,-3.98488805
982,1747532726020,0.3360668249999999,-0.26138531,0.25418562,-0.0828243135,1.33024895,-3.33454405
983,1747532726030,0.34887984,-0.242104795,0.270781505,-0.0122505434999999,1.2484899,-3.000051
984,1747532726040,0.40086405,-0.23795582,0.285913065,0.091612745,1.1563446000000002,-2.7944549
985,1747532726050,0.450407655,-0.239664225,0.27602875,0.20905815,1.1110709,-2.72175055
986,1747532726060,0.4275883,-0.261141265,0.223556435,0.309991955,1.1331751,-2.72894115
987,1747532726070,0.35412708,-0.2975058,0.170473985,0.39254995,1.1763183,-2.8088361500000003
988,1747532726080,0.31556603,-0.3141017,0.15326795,0.43196473,1.1973573,-2.873551
989,1747532726090,0.1723044225,-0.369380655,0.106897075,0.4442152849999999,1.1776499,-2.8876656
990,1747532726100,0.0721189185,-0.41245675,0.070166459,0.424507885,1.13131085,-2.83520135
991,1747532726110,-0.080294839,-0.474935395,0.009152146,0.32357408,1.06499815,-2.6130937
992,1747532726120,-0.2161127,-0.535705655,-0.044052333,0.166713887,1.009604415,-2.31322185
993,1747532726130,-0.288719735,-0.584395075,-0.064187055,0.013582122,1.003479165,-2.0482373000000003
994,1747532726140,-0.38121744,-0.6386978,-0.07809832,-0.18162758,1.0404971,-1.68444935
995,1747532726150,-0.43466598,-0.6655441,-0.08444381,-0.389886785,1.08310765,-1.2713931
996,1747532726160,-0.54156303,-0.68409246,-0.08542004,-0.4841627,1.0972224,-1.0759171
997,1747532726170,-0.7602383500000001,-0.64846012,-0.062966773,-0.933970575,1.041296,0.05113269
998,1747532726180,-0.7883049,-0.64016217,-0.061746486,-1.1158644999999998,1.0170612,0.5187838
999,1747532726190,-0.8086836799999999,-0.61661062,-0.0610143135,-1.3078784,1.0170612,0.97045595
1000,1747532726200,-0.8049008,-0.60989904,-0.059794027,-1.406149,1.0242518,1.1909657
