id,timestamp,acc_x,acc_y,acc_z,gyro_x,gyro_y,gyro_z
1,1747532652640,0.05051985,0.25821257,0.9169231,0.00958738,0.16458336,0.18695392
2,1747532652650,-0.995753563,0.8424856000000001,0.333504215,0.54195328,-0.320111975,3.010437215
3,1747532652660,-1.9973645,1.3960074,-0.17352471,0.6679208,0.24554345,6.4698834
4,1747532652670,-2.1413581,1.4548253,-0.09005712,0.7590009,-0.01917476,6.539126
5,1747532652680,-2.2764440500000003,1.47422775,0.1184897955,1.22745095,-0.60560285,6.6246132
6,1747532652690,-2.3422174,1.4931422,0.22013964,1.6399746,-1.13264245,6.59132385
7,1747532652700,-2.3865138000000004,1.5044909,0.22733932,1.8745991,-1.43863965,6.466954149999999
8,1747532652710,-2.4177531,1.55159395,0.166569065,2.0591562000000003,-1.5851135,6.25097175
9,1747532652720,-2.46827295,1.5980869,0.0538146235,2.1228057500000004,-1.4604776,5.9154134
10,1747532652730,-2.7407628500000003,1.71865115,-0.1023820115,1.84024435,-0.6439524035,5.1561463
11,1747532652740,-3.146142,1.86374315,-0.12825208,1.422927,0.4575310815,4.25200315
12,1747532652750,-3.43229925,1.85312675,0.006955632,1.16167085,1.265800485,3.4887411
13,1747532652760,-3.6380396,1.7046179,0.156196632,0.954743235,1.93318865,2.44877665
14,1747532652770,-3.7230935,1.6076051,0.2328306,0.8167915050000001,2.2229406,1.29908995
15,1747532652780,-3.8399968,1.28056835,0.540708855,0.671382905,1.7172063,-0.1398159999999999
16,1747532652790,-3.79582265,1.15219425,0.672987885,0.52011536,0.76432723,-1.3861754
17,1747532652800,-3.64670345,1.1102164,0.7105726649999999,0.427171035,-0.15632757,-1.98538665
18,1747532652810,-3.552009,1.0936205,0.72338563,0.38562572,-0.6375608,-2.2487733
19,1747532652820,-3.2170405,0.9963637,0.6258848,0.234624495,-1.88125695,-2.829875
20,1747532652830,-2.84790405,0.87189452,0.380485245,-0.11424961,-2.4666198,-3.4698327
21,1747532652840,-2.55454725,0.77292932,0.05979403,-0.5592638400000001,-2.50709995,-4.176103
22,1747532652850,-2.4470399,0.738029135,-0.161687925,-0.89855062,-2.01707825,-4.68902775
23,1747532652860,-2.3998148,0.72631437,-0.24649782,-1.0727214,-1.7129452,-4.9566755
24,1747532652870,-2.0979161,0.620393515,-0.39024754,-1.6157398,-0.28522456,-6.316485699999999
25,1747532652880,-2.0099334,0.63162014,-0.392077965,-1.8596854,0.658599775,-7.47336295
26,1747532652890,-1.9768636,0.682750125,-0.40086403,-1.89750235,1.0692592,-8.24940825
27,1747532652900,-1.97881605,0.81258862,-0.366940065,-1.86288125,1.221592,-8.9010835
28,1747532652910,-1.9851615,0.90325594,-0.33118567,-1.8226675,1.2261194,-9.184177
29,1747532652920,-1.85154025,1.3487824000000002,-0.144847975,-1.3696638,0.466319517,-9.652361
30,1747532652930,-1.7766147,1.52877465,-0.133743375,-1.0330402,-0.302535083,-9.61268
31,1747532652940,-1.7303659,1.6090695,-0.1313028,-0.9219864,-0.5725796,-9.530921
32,1747532652950,-1.6171232,1.7303659,-0.15302388,-0.71159667,-1.0285128,-9.276855
33,1747532652960,-1.37587275,1.93171295,-0.21245184,-0.5182512,-1.3358417,-8.9748535
34,1747532652970,-1.2439598,2.0220141,-0.22916976,-0.14221281,-1.6644757,-8.368185
35,1747532652980,-1.0728757,2.09120455,-0.26053111,0.1049285515,-1.67139995,-7.948471
36,1747532652990,-1.0130817,2.1093867,-0.28261828,0.16085494,-1.6346483,-7.803062
37,1747532653000,-0.78952522,2.1040176,-0.372919485,0.03222425,-1.30628055,-7.587612350000001
38,1747532653010,-0.71167094,2.0913267,-0.3951287,-0.04580637,-1.1659319,-7.5415397
39,1747532653020,-0.33509058,2.003222,-0.4510178,-0.51984906,-0.4394216,-7.49307
40,1747532653030,-0.1544882275,1.95587485,-0.407697635,-0.69854718,-0.08042747,-7.4017235
41,1747532653040,0.0906672625,1.8864405,-0.30873242,-0.8705873749999999,0.4079963,-7.151919
42,1747532653050,0.1552204,1.8643533,-0.25308737,-0.86392945,0.53742594,-6.993461
43,1747532653060,0.26345979,1.85861795,-0.1734026775,-0.7925567250000001,0.60613549,-6.734602
44,1747532653070,0.5383902899999999,1.7423247000000002,-0.0953043574999999,-0.25939189,0.63090288,-4.9313755
45,1747532653080,0.8039246,1.5230393,-0.142529435,-0.0111852772,0.55953018,-3.75718775
46,1747532653090,0.99868225,1.3105875,-0.20732663,-0.0410126822,0.565122825,-3.205647
47,1747532653100,1.0945967,1.2068632,-0.22648512,-0.08575379,0.56725335,-2.9598372
48,1747532653110,1.3862451,0.9171671,-0.23673552,-0.41385525,0.561927,-2.065015
49,1747532653120,1.4376192,0.849929395,-0.207814745,-0.608798655,0.5435511850000001,-1.0961571
50,1747532653130,1.4406699,0.83882475,-0.19426957,-0.64821345,0.5336975,-0.7259777
51,1747532653140,1.4113831,0.82296103,-0.15912533,-0.57444385,0.34594463,0.665257673
52,1747532653150,1.31998365,0.8053889249999999,-0.16522676,-0.31425301,0.08175905,2.17234055
53,1747532653160,1.2493291,0.78488815,-0.17206036,-0.11345066,-0.08522116,3.1222901
54,1747532653170,1.0051498,0.8284522999999999,-0.18231077,0.30040458,-0.301469845,4.612595000000001
55,1747532653180,0.7659737,0.91289612,-0.2272173049999999,0.56112805,-0.3992078599999999,5.55988135
56,1747532653190,0.6382097,0.95670444,-0.25821257,0.68336713,-0.43356264,6.0134177
57,1747532653200,0.0850539499999999,1.2173576000000002,-0.45406851,0.919589515,-0.1123854,7.4232955
58,1747532653210,-0.22916976,1.3957634,-0.5610876,0.96939063,0.14114754,8.044345
59,1747532653220,-0.69019389,1.69351325,-0.7386392500000001,0.742489325,0.77284935,8.766594000000001
60,1747532653230,-0.95890092,1.8472693,-0.8302827500000001,0.5374259,1.112935015,9.048889
61,1747532653240,-1.3851469,2.084615,-0.82808625,0.33475935,1.3267869,9.2949645
62,1747532653250,-1.6727684,2.25094,-0.7856203,0.2444782,1.3837786,9.418535
63,1747532653260,-2.01042145,2.3633282,-0.897764635,0.334226715,1.5712651,9.775133
64,1747532653270,-2.4553377000000003,2.5168402,-0.96427025,0.381364675,1.5957662,9.893644
65,1747532653280,-2.8359451,2.4638798,-0.83736045,0.4463458099999999,1.4807176,10.0787335
66,1747532653290,-2.8504666,2.20774185,-0.72192135,0.519849035,1.2002867,9.9000355
67,1747532653300,-2.6836535,2.0010254,-0.76572963,0.4149205,0.9736517,9.3564845
68,1747532653310,-2.612877,1.9180459,-0.79489446,0.129695959,0.92944323,8.861934999999999
69,1747532653320,-2.51317945,1.8632551,-0.6779910250000001,-0.123038041,0.95500958,8.474711500000002
70,1747532653330,-2.4627817,1.83311395,-0.524356985,-0.26818033,1.03037705,8.21239
71,1747532653340,-2.4029877500000003,1.65202355,-0.31532196,-0.36751625,1.09642345,7.949003149999999
72,1747532653350,-2.3962761500000003,1.4083324,-0.076633975,-0.4109257699999999,1.01280017,7.7260969
73,1747532653360,-2.4149466,1.3135161,0.0319715,-0.4016047,0.90654004,7.6624475
74,1747532653370,-2.4366674,1.0667742,0.20256752,-0.33662358,0.5539375,7.4925375
75,1747532653380,-2.2348323,0.57109397,0.30189881,-0.325704615,0.17470337,6.91995785
76,1747532653390,-2.04251515,0.222946303,0.151315494485,-0.63170181,0.12410331,5.82673035
77,1747532653400,-1.94037705,-0.0319715,-0.0367306155149999,-1.10414658,0.2135855199999999,4.6482815
78,1747532653410,-1.931713,-0.084687866,-0.07443746,-1.2879047,0.27324033,4.273841
79,1747532653420,-1.91999845,-0.25894473,-0.0491775349999999,-1.4516892,0.625842885,3.3779536500000003
80,1747532653430,-1.8877829,-0.467857725,0.13532975,-0.93370434,0.8040083650000001,2.72601175
81,1747532653440,-1.9087718,-0.602699375,0.45199402,0.08335696,0.6649913350000001,2.17766675
82,1747532653450,-2.0054184,-0.56206385,0.681407825,1.0357034,0.187220225,1.91587805
83,1747532653460,-2.0600872,-0.5205741,0.76121455,1.4588797,-0.10066749,1.8130801
84,1747532653470,-2.1372094,-0.40708748,0.7524285,2.0335898,-0.75633776,1.5749935
85,1747532653480,-2.3117102,-0.2148924,0.448821275,1.5430356,-1.5813850500000002,0.76113143
86,1747532653490,-2.46815085,-0.0546688235,0.27175775,0.5747102,-1.8218685,0.005592645
87,1747532653500,-2.6034807000000004,0.0848098915,0.304461435,-0.0732369299999999,-1.84264115,-0.556867005
88,1747532653510,-2.668766,0.15473229,0.33948365,-0.33822146,-1.8594191,-0.84635264
89,1747532653520,-2.8704792,0.362303,0.300190415,-0.5747102,-1.9153455,-1.4476944
90,1747532653530,-3.0369263,0.6433348999999999,0.1607117025,-0.19920445,-1.81707485,-2.78619925
91,1747532653540,-3.1585889,0.93461725,-0.0104944625,0.22583606,-1.5520903,-3.68847815
92,1747532653550,-3.1883639,1.1557331,-0.1165373399999999,0.396544695,-1.3241237,-4.33562615
93,1747532653560,-3.1983702,1.2813005,-0.16132185,0.43888897,-1.2197278,-4.671717
94,1747532653570,-3.38495205,1.80492535,-0.20390983,0.234358185,-1.11639715,-5.58065415
95,1747532653580,-3.67086515,2.3141508,-0.152657813,-0.1456749199999999,-1.22425525,-6.144179100000001
96,1747532653590,-3.88612355,2.73942065,-0.090911325,-0.6000102199999999,-1.4935008,-6.585997600000001
97,1747532653600,-3.9023533,2.90342715,-0.093473927,-0.9321064,-1.7422399999999998,-6.8706893
98,1747532653610,-3.8975942,2.9772544,-0.11299851,-1.0844392,-1.8333201,-7.014766
99,1747532653620,-3.8664769,3.1062386,-0.237101615,-1.58458085,-1.8133464,-7.5394092
100,1747532653630,-3.7143072,3.09440185,-0.41135849,-2.1283984,-1.41760065,-8.1809647
101,1747532653640,-3.50136725,3.039611,-0.50641878,-2.6296053,-0.79095886,-8.784703499999999
102,1747532653650,-3.30197255,2.98262365,-0.4673696149999999,-2.8439897,-0.33529198,-9.05980825
103,1747532653660,-3.1825066,2.946015,-0.46248847,-2.9316077,-0.17097494,-9.1889715
104,1747532653670,-3.0640167,2.8825602000000003,-0.4173378949999999,-2.9563751,-0.0276968749999999,-9.24622925
105,1747532653680,-2.1629573,2.48633315,-0.146312325,-2.46848405,0.5270395800000001,-9.037171
106,1747532653690,-2.029336,2.426173,-0.09811102,-2.1683458,0.475906885,-8.818792
107,1747532653700,-1.59528015,2.27778625,-0.008908089755,-1.850897,0.374973085,-8.608934999999999
108,1747532653710,-1.21162212,2.14477515,-0.026968325755,-1.4548849499999998,0.330231975,-8.3370265
109,1747532653720,-0.97744924,2.05423,-0.054424766,-1.216532,0.34141725,-8.160459
110,1747532653730,-0.74413055,1.95563075,-0.1109240149999999,-1.05860655,0.623978645,-7.8291612
111,1747532653740,-0.62259003,1.9241474,-0.12227268,-1.0213223,0.86153262,-7.4344807
112,1747532653750,-0.464807005,1.90218225,-0.082003237,-1.0098707,1.01546335,-6.9567096500000005
113,1747532653760,-0.36218095,1.8936402,-0.051007964,-1.0072075,1.0476876,-6.7340693
114,1747532653770,0.307024,1.7220681,0.09518232,-0.70840085,0.8628642,-6.2765384
115,1747532653780,0.614902225,1.7347589,0.1182457399999999,-0.28788772,0.50786484,-6.0088906
116,1747532653790,0.6638357,1.7899158,0.12349297,-0.13582122,0.36005938,-5.8791947
117,1747532653800,0.71569785,1.9158494,0.156684755,0.3645867499999999,-0.166181255,-5.1614728
118,1747532653810,0.7641432,1.9336655,0.17230442,0.535828,-0.3536678,-4.8863683
119,1747532653820,1.2310247,1.8160299,0.026602242,1.1749867,-1.1526161,-3.7513287
120,1747532653830,1.59271755,1.6764293,-0.179748167,1.4223944,-1.22505405,-3.02295425
121,1747532653840,1.76258145,1.59405995,-0.313125455,1.4724618,-1.06446547,-2.511361
122,1747532653850,1.8725292,1.51400915,-0.453702435,1.3440974,-0.692155585,-1.71294525
123,1747532653860,1.89510445,1.4712991,-0.5287500300000001,1.139034,-0.33023198,-0.8985505500000001
124,1747532653870,1.8743596,1.4680043,-0.53106856,1.0604708,-0.22370553,-0.6199839
125,1747532653880,1.7767367,1.4599504,-0.51666915,0.92731273,0.006924219,-0.021837922
126,1747532653890,1.61187605,1.40015645,-0.49323973,0.7840346499999999,0.4111920599999999,0.9645969
127,1747532653900,1.3759947,1.26580295,-0.44760099,0.64315345,0.6362292,2.03119295
128,1747532653910,1.11534165,1.108264,-0.389881445,0.519849075,0.7022756,3.0112363
129,1747532653920,0.9499929,0.98367275,-0.339483635,0.513990105,0.60879865,3.4780885
130,1747532653930,0.80624315,0.857251075,-0.293234785,0.6111954799999999,0.49721221,3.8669101
131,1747532653940,0.62869145,0.722165405,-0.27432035,0.6892261,0.44474792,4.0448093
132,1747532653950,0.450041535,0.65663603,-0.3100747299999999,1.427987,0.34727621,4.7841027
133,1747532653960,0.28396061,0.69458693,-0.3922000049999999,1.7398432,0.51026168,5.06240295
134,1747532653970,0.047347105,0.77622408,-0.485307855,1.97473395,0.83463475,5.41607095
135,1747532653980,-0.26248357,0.88324318,-0.583052785,2.03758455,1.2309131,5.8437746
136,1747532653990,-0.4327135,0.93986446,-0.63357264,2.0074909,1.4253238,6.0597568
137,1747532654000,-1.17196285,1.07116725,-0.577683515,1.45302075,1.8623486,6.85843895
138,1747532654010,-1.2874019,1.0716554,-0.51593703,1.1371698,1.9686087,7.1916003
139,1747532654020,-1.65495215,1.16244465,-0.32386397,0.95580853,1.89111075,7.4605795
140,1747532654030,-1.8422661,1.2673892000000002,-0.27297802,0.99042963,1.73797895,7.5969335
141,1747532654040,-1.9329334,1.3379217,-0.26406994,1.11080455,1.5337145,7.772702199999999
142,1747532654050,-2.6968325,1.96112205,-0.44796708,1.28417635,1.4255902,8.286426200000001
143,1747532654060,-2.7820086,2.0129843,-0.4825012,1.3843112,1.4215955,8.690428
144,1747532654070,-2.7319767500000003,1.96673535,-0.58024613,1.1361046,1.5528893,8.76552825
145,1747532654080,-2.72965815,2.10035665,-0.65614795,0.545681757,1.6144083500000002,8.50853325
146,1747532654090,-2.8084886,2.327696,-0.66847285,-0.099868543,1.55874825,8.284828000000001
147,1747532654100,-2.8582763,2.4947533,-0.5961098499999999,-0.3779025649999999,1.3544838,8.299209000000001
148,1747532654110,-2.86791665,2.65302445,-0.5376581,-0.453802665,1.1291804,8.390289
149,1747532654120,-2.92234145,2.7772496,-0.5193538,-0.3105246,0.88949585,8.549013500000001
150,1747532654130,-3.0531561500000004,2.74881685,-0.32178948,0.069774825,0.59814599,8.754076999999999
151,1747532654140,-3.1278377,2.6680338,-0.12642166,0.31798145,0.44101948,8.855011
152,1747532654150,-2.9652956,2.426173,-0.09030118,1.8727349,-0.12676647,8.815596
153,1747532654160,-2.6612003,2.02006175,-0.301166635,2.50097455,0.0910801075,8.1479417
154,1747532654170,-2.4914584,1.7927224,-0.37633627,2.50470305,0.4183826149999999,7.53754495
155,1747532654180,-2.3804123,1.49533865,-0.262971685,2.0301278000000003,0.85753788,6.66988705
156,1747532654190,-2.30316815,1.14304205,-0.0558891085,1.38537645,1.1632688,5.8736018
157,1747532654200,-2.2262902,0.80307035,0.1541221565,0.987500175,1.1712583,5.4296528
158,1747532654210,-2.12659285,0.42612394,0.38341395,0.745418825,1.015995965,5.031776649999999
159,1747532654220,-2.0055404,0.06809198,0.56840935,0.5882923,0.7222493000000001,4.56652235
160,1747532654230,-1.82701255,-0.3308195849999999,0.7315616,0.4410194799999999,0.038615855,3.6743635
161,1747532654240,-1.66495855,-0.599526625,0.8207644999999999,0.32863408,-0.7334345800000001,2.70790235
162,1747532654250,-1.5831994,-0.6451653500000001,0.7797628999999999,0.25699505,-1.2128036,2.0575583
163,1747532654260,-1.551472,-0.6491923,0.7336361,0.2130529,-1.4242586,1.7379789
164,1747532654270,-1.49241005,-0.6161225450000001,0.5475424499999999,0.0260989795,-1.77073585,0.8516789499999999
165,1747532654280,-1.44786965,-0.557670805,0.4299068499999999,-0.045806371,-1.76860535,0.1949434
166,1747532654290,-1.41357965,-0.504344285,0.33362625,-0.017310547,-1.56434085,-0.2958772
167,1747532654300,-1.3960075,-0.483843475,0.29408897,0.0585895455,-1.31107425,-0.5685849000000001
168,1747532654310,-1.3918585,-0.47395915,0.27773714,0.10013486,-1.1739215,-0.7041398
169,1747532654320,-1.4531169,-0.386586685,0.264069945,0.21411816,-0.85540737,-1.1606056
170,1747532654330,-1.5855179499999998,-0.2430810299999999,0.29835999,0.26525085,-0.9379654,-1.60775035
171,1747532654340,-1.75452755,-0.0667496592,0.32923322,0.30306774,-1.2261194,-2.02160565
172,1747532654350,-1.888637,0.0860301758,0.3192268649999999,0.326769875,-1.57898825,-2.30283545
173,1747532654360,-2.0096894,0.2432030499999999,0.267974845,0.30360037,-1.9313245,-2.6072347
174,1747532654370,-2.1632013,0.4753015,0.12276079,0.11105382,-2.2964438,-3.12894795
175,1747532654380,-2.3281840000000003,0.715941925,-0.0284326675,-0.13901701,-2.60270735,-3.69140755
176,1747532654390,-2.4688831,0.91460455,-0.0926197245,-0.284159295,-2.7635623,-4.0365534
177,1747532654400,-2.6072636,1.14353025,-0.136916122,-0.36112465,-2.855974,-4.3148537000000005
178,1747532654410,-2.668278,1.2568948,-0.15961345,-0.3818973,-2.877812,-4.435761
179,1747532654420,-2.7761512,1.4687365,-0.24625377,-0.39947417,-2.821353,-4.6163235
180,1747532654430,-3.03302135,1.854713,-0.50068345,-0.5520733,-2.3443808,-5.1364388000000005
181,1747532654440,-3.1530976,2.0028557,-0.53033642,-0.7057377,-1.83704855,-5.702360499999999
182,1747532654450,-3.300142,2.15941845,-0.54644417,-0.7893609749999999,-1.44902595,-6.18039815
183,1747532654460,-3.42034015,2.29975135,-0.575242925,-0.921187425,-1.10894028,-6.7023778
184,1747532654470,-3.4906288,2.4380098,-0.598184325,-1.1286477,-0.85008103,-7.244863649999999
185,1747532654480,-3.623396,2.6426519,-0.5526676500000001,-1.4306502,-0.56831858,-7.781757
186,1747532654490,-3.7289507,2.7720022,-0.5000733,-1.6112125,-0.39787626,-8.047008
187,1747532654500,-3.59459725,2.7706599,-0.465051075,-1.7105484,-0.4785700499999999,-8.273376500000001
188,1747532654510,-3.334066,2.6446043,-0.490188975,-1.6295883,-0.44607949,-8.4824345
189,1747532654520,-3.03509575,2.5087864,-0.5255772750000001,-1.5041534,-0.292148775,-8.6283755
190,1747532654530,-2.81434605,2.4153125,-0.49238549,-1.40401855,-0.151001235,-8.639827
191,1747532654540,-2.52001305,2.284986,-0.429540755,-1.3108079,-0.0793622,-8.599347
192,1747532654550,-2.22262925,2.1542933,-0.369258615,-1.24742465,-0.091346425,-8.509066
193,1747532654560,-1.81773825,1.99956095,-0.250036645,-1.1619372,-0.312655125,-8.2488755
194,1747532654570,-1.41724045,1.85251645,-0.15534244,-1.0428939000000002,-0.5757754500000001,-7.8816255
195,1747532654580,-1.1653734,1.78369235,-0.1735247,-0.9622001,-0.629305,-7.539942
196,1747532654590,-0.921438125,1.73768765,-0.231854395,-0.938498,-0.4846953499999999,-7.1705615
197,1747532654600,-0.703006895,1.67948,-0.288231615,-0.9709886,-0.161653885,-6.768424
198,1747532654610,-0.374139765,1.564651,-0.298604025,-1.1185277500000002,0.455400565,-6.181996
199,1747532654620,-0.07297312325,1.4572658,-0.25442967,-1.30361745,1.00188125,-5.6376458
200,1747532654630,0.1200761667499999,1.41504395,-0.137892345,-1.377387,1.1358382,-5.343899
201,1747532654640,0.359984455,1.37123565,0.025992095,-1.29083425,1.1126686499999998,-5.122590199999999
202,1747532654650,0.65346331,1.4545812,0.14643435,-1.047421275,0.915594765,-4.88876475
203,1747532654660,0.91570285,1.63152275,0.210133295,-0.5885586,0.351270949,-4.28795575
204,1747532654670,1.12168715,1.73195235,0.232586555,-0.1014664399999999,-0.234358186,-3.5185684
205,1747532654680,1.36903915,1.7631916,0.196954195,0.235423435,-0.57257965,-2.9161614
206,1747532654690,1.61907585,1.722556,0.109459674,0.512125875,-0.840493645,-2.3648871
207,1747532654700,1.90218215,1.6333531,0.013789234,0.839428375,-1.095890815,-1.6426378
208,1747532654710,2.106336,1.5740472,-0.060892283,1.1355719,-1.2492889,-0.9201222
209,1747532654720,2.1540493,1.57026435,-0.130936718,1.30601425,-1.2152004,-0.286023525
210,1747532654730,2.144287,1.5677017,-0.22026168,1.42985125,-1.07192235,0.41758365
211,1747532654740,2.0752188,1.56111215,-0.30885446,1.4937671,-0.8242483700000001,1.086303425
212,1747532654750,1.8569095,1.5005860000000002,-0.40232837,1.49429975,-0.25166871,2.0394488
213,1747532654760,1.6898522,1.4416462,-0.45638704,1.4732608,0.16884442,2.6530411
214,1747532654770,1.4301754,1.3537855,-0.44467232,1.4013554,0.5406217,3.1707597
215,1747532654780,1.3036317,1.31424825,-0.41831413,1.31933005,0.721983,3.56117905
216,1747532654790,0.890076715,1.11424338,-0.32227759,1.20002045,0.80720417,4.280765199999999
217,1747532654800,0.516547165,0.91582483,-0.246131735,1.201352,0.64981132,4.7284427
218,1747532654810,0.36425545,0.85920352,-0.254551725,1.30814475,0.5837649,4.9558767
219,1747532654820,0.298482,0.84053314,-0.26943922,1.3763217,0.5789712,5.0648
220,1747532654830,-0.01232489,0.8981306499999999,-0.429418735,1.51560505,0.75287565,5.4805195
221,1747532654840,-0.390979705,0.959022975,-0.517889485,1.5643409,1.18590565,6.007559
222,1747532654850,-0.717650315,0.964148195,-0.562063815,1.556884,1.722,6.46295935
223,1747532654860,-0.89129704,0.95902297,-0.565480615,1.4447649,2.0287962,6.58466585
224,1747532654870,-1.0939865750000002,1.03028765,-0.5653585999999999,1.1813783,2.191249,6.6078355
225,1747532654880,-1.3936888500000002,1.23126875,-0.5879338999999999,0.8261126000000001,2.21441855,6.6584355
226,1747532654890,-1.93940085,1.62920415,-0.6211256999999999,0.395745735,2.11508265,7.00704315
227,1747532654900,-2.45460565,1.9541664,-0.65114475,0.0873516835,1.9808593,7.4933364
228,1747532654910,-2.7691955000000004,2.05740245,-0.67164555,0.013049489,1.8591528,7.87123875
229,1747532654920,-2.98909115,2.08046585,-0.66542207,0.002663161,1.7222663,8.182296000000001
230,1747532654930,-2.9883589500000003,2.01554675,-0.65797832,0.0245010825,1.58404825,8.3040025
231,1747532654940,-2.8560799,2.02140415,-0.7746377,-0.060187438,1.44583015,8.046208499999999
232,1747532654950,-2.7893302,2.0796118,-0.8871481,-0.1571265,1.3789848,7.790279
233,1747532654960,-2.8164207,2.3835851,-1.0583542,-0.4197141949999999,1.5038871,7.67389895
234,1747532654970,-2.8576664000000003,2.56638395,-1.193684,-0.63969133,1.6863136,7.727961049999999
235,1747532654980,-3.20947495,2.8236203,-1.08276005,-0.9297096,1.6013587500000002,8.06778035
236,1747532654990,-3.6879491,2.9738376,-0.64052827,-0.957672785,1.00294645,8.538361
237,1747532655000,-3.8850253,2.8354572,-0.18999856385,-0.5137238000000001,0.0346210849999999,8.82012325
238,1747532655010,-3.9249287,2.7170894,-0.0046370877,-0.21198763,-0.53263223,8.9199915
239,1747532655020,-3.7279745,2.09510955,0.24845028,0.90760527,-2.37420805,8.661133
240,1747532655030,-3.21130535,1.4475036,0.180114255,1.66154615,-3.283944,8.0179793
241,1747532655040,-2.8032417,1.0340706,0.05662128,2.10815835,-3.0655649,6.4403223
242,1747532655050,-2.2500857,0.67738089,-0.1743788949999999,2.0018983,-1.90416025,4.74735085
243,1747532655060,-2.0930347,0.58964235,-0.21232979,1.8301244,-1.3097427,4.1742387
244,1747532655070,-1.8638652,0.37645832,-0.0113486749999999,1.08550447,0.5083974474999999,2.917493
245,1747532655080,-1.78381445,0.19646608,0.300556495,0.461792155,1.65595355,2.26768165
246,1747532655090,-1.7371995,0.0452726165,0.47700988,-0.042077945,2.30603125,1.86075065
247,1747532655100,-1.68826605,-0.1375262535,0.60599415,-0.33449304,2.15795955,1.6847157
248,1747532655110,-1.64494585,-0.32496221,0.7170402,-0.57311228,1.6849821,1.51667025
249,1747532655120,-1.60186975,-0.49982925,0.7743936499999999,-0.71346087,1.07032447,1.3456953
250,1747532655130,-1.5805148,-0.5864696,0.7804951,-0.7701862,0.73982614,1.2511531
251,1747532655140,-1.49692505,-0.8862938899999999,0.49348377,-0.99548963,-0.67804085,0.534496445
252,1747532655150,-1.4324940000000002,-0.96256177,0.322765715,-0.99895175,-0.91745902,0.1054611799999999
253,1747532655160,-1.3823403,-0.976351035,0.179992225,-0.910801125,-0.94755274,-0.387756275
254,1747532655170,-1.3873435,-0.870918305,0.017328065,-0.709199825,-0.80587257,-0.86233158
255,1747532655180,-1.4172405,-0.7330259699999999,-0.1372822,-0.2801645515,-0.24820662,-1.45648285
256,1747532655190,-1.45726585,-0.6454094,-0.223800495,0.0631169214999999,0.35313518,-1.9678098
257,1747532655200,-1.5141312,-0.5748768500000001,-0.2372236449999999,0.1035969705,0.56245965,-2.2370554
258,1747532655210,-1.5392691,-0.5464442,-0.22111587,0.099069595,0.6178534,-2.3686156
259,1747532655220,-1.726705,-0.36596385,-0.0606482249999999,0.0021305284999999,0.4095941899999999,-2.7832698
260,1747532655230,-1.92585575,-0.133865405,0.065163285,0.01091896,-0.24873926,-3.21017445
261,1747532655240,-2.0908384,0.099819415,0.087738582,0.1291633165,-1.0239855,-3.62589395
262,1747532655250,-2.2677799,0.35644562,0.040269446485,0.286289815,-1.536644,-3.93082595
263,1747532655260,-2.4494805,0.64016215,-0.075291660515,0.37017938,-1.7869811,-4.1055293
264,1747532655270,-2.622151,0.9205839,-0.24198275,0.3928162699999999,-2.00083295,-4.6719835
265,1747532655280,-2.8631576,1.287524,-0.44918735,0.26232137,-1.77925795,-5.334045400000001
266,1747532655290,-3.12124825,1.6354276,-0.563650175,0.127299105,-1.3938985499999998,-5.9891832
267,1747532655300,-3.29684735,1.8472693,-0.5219164000000001,0.105194865,-1.09642345,-6.37986875
268,1747532655310,-3.43791235,2.0416609,-0.454068535,0.14407702,-0.841825225,-6.75990175
269,1747532655320,-3.7022263,2.37394485,-0.44833317,0.16538231,-0.62291339,-7.1505875
270,1747532655330,-3.98423465,2.70854735,-0.473104985,-0.07004113,-0.44607949,-7.719704999999999
271,1747532655340,-4.06977685,2.83997215,-0.471640635,-0.4298341999999999,-0.3281014399999999,-8.2776375
272,1747532655350,-4.05525515,2.8832923,-0.4890906849999999,-0.67804082,-0.178165472,-8.67737825
273,1747532655360,-4.0362186,2.890614,-0.5100796,-0.79415464,-0.072970614,-8.8906975
274,1747532655370,-3.89771635,2.92466005,-0.455898935,-1.0343718000000002,0.141413858,-9.388442
275,1747532655380,-3.6753801,2.90184065,-0.342656375,-0.947286385,0.142212805,-9.6102835
276,1747532655390,-3.5783675,2.8720655,-0.32947728,-0.82611257,0.11558119,-9.697103
277,1747532655400,-3.3482215,2.7910388,-0.27407628,-0.66365975,-0.14327806,-9.595369
278,1747532655410,-2.6119007,2.4687611,-0.11971008,-0.32117724,-0.8924253,-9.027584
279,1747532655420,-2.18663085,2.2814472,-0.1092156125,-0.1059938149999999,-1.3909690499999998,-8.5673895
280,1747532655430,-1.7638017,2.1004788,-0.1369161125,-0.074568512,-1.4737934,-8.3780385
281,1747532655440,-1.4119932,1.9724707,-0.183409015,-0.135554902,-1.38910485,-8.209993
282,1747532655450,-1.2571388,1.9256116,-0.20744865,-0.18908444,-1.3065468,-8.121576
283,1747532655460,-0.950358875,1.8445846,-0.249304485,-0.48176585,-0.565921715,-7.76924
284,1747532655470,-0.28786552,1.6551962,-0.277859175,-0.90148003,0.427703685,-7.26190785
285,1747532655480,-0.18011424,1.6137065,-0.2660224,-1.0285128,0.680704,-7.1069117
286,1747532655490,0.1186118157999999,1.5795385,-0.0813930965,-1.335309,1.0575413500000002,-6.37427615
287,1747532655500,0.5392444949999999,1.5694100999999998,0.1443598685,-1.1797804,0.8032094000000001,-5.606486800000001
288,1747532655510,0.84468216,1.5504957,0.2689511,-0.9965549,0.5411543,-5.0807786
289,1747532655520,1.0218678,1.5778301,0.33484653,-0.67484504,0.077231675,-4.4006076
290,1747532655530,1.27812785,1.641285,0.35217461,-0.1185106699999999,-0.7419567,-3.30684725
291,1747532655540,1.4100408,1.63140065,0.29055015,0.24261398,-1.2495552,-2.6162895
292,1747532655550,1.6244451,1.58088085,0.136794088,0.711862985,-1.67859045,-1.6636767
293,1747532655560,1.8365308,1.54634675,-0.029652957,1.1022824,-1.82213485,-0.7621967299999999
294,1747532655570,1.91938815,1.5576954,-0.143139575,1.24023415,-1.6226641,-0.198139185
295,1747532655580,1.93220115,1.57270485,-0.24027434,1.28897,-1.2958942,0.380832045
296,1747532655590,1.807732,1.5677017000000002,-0.28127595,1.19282985,-0.75846826,1.227451
297,1747532655600,1.6964419,1.5556209,-0.2818861,1.0945592,-0.40852892,1.7805896
298,1747532655610,1.38819755,1.53011685,-0.252355195,0.825047315,-0.1012001194999999,2.5334651
299,1747532655620,1.18599615,1.48569845,-0.23368481,0.616521815,-0.010652645,2.9944584
300,1747532655630,1.005759915,1.42126735,-0.2029336,0.43516055,-0.0090547475,3.44107055
301,1747532655640,0.7747597150000001,1.2920391,-0.20598432,0.34061832,-0.024501082,3.8274952
302,1747532655650,0.57243628,1.1582957,-0.24405724,0.42157842,0.0090547485,4.22883355
303,1747532655660,0.46163428,1.0792210999999998,-0.26931717,0.6253102500000001,0.0820253635,4.572914
304,1747532655670,0.3626690649999999,1.00551585,-0.288963785,0.8516789499999999,0.15765914,4.7561396
305,1747532655680,0.271879775,0.93766795,-0.335456685,1.08017815,0.24394556,4.909803849999999
306,1747532655690,0.1249573075,0.9274175,-0.47945048,1.2460930499999998,0.36245623,5.03683665
307,1747532655700,-0.0791965725,0.99209265,-0.6574902549999999,1.144626625,0.7217166700000001,5.3170014
308,1747532655710,-0.30055648,1.08910545,-0.79477245,0.79175779,1.25221835,5.7031595
309,1747532655720,-0.528017835,1.16781395,-0.897642555,0.351537255,1.73451685,6.0195428500000006
310,1747532655730,-0.7599942749999999,1.1945382,-0.91814336,-0.13076121,2.1371869,6.3021045
311,1747532655740,-1.1609803,1.19405005,-0.80185011,-0.507598525,2.46928315,6.61049865
312,1747532655750,-1.6354276,1.25286785,-0.65041258,-0.5334311899999999,2.6541065,6.8781465
313,1747532655760,-1.8338462,1.3140042,-0.601113,-0.41864893,2.666357,6.96683
314,1747532655770,-2.46522225,1.53951315,-0.6477279300000001,0.052996905,2.5723474,7.3524552
315,1747532655780,-2.8586426,1.68497125,-0.73693087,0.25007083,2.41309035,7.63448405
316,1747532655790,-3.18726575,1.7077906,-0.873480885,0.060986385,2.1595574500000003,7.7284937
317,1747532655800,-3.2883054,1.6290821,-0.981842315,-0.380299405,2.00828985,7.514908099999999
318,1747532655810,-3.2376635,1.5883245,-1.0042956,-0.57790595,1.9947077,7.3476615
319,1747532655820,-3.00190425,1.60760515,-0.9686632,-1.00720755,1.97286975,6.82568185
320,1747532655830,-2.9641974,1.866794,-0.97244605,-1.21653205,1.8224012,6.7372651
321,1747532655840,-3.06474885,2.16063885,-1.0003906,-1.3345101,1.5297198,6.9660306
322,1747532655850,-3.2253386,2.27229485,-0.942183,-1.2799152500000002,1.120658225,7.3410037
323,1747532655860,-3.303315,2.299019,-0.8839754,-1.2133362,0.86872315,7.5372787
324,1747532655870,-3.32149695,2.1622251500000003,-0.5818324850000001,-0.390153095,-0.338221489,7.846738
325,1747532655880,-3.16847315,1.9597797,-0.44137755,0.52570802,-1.2807142,7.601993350000001
326,1747532655890,-2.9534587,1.74293485,-0.3470494149999999,1.36913115,-2.00882245,7.1455276
327,1747532655900,-2.7626059,1.60772715,-0.2922585749999999,1.76967055,-2.1813953,6.70690525
328,1747532655910,-2.57468185,1.47593625,-0.2449114599999999,2.01015405,-2.138252,6.21368775
329,1747532655920,-2.4913363,1.4074782,-0.2203837,2.08419,-2.0682108,5.9558935
330,1747532655930,-2.272661,1.1448725,0.030507157,2.0905814,-1.9068234,5.4680023
331,1747532655940,-2.11634245,0.94804035,0.1387465484999999,1.9070897,-1.6508935500000002,4.57877275
332,1747532655950,-1.8869287,0.65346328,0.26797487,1.7848506,-1.4919028,4.127367
333,1747532655960,-1.7456195,0.4562650299999999,0.30702402,1.5675366,-1.2996227,3.7566552
334,1747532655970,-1.6774055,0.3568117,0.32508424,1.2831111,-1.0780476,3.397661
335,1747532655980,-1.41833875,-0.09786695,0.3679163,0.55899751,-0.63356603,2.64372
336,1747532655990,-1.2615319500000002,-0.44235375,0.37853278,-0.0005326349999999,-0.370978355,2.065814
337,1747532656000,-1.1936840000000002,-0.64113837,0.41050428,-0.309193005,-0.29268141,1.69536835
338,1747532656010,-1.1573195,-0.73778504,0.4378387,-0.43782368,-0.26738137,1.5153387
339,1747532656020,-1.057378,-0.90288982,0.46358672,-0.5936186299999999,-0.21305289,0.8727179199999999
340,1747532656030,-1.01137323,-0.85676297,0.417703975,-0.5118595699999999,-0.20692762,0.301736167
341,1747532656040,-1.00771238,-0.725094075,0.35620154,-0.33609093,-0.18588865,-0.215449728
342,1747532656050,-1.0385856,-0.61673266,0.311295,-0.154463345,-0.1438107025,-0.447943675
343,1747532656060,-1.0594525,-0.56523657,0.2865232,-0.05965481,-0.118776985,-0.5411543
344,1747532656070,-1.1224192,-0.4927515799999999,0.224288615,0.151267553,-0.0596548085,-0.664192385
345,1747532656080,-1.1668377,-0.493239685,0.2497926,0.216515,-0.1174454085,-0.73476615
346,1747532656090,-1.2271199,-0.52423495,0.288109585,0.1672465175,-0.2380865999999999,-0.864994725
347,1747532656100,-1.29777445,-0.523502795,0.2943330549999999,0.0215716075,-0.398142585,-1.065530775
348,1747532656110,-1.37916755,-0.47115253,0.292624655,-0.14674018,-0.63383235,-1.3363743
349,1747532656120,-1.48240375,-0.381217435,0.2626056,-0.28948561,-0.883104235,-1.65249155
350,1747532656130,-1.7054721000000002,-0.1758432465,0.130570623,-0.33955304,-1.11932662,-2.18325955
351,1747532656140,-1.94293975,0.0507639085,-0.014643435,-0.242347665,-1.27165945,-2.76968765
352,1747532656150,-2.0151806,0.12520137,-0.054424766,-0.15393071,-1.3017532,-2.9912627
353,1747532656160,-2.4608293,0.635158965,-0.22953584,0.218911835,-1.20907515,-3.9643817
354,1747532656170,-2.7058628,0.91814333,-0.33020946,0.3291667,-1.154214,-4.4517403
355,1747532656180,-2.89171235,1.139747365,-0.290550155,0.1701759884999999,-1.330249,-4.73856265
356,1747532656190,-3.18970625,1.4907017,-0.22270224,-0.0615190265,-1.6370452,-5.14309675
357,1747532656200,-3.38544015,1.73390475,-0.2057402649999999,-0.206394995,-1.8708707,-5.412076000000001
358,1747532656210,-3.4690297,1.8477575,-0.2169669,-0.27856666,-1.973935,-5.5633435
359,1747532656220,-3.80485235,2.43678965,-0.507028935,-0.6066681,-1.7542243000000002,-6.4709489
360,1747532656230,-3.7692202,2.5006106,-0.6184410499999999,-0.76912093,-1.4546186,-6.9380674
361,1747532656240,-3.71979865,2.55601155,-0.6828722,-1.16380145,-0.7041398,-7.759119999999999
362,1747532656250,-3.7418858,2.6582715500000003,-0.67042528,-1.51746925,-0.031691615,-8.219580749999999
363,1747532656260,-3.7539666,2.7263634,-0.575242905,-1.7089504999999998,0.287088785,-8.40147425
364,1747532656270,-3.708694,2.711964,-0.44235374,-1.6181367,0.1494033464999999,-8.3620595
365,1747532656280,-3.56665255,2.6447263,-0.327280765,-1.39443115,-0.1560612335,-8.262724
366,1747532656290,-3.28635275,2.5344125,-0.25174505,-1.1054782,-0.6364955,-8.1697795
367,1747532656300,-3.1173432,2.4730322,-0.2255089,-0.9528791,-0.92464954,-8.134892
368,1747532656310,-2.631181,2.277542,-0.2613853,-0.47617322,-1.7465011,-7.866978
369,1747532656320,-2.04092875,2.0649684500000003,-0.32349789,-0.39388153,-2.06821085,-7.6973347
370,1747532656330,-1.8182266,1.9761316,-0.3482697,-0.40373522,-2.0698087,-7.6768284
371,1747532656340,-1.3254749499999998,1.8189587,-0.45297025,-0.564323845,-1.6836505,-7.66830615
372,1747532656350,-0.994411275,1.747938,-0.5291161200000001,-0.82771047,-0.9121327,-7.453389
373,1747532656360,-0.79391825,1.7169427,-0.56670094,-1.0215886,-0.3387541,-7.252853
374,1747532656370,-0.6294237,1.6681312,-0.5266756,-1.32572155,0.471912165,-6.72075345
375,1747532656380,-0.394274485,1.5326795,-0.326792665,-1.49030495,0.804541,-6.34657925
376,1747532656390,-0.237589715,1.4090644499999998,-0.109215622,-1.63278405,0.8817726699999999,-5.9457733
377,1747532656400,0.02696833,1.33072215,0.105432728,-1.6351808499999998,0.4442152935,-5.395298
378,1747532656410,0.22209209,1.3157127,0.18109047,-1.5664713,0.042077947,-5.0653324
379,1747532656420,0.549250835,1.2627522,0.255039825,-1.1001519,-0.6655239749999999,-4.6275087500000005
380,1747532656430,0.733147985,1.2708061000000002,0.191096825,-0.75740305,-1.062335025,-4.30926075
381,1747532656440,0.9831846,1.3097332499999998,0.048079275,-0.242613987,-1.3187974,-3.6922064
382,1747532656450,1.1482893,1.3303561,-0.04148973,0.249271883,-1.3385048,-2.9963226
383,1747532656460,1.2659249,1.342559,-0.14204131,0.39734364,-1.274589,-2.7425234
384,1747532656470,1.4139457,1.32376655,-0.266632535,0.72943987,-0.8495484,-1.8261296
385,1747532656480,1.4503102,1.3015572999999998,-0.3184946899999999,0.81785679,-0.55873121,-1.32412365
386,1747532656490,1.4575099,1.2932593,-0.33265,0.84368944,-0.41172472,-1.0801781
387,1747532656500,1.3962514,1.2354177,-0.35363895,0.74035877,0.07137272,-0.1635181
388,1747532656510,1.3962514,1.2354177,-0.35363895,0.65593657,0.17204021,0.287088765
389,1747532656520,1.1930738,1.1309613,-0.250646795,0.5568669850000001,0.27830035,0.962466465
390,1747532656530,1.0986237,1.06872665,-0.2056182349999999,0.56299225,0.279631935,1.3994912
391,1747532656540,0.95194533,0.957192465,-0.161443865,0.732901925,0.306263535,1.98272345
392,1747532656550,0.79269798,0.835041865,-0.15412214,0.942492725,0.37630467,2.4676851
393,1747532656560,0.68982785,0.751696335,-0.1892663849999999,1.0388992,0.475374255,2.67061795
394,1747532656570,0.6469958,0.70971847,-0.21062139,1.0748519,0.53529537,2.7595675
395,1747532656580,0.476399735,0.5712159750000001,-0.285302915,1.0234528,0.80454095,3.0629016
396,1747532656590,0.305681695,0.50043939,-0.323863965,0.8857674,0.97897805,3.3380062500000003
397,1747532656600,0.146434345,0.48884669,-0.328257,0.72997247,1.0394318,3.63122025
398,1747532656610,0.007443745,0.4834774,-0.3180066,0.558198585,1.051416,4.0043291000000005
399,1747532656620,-0.106286935,0.466393375,-0.3278909,0.371777295,1.08097715,4.4583982
400,1747532656630,-0.416117595,0.48579595,-0.4230732499999999,0.1363538445,1.2213257,5.0693272
401,1747532656640,-0.84028905,0.4838435,-0.5494949,-0.0002663160499999,1.4604775,5.56254455
402,1747532656650,-1.0128375,0.4544346,-0.596964,-0.0026631611,1.5909724,5.6965017
403,1747532656660,-1.3889297,0.38902727,-0.59672,0.240217125,2.0266656000000003,6.015282
404,1747532656670,-1.93220125,0.26834095,-0.357787915,0.459661605,2.1270668500000003,6.1521685
405,1747532656680,-2.0298241,0.1304485975,-0.229657875,0.602673355,1.56753675,6.046174649999999
406,1747532656690,-1.9884564,0.1281300525,-0.17474499,0.6213154750000001,0.57257968,5.8011639
407,1747532656700,-1.948309,0.272978025,-0.193781445,0.56512278,-0.09827065,5.68371845
408,1747532656710,-1.871553,0.4856739,-0.320691215,0.4431500149999999,-0.3842941549999999,5.678392199999999
409,1747532656720,-1.8196908,0.5940353,-0.409284,0.35792887,-0.44048685,5.693306
410,1747532656730,-2.0217702,1.30289965,-0.98062205,-0.5483449,0.950748525,6.2930497
411,1747532656740,-2.1362331,1.4302975,-1.1015524,-0.7845673,1.3885722,6.445915
412,1747532656750,-2.27070865,1.48142745,-1.046517475,-1.40455115,2.3896544000000004,6.79159325
413,1747532656760,-2.3429496,1.4919219,-0.96719885,-1.5542208,2.6146915,6.8666945
414,1747532656770,-2.5932303,1.6021138,-0.429296695,-1.350489,2.49058835,6.9172948000000005
415,1747532656780,-2.6918295,1.7129158,-0.1050666425,-0.37950045,1.46740185,6.806241
416,1747532656790,-2.647289,1.7341488,-0.0441743639999999,0.7249124499999999,0.206394975,6.63473335
417,1747532656800,-2.60946,1.7389079,-0.033679903,1.0428939,-0.20240025,6.5758777
418,1747532656810,-2.4793775,1.764778,-0.04075756,1.5339808,-0.81705785,6.4427195
419,1747532656820,-2.2227514,1.7313421,-0.135451775,1.8455707,-1.0823087,6.2935824
420,1747532656830,-2.1207354,1.6404307500000002,-0.147532605,1.8029601,-0.96033587,6.02806545
421,1747532656840,-2.1507544000000003,1.51913425,-0.01208083,1.5433019,-0.83063997,5.9343222
422,1747532656850,-2.15404925,1.3214479,0.209035035,1.3757890499999998,-0.8604674,5.90156515
423,1747532656860,-2.1335485,1.193684,0.32557237,1.25195205,-0.8756474000000001,5.74417215
424,1747532656870,-1.9538003,0.76316702,0.32130135,1.04981813,-0.84235785,5.413674
425,1747532656880,-1.897057,0.62259,0.2848148,0.90973586,-0.8186557,5.203817
426,1747532656890,-1.5554989,-0.078342383,0.120320225,-0.311057218,-0.52677329,3.51537275
427,1747532656900,-1.492166,-0.21477039,0.09054524,-0.7933557,-0.388022585,2.795254
428,1747532656910,-1.4096746,-0.39268813,0.057109397,-1.0114686,-0.32117724,2.4538367
429,1747532656920,-1.27324665,-0.6559038349999999,0.173036585,-1.04635605,-0.112651716,1.36753325
430,1747532656930,-1.2166254,-0.771831065,0.26663254,-0.6165218299999999,-0.060453756,0.75766932
431,1747532656940,-1.2251674,-0.750842155,0.253697505,-0.1744370579999999,-0.119575935,0.556068035
432,1747532656950,-1.25762695,-0.700322275,0.199028675,0.203731822,-0.216248685,0.431964725
433,1747532656960,-1.2776396,-0.6740861,0.16425052,0.3637878,-0.27324033,0.38562572
434,1747532656970,-1.33865395,-0.6552937050000001,0.052838396,0.53849119,-0.447411085,0.253000305
435,1747532656980,-1.3630597,-0.69617331,0.0140332919,0.493483765,-0.57284597,0.0146473849999999
436,1747532656990,-1.39124835,-0.730829445,0.0104944614,0.41092576,-0.6444849850000001,-0.32384039
437,1747532657000,-1.411139,-0.72607034,0.013179091,0.38562572,-0.6498113,-0.47564057
438,1747532657010,-1.4609268,-0.69165826,0.029530926,0.39254996,-0.6578008,-0.9667275
439,1747532657020,-1.5839316,-0.6016011,0.021477038,0.4394216,-0.6940198,-1.4082797
440,1747532657030,-1.9082836,-0.324718155,-0.0971347875,0.66685555,-0.8258463,-2.3270702
441,1747532657040,-2.16027275,-0.0643090814999999,-0.23466105,0.8562063,-0.89748532,-3.0407974500000003
442,1747532657050,-2.2482553,0.047103047,-0.28701133,0.912399,-0.89801794,-3.2852757
443,1747532657060,-2.67267095,0.5781716,-0.397325185,0.8977516299999999,-1.182443535,-4.12283965
444,1747532657070,-2.9383273,0.8950799300000001,-0.373651625,0.84661893,-1.6607473,-4.61046455
445,1747532657080,-3.0023923,0.98208636,-0.32630453,0.85594,-1.9046929,-4.7382965
446,1747532657090,-3.1158788,1.1702545,-0.22990192,1.0120013,-2.308428,-4.932174
447,1747532657100,-3.1834826,1.292039,-0.26797485,1.2037488,-2.634399,-5.1915665
448,1747532657110,-3.46683325,1.69876045,-0.5823206,1.2926984,-2.70683695,-5.88585265
449,1747532657120,-3.6427984,1.9221949,-0.695197075,1.2548815,-2.5774074,-6.236591
450,1747532657130,-3.7309031,2.0344613,-0.75169635,1.0295781,-2.1630194,-6.5524416
451,1747532657140,-3.89198115,2.2144535,-0.8419975150000001,0.406664715,-1.3840449,-7.030745250000001
452,1747532657150,-3.9239526,2.246059,-0.852492,-0.3238404,-0.80826943,-7.54580065
453,1747532657160,-3.8626943,2.1769907,-0.60989904,-0.8064052,-0.49161956,-7.8968053
454,1747532657170,-3.5808079,2.0436133,-0.42868656,-0.90121375,-0.5765744,-8.11118965
455,1747532657180,-3.3250359,1.95611875,-0.363157185,-0.9566075,-0.7518104,-8.37297825
456,1747532657190,-3.1866555,1.9109682,-0.34802565,-0.9171927,-0.84209156,-8.4203825
457,1747532657200,-2.5521067,1.7505006,-0.346805335,-0.75979985,-1.04848658,-8.362592
458,1747532657210,-2.2028608,1.6717921,-0.33704305,-0.700944,-1.1014835,-8.305867
459,1747532657220,-1.6908286,1.5578174,-0.34424273,-0.4788364,-1.0812434,-7.9516664
460,1747532657230,-1.393933,1.4999758,-0.37121106,-0.452471075,-0.77977355,-7.6248965
461,1747532657240,-1.01161728,1.4639774,-0.40208431,-0.514522735,-0.43249735,-7.3641732
462,1747532657250,-0.6705472800000001,1.42395205,-0.39488462,-0.6591324,0.174437065,-6.9053107
463,1747532657260,-0.571338,1.398204,-0.37536004,-0.7616641,0.60507023,-6.572682
464,1747532657270,-0.30665792,1.29130695,-0.246009705,-0.90014845,1.0018812,-5.983324
465,1747532657280,-0.153756065,1.2415193000000002,-0.1050666385,-0.9161274,1.04635595,-5.543635999999999
466,1747532657290,0.112998495,1.1971008,0.0727290615,-0.754473535,0.73876088,-4.7569385
467,1747532657300,0.41465324,1.1473131,0.210133295,-0.432763685,0.176833905,-3.8706385
468,1747532657310,0.641504475,1.0823939,0.24393522,-0.081492733,-0.286556135,-3.3318809
469,1747532657320,0.83797055,1.0086885799999998,0.210987485,0.273240337,-0.60107546,-2.96036995
470,1747532657330,0.9878217,0.97696113,0.094694209,0.615456555,-0.8002799,-2.64798115
471,1747532657340,1.09313245,0.997828,-0.050519851,1.009604385,-0.75926725,-2.20536375
472,1747532657350,1.14365225,1.0228438999999998,-0.1608337249999999,1.2823121,-0.4804343,-1.75848525
473,1747532657360,1.1673258,1.03577895,-0.228559615,1.3246564,-0.3121225,-1.6042882
474,1747532657370,1.1600041,1.05981855,-0.240030305,1.2961605,0.214917109,-1.1046792
475,1747532657380,1.0834921,1.0798313,-0.18304294,1.2058793,0.52597431,-0.70786821
476,1747532657390,1.0225998,1.0821499,-0.1342315,1.1451592,0.6716492,-0.48469532
477,1747532657400,0.9054524,1.0594524500000002,-0.0535705675,0.8279768000000001,0.74941355,0.38669099
478,1747532657410,0.873725,1.0477377,-0.026114125,0.7707188,0.70200926,0.5523396
479,1747532657420,0.767804085,0.9995364,0.0355103305,0.7006777200000001,0.4530036899999999,1.023985425
480,1747532657430,0.673353935,0.93339693,0.02220921075,0.72464615,0.291083515,1.34223315
481,1747532657440,0.5917168,0.871162355,-0.04112364675,0.862864195,0.15978967,1.8056232
482,1747532657450,0.5630401,0.85590875,-0.08078295,0.97418433,0.10226539,2.1081583
483,1747532657460,0.50788313,0.8180799,-0.12154051,1.1297129,0.15126756,2.4756746
484,1747532657470,0.396348975,0.73851725,-0.1442378349999999,1.3105416,0.23595608,2.8226845000000003
485,1747532657480,0.288963785,0.626495,-0.1918289899999999,1.3534185,0.2905508799999999,3.09006585
486,1747532657490,0.1958559349999999,0.518987775,-0.273710195,1.2689963,0.387489945,3.3851441500000004
487,1747532657500,0.06150242,0.513008345,-0.37401774,1.0756508,0.562193315,3.7079192
488,1747532657510,-0.04075756,0.53350914,-0.42954078,0.9598033,0.6695187,3.904194
489,1747532657520,-0.36388935,0.55181342,-0.47810815,0.6010754700000001,1.0436928,4.7992825
490,1747532657530,-0.89117501,0.53204482,-0.34973403,0.479102685,1.2072109,5.8496335
491,1747532657540,-1.4739837,0.47054238,-0.146434348,0.58669439,1.1848404,6.7638968
492,1747532657550,-1.6844831,0.30970863,0.0051252019999999,0.894023225,1.0032128,6.9780148
493,1747532657560,-1.7018112,0.0994533185,0.0874945225,1.2490226,0.77071885,6.84512315
494,1747532657570,-1.517548,0.011714747,-0.0636989425,1.5108113,0.5664544,6.41715315
495,1747532657580,-1.3535415,0.1616879285,-0.324230045,1.4335796,0.57737333,5.7108827
496,1747532657590,-1.38319445,0.4523601,-0.516181075,1.08044445,0.88470213,5.2970273500000005
497,1747532657600,-1.5456146,0.7885489999999999,-0.6689609000000001,0.676176615,1.3486248,5.5239289
498,1747532657610,-1.7546496,1.0902037999999998,-0.72619232,0.237021334,1.8759307,6.0866549
499,1747532657620,-1.9904089,1.29057475,-0.7002002199999999,0.013848438,2.1534321,6.4443173
500,1747532657630,-2.1810176500000003,1.3969837,-0.676282635,-0.455933215,2.3968451,7.082144250000001
501,1747532657640,-2.2736374,1.4925321,-0.6916582600000001,-0.8080031,2.2844597,7.2355425
502,1747532657650,-2.3165915,1.55196,-0.70239675,-0.9358348,2.2003038,7.2176995
503,1747532657660,-2.3854156,1.7047399,-0.6892177,-1.1813782,2.0096214,7.158577
504,1747532657670,-2.25862775,1.77624865,-0.58097829,-1.17072565,1.68817785,6.864031300000001
505,1747532657680,-2.08839775,1.83653075,-0.4439401349999999,-0.641555515,1.4530207000000002,6.5979817
506,1747532657690,-2.0419048,1.99004275,-0.373529615,-0.016245275,1.28896995,6.54338695
507,1747532657700,-2.0681411,2.12451825,-0.334724515,0.49667956,1.07378655,6.64005975
508,1747532657710,-2.1008449,2.1799192,-0.32337585,0.72437984,0.9470201,6.721819
509,1747532657720,-2.2949922000000003,2.26106835,-0.2567482199999999,1.0253171,0.5816344,6.9625683
510,1747532657730,-2.4937769,2.07765945,-0.2090350349999999,0.999484375,-0.5278385050000001,7.2965288
511,1747532657740,-2.60018585,1.74110445,-0.14570218,0.796285175,-1.41653535,7.31570365
512,1747532657750,-2.5826137,1.5812469,-0.10884953,0.7286409,-1.6751283,7.234211
513,1747532657760,-2.3719923,1.1421878,-0.10396838,0.644485,-1.8482338,6.7622986
514,1747532657770,-1.9860159,0.3503441781499999,-0.026114126,0.49881008,-1.36460375,4.933506
515,1747532657780,-1.8102947,-0.10225998185,0.103724334,0.4625911,-0.99282645,3.680755
516,1747532657790,-1.76111715,-0.29689564,0.190486685,0.4857606,-0.8836369,2.98966465
517,1747532657800,-1.7026654,-0.53375322,0.2329526499999999,0.516386955,-0.89136005,2.3971114
518,1747532657810,-1.61504885,-0.7388833450000001,0.23612539,0.562193325,-1.03517075,1.5957662
519,1747532657820,-1.5384149,-0.818934075,0.22172601,0.5992112650000001,-1.15048565,0.7981494
520,1747532657830,-1.50937205,-0.83845865,0.231976415,0.622647065,-1.2029499,0.2340918759999999
521,1747532657840,-1.55061765,-0.8068532500000001,0.285913065,0.68549765,-1.32518895,-0.221575014
522,1747532657850,-1.63103455,-0.75950615,0.347659555,0.7944209499999999,-1.56487345,-0.49215219
523,1747532657860,-1.67106,-0.7382732,0.37365165,0.8580705,-1.7241305,-0.598146
524,1747532657870,-1.7082787,-0.822228885,0.32764686,1.2532836,-2.6631612,-1.0479539
525,1747532657880,-1.7284133,-0.8432178,0.3082443,1.3448963,-2.8410604,-1.1515509
526,1747532657890,-1.7579445,-0.88031447,0.22331238,1.5334482,-3.1174965,-1.4386396
527,1747532657900,-1.7445213,-0.8927614,0.13105874,1.7049558,-3.218164,-1.8796592
528,1747532657910,-1.81676215,-0.79562665,0.05393665,1.81787385,-3.0929954,-2.54624845
529,1747532657920,-2.0349493,-0.4807928,-0.053936653,1.9441077,-2.7601001,-4.114584
530,1747532657930,-2.3616199,-0.066139517,-0.1233709349999999,1.78138845,-2.63999165,-4.9729207
531,1747532657940,-2.4845028,0.082003236,-0.14911897,1.7017599,-2.6359968,-5.212339
532,1747532657950,-2.7507694,0.39146784,-0.19548985,1.4572818,-2.753176,-5.5548215
533,1747532657960,-3.244985,1.0077124,-0.29555333,0.91186637,-3.0780816,-5.937784
534,1747532657970,-3.3904433,1.1546348,-0.33460248,0.72651035,-3.1025827,-6.1119547
535,1747532657980,-3.5022214500000004,1.2456682,-0.387074785,0.61252708,-2.86875725,-6.66509315
536,1747532657990,-3.5393183,1.2725145,-0.40733153,0.59228706,-2.748915,-6.9098377
537,1747532658000,-3.80412035,1.49399645,-0.497998835,0.25619608225,-1.95262975,-8.194281
538,1747532658010,-3.964222,1.632743,-0.53643787,0.0010652645,-1.5941683,-8.72718
539,1747532658020,-4.097477,1.7811297,-0.5613316,-0.43303,-1.2639363,-9.03291
540,1747532658030,-4.1550746,1.88461,-0.5559624,-0.92997587,-1.0482203,-9.137306
541,1747532658040,-4.058184,1.9109682,-0.51569295,-1.3843112,-0.96140116,-9.11387
542,1747532658050,-3.5273595,1.769171,-0.47139658,-1.86634335,-0.71266193,-8.8853705
543,1747532658060,-3.4148493,1.739152,-0.4790844,-2.0149477,-0.51984906,-8.72132
544,1747532658070,-3.0685319,1.6038222,-0.45955981,-1.9307918,-0.136886485,-8.535431500000001
545,1747532658080,-2.5854204000000003,1.42419605,-0.412334725,-1.7603495,0.3856257449999999,-8.267251
546,1747532658090,-2.22763255,1.3564701499999998,-0.311783145,-1.5172029,0.61199445,-7.896538749999999
547,1747532658100,-1.84165605,1.29118485,-0.192927265,-1.2841762499999998,0.67005135,-7.4512584
548,1747532658110,-1.54036735,1.2140628,-0.11739154,-1.1448929,0.59255335,-7.1479244
549,1747532658120,-1.28325305,1.1579296,-0.0728510875,-1.0418286,0.4772384799999999,-6.86269995
550,1747532658130,-1.0454192,1.1164399,-0.0462488474999999,-0.9933591,0.36165729,-6.58546495
551,1747532658140,-0.9283937,1.0958171,-0.03465613,-0.984837,0.31265512,-6.4469805
552,1747532658150,-0.410870375,1.03614505,-0.06577343,-1.26500155,0.36751623,-5.3952983
553,1747532658160,-0.33460248,1.0338265,-0.05906185,-1.3342438,0.3920173,-5.143097
554,1747532658170,-0.18865626,1.0372432,-0.024893839,-1.4317155,0.41545314,-4.5337653
555,1747532658180,-0.029530926,1.0282133,0.017816179,-1.4567492,0.42024684,-3.85679
556,1747532658190,0.354981255,0.933152875,0.0665056015,-1.2751216,0.548877525,-2.727077
557,1747532658200,0.625762775,0.840045025,0.0815151175,-1.059139215,0.759000925,-2.14490995
558,1747532658210,0.6936107,0.8166155,0.08371163,-0.96939063,0.8516789,-2.0357203
559,1747532658220,0.8053889,0.81185643,0.13093671,-0.6125270700000001,0.8490157700000001,-1.8631475
560,1747532658230,0.8195442,0.8283303,0.1637624,-0.45699844,0.8000136,-1.80296
561,1747532658240,0.830160735,0.9602433,0.2357593,0.245543445,0.4546016,-1.3361079
562,1747532658250,0.85566473,1.0365112,0.23795582,0.6151902,0.25033715,-1.0343717
563,1747532658260,0.88104665,1.1221752,0.16058967,0.91133374,0.099069595,-0.5422196
564,1747532658270,0.9413288,1.2156491,0.10640897,1.1563445,0.018109497,0.023435818
565,1747532658280,0.988919965,1.29533385,-0.0114706899999999,1.3760554,0.0988032745,1.082042365
566,1747532658290,0.97537478,1.3168109,-0.08358961,1.37259325,0.2149171,1.8301243
567,1747532658300,0.90398803,1.3091231,-0.099087245,1.28976895,0.28975193,2.27061115
568,1747532658310,0.8510276,1.3079028,-0.10030753,1.24849,0.3190467,2.4580977
569,1747532658320,0.67713683,1.2648267,-0.06589546,1.1459582,0.39627838,2.9473205
570,1747532658330,0.5248451000000001,1.1640311,-0.04271002,1.11160345,0.43436159,3.28740615
571,1747532658340,0.39354232,1.0665302,-0.0142773492,1.13503925,0.40240365,3.53508015
572,1747532658350,0.35876414,1.0421244,0.0034168016,1.1680624,0.36005938,3.590474
573,1747532658360,0.256870265,0.970249595,-0.02562601205,1.36593535,0.285224555,3.6724993
574,1747532658370,0.22477673,0.95011485,-0.05515694,1.4370418,0.27217507,3.6842172
575,1747532658380,0.0497876835,0.97207998,-0.19085276,1.6578178,0.28309404,3.84001195
576,1747532658390,-0.0915214665,1.02125758,-0.2408844949999999,1.7963021499999998,0.2873551,4.0504018
577,1747532658400,-0.14350566,1.044321,-0.24771811,1.8514296,0.2908172,4.1476073
578,1747532658410,-0.18109047,1.0396838,-0.27187976,2.0026972,0.31851408,4.3340282
579,1747532658420,-0.29433304,1.0601847,-0.298482,2.1758027,0.3717773,4.5614624
580,1747532658430,-0.834431715,1.2495731499999998,-0.4319813249999999,2.44185245,0.7917578000000001,5.2930329
581,1747532658440,-1.1690342,1.346952,-0.50788313,2.5326662,1.0540792,5.7348514
582,1747532658450,-1.5141312,1.4174845,-0.5293602,2.5225463,1.4620755,6.2254057
583,1747532658460,-1.8938842,1.4050376,-0.5422952,2.3963125,2.052232,6.6158247
584,1747532658470,-1.8938842,1.4050376,-0.5422952,2.3963125,2.052232,6.6158247
585,1747532658480,-1.8938842,1.4050376,-0.5422952,2.3963125,2.052232,6.6158247
586,1747532658490,-3.11453655,1.64909485,-0.24466738,2.0961741,1.624262,6.6549732
587,1747532658500,-3.3345542,1.7796655,-0.27773714,2.1177456,1.4620755,6.792126
588,1747532658510,-3.9428669,1.97088435,-0.45455663,1.81840645,1.2556805,7.642473450000001
589,1747532658520,-4.20998775,1.85532325,-0.57829365,1.08790135,1.44077025,8.0472742
590,1747532658530,-4.3371415,1.7340268,-0.65090066,0.5203817,1.635181,8.165785
591,1747532658540,-4.4475773,1.53634035,-0.592571,-0.267914012,1.8112159,7.7042585
592,1747532658550,-4.484552,1.4943625,-0.5462001,-0.4990764,1.8210696,7.556453
593,1747532658560,-4.4538007,1.4589742,-0.39927766,-0.7552725,1.7251958,7.32103
594,1747532658570,-4.2208478,1.34011835,-0.26345979,-0.7752462250000001,1.4519554499999998,6.94419265
595,1747532658580,-4.0753898,1.07153335,-0.1088495305,-0.40400155,1.096689765,6.5124943
596,1747532658590,-3.9841124,0.73876125,0.1062869345,0.19068235,0.6506102650000001,6.114618
597,1747532658600,-3.9471378,0.6186851,0.20012695,0.4607269,0.4596616,6.004363
598,1747532658610,-3.4310787,0.160955747,0.30214289,1.40881225,-0.456465835,5.1399008
599,1747532658620,-2.99238585,-0.084199748,0.32545035,1.72919055,-0.97232015,4.40833065
600,1747532658630,-2.7219704,-0.19195103,0.34826969,1.7398432,-1.1699267,3.9145806
601,1747532658640,-2.5870068,-0.24259292,0.35974038,1.717739,-1.242631,3.6778255
602,1747532658650,-2.2892568,-0.33997175,0.38683072,1.6213325,-1.3486248,3.2618399
603,1747532658660,-1.75782235,-0.605994125,0.467735675,1.4966966,-1.4327807,2.8794098
604,1747532658670,-1.3596429,-0.8083176,0.516059,1.2327773,-1.6205335,1.98618555
605,1747532658680,-1.121443,-0.8820228999999999,0.4879924499999999,1.2037488,-1.5888419,1.7869811
606,1747532658690,-1.0101529,-0.9132622,0.4556549,1.117995,-1.3896375,1.4988271
607,1747532658700,-0.85859346,-0.9967298,0.40489095,0.95128113,-1.1920309,1.25861
608,1747532658710,-0.6572462,-1.1609803,0.44930938,0.6593987,-1.0258497,0.91133374
609,1747532658720,-0.53570567,-1.23614995,0.55986735,0.7523430200000001,-1.10121715,0.65726818
610,1747532658730,-0.47591165,-1.25689485,0.6152683299999999,0.9411611,-1.22105935,0.4737763699999999
611,1747532658740,-0.43246943,-1.25591865,0.655415725,1.19815615,-1.38031635,0.27137612
612,1747532658750,-0.41733786,-1.2493291,0.66969305,1.3390374,-1.4668691,0.16458336
613,1747532658760,-0.4419877,-1.2434716,0.5520575,1.8945729,-1.700162,-0.41438788
614,1747532658770,-0.5256993,-1.2185779,0.43661842,1.9648803,-1.7150757,-0.6860303
615,1747532658780,-0.624420465,-1.1925857,0.3397276999999999,1.88258865,-1.57179775,-1.16486665
616,1747532658790,-0.6574902,-1.1931958,0.30360723,1.8168086,-1.4887071,-1.3432984
617,1747532658800,-0.993313,-1.18123705,0.30470547,1.2583437,-1.54276925,-2.0801952
618,1747532658810,-1.1290089,-1.2034463,0.33094163,0.85807055,-1.8082864,-2.62348
619,1747532658820,-1.2881342,-1.2171135,0.305071575,0.706004,-2.1406489,-3.01842675
620,1747532658830,-1.3838046,-1.2156491,0.26699865,0.6535397,-2.3339944,-3.2288165
621,1747532658840,-1.6800901,-1.1919756,0.108117364,0.76113147,-2.5808696,-3.7124465
622,1747532658850,-2.2377609,-1.1286427,-0.3014107,0.95287905,-2.51189365,-4.1635861
623,1747532658860,-2.4969497,-1.0050277,-0.458339515,1.1246529,-2.3188144,-4.537493899999999
624,1747532658870,-2.6226392,-0.9405966,-0.53009236,1.1680624,-2.2327943,-4.6275086
625,1747532658880,-2.8974476,-0.78330172,-0.60330953,1.21599935,-2.1965753,-4.78410265
626,1747532658890,-3.35944785,-0.52460104,-0.7265584350000001,1.3004216,-2.40776395,-5.2725265
627,1747532658900,-3.68660665,-0.3486357599999999,-0.8107581349999999,1.3305153,-2.7233486,-5.73112265
628,1747532658910,-3.8989366,-0.18499539,-0.889832665,1.27032785,-2.8077708,-5.99823775
629,1747532658920,-4.002416800000001,0.0240396399999999,-0.984160815,1.107076085,-2.7316043,-6.28213095
630,1747532658930,-4.033534,0.14399378,-1.0335824,0.99762017,-2.6391926,-6.4256754
631,1747532658940,-4.4058435,0.430639,-1.1401134000000002,0.1219727699999999,-1.5970977999999998,-6.624347
632,1747532658950,-4.6651545,0.50690687,-1.1870944,-0.41918156,-1.0247844,-6.6371303
633,1747532658960,-4.5336075000000005,0.70007823,-1.1374288,-1.29456265,-0.6950850500000001,-7.1239562
634,1747532658970,-4.562406,0.7497439,-1.1185144,-1.5638082,-0.5603291,-7.3306174
635,1747532658980,-4.4157276,0.96024325,-0.90679475,-2.36994705,0.225037115,-7.663512499999999
636,1747532658990,-4.2749066,1.0540832,-0.767316,-2.6951191,0.60240704,-7.694405
637,1747532659000,-3.81534685,1.02028135,-0.614902255,-2.845055,1.130511875,-7.63501665
638,1747532659010,-3.7343197,1.0121055,-0.58891016,-2.9097698,1.2799152,-7.558051
639,1747532659020,-3.5749507,0.96573454,-0.60697037,-3.0913975,1.3448963,-7.2395372
640,1747532659030,-2.8367994,0.82149672,-0.4199004899999999,-2.9438582,1.38031645,-6.815295600000001
641,1747532659040,-2.4499687,0.77268527,-0.32508426,-2.6831348,1.53611135,-6.4672206
642,1747532659050,-2.21408735,0.792942,-0.21232981,-2.5891252,1.5749935,-6.301572
643,1747532659060,-1.96344055,0.824669425,-0.061014312,-1.99390875,0.97445065,-5.69010995
644,1747532659070,-1.70473995,0.831991125,0.089080888,-1.4607439,0.5254417,-5.35215495
645,1747532659080,-1.3506128,0.85041745,0.1293503325,-0.5858954705,0.138218075,-4.843757650000001
646,1747532659090,-1.026382725,0.88312115,0.08956901,0.1858886495,-0.0314252999999999,-4.356399
647,1747532659100,-0.92131615,0.8991069,0.073461235,0.38402784,-0.02396845,-4.209925
648,1747532659110,-0.70349505,0.919851785,0.0983550679999999,0.7701862150000001,0.194943385,-3.8599858
649,1747532659120,-0.593669275,0.93608156,0.14374972,0.9206548,0.347808835,-3.676494
650,1747532659130,-0.411724565,0.970371605,0.22245819,0.97951065,0.374174125,-3.5159054
651,1747532659140,-0.2266071499999999,1.03394853,0.268462985,0.953145375,0.32357406,-3.4277548
652,1747532659150,-0.0931078417499999,1.0882513,0.25894475,0.8825716100000001,0.312921435,-3.422961
653,1747532659160,-0.0156196635,1.1072878,0.25308737,0.84422207,0.31798145,-3.426423
654,1747532659170,0.177063535,1.21259845,0.2106214,0.76539252,0.4498079,-3.3662356
655,1747532659180,0.316664285,1.41638625,0.17950411,0.80054627,0.7142598,-3.1664985000000003
656,1747532659190,0.44991954,1.62078415,0.180602365,0.94302535,0.9936254,-2.8644961
657,1747532659200,0.49958518,1.6776495,0.18963248,1.0322412,1.081776,-2.7265444
658,1747532659210,0.642968825,1.83225975,0.1664470499999999,1.38084905,1.246892,-2.01654565
659,1747532659220,0.72497203,1.96270845,0.14301755,1.64370305,1.15661085,-1.161138285
660,1747532659230,0.76621773,2.0503249,0.11580516,1.87353385,1.006941225,-0.171773905
661,1747532659240,0.7712209000000001,2.05398565,0.0667496549999999,1.97100555,0.898017925,0.58190073
662,1747532659250,0.7636551,2.051057,0.0302631,2.005893,0.8511463,0.964597
663,1747532659260,0.74437463,1.9990729,-0.048323333,1.9931098,0.80107886,1.6879115
664,1747532659270,0.5734125,1.83567655,-0.250524765,1.59390195,0.98110855,2.84984875
665,1747532659280,0.39537274,1.65580645,-0.367062105,1.1917646,1.2405005,3.5089811500000003
666,1747532659290,0.27383223,1.5069315,-0.391589865,1.00241385,1.4583471,3.70392455
667,1747532659300,0.1559525825,1.36428005,-0.40171823,0.90467585,1.68498205,3.78674885
668,1747532659310,0.0079318625,1.24652245,-0.42246309,0.87325052,1.871137,3.8442732
669,1747532659320,-0.19732029,1.17818645,-0.43918101,0.89934952,1.9579561,3.9926114
670,1747532659330,-0.4598038599999999,1.1205889,-0.426978135,1.1182614,2.0314593,4.507400349999999
671,1747532659340,-0.71545383,1.0642116,-0.42429352,1.3981596,2.1265341,5.19449565
672,1747532659350,-0.82808626,1.0411482,-0.43637437,1.4881744,2.1630194,5.4775896
673,1747532659360,-1.087519,1.0035634,-0.41538543,1.6218652,2.167813,6.2147527
674,1747532659370,-1.3493925,0.9232686,-0.3951287,1.6490294,2.21069005,6.7500482
675,1747532659380,-2.1195151,0.77244121,-0.46602732,1.55768295,2.3457123,7.01396755
676,1747532659390,-2.6265441000000003,0.825767695,-0.46907804,1.4178670000000002,2.4929851000000003,7.3750923
677,1747532659400,-2.8930547,0.86615914,-0.456143,1.3630059,2.5326662,7.5713673
678,1747532659410,-3.09806275,0.8562748200000001,-0.41660573,1.34223325,2.5401231,7.7740338
679,1747532659420,-3.66293325,0.7111828,-0.354127065,1.2961605,2.310825,8.341286499999999
680,1747532659430,-3.854396,0.6757945000000001,-0.3605945849999999,1.2503541,1.8692729,8.48057
681,1747532659440,-3.91858305,0.738273175,-0.366329925,1.12518555,1.39975755,8.57138425
682,1747532659450,-3.96678435,0.871894525,-0.424415545,0.8692557700000001,1.1531488,8.673915749999999
683,1747532659460,-3.9859428,0.9471862,-0.46444094,0.70627034,1.0503508,8.742625
684,1747532659470,-4.201445400000001,1.014912075,-0.7094744150000001,-0.4764395449999999,1.4607439,8.817194
685,1747532659480,-4.2624598,0.96719885,-0.75145227,-0.74089146,1.6202673,8.750082
686,1747532659490,-4.29003835,0.798433285,-0.62515262,-1.3406353,1.8277275,8.317052
687,1747532659500,-4.19693035,0.6338167,-0.481646955,-1.44609655,1.83278755,7.844075
688,1747532659510,-4.119686,0.5339973,-0.41465324,-1.4317155,1.816276,7.573498
689,1747532659520,-3.9190712,0.43076107,-0.14252943,-1.2053467,1.5925703,7.0637684
690,1747532659530,-3.61644045,0.334358435,-0.0025626009999999,-0.306263542,0.290817195,6.8336713
691,1747532659540,-3.350662,0.221970065,0.0200126945,0.069774823,-0.194144445,6.7372651
692,1747532659550,-3.2208235,0.16547081,0.021232981,0.24341293,-0.41225734,6.6744146
693,1747532659560,-2.729048,-0.10152781,0.18133454,0.8948221,-0.9502159,6.280267
694,1747532659570,-2.4967055,-0.24967057,0.24186075,1.252751,-0.9981528,5.94098
695,1747532659580,-2.2414216,-0.448821285,0.23746771,1.40268695,-0.8649947499999999,5.4115435000000005
696,1747532659590,-1.9861377,-0.647972,0.23307467,1.5526229,-0.7318367,4.882107
697,1747532659600,-1.8597162,-0.6914142,0.30873242,1.5382419,-0.6466155,4.492753
698,1747532659610,-1.6061407,-0.82491344,0.48396555,1.5068166,-0.6641924,3.899933
699,1747532659620,-1.4501882,-0.9303462,0.53253293,1.4322481,-0.917725275,3.44879365
700,1747532659630,-1.2881342,-1.0335824,0.59232694,1.4082797,-1.0210559,3.2937977
701,1747532659640,-1.1031387499999998,-1.14255405,0.64723982,1.3805828,-1.3859091,2.8317392
702,1747532659650,-1.044565,-1.172451,0.6604189,1.3779196,-1.5116103,2.6887274
703,1747532659660,-0.8304047800000001,-1.26970785,0.61453615,1.3651364,-2.046373,2.08578775
704,1747532659670,-0.7955046,-1.28666985,0.513740485,1.25781105,-2.07167305,1.8599517
705,1747532659680,-0.7826915999999999,-1.291673,0.423317285,1.07325395,-1.9981698,1.59496715
706,1747532659690,-0.8160054,-1.26909765,0.33045352,0.7134608649999999,-1.7225326,1.129979235
707,1747532659700,-0.8837313,-1.2412752,0.27615078,0.351537265,-1.40348595,0.641555505
708,1747532659710,-0.9174112,-1.2346857,0.27505252,0.2428803,-1.3001553,0.47510794
709,1747532659720,-1.02198973,-1.25482035,0.31995905,0.1131843499999999,-1.20481415,-0.1187769924999999
710,1747532659730,-1.0628693,-1.261532,0.3321619,0.10972224,-1.2213258,-0.32756883
711,1747532659740,-1.29277125,-1.1582957,0.37950902,0.62850602,-1.9728698,-1.05913922
712,1747532659750,-1.48655275,-1.00771237,0.36047256,1.14356138,-2.6716833,-1.42638915
713,1747532659760,-1.61407265,-0.8778739200000001,0.23466104,1.40561645,-3.15717755,-1.6327840999999998
714,1747532659770,-1.7544055,-0.73314795,0.0687021115,1.51746925,-3.5870117,-1.84557065
715,1747532659780,-1.91853405,-0.57817162,-0.1140967584999999,1.50255555,-3.8631815,-2.088451
716,1747532659790,-2.0156689,-0.49763274,-0.21208574,1.4689997,-3.9473374,-2.2200112
717,1747532659800,-2.3522236,-0.37975308,-0.5757311,1.1611383,-3.5494611,-3.0280142
718,1747532659810,-2.61543955,-0.30946457,-0.67921133,1.0801781,-2.70337485,-4.0357545
719,1747532659820,-2.87841125,-0.228071485,-0.71960278,1.16460035,-2.13984995,-4.65973315
720,1747532659830,-3.2287553,-0.068702115,-0.75511308,1.2756542,-1.68737895,-5.24243265
721,1747532659840,-3.7766638,0.22746135,-0.8163715,1.32119425,-1.5709988,-5.8991683
722,1747532659850,-4.12652,0.4229512,-0.86152214,1.3134711,-1.6335831,-6.2818646
723,1747532659860,-4.322742,0.64089435,-0.8932495,1.2234563,-2.107093,-6.5007763
724,1747532659870,-4.4314697,0.92546508,-0.939864485,1.169394,-2.71642435,-6.7678914
725,1747532659880,-4.482965699999999,1.1369407,-1.13327985,0.8977516,-2.6879286,-6.98946645
726,1747532659890,-4.514327,1.2686096,-1.2881342,0.6396913,-2.52734,-7.1276846
727,1747532659900,-4.531167,1.3623276,-1.3752626,-0.183491815,-1.6951021000000002,-7.3812175
728,1747532659910,-4.5329973500000005,1.4536049000000002,-1.3769710000000002,-0.8844358000000001,-1.1587414,-7.5961345
729,1747532659920,-4.517621650000001,1.4914338,-1.3168109,-1.6152072,-0.72358085,-7.8041272
730,1747532659930,-4.306146,1.4490899000000002,-1.14157775,-2.5459821,0.029561115,-8.080563699999999
731,1747532659940,-4.01706035,1.3559820500000002,-0.89507995,-3.1902008,0.863663165,-8.2800345
732,1747532659950,-3.9329827,1.3162007,-0.7873287,-3.2634377,1.1403656,-8.29841
733,1747532659960,-3.6459713,1.2700739,-0.6467517,-3.1904671,1.4066817,-8.246745
734,1747532659970,-3.1064826,1.18367765,-0.4995852,-2.8605014,1.44316705,-8.111722499999999
735,1747532659980,-2.9469912,1.1600041,-0.4527262,-2.743056,1.4418354,-8.05553
736,1747532659990,-2.33282115,1.1573195,-0.31605413,-2.22507115,1.32865115,-7.642207000000001
737,1747532660000,-1.89351815,1.1485334,-0.1819446774999999,-1.81547695,1.16380145,-7.2422003
738,1747532660010,-1.63823425,1.1332798,-0.0807829475,-1.50441965,1.03889917,-6.9391328
739,1747532660020,-1.36074115,1.1415777,-0.0359984425,-1.19762355,0.95927067,-6.6360651
740,1747532660030,-1.11424335,1.1653733,-0.0397813325,-0.92624745,1.03889915,-6.25443385
741,1747532660040,-0.950847085,1.189413,-0.0129350355,-0.79282305,1.17525295,-5.95429575
742,1747532660050,-0.85908157,1.2046666,0.020500809,-0.783502,1.2074772,-5.887717
743,1747532660060,-0.54583402,1.25494235,0.0774881775,-0.7238472149999999,1.31134055,-5.727926999999999
744,1747532660070,-0.32837902,1.3445114,0.1201982,-0.5672533399999999,1.46846705,-5.4538877
745,1747532660080,-0.189632475,1.46934665,0.233318735,-0.29055089,1.5419703500000002,-5.0533482
746,1747532660090,-0.14875288,1.5847857,0.35595749,0.0364853049999999,1.4285196999999998,-4.6642603000000005
747,1747532660100,-0.062844735,1.6720362,0.44357403,0.431165785,1.22904885,-4.2871568
748,1747532660110,-0.00707766,1.704984,0.47151858,0.6380934,1.1084076,-4.112986
749,1747532660120,0.29738375,1.85007595,0.385366395,1.42239435,0.6679208,-3.55558645
750,1747532660130,0.528994065,1.94599045,0.25101288,1.8128138,0.6809703149999999,-3.1641017
751,1747532660140,0.6616391850000001,1.9796703,0.137526255,1.9398466,0.965129585,-2.81709185
752,1747532660150,0.72021294,1.995656,0.08615221,1.9771309,1.1329087,-2.625877
753,1747532660160,0.8140529400000001,2.08095405,0.0335578715,1.96408135,1.6698021,-1.9193402
754,1747532660170,0.85102764,2.0647242,0.0441743619999999,1.87566435,2.09777205,-1.1369034999999998
755,1747532660180,0.81661557,2.01737715,0.080904977,1.73185365,2.3654197000000003,-0.18322548
756,1747532660190,0.7180164,1.9829652,0.152779835,1.6114788,2.309227,0.60746707
757,1747532660200,0.6638357,1.956119,0.19304928,1.5600798,2.237588,0.9779128
758,1747532660210,0.53826828,1.77637075,0.202811575,1.3635385000000002,1.9518308,1.96674455
759,1747532660220,0.37719048,1.6023579,0.0737052899999999,1.0772487000000002,1.70122735,2.66236215
760,1747532660230,0.23771177,1.42627065,-0.078586435,0.7723167200000001,1.53158395,3.1502533
761,1747532660240,0.215624595,1.31510255,-0.15119347,0.60746707,1.46553755,3.28367765
762,1747532660250,0.21171967,1.25225775,-0.237833785,0.5400891,1.4285196,3.327886
763,1747532660260,0.20500809,1.2381024,-0.2933568,0.46179214,1.427987,3.4461305
764,1747532660270,-0.152169695,1.38551305,-0.51178804,0.24767399,1.8037591,4.84082795
765,1747532660280,-0.6733539749999999,1.46287915,-0.486650155,0.181627595,2.0088225,6.4328656
766,1747532660290,-1.11094865,1.3313323,-0.32581643,0.291083525,1.92972655,7.6408758
767,1747532660300,-1.312784,1.214917,-0.2438132,0.3797668,1.8631475,8.187623
768,1747532660310,-2.16698445,0.6106312,-0.25101288,1.047953925,1.37259325,8.592157
769,1747532660320,-2.3593016,0.605506,-0.22965786,1.3156016,0.7933557,8.4803035
770,1747532660330,-2.9523606,0.88836837,-0.21916342,1.4535533,0.4628574,8.478439
771,1747532660340,-3.470982,1.0899596,-0.44101146,1.6069515,-0.07563378,8.844358
772,1747532660350,-3.8485387,1.2049105999999998,-1.14353023,0.87990844,-0.043143215,9.913351
773,1747532660360,-3.926149,1.2376143,-1.449456,0.34674358,0.30306774,10.250507
774,1747532660370,-4.2367117,1.37465245,-1.7149903000000002,-1.1153319000000002,1.22851625,10.16102525
775,1747532660380,-4.545932199999999,1.39027215,-1.87069885,-2.30842815,1.95662445,10.05902575
776,1747532660390,-4.716162,1.3550059,-1.9429398,-2.9433258,2.3398533,10.005496
777,1747532660400,-5.1675458,0.96744295,-1.71413615,-4.1241713,2.9358687,9.754626
778,1747532660410,-5.28627965,0.67347595,-1.25848125,-4.85787225,2.83999505,8.866995
779,1747532660420,-5.21391675,0.6626154,-0.77097685,-4.3071305,2.0122846,8.589493999999998
780,1747532660430,-5.1273985,0.6677406,-0.5210622,-3.804592,1.5744609,8.665394
781,1747532660440,-5.1273985,0.6677406,-0.5210622,-3.804592,1.5744609,8.665394
782,1747532660450,-4.659297,0.460536,-0.27895743,-1.242631,-0.62744075,8.89123
783,1747532660460,-3.9222442,0.1389905985,-0.583784935,0.67617662,-1.9419771,8.354869
784,1747532660470,-3.5649443,-0.0286767265,-0.8108802150000001,0.61891865,-1.347293225,7.7300918
785,1747532660480,-3.28379035,-0.156562715,-0.95133515,0.02343581,-0.4551342525,7.01663065
786,1747532660490,-2.98237955,-0.31971499,-0.70410514,-0.39148468,0.010652645,6.6621637
787,1747532660500,-2.7949436,-0.43515408,-0.42465958,-1.5281218,0.8277105,5.882923
788,1747532660510,-2.5975013,-0.65895456,-0.10030753,-2.2951124,1.2106731,4.8059406
789,1747532660520,-2.24801135,-0.97671707,0.24234886,-2.1054952,0.98377174,4.3196473
790,1747532660530,-2.1330605,-1.070191,0.31434575,-1.6751283,0.5075985,3.865312
791,1747532660540,-1.64763045,-1.4010107,0.29469913,-0.73503246,-0.6551376630000001,3.1422639
792,1747532660550,-1.4345685,-1.5407335,0.24869433,-0.28655612,-1.212271,2.821353
793,1747532660560,-1.2549424,-1.649339,0.10543273,0.049534798,-1.627724,2.4959147
794,1747532660570,-1.09618315,-1.6886322,0.00451506,0.323041449,-1.79523685,2.1664816
795,1747532660580,-0.8981306499999999,-1.72865755,-0.130570625,0.685764,-1.8362496,1.6895094
796,1747532660590,-0.8588374,-1.7293897,-0.16473864,0.835167325,-1.41200805,1.1936288
797,1747532660600,-0.7660957,-1.7367114,-0.21477039,0.89535475,-1.1142666,0.8452873
798,1747532660610,-0.80477875,-1.67032775,-0.0505198525,1.01945805,-0.93823168,0.37257623
799,1747532660620,-0.8351639,-1.6339632,0.00976229,1.1781825,-0.948617995,0.143278067
800,1747532660630,-0.9243668,-1.5038808,0.120564275,1.428786,-1.190965665,-0.145408598
801,1747532660640,-0.990018225,-1.4357888,0.1044565,1.572863,-1.53238295,-0.4383563099999999
802,1747532660650,-1.0123495,-1.4218775,0.06833603,1.5611451,-1.6570189,-0.54168695
803,1747532660660,-1.040172,-1.415044,-0.010006348,1.4817829,-1.8274611,-0.81439465
804,1747532660670,-1.0941086,-1.38746545,-0.128008025,1.38857225,-1.8703381,-1.3472932
805,1747532660680,-1.2655588999999998,-1.30558425,-0.214892405,1.3688648,-1.7379790000000002,-1.93398755
806,1747532660690,-1.5143753,-1.16866815,-0.3039733,1.3560816,-1.6005598,-2.5276062
807,1747532660700,-1.6163912,-1.1063116,-0.336799,1.3443637,-1.5797871,-2.7265444
808,1747532660710,-1.90401255,-0.92912595,-0.47029832,1.32838475,-1.5387745,-3.4024548
809,1747532660720,-2.1763805,-0.73717495,-0.5402207050000001,1.3691311000000002,-1.56300925,-3.82882685
810,1747532660730,-2.3519797,-0.6047739,-0.56596875,1.4066817,-1.6005598,-3.9947417
811,1747532660740,-2.9601703,-0.14472595,-0.60648227,1.7576864,-1.7955033,-4.4858284
812,1747532660750,-3.2178948,0.022941383,-0.66700846,1.9350529,-1.8402443,-4.7287087
813,1747532660760,-3.4263198,0.16766733,-0.7485236,1.98938135,-1.8250643,-4.8954227
814,1747532660770,-3.9578764,0.461634275,-0.9486505,1.97952775,-1.4695323,-5.68505
815,1747532660780,-4.3550795,0.67042525,-1.06518785,1.5022892,-0.81732415,-6.4278057
816,1747532660790,-4.664544149999999,0.91094365,-1.05920845,0.75207667,-0.2210423825,-7.2315477
817,1747532660800,-4.8486853,1.0672623,-1.0240642,0.40746364,-0.111852765,-7.510647
818,1747532660810,-5.25003745,1.4806952999999998,-0.85249197,-0.1467401725,-0.339819365,-7.85579265
819,1747532660820,-5.3306985,1.5922295,-0.78757274,-0.2828277,-0.47670585,-7.944742
820,1747532660830,-5.3180075,1.8872948,-0.54912883,-0.35739622,-0.700944,-8.126903
821,1747532660840,-5.1230054,2.0146925,-0.51569295,-0.32117724,-0.6199839,-8.461395
822,1747532660850,-5.04808,2.0576468,-0.54888475,-0.5603291,-0.727043,-8.39748
823,1747532660860,-4.4279304,2.0700936,-0.34607318,-0.7520767,-0.73769563,-8.478972
824,1747532660870,-4.033046,2.0347052,-0.45687518,-1.0604708,-0.53742594,-8.550878
825,1747532660880,-3.4048426,1.8343343,-0.46419686,-1.866876,-0.006924218,-8.07843285
826,1747532660890,-2.95284855,1.6515354,-0.3863426,-2.1190773,0.25246768,-7.9348886
827,1747532660900,-2.5008545,1.4687365,-0.30848834,-2.1901836,0.41758367,-7.9229045
828,1747532660910,-2.2489874,1.4243181,-0.24552159,-2.1273332,0.57098174,-7.8099866
829,1747532660920,-1.79235645,1.3862452,-0.0417337909999999,-1.876197,0.589357555,-7.32635635
830,1747532660930,-1.492044,1.3530534,0.061014314,-1.48178285,0.4846953149999999,-6.78227255
831,1747532660940,-1.398448,1.3462198,0.07224095,-1.044225515,0.31638354,-6.320214050000001
832,1747532660950,-1.1521943,1.3325526,0.111046046,-0.89109373,0.2231729,-6.2104917
833,1747532660960,-0.9342511,1.3777032,0.13227904,-0.68389976,0.030360037,-6.12314
834,1747532660970,-0.6411384,1.5124228,0.12886222,-0.49321744,-0.06498113,-6.097041
835,1747532660980,-0.20830287,1.7269491,-0.0101283759999999,-0.389886785,0.270310855,-5.4650731
836,1747532660990,-0.118611825,1.8290871,0.095914501,-0.345412,0.392283625,-4.8986186
837,1747532661000,-0.0006101424999999,1.84153405,0.20146926,-0.29614353,0.44315,-4.598214
838,1747532661010,0.060770255,1.8279889,0.23307467,-0.14008227,0.45806372,-4.0687776
839,1747532661020,0.3641334,1.75538175,0.233074675,0.131293839,0.18455707,-3.4930022000000003
840,1747532661030,0.5338752200000001,1.7675846,0.17840585,0.28362666,0.0258326639999999,-3.15051965
841,1747532661040,0.60465184,1.8159079,0.142041325,0.340884625,0.022903184,-2.85597395
842,1747532661050,0.64211464,1.8401916,0.13545178,0.37284255,0.03195793,-2.6855316
843,1747532661060,0.6655441,1.8824136,0.12007617,0.5139901,0.140881225,-1.99790355
844,1747532661070,0.7230196,1.91035805,0.104456503,0.7006777,0.220243425,-1.2490226
845,1747532661080,0.76792612,1.88265755,0.107263158,0.9105348,0.25566347,-0.5123922000000001
846,1747532661090,0.7604823700000001,1.86569565,0.100307525,1.04555705,0.170708635,0.0644484999999999
847,1747532661100,0.7494998,1.8611807,0.09664667,1.107875,0.09427591,0.4016047
848,1747532661110,0.68580085,1.76355765,-0.03904916,1.13077825,-0.16937705,1.8847192
849,1747532661120,0.6094109350000001,1.7152343,-0.166447037,0.9864349,-0.136353848,2.4096283
850,1747532661130,0.507028925,1.6451899,-0.291282325,0.769120925,-0.0492684791,2.8447888
851,1747532661140,0.44174363,1.5457366,-0.36486558,0.54967646,0.0631169189,3.1656997
852,1747532661150,0.43466598,1.4838681,-0.3829258,0.44900897,0.12676647,3.2916672
853,1747532661160,0.231610327,1.40955265,-0.5332651,0.288420345,0.554736475,3.9880837
854,1747532661170,-0.0284326709999999,1.43237195,-0.53387524,0.424241585,1.026116025,4.76466155
855,1747532661180,-0.119343996,1.4267586,-0.48567393,0.56725335,1.212271,5.0509515
856,1747532661190,-0.41587353,1.4553133,-0.46541715,0.8479505,1.4663365,5.690643
857,1747532661200,-0.7687803,1.4838681,-0.44491637,1.0242518,1.484446,6.361759
858,1747532661210,-1.40113265,1.44689345,-0.462976605,1.11000555,1.3238574,6.874151400000001
859,1747532661220,-2.3470986,1.4476256,-0.55010502,1.06073705,1.0865698,7.972173
860,1747532661230,-2.6607122,1.4853324,-0.6191732,0.9539443,1.073254,8.203602
861,1747532661240,-3.1805542,1.517304,-0.66822875,0.6466155,0.90973586,8.697351
862,1747532661250,-3.4646366,1.4216335,-0.68531275,0.21891184,0.5289038,9.048356
863,1747532661260,-3.9654422,1.274711,-1.1487775,-0.6609966,0.39041942,8.989234
864,1747532661270,-4.349832,1.3282815499999998,-1.52731015,-1.54969345,1.09562447,8.794290499999999
865,1747532661280,-4.490653,1.3633038,-1.633231,-1.8775285,1.3789848,8.725048
866,1747532661290,-4.75972625,1.3398742499999998,-1.62810595,-2.9734194,1.7912422,8.51519125
867,1747532661300,-4.904086,1.3486603,-1.5456146,-3.3220272,1.8381138,8.4624605
868,1747532661310,-4.9560704,1.2339534,-1.4416462,-4.0416136,1.7315874,8.443286
869,1747532661320,-4.9383764,1.03224015,-1.1828235,-3.87010575,1.038632875,8.425976
870,1747532661330,-4.8108562500000005,0.858593385,-0.9318106,-3.335343,0.3089266935,8.3889575
871,1747532661340,-4.5422713,0.6818959849999999,-0.65419545,-2.0610204000000003,-0.6391586815,8.26858225
872,1747532661350,-4.3642316,0.5876899,-0.5091034,-1.1270498,-1.2277173,8.1684475
873,1747532661360,-4.00388095,0.33960566,-0.51178805,-0.103064335,-1.84503805,7.7663107
874,1747532661370,-3.72187305,0.1998828899999999,-0.53058045,0.248472935,-1.9603529,7.457117549999999
875,1747532661380,-3.3989854,0.06467517205,-0.556450525,0.313720375,-1.81308005,7.09279705
876,1747532661390,-3.231318,-0.0039049159,-0.57451075,0.27696875,-1.6751283,6.8927937
877,1747532661400,-2.6394792,-0.3031191,-0.49738866,-0.509729,-0.73982614,5.7071543
878,1747532661410,-2.3242792000000003,-0.508493275,-0.207204602,-0.85407576,-0.40666472,4.9942262500000005
879,1747532661420,-2.2331238,-0.58183247,-0.107629254,-0.91825795,-0.3435478,4.792625
880,1747532661430,-1.96234235,-0.75560125,0.14887492,-0.797084125,-0.56432384,4.36971495
881,1747532661440,-1.6935133,-0.9050863,0.241372615,-0.4530037,-1.125451915,4.00725865
882,1747532661450,-1.5148634,-1.0079564,0.26065314,-0.1965413,-1.5361114,3.764112
883,1747532661460,-1.3035098,-1.16525135,0.15729489,0.1619202,-1.90815495,3.35345255
884,1747532661470,-1.1837997,-1.2633624,0.090545235,0.373108875,-2.0354541,3.0668963
885,1747532661480,-1.0113733,-1.43066365,-0.056377225,0.5169195799999999,-2.0154804,2.73613165
886,1747532661490,-0.873847,-1.59906305,-0.18011425,0.52251223,-1.7470337,2.1201425
887,1747532661500,-0.8459024,-1.6490947,-0.1901206,0.4889564,-1.5377092,1.6788567
888,1747532661510,-0.83528595,-1.6622739,-0.1126324215,0.57284597,-1.4154701,1.28604047
889,1747532661520,-0.83113698,-1.66508055,-0.031971499,0.7542072200000001,-1.2530173,0.744619845
890,1747532661530,-0.855298605,-1.6126082,-0.0627227125,1.0037454,-1.1835088,0.3355582975
891,1747532661540,-0.8870260249999999,-1.55549885,-0.102137962,1.21253725,-1.1664645500000002,-0.0732369275
892,1747532661550,-0.9010593,-1.5404893,-0.107629254,1.2692626,-1.1787151,-0.221575
893,1747532661560,-0.9447456,-1.5094941,-0.09689073,1.351288,-1.1930962,-0.44581318
894,1747532661570,-0.98062205,-1.5024164,-0.06711575,1.4455639,-1.2101405,-0.71798825
895,1747532661580,-1.1265682,-1.4904575,-0.099819414,1.5100124,-1.3065468,-1.0253171
896,1747532661590,-1.24603435,-1.38917385,-0.07944064,1.75582215,-1.61733775,-1.8687402
897,1747532661600,-1.3030217,-1.3437792,-0.08639627,1.8221349,-1.649562,-2.047971
898,1747532661610,-1.4077222,-1.2354177,-0.1381364,1.9196066,-1.6996294,-2.4309335
899,1747532661620,-1.5492754,-1.082638,-0.20940112,1.9371834,-1.7512947,-2.8245487
900,1747532661630,-1.7764927,-0.8692099,-0.28505886,1.89617075,-1.7686053,-3.03334055
901,1747532661640,-2.39200505,-0.32081326,-0.48433161,1.454086,-1.9153455,-3.8136468
902,1747532661650,-2.5081763,-0.21159762,-0.5205741,1.3731259,-1.9355855,-3.9143143
903,1747532661660,-2.7307565,-0.05222825,-0.5789038,1.2663331,-1.7600831499999998,-4.3518715
904,1747532661670,-3.31161275,0.184019165,-0.71948078,1.2245215,-1.4450311999999998,-4.88450385
905,1747532661680,-3.72138475,0.332161915,-0.77183103,1.1819109,-1.0940266,-5.48611185
906,1747532661690,-3.8602533,0.3939084,-0.7819594,1.1659319,-0.9731191,-5.7241983
907,1747532661700,-4.122127,0.5959878,-0.8537123,1.0679276,-0.7488809,-6.398511
908,1747532661710,-4.412555,0.8942258,-0.8978866,0.91133374,-0.72651035,-6.857107
909,1747532661720,-4.739591600000001,1.3340168499999998,-0.9067947,0.628239725,-0.9129316,-7.299991
910,1747532661730,-4.86613515,1.67276835,-0.921438115,0.2889529999999999,-1.1579424500000002,-7.58548185
911,1747532661740,-4.9083571500000005,1.9523359,-0.937545895,-0.1073253999999999,-1.32492265,-7.8219705
912,1747532661750,-4.8572273,2.0979161,-0.92875983,-0.42876895,-1.2911005,-7.947938150000001
913,1747532661760,-4.821351,2.165276,-0.9176552,-0.5949502,-1.242631,-8.003332
914,1747532661770,-4.458926,2.288525,-0.79159969,-1.24982155,-0.7249124250000001,-8.151936500000001
915,1747532661780,-4.10967995,2.3041446,-0.663469625,-1.7105484,-0.28708877,-8.207063999999999
916,1747532661790,-3.80643895,2.2408117,-0.56950758,-1.94836875,-0.047137955,-8.197209999999998
917,1747532661800,-3.640358,2.1970034,-0.52301466,-2.05383,0.07563378,-8.191351
918,1747532661810,-3.2847664,2.080344,-0.46151224,-2.24078375,0.483896375,-8.186824000000001
919,1747532661820,-2.6712064,1.89290795,-0.329843375,-2.216549,0.7616641,-8.0725742
920,1747532661830,-2.2442284,1.76245935,-0.202201435,-2.052232,0.959537,-7.8608527
921,1747532661840,-2.0063946,1.68362895,-0.12922831,-1.83651595,1.0207897,-7.62809225
922,1747532661850,-1.8899792,1.649583,-0.0959145,-1.7193369,1.0375676,-7.5010595
923,1747532661860,-1.53389975,1.5297508,-0.0244057249,-1.3241237,0.983505415,-7.031810549999999
924,1747532661870,-1.2328552,1.466662,0.0197686365999999,-0.95820538,0.919056915,-6.65603855
925,1747532661880,-1.0409042,1.4355447,0.038316987,-0.70680296,0.8926916,-6.4107614
926,1747532661890,-0.77329537,1.4212674,0.076756005,-0.32676987,0.88337055,-6.038717800000001
927,1747532661900,-0.6799435,1.4179726,0.08419975,-0.20719394,0.8825716,-5.913283
928,1747532661910,-0.487382305,1.40442745,0.1142187899999999,0.0647148195,0.846086285,-5.4701331500000006
929,1747532661920,-0.31727441,1.42004705,0.19573391,0.349140435,0.572046995,-4.92445135
930,1747532661930,-0.131912947,1.4516525,0.234661045,0.64714817,0.23329291,-4.4240434
931,1747532661940,0.024283693,1.4609267,0.185361485,0.8250473199999999,0.06844324335,-4.202734700000001
932,1747532661950,0.09518232,1.4648316,0.1513155,0.9076053,0.0063915867,-4.095942
933,1747532661960,0.40428084,1.6344514,0.1156831349999999,1.3241237,-0.192546545,-3.38967145
934,1747532661970,0.5376581149999999,1.6936352499999998,0.1245912275,1.4327807,-0.22370553,-3.2096417
935,1747532661980,0.683726375,1.7503786,0.0965246425,1.77526325,-0.2881540299999999,-2.570483
936,1747532661990,0.76926845,1.7806417,0.07028849,1.8807244,-0.30200246,-2.359028
937,1747532662000,0.91253006,1.8379952,-0.021965152,2.0138824,-0.3009372,-1.9398465
938,1747532662010,1.1420659,1.96710145,-0.26943919,1.9329223,0.055127437,-0.52996908
939,1747532662020,1.1478013,1.9827211,-0.30214286,1.8519622,0.13795175,-0.2130529
940,1747532662030,1.1229074,1.9775959,-0.31434575,1.5638082,0.258326625,0.84448843
941,1747532662040,0.99770605,1.89217585,-0.303851275,1.381648,0.328101435,1.52039875
942,1747532662050,0.8297946,1.72829135,-0.34558506,1.100684485,0.44554685,2.3425166
943,1747532662060,0.7185045,1.6061407,-0.3824377,0.91186637,0.5305017,2.841593
944,1747532662070,0.5942793850000001,1.38441475,-0.47639975,0.66312713,0.87298425,3.27515555
945,1747532662080,0.485917955,1.2540882,-0.59501155,0.517185895,1.2655342,3.4871432
946,1747532662090,0.2338068284999999,1.2005176,-0.693854725,0.431165785,1.83598335,3.908988
947,1747532662100,0.044418417,1.2075952,-0.72216535,0.40213734,2.1949775,4.245079
948,1747532662110,-0.4472349,1.3179091,-0.67420815,0.43809001,2.5012409,5.23950335
949,1747532662120,-0.851637775,1.40003435,-0.61551238,0.43249737,2.4855282,6.07467055
950,1747532662130,-1.2813006,1.45934025,-0.573168455,0.4082626,2.3526366,6.938333549999999
951,1747532662140,-1.9685658,1.3778252,-0.5781716400000001,0.4748416399999999,2.2343923,7.95353085
952,1747532662150,-2.425685,1.2671453,-0.59086263,0.55606806,2.2003038,8.548215
953,1747532662160,-3.0983067,1.0977695,-0.66822875,0.64555025,2.299906,8.827847
954,1747532662170,-3.6652515,1.0003906,-0.68409246,0.68869346,2.1614215,8.975386
955,1747532662180,-3.9486022,0.7909895,-0.6472398,0.7036072,1.7012273,8.929047
956,1747532662190,-4.06038025,0.78574235,-0.71276915,0.506000625,0.74461981,8.726379999999999
957,1747532662200,-4.00278295,1.0152782,-0.87043018,0.1142496174999999,0.36325519,8.673117
958,1747532662210,-3.9400604,1.1219312,-0.92863786,-0.090014845,0.34621096,8.672851
959,1747532662220,-3.96971325,1.41272535,-1.02967755,-1.0056096,0.6663229150000001,8.851549
960,1747532662230,-4.22145825,1.53414385,-1.06006265,-1.6841830999999998,0.973651715,9.1034845
961,1747532662240,-4.5921813,1.27117215,-1.017108565,-2.4264062,1.20055305,9.176721
962,1747532662250,-4.7935286,0.9930689,-0.95987713,-2.873551,1.2772521,9.129849
963,1747532662260,-4.7166505,0.6743302,-0.72533816,-2.9177594,0.89801794,8.692558
964,1747532662270,-4.5001717,0.48274526,-0.42612398,-2.7622307,0.626908135,8.4267745
965,1747532662280,-4.1077275,0.407575605,-0.202445485,-1.7864484,-0.449008965,7.55112695
966,1747532662290,-3.977889,0.38536638,-0.19402552,-1.504686,-0.6844324,7.3924026
967,1747532662300,-3.3035588,0.20329969,-0.23356278,-0.65247446,-1.1787151,6.715427
968,1747532662310,-2.84192465,0.0248938375,-0.24076247,-0.494549015,-1.1403656,6.185991
969,1747532662320,-2.5893254,-0.1119002475,-0.23344076,-0.48629323,-1.1046792,5.999037
970,1747532662330,-2.23922525,-0.31898282,-0.14924101,-0.5850965,-0.8948221299999999,5.15508105
971,1747532662340,-1.9158494,-0.51252021,-0.0375848165,-0.64208815,-0.765392515,4.5508096
972,1747532662350,-1.8238398,-0.56767714,0.002928687,-0.6508766,-0.74302197,4.3755736
973,1747532662360,-1.57953855,-0.711915,0.093473927,-0.55606807,-0.737163,3.8717037
974,1747532662370,-1.40406135,-0.8318691,0.1241031119999999,-0.43143212,-0.75101145,3.4895401
975,1747532662380,-1.1587838,-0.98769965,0.166447045,-0.13928333,-0.91000215,2.9379994
976,1747532662390,-0.967809015,-1.1066775999999998,0.20854692,0.1794970699999999,-1.16007295,2.51322515
977,1747532662400,-0.93107843,-1.1334019,0.21818718,0.2806972,-1.2665994,2.438923
978,1747532662410,-0.8343096999999999,-1.181115,0.17645339,0.5451491,-1.67752515,2.2596922
979,1747532662420,-0.767438015,-1.1823353,0.02355153,0.67298082,-1.88392015,2.08978255
980,1747532662430,-0.712891215,-1.1659835,-0.133255255,0.760332495,-1.8269285,1.78165485
981,1747532662440,-0.683482315,-1.1670818,-0.184751335,0.809068355,-1.52066495,1.4429007
982,1747532662450,-0.6898278,-1.1726951,-0.19280523,0.84209156,-1.1406319,1.15607823
983,1747532662460,-0.727290585,-1.1703765,-0.130326575,0.92038848,-0.8396947,0.86952213
984,1747532662470,-0.851271675,-1.14475045,-0.01610778,1.0647318,-0.7227819200000001,0.628239725
985,1747532662480,-1.004905725,-1.091546,0.0472250765,1.1536814,-0.70627034,0.51292485
986,1747532662490,-1.1053353,-1.0279691,0.0551569365,1.65408935,-1.2905679,-0.0380832025
987,1747532662500,-1.2055208,-0.957314515,0.0456387045,1.7475663,-1.4626081,-0.1571265
988,1747532662510,-1.2600676,-0.91863143,0.029286869,1.8881812,-1.8066885,-0.38296258
989,1747532662520,-1.4648316499999998,-0.726070325,-0.215014439,1.9108181,-2.10442995,-0.913197925
990,1747532662530,-1.66239585,-0.543515485,-0.48628409,1.7105484,-1.96035295,-1.36220695
991,1747532662540,-1.8107826,-0.44406214,-0.6685948500000001,1.4146712,-1.56700405,-1.6748621
992,1747532662550,-1.8724071,-0.41733786,-0.7409578,1.2479573,-1.3422332,-1.8423749
993,1747532662560,-2.0859573,-0.3648656,-0.8443160700000001,0.76299567,-0.71505878,-2.459962
994,1747532662570,-2.4017674,-0.1780397665,-0.84956327,0.55393751,-0.4420847599999999,-3.2160334500000003
995,1747532662580,-2.7342954,0.0964026085,-0.8310149,0.565655425,-0.35526571,-3.9896817
996,1747532662590,-2.9263684000000003,0.325084255,-0.83333345,0.764859885,-0.375772045,-4.4416202
997,1747532662600,-3.0175238,0.44345203,-0.8412653,0.8857674,-0.38722363,-4.6456184
998,1747532662610,-3.24278855,0.79794515,-0.959633115,1.20774355,-0.4860269149999999,-5.19369675
999,1747532662620,-3.4182656500000004,1.0897156,-1.0423684999999998,1.28683945,-0.582433345,-5.55881625
1000,1747532662630,-3.577147,1.33072215,-1.0777567499999998,1.3012205,-0.65433869,-5.8914452
1001,1747532662640,-3.632304,1.3991802,-1.0755602,1.2937636,-0.67005134,-5.9953084
