timestamp,acc_x,acc_y,acc_z,gyro_x,gyro_y,gyro_z,id
1747533121680,0.06040417,0.50885937,0.9058185,-0.30679616,0.2412824,0.9307748165,1
1747533121690,0.274076285,0.62332222,0.8168595999999999,-0.57444385,0.1920139249999999,1.91161705,2
1747533121700,0.35546937,0.481158865,0.7211891500000001,-0.459128975,0.4013384,1.9086876,3
1747533121710,0.399643735,0.42185293,0.6637136800000001,-0.480167955,0.6926882249999999,1.9188076,4
1747533121720,0.493971865,0.459193705,0.6131938299999999,-0.59521651,0.9821738,1.9680761,5
1747533121730,0.5640163,0.49397188,0.5759751,-0.67058396,1.128115,2.001632,6
1747533121740,0.5961098,0.418192085,0.55095925,-1.19282985,1.64556725,1.87166965,7
1747533121750,0.5781716,0.36437747,0.5549862,-1.3273195,1.6911073,1.7827201,8
1747533121760,0.5210622300000001,0.25748038,0.6322303250000001,-1.5994945500000002,1.5584819,1.5563514,9
1747533121770,0.422951225,0.207326625,0.7764681250000001,-1.6090819,1.2751215,1.5022892,10
1747533121780,0.37072295,0.18377511,0.8847075,-1.4314491,0.904409475,1.52652395,11
1747533121790,0.3223996249999999,0.13862451,0.96976146,-1.138767715,0.60586916,1.58724405,12
1747533121800,0.312393275,0.13996683,0.97500873,-0.793355715,0.3946804849999999,1.6466326,13
1747533121810,0.3236199,0.15058333,0.9684192,-0.6173208,0.3270362,1.6714,14
1747533121820,0.268585005,0.160345615,0.8782399999999999,-0.1717738985,0.350738325,1.7968348,15
1747533121830,0.23893206,0.14472595,0.8117344,-0.025566347,0.38083205,1.901497,16
1747533121840,0.38866118,0.136672055,0.75987225,0.0031957934,0.37603834,2.0138824,17
1747533121850,0.46322066,0.14399378,0.7409578,0.042077947,0.4293016,2.0660803,18
1747533121860,0.6701812,0.23612539,0.596597935,0.03595267675,0.69455242,1.86501175,19
1747533121870,0.74291025,0.28652321,0.50654083,-0.17070862325,0.7020093000000001,1.32625425,20
1747533121880,0.7311955,0.2460097,0.47652178,-0.35420042,0.6354303,0.9060074,21
1747533121890,0.637721565,0.1502172275,0.5176454,-0.7736483000000001,0.256995048,0.30493196,22
1747533121900,0.552179515,0.037218729,0.6389418499999999,-0.9603359,-0.0154463369999999,0.0817590505,23
1747533121910,0.46187836,0.0020744865,0.8045347,-0.8831042499999999,-0.364853065,0.0154463344999999,24
1747533121920,0.362058925,0.045760735,0.90008312,-0.61039655,-0.67457868,0.065513764,25
1747533121930,0.32496223,0.085420035,0.8687217700000001,-0.3107909,-0.84475468,0.171773895,26
1747533121940,0.327646865,0.1133645899999999,0.756333425,-0.053795855,-0.98750018,0.27989825,27
1747533121950,0.4312491499999999,0.0654073434999999,0.57963599,0.100933805,-1.09802135,0.3813647,28
1747533121960,0.56133167,-0.0292868715,0.45040764,0.086819051,-1.13823505,0.4665858349999999,29
1747533121970,0.6544395199999999,-0.105432735,0.41245674,-0.107591709,-1.1350393,0.463922665,30
1747533121980,0.76121455,-0.18170063,0.420998765,-0.3757720499999999,-1.2026836,0.33129725,31
1747533121990,0.82796417,-0.237955815,0.47981655,-0.640490265,-1.3646038,0.131560161,32
1747533122000,0.84700067,-0.26297169,0.56474845,-0.842890515,-1.5701998,-0.0617853439999999,33
1747533122010,0.88214495,-0.324962235,0.67652668,-0.851945265,-1.76168105,-0.204264465,34
1747533122020,0.94633195,-0.409161985,0.738639265,-0.692155565,-1.8192054,-0.23089607,35
1747533122030,1.0006347,-0.44711289,0.729487085,-0.503071125,-1.7382453,-0.15739282,36
1747533122040,1.03187405,-0.45907168,0.6881193750000001,-0.333427775,-1.62186515,-0.0687095549999999,37
1747533122050,1.05115455,-0.452360105,0.55462009,-0.25726137,-1.32199325,0.033822145,38
1747533122060,1.0594525,-0.44394013,0.45711923,-0.25672874,-1.0849719,0.09161274,39
1747533122070,1.048958,-0.4419877,0.4144092,-0.43995422,-0.8900285,0.06551377,40
1747533122080,1.0311418,-0.484087575,0.4500415749999999,-0.9270464,-0.7326356,-0.18588865,41
1747533122090,0.990506265,-0.497876775,0.543515525,-1.23330995,-0.68816083,-0.40453419,42
1747533122100,0.90325585,-0.567189035,0.7382732000000001,-1.36407115,-0.572845965,-0.57550915,43
1747533122110,0.800019655,-0.643945035,0.94218305,-1.22718465,-0.413322595,-0.58696075,44
1747533122120,0.71398947,-0.66017485,1.0345587,-0.89162635,-0.25672873,-0.429567915,45
1747533122130,0.6745742,-0.6640798,1.0667742,-0.6924219,-0.15925704,-0.32756883,46
1747533122140,0.58378493,-0.606604275,1.020281315,-0.101200126,0.111852765,-0.02130529,47
1747533122150,0.53350913,-0.43698449,0.887880265,0.428502637,0.1387506925,0.353934125,48
1747533122160,0.554254,-0.31581008,0.72509408,1.01679495,0.1249022575,0.75367462,49
1747533122170,0.6429688,-0.331307715,0.59696403,1.0924287499999998,0.038349522,0.75101145,50
1747533122180,0.6967834,-0.3385074,0.5354616,1.109473,-0.007456851,0.7238472,51
1747533122190,0.76060441,-0.321789475,0.408063725,1.0223876,-0.179230745,0.534230115,52
1747533122200,0.7516963249999999,-0.21769906,0.3871968249999999,0.9070727,-0.343281475,0.46498794,53
1747533122210,0.8022161999999999,-0.136428,0.426612065,0.7334346,-0.504136385,0.4394215999999999,54
1747533122220,0.88251105,-0.14204132,0.48359944,0.5882923,-0.5028048,0.401871025,55
1747533122230,0.9113098,-0.14814276,0.5183776,0.5523396,-0.43303,0.37763625,56
1747533122240,0.976717125,-0.151071435,0.5847611699999999,0.48629321,-0.1033306515,0.26977822,57
1747533122250,0.9684192,-0.19707623,0.672255695,0.46365635,0.1400822835,0.209324465,58
1747533122260,0.916435,-0.23429496,0.769024375,0.53423011,0.372043625,0.14168017,59
1747533122270,0.83906883,-0.18255482,0.8196662699999999,0.7057376799999999,0.397609965,0.1315601599999999,60
1747533122280,0.80343646,-0.14130914,0.83736044,0.80107886,0.31318775,0.15978967,61
1747533122290,0.7687803200000001,0.0370967014999999,0.6532192,1.09003185,-0.2348908035,0.33422673,62
1747533122300,0.788426905,0.0522282514999999,0.604407775,1.097755,-0.6825682,0.47004795,63
1747533122310,0.8736028849999999,-0.0184263234999999,0.5631620749999999,0.97604855,-0.9901633,0.516386955,64
1747533122320,0.950725,-0.05869577,0.5313126,0.8969527,-1.1195929,0.51292485,65
1747533122330,0.976229,-0.06833603,0.5108118,0.6854977,-1.1595404,0.49321744,66
1747533122340,0.9922147,-0.15827112,0.5094695,0.35286885,-0.94409065,0.54621434,67
1747533122350,0.9906283,-0.20110317,0.507395,0.24341293,-0.8341021,0.57098174,68
1747533122360,0.8096599,-0.38475625,0.410260215,-0.34700991,-0.0229031849999999,0.82105257,69
1747533122370,0.7580418,-0.38914928,0.42563583,-0.5038701,0.26977822,0.8684568500000001,70
1747533122380,0.714965725,-0.28017772,0.51813355,-0.48336374,0.33316146,0.8420915499999999,71
1747533122390,0.711060815,-0.13618394,0.6277152500000001,-0.3254382799999999,0.20453078,0.7579356500000001,72
1747533122400,0.793918215,-0.086396265,0.6838484,-0.122239093,0.002396847,0.60293967,73
1747533122410,0.8696979499999999,-0.0766339799999999,0.699468075,0.090281162,-0.171507578,0.379234135,74
1747533122420,0.8959341,-0.08102701,0.69336665,0.268446645,-0.228765545,0.1360875305,75
1747533122430,0.81576137,-0.0920095824999999,0.54497985,0.37470678,-0.153930715,-0.0631169145,76
1747533122440,0.77903074,-0.08151512,0.5264315,0.4063984,-0.08841695,-0.14327806,77
1747533122450,0.6960513,-0.08786061,0.5208182,0.15073492,0.09321064,-0.025566347,78
1747533122460,0.6582224000000001,-0.087494525,0.5498609999999999,-0.038615835,0.13821806,0.1067927615,79
1747533122470,0.5845170850000001,-0.07651195,0.61246165,-0.27297402,0.189617065,0.29001825,80
1747533122480,0.555230235,-0.07370529,0.6871431699999999,-0.31798145,0.19600865,0.34088463,81
1747533122490,0.579758,-0.08773858,0.74974385,-0.135554905,-0.1262338399999999,0.474042685,82
1747533122500,0.6041637,-0.0874945249999999,0.78244753,0.0386158349999999,-0.220776055,0.48043427,83
1747533122510,0.60977702,-0.079440635,0.7747597500000001,0.2034655149999999,-0.259391885,0.50653324,84
1747533122520,0.60892284,-0.07785426,0.7558453,0.27483824,-0.26738137,0.52837116,85
1747533122530,0.7009324100000001,-0.0859081449999999,0.5908626299999999,0.253799255,-0.31771513,0.61891865,86
1747533122540,0.7402256300000001,-0.0528383925,0.6107533,0.141413858,-0.32863409,0.59068915,87
1747533122550,0.7757359500000001,-0.043564219,0.63528103,0.088683268,-0.3520699149999999,0.540621725,88
1747533122560,0.7883049,-0.049543623,0.64235866,0.07243799,-0.36751625,0.51771855,89
1747533122570,0.782813635,-0.0446624755,0.6632256,0.0508663765,-0.59175439,0.48709218,90
1747533122580,0.8366282700000001,-0.0002440569999999,0.7004443149999999,0.0708400865,-0.76166407,0.416252095,91
1747533122590,0.864694875,0.024283698,0.70264083,0.105727495,-0.77444725,0.34274885,92
1747533122600,0.8662812099999999,0.0447845065,0.690804065,0.140082275,-0.73822827,0.301469845,93
1747533122610,0.822228835,0.069434285,0.65578185,0.1552623,-0.662594495,0.307062475,94
1747533122620,0.7424221200000001,0.0950603,0.61221762,0.141680175,-0.548078565,0.381364665,95
1747533122630,0.6812857999999999,0.125079345,0.5551082199999999,0.0969390649999999,-0.46152583,0.48549425,96
1747533122640,0.6517548799999999,0.14899695,0.4995852,0.009321065,-0.409061555,0.5688512,97
1747533122650,0.6582223700000001,0.163030245,0.4782302,-0.12357068,-0.337688835,0.65061028,98
1747533122660,0.67140144,0.17108414,0.4756676,-0.19920446,-0.29827404,0.69135666,99
1747533122670,0.7811052,0.18902234,0.571216,-0.545948035,0.04127899555,0.838629455,100
1747533122680,0.77988493,0.213428055,0.62136977,-0.59708075,0.08016115,0.82238418,101
1747533122690,0.76243483,0.25345344,0.6412604449999999,-0.59521652,0.0362189935,0.7731157,102
1747533122700,0.7512082,0.2809098949999999,0.631254075,-0.566720695,-0.0958738015,0.70254192,103
1747533122710,0.729121025,0.31812863,0.6183190350000001,-0.521180645,-0.458330025,0.5616606900000001,104
1747533122720,0.711548895,0.3564456099999999,0.599526635,-0.480966895,-0.8764463149999999,0.41625209,105
1747533122730,0.71765032,0.36755022,0.58000205,-0.468183725,-1.12065825,0.347009895,106
1747533122740,0.7231416,0.36974674,0.5759751,-0.4676511,-1.2213258,0.32330775,107
1747533122750,0.7963588,0.3948846299999999,0.5785377,-0.47537426,-1.36673435,0.3880225699999999,108
1747533122760,0.91411645,0.43283552,0.610631225,-0.551806985,-1.10254875,0.4953479799999999,109
1747533122770,1.0193051,0.46700354,0.6693270250000001,-0.633832325,-0.70200927,0.57204703,110
1747533122780,1.05835425,0.487016245,0.6897058,-0.66365975,-0.38429414,0.60400495,111
1747533122790,1.0826380000000002,0.5187436750000001,0.69727155,-0.6623282,-0.066312713,0.64901237,112
1747533122800,1.07800095,0.51996396,0.67091335,-0.71026508,0.405066807,0.677241875,113
1747533122810,1.0737299,0.5008054799999999,0.6297897,-0.81732416,0.7725830499999999,0.646615505,114
1747533122820,1.08471245,0.5005614199999999,0.6217358,-0.92491588,0.8681905249999999,0.528371155,115
1747533122830,1.0860548,0.4949481,0.6213697,-0.984837,0.91346425,0.44048685,116
1747533122840,1.04468695,0.47664381,0.683238265,-1.0546118,0.979776965,0.196008655,117
1747533122850,0.944623525,0.44210969,0.724850015,-1.02425175,0.98084225,0.027696875,118
1747533122860,0.8334555,0.39268811,0.755845265,-0.9339706,0.94275905,-0.069508505,119
1747533122870,0.781105225,0.35595751,0.77475974,-0.83383575,0.8625978999999999,-0.0588558599999999,120
1747533122880,0.7682922,0.34338856,0.78488815,-0.7803062,0.8111989,-0.0479369,121
1747533122890,0.7735394250000001,0.3193489149999999,0.822838985,-0.53529539,0.62903865,-0.0055926385,122
1747533122900,0.7873287,0.321911515,0.84297367,-0.1533980824999999,0.42104578,0.0284958255,123
1747533122910,0.801362,0.336310895,0.81429699,0.2005360275,0.229298175,0.040213735,124
1747533122920,0.80172805,0.35046621,0.75010997,0.312655105,0.1342233199999999,0.03089267,125
1747533122930,0.8007518,0.35754386,0.7136234,0.34514567,0.08841695,0.02609898,126
1747533122940,0.8090498,0.36755022,0.6540734,0.32650356,0.0149137024,0.0007989482499999,127
1747533122950,0.8201544,0.354005035,0.5968420000000001,0.28415929,-0.00106526445,-0.0253000315,128
1747533122960,0.839679,0.296651585,0.5625519750000001,0.169909682,-0.00852211585,-0.072437983,129
1747533122970,0.87421305,0.21428226,0.554009945,0.034088463,-0.016245283,-0.11797804,130
1747533122980,0.9055744,0.147288545,0.58085622,-0.0444747915,-0.0069242188,-0.143278075,131
1747533122990,0.921682175,0.084443805,0.63613518,-0.064182185,0.0013315806,-0.158191775,132
1747533123000,0.926319275,0.023063408,0.69775966,-0.0167779159999999,-0.0255663476,-0.15579493,133
1747533123010,0.9307123,-0.037950902,0.748523565,0.1344896365,-0.0972053815,-0.13102753,134
1747533123020,0.9397424,-0.07102066,0.776712185,0.30812774,-0.156061245,-0.1049285475,135
1747533123030,0.9470641,-0.062844744,0.77781045,0.42104577,-0.156061245,-0.0950748545,136
1747533123040,0.945477725,-0.0444184205,0.759140065,0.5185174699999999,-0.101732755,-0.084422207,137
1747533123050,0.929369975,-0.0218431235,0.699956215,0.5874933499999999,-0.015180019,-0.068709555,138
1747533123060,0.916679,-0.008542004,0.6555378,0.6130597,0.029294772,-0.05965481,139
1747533123070,0.89898485,0.016473863,0.61795298,0.58056912,0.0404800485,-0.088949585,140
1747533123080,0.8605458500000001,0.061868512,0.55620648,0.510527985,0.0364853075,-0.132092795,141
1747533123090,0.8379705500000001,0.086396267,0.554254,0.388555215,-0.0263652949999999,-0.1669802,142
1747533123100,0.84248558,0.09030118,0.5893982499999999,0.2820287649999999,-0.091612745,-0.204797085,143
1747533123110,0.8502954549999999,0.09567044,0.6240543999999999,0.258060315,-0.132359105,-0.228765535,144
1747533123120,0.84992939,0.1060428775,0.65932065,0.276169815,-0.17656758,-0.22290658,145
1747533123130,0.867379415,0.1205642825,0.677869,0.34594464,-0.1424791249999999,-0.175236,146
1747533123140,0.8894666,0.1342314849999999,0.6828722,0.39574575,-0.08735169,-0.14061491,147
1747533123150,0.888246325,0.142285375,0.68494667,0.4207794649999999,-0.0276968799999999,-0.116113825,148
1747533123160,0.88202286,0.152169695,0.690437945,0.469781625,0.03195793,-0.082291677,149
1747533123170,0.87982637,0.15790504,0.69385475,0.49375007,0.03195793,-0.072970614,150
1747533123180,0.903255885,0.19146291,0.70801005,0.5251753849999999,-0.0109189624999999,-0.079894832,151
1747533123190,0.92778365,0.2424708649999999,0.708498175,0.770186175,-0.449275275,-0.2471413499999999,152
1747533123200,0.91924165,0.272611925,0.6687168699999999,0.8410262749999999,-0.57098174,-0.32037828,153
1747533123210,0.89825273,0.29689562,0.61087532,0.8697884499999999,-0.6447513149999999,-0.36884781,154
1747533123220,0.8733588800000001,0.317396435,0.555474325,0.8572716,-0.659132365,-0.38029941,155
1747533123230,0.8598137,0.32630453,0.53180075,0.8426242,-0.64714813,-0.3749731,156
1747533123240,0.8590815199999999,0.32850105,0.49824287,0.70520505,-0.46365635,-0.2695119099999999,157
1747533123250,0.86457282,0.33020945,0.52472308,0.659398675,-0.345145675,-0.225303435,158
1747533123260,0.86127808,0.34131406,0.5529117,0.639158675,-0.200003398,-0.173904425,159
1747533123270,0.8499293800000001,0.33704306,0.57609712,0.637028165,-0.0005326329999999,-0.07563377725,160
1747533123280,0.8412653,0.3270367,0.5854933,0.63649553,0.12197278,-0.0058589545,161
1747533123290,0.8289404499999999,0.3266706299999999,0.5886660699999999,0.644485,0.1483380799999999,0.0593884925,162
1747533123300,0.8454143000000001,0.3361888549999999,0.5975741699999999,0.67537763,0.1059938149999999,0.062051654,163
1747533123310,0.86969802,0.351076335,0.60257735,0.7286408799999999,0.0561927,0.044741107,164
1747533123320,0.89044285,0.36986874,0.53192277,0.73263565,0.01731054725,0.018642128,165
1747533123330,0.91143178,0.37267542,0.43198132,0.607733375,0.00985369625,-0.0146473865,166
1747533123340,0.93229868,0.35437113,0.407087485,0.3818973,-0.006125271,-0.070041139,167
1747533123350,0.94669803,0.3300874299999999,0.44027926,0.12729910725,-0.09054748,-0.1651159925,168
1747533123360,0.9530435,0.3162982,0.46883395,0.0010652645,-0.15020229,-0.22423817,169
1747533123370,0.8936156049999999,0.213916175,0.6655441,-0.16431704,-0.51958275,-0.47484163,170
1747533123380,0.812710645,0.14558014,0.77903075,-0.077497989,-0.7368967,-0.52490905,171
1747533123390,0.769024405,0.1232489025,0.8099039800000001,0.044741109,-0.79761675,-0.44767737,172
1747533123400,0.74181203,0.1149509625,0.8222288449999999,0.169377053,-0.8117315,-0.322775125,173
1747533123410,0.72546018,0.128130055,0.793186035,0.38056573,-0.8633968350000001,-0.1323591135,174
1747533123420,0.73388013,0.14789869,0.72423987,0.592553365,-0.934769585,0.0290284564999999,175
1747533123430,0.766095725,0.15717287,0.6534632499999999,0.688693495,-0.96539595,0.0924116899999999,176
1747533123440,0.805877025,0.162176045,0.5836629,0.71665668,-0.90440955,0.14780544,177
1747533123450,0.8438279,0.15863721,0.5131304,0.7105314,-0.8357,0.18002969,178
1747533123460,0.88360927,0.140576975,0.454434625,0.4412857999999999,-0.321443555,0.326769875,179
1747533123470,0.90642864,0.117635595,0.43417786,0.20772657,-0.029827404,0.4066647,180
1747533123480,0.90630662,0.0940840699999999,0.474691335,0.12809805,-0.078563254,0.37390782,181
1747533123490,0.897276485,0.0789525225,0.53546155,0.171507575,-0.324905655,0.266848745,182
1747533123500,0.888490385,0.100795645,0.509469465,0.387756245,-0.83436843,0.06791061,183
1747533123510,0.8861718249999999,0.1057988145,0.400009825,0.51612061,-1.16673095,-0.0897485299999999,184
1747533123520,0.8736029,0.084199749,0.29445507,0.38935416,-1.1001519000000002,-0.11797804,185
1747533123530,0.849929375,0.081637147,0.2123298049999999,0.16964337,-0.957140135,-0.106792765,186
1747533123540,0.84333985,0.0783423749999999,0.1601015499999999,-0.094275905,-0.75740302,-0.07483483,187
1747533123550,0.902767815,0.0142773515,0.18963247,-0.5502091,-0.3286340835,-0.0412789965,188
1747533123560,0.969395415,-0.0557670835,0.308488355,-0.976314925,0.0764327215,-0.051132694,189
1747533123570,0.98111015,-0.082247295,0.43295756,-1.11373405,0.2191781549999999,-0.1158475075,190
1747533123580,0.95719252,-0.121296455,0.52594337,-1.088434,0.260190845,-0.191747595,191
1747533123590,0.8965442699999999,-0.159247355,0.57914785,-0.930774835,0.1685781075,-0.2396844899999999,192
1747533123600,0.8118563999999999,-0.16510473,0.5442476599999999,-0.604803885,-0.1885518025,-0.22450448,193
1747533123610,0.77524783,-0.152169705,0.4511398199999999,-0.35606464,-0.4942826999999999,-0.1768339,194
1747533123620,0.78915913,-0.14240741,0.374017745,-0.35340148,-0.4937500649999999,-0.13821806,195
1747533123630,0.79355215,-0.12886223,0.324718185,-0.44048684,-0.398408905,-0.0982706475,196
1747533123640,0.80465675,-0.117757625,0.301288685,-0.5816344,-0.2551308399999999,-0.0636495525,197
1747533123650,0.83077088,-0.13764829,0.339117555,-0.799214665,-0.01731054,-0.062850605,198
1747533123660,0.838336645,-0.169497755,0.4053791,-0.966993815,0.200536045,-0.092145375,199
1747533123670,0.8089277450000001,-0.186215665,0.4266120949999999,-0.99442438,0.34461306,-0.091346425,200
1747533123680,0.76597368,-0.203055625,0.428686575,-0.96699381,0.480700575,-0.039148469,201
1747533123690,0.71447762,-0.22672919,0.41758196,-0.88896318,0.5608617300000001,0.027430561,202
1747533123700,0.66944907,-0.24137263,0.36913659,-0.73316825,0.56751963,0.16245284,203
1747533123710,0.6566360499999999,-0.238687995,0.30934255,-0.62238075,0.512924815,0.32064461,204
1747533123720,0.6910480999999999,-0.262361545,0.26809688,-0.6593987,0.4183826149999999,0.39388153,205
1747533123730,0.7243619,-0.28920785,0.25211114,-0.78536625,0.2825613999999999,0.36432044,206
1747533123740,0.85542065,-0.39403043,0.251745045,-0.948618,0.139549645,0.241282395,207
1747533123750,0.91375032,-0.477497995,0.2820081399999999,-1.1113371,-0.0300937199999999,0.064714813,208
1747533123760,0.96585655,-0.551203265,0.34070392,-1.1672635,-0.1997370849999999,-0.0633832345,209
1747533123770,0.99868225,-0.57292435,0.389027255,-1.08017815,-0.3217098699999999,-0.1089232875,210
1747533123780,1.010397,-0.5764632,0.40318257,-1.0183928,-0.376571,-0.12783173,211
1747533123790,1.048836,-0.589032175,0.3504661999999999,-0.751277735,-0.3797667799999999,-0.14913702,212
1747533123800,1.0686046500000002,-0.58171045,0.293844925,-0.633566,-0.24021714,-0.1613875599999999,213
1747533123810,1.0686046500000002,-0.5749988749999999,0.273344115,-0.649811315,-0.06791061,-0.18109495,214
1747533123820,1.0693368,-0.57402265,0.29750579,-0.70973244,0.08815063,-0.222640265,215
1747533123830,1.0526189,-0.580124075,0.345341,-0.764859855,0.23728765,-0.28682246,216
1747533123840,0.9992924,-0.6053839999999999,0.423683385,-0.7576693299999999,0.3603256999999999,-0.34887411,217
1747533123850,0.92937,-0.6256407500000001,0.49299565,-0.59468387,0.4809669,-0.3845604649999999,218
1747533123860,0.87091825,-0.62368827,0.5198419400000001,-0.3752394049999999,0.581900715,-0.3901531099999999,219
1747533123870,0.8138088800000001,-0.61734277,0.538390275,-0.21225395,0.6348976150000001,-0.370445715,220
1747533123880,0.75730968,-0.61002108,0.53948855,-0.0513990105,0.7089335,-0.32117723,221
1747533123890,0.6898278499999999,-0.590008405,0.51264228,0.1752360045,0.8255799699999999,-0.138484376,222
1747533123900,0.6513888,-0.562918025,0.47090846,0.38296257,0.87724527,0.102265389,223
1747533123910,0.68104175,-0.52899407,0.44906533,0.48229847,0.8183894,0.23861924,224
1747533123920,0.74193405,-0.482135085,0.46065805,0.5632585800000001,0.7507451,0.287887725,225
1747533123930,0.81039205,-0.423195255,0.4665154099999999,0.70254193,0.6751113150000001,0.252733995,226
1747533123940,0.850173375,-0.37450584,0.43808274,0.82531365,0.5938849150000001,0.1853560149999999,227
1747533123950,0.854200375,-0.35339489,0.397813305,0.84582,0.5107942999999999,0.140881225,228
1747533123960,0.86945395,-0.3418021799999999,0.3730415099999999,0.81652523,0.4159857649999999,0.1027980179999999,229
1747533123970,0.9119199,-0.33606683,0.369258625,0.76672411,0.343281465,0.051665325,230
1747533123980,0.9802559,-0.3316737899999999,0.38512234,0.6926882299999999,0.4114584,-0.066312713,231
1747533123990,1.01735265,-0.3313077,0.40757559,0.62078285,0.5824333500000001,-0.182959175,232
1747533124000,0.997706075,-0.336676975,0.42893059,0.57444385,0.731570375,-0.235157135,233
1747533124010,0.951091125,-0.337043065,0.46273255,0.5339638,0.8420915600000001,-0.261788745,234
1747533124020,0.8494413000000001,-0.3278909049999999,0.5336312000000001,0.5424859150000001,0.777376735,-0.23196134,235
1747533124030,0.778420625,-0.322887735,0.5954997,0.6191849650000001,0.58323229,-0.1952097099999999,236
1747533124040,0.786230445,-0.326914685,0.60477385,0.724379835,0.39494679,-0.2029328799999999,237
1747533124050,0.8114903200000001,-0.331917855,0.58561535,0.8221178650000001,0.17976337,-0.23196134,238
1747533124060,0.85078355,-0.3350905899999999,0.546566185,0.89002848,-0.04287689,-0.28096349,239
1747533124070,0.8855617,-0.3250842499999999,0.483111305,0.869255815,-0.03488741,-0.30945931,240
1747533124080,0.88519558,-0.3084883699999999,0.43979117,0.760865165,0.22503711,-0.275903485,241
1747533124090,0.84260763,-0.275052525,0.45675315,0.630370275,0.52357748,-0.187752855,242
1747533124100,0.7880608499999999,-0.230756135,0.499951275,0.510261685,0.779773595,-0.072437983,243
1747533124110,0.741689975,-0.216112705,0.54876271,0.439421595,0.923051655,0.034088462,244
1747533124120,0.668594805,-0.1932933399999999,0.60440776,0.513990105,0.76139778,0.156327555,245
1747533124130,0.62771523,-0.157172865,0.629179575,0.7227819200000001,0.289485632,0.2298308,246
1747533124140,0.669937165,-0.13227903,0.58817795,0.912399,-0.2034655179999999,0.190682335,247
1747533124150,0.737663015,-0.10421244,0.50763906,1.0037454,-0.5882923,0.088949582,248
1747533124160,0.803802535,-0.063942997,0.400497945,0.978711675,-0.81359572,-0.039148468,249
1747533124170,0.816981635,-0.0272123835,0.341070015,0.732635625,-0.67085029,-0.151267555,250
1747533124180,0.7580418,-0.018914437,0.3465613,0.415186815,-0.2924151,-0.156860195,251
1747533124190,0.69129215,-0.0273344125,0.365353705,0.206128665,0.043942155,-0.0370179415,252
1747533124200,0.652365035,-0.0386830735,0.4137990649999999,0.05539375,0.298806675,0.1142496085,253
1747533124210,0.609899085,-0.0244057239999999,0.5128863300000001,0.054062173,0.320644595,0.289219295,254
1747533124220,0.58891015,0.0104944615,0.58317485,0.187752858,0.1448759635,0.41278997,255
1747533124230,0.5972081,0.025870068,0.5872018,0.26738137,0.039947417,0.43516052,256
1747533124240,0.6807977000000001,0.0613803985,0.4969005549999999,0.42077945,-0.256995045,0.46951531,257
1747533124250,0.7540148849999999,0.08529801,0.41172458,0.403468905,-0.29534457,0.473510045,258
1747533124260,0.839312885,0.12727586,0.35620156,0.19361181,-0.202400255,0.4277036749999999,259
1747533124270,0.88312115,0.1691316749999999,0.343754635,-0.06498113,-0.0996022299999999,0.3520699,260
1747533124280,0.88617183,0.158271125,0.3605945849999999,-0.2399508149999999,-0.045007423,0.281229815,261
1747533124290,0.86945388,0.121296455,0.41807007,-0.400805745,-0.0268979265,0.1813612725,262
1747533124300,0.811856425,0.106042878,0.48909072,-0.490554285,-0.0471379515,0.0985369604999999,263
1747533124310,0.737419025,0.082979467,0.5442476700000001,-0.48762482,-0.0260989789999999,0.141680173,264
1747533124320,0.6938548,0.0462488474999999,0.564382385,-0.456998455,0.039148469,0.27883297,265
1747533124330,0.7025188,0.0395372735,0.5403427199999999,-0.451139495,0.119309615,0.424507885,266
1747533124340,0.7366868,0.055645055,0.51947582,-0.488690075,0.2447444999999999,0.54408382,267
1747533124350,0.79757908,0.066261545,0.53655985,-0.586428065,0.4293015799999999,0.6021407350000001,268
1747533124360,0.85456643,0.046736963,0.5707278849999999,-0.69854715,0.5613943699999999,0.58083545,269
1747533124370,0.872260575,0.0117147487,0.62381032,-0.7621967249999999,0.55739962,0.5139901,270
1747533124380,0.87665361,-0.00256260105,0.7025188,-0.7547398750000001,0.4575310849999999,0.45939529,271
1747533124390,0.903743985,0.0012202862,0.7587740249999999,-0.6695187,0.2857571949999999,0.41465418,272
1747533124400,0.9784255,0.04100161795,0.78061715,-0.479901625,0.0276968799999999,0.268712955,273
1747533124410,1.03065375,0.10726316,0.7604824,-0.335025675,-0.15126755,0.07616640835,274
1747533124420,1.0238202,0.147776665,0.7165520750000001,-0.336889885,-0.16618125,-0.05086637965,275
1747533124430,0.99465537,0.165104735,0.6893397,-0.377103615,-0.132625422,-0.137685433,276
1747533124440,0.92998012,0.1657148749999999,0.6724997500000001,-0.442084745,-0.0391484685,-0.15739282,277
1747533124450,0.8866599,0.16034561,0.6633476,-0.54301855,0.1089232884999999,-0.1235706749999999,278
1747533124460,0.86835565,0.167545305,0.719846875,-0.715058735,0.348874115,-0.0777643065,279
1747533124470,0.83369958,0.17071805,0.80197215,-0.83463468,0.5621933299999999,-0.0375505715,280
1747533124480,0.81734776,0.1666911,0.82759815,-0.84209156,0.61891866,-0.01917476,281
1747533124490,0.79318607,0.17376876,0.89080894,-0.67085028,0.597080735,0.0745685114999999,282
1747533124500,0.8016060700000001,0.26626645,0.8712843299999999,-0.4362258049999999,0.5909554699999999,0.143011755,283
1747533124510,0.80575502,0.328745095,0.7942842800000001,-0.25086979,0.62664185,0.179497065,284
1747533124520,0.7742716000000001,0.38378,0.71374543,-0.18695391,0.64688185,0.18642128,285
1747533124530,0.74986588,0.43100509,0.62722715,-0.17869811,0.6578008,0.193611815,286
1747533124540,0.72814478,0.4776200349999999,0.554132,-0.30226879,0.7006777,0.18588865,287
1747533124550,0.71581988,0.519963965,0.5158149999999999,-0.475107925,0.7768440999999999,0.178431795,288
1747533124560,0.71630803,0.52557725,0.5254552699999999,-0.6050702,0.85700525,0.1816275849999999,289
1747533124570,0.7012985,0.5183775500000001,0.57060587,-0.70493878,0.90973585,0.182426535,290
1747533124580,0.6872652,0.5176454,0.6023333,-0.7355651299999999,0.8886968799999999,0.189350755,291
1747533124590,0.652365015,0.526919585,0.6622493300000001,-0.70627035,0.79948098,0.204530775,292
1747533124600,0.65810035,0.529970285,0.69434285,-0.63489763,0.630636575,0.222640275,293
1747533124610,0.662615415,0.54497985,0.72399583,-0.57284598,0.495880615,0.23702134,294
1747533124620,0.655293715,0.5651146,0.74120188,-0.541687,0.447411075,0.248206605,295
1747533124630,0.65029053,0.5857374,0.752794565,-0.51345748,0.377103635,0.269778225,296
1747533124640,0.6637136800000001,0.6246645,0.827720115,-0.45140581,0.20559605,0.288953,297
1747533124650,0.70032225,0.6529751500000001,0.9405966,-0.327302505,-0.013049492,0.26844665,298
1747533124660,0.73876127,0.63454883,0.99538745,-0.1467401834999999,-0.186154967,0.2082591999999999,299
1747533124670,0.75462502,0.59147273,0.982086365,0.0628506014999999,-0.31212249,0.1568601849999999,300
1747533124680,0.77561393,0.47700989,0.858593415,0.16564862,-0.35579833,0.14008227,301
1747533124690,0.82601178,0.3414360899999999,0.7349783999999999,0.21172131,-0.0380832075,0.302002475,302
1747533124700,0.87946035,0.2540636,0.70593558,0.0900148425,0.1954760224999999,0.38269626,303
1747533124710,0.9022797,0.2135501,0.70337296,0.022903185,0.3158509,0.42077947,304
1747533124720,0.9859913,0.073583263,0.81197847,-0.120641202,0.5494101499999999,0.427171035,305
1747533124730,1.0108851,0.013667206,0.88275504,-0.15020229,0.5965481,0.40373522,306
1747533124740,0.992824875,-0.0235515245,0.89227332,-0.019441075,0.402936295,0.1581917765,307
1747533124750,0.954507875,-0.0801728055,0.8894667,0.157126505,0.059388495,-0.0575242785,308
1747533124760,0.931932585,-0.108483445,0.86957602,0.27403928,-0.25539715,-0.19600866,309
1747533124770,0.918997555,-0.119588052,0.8511496700000001,0.38908785,-0.439155265,-0.317981435,310
1747533124780,0.89373764,-0.115927195,0.82125265,0.4791027,-0.40986049,-0.36059202,311
1747533124790,0.86176612,-0.102259985,0.7747597500000001,0.504402725,-0.227433955,-0.30067091,312
1747533124800,0.837848475,-0.08932495,0.73180565,0.4934837749999999,-0.0157126479999999,-0.21172132,313
1747533124810,0.830892875,-0.0728510885,0.7116709,0.46312373,0.182959177,-0.129695947,314
1747533124820,0.8305268,-0.061502427,0.7070338,0.44741106,0.27483824,-0.094808534,315
1747533124830,0.83687234,-0.004148973,0.7268025,0.50333744,0.41438788,-0.06178534,316
1747533124840,0.836262125,0.0411236465,0.6849466550000001,0.55793225,0.4034689,-0.10892329,317
1747533124850,0.83467579,0.0741934035,0.648216025,0.5637912,0.3635214799999999,-0.16298546,318
1747533124860,0.8268659650000001,0.10372433,0.6028214000000001,0.5592638,0.33822146,-0.19441076,319
1747533124870,0.8124666,0.1355738,0.5764632249999999,0.45193845,0.169643365,-0.302002475,320
1747533124880,0.7933081,0.16693515,0.584639125,0.3765709849999999,0.00266316,-0.38056572,321
1747533124890,0.77610205,0.185117415,0.60306545,0.35446675,-0.11345067,-0.4298342,322
1747533124900,0.76487542,0.18597162,0.61465817,0.33449304,-0.2031992,-0.46365635,323
1747533124910,0.76194674,0.18060236,0.61795294,0.3222425,-0.2412824,-0.47510794,324
1747533124920,0.73863927,0.171816295,0.692146335,0.23755398,-0.190149695,-0.43143212,325
1747533124930,0.7178944,0.180602355,0.7311955,0.2412824,-0.0942759025,-0.36192361,326
1747533124940,0.6897057799999999,0.19036465,0.74998792,0.3067961649999999,-0.0521979595,-0.29507826,327
1747533124950,0.67127946,0.205984325,0.75535717,0.3858920649999999,-0.0508663785,-0.23116239,328
1747533124960,0.69202433,0.23429496,0.7520624,0.4676511,-0.0735032465,-0.186687595,329
1747533124970,0.7149657,0.258944735,0.7268025,0.55580172,-0.1371528,-0.169909675,330
1747533124980,0.7104506500000001,0.27004935,0.68885157,0.576574385,-0.23489082,-0.182426535,331
1747533124990,0.71203705,0.274198325,0.66432382,0.50653325,-0.32410671,-0.205063415,332
1747533125000,0.72546018,0.2677308,0.6765266999999999,0.423975245,-0.404534175,-0.219977115,333
1747533125010,0.7535267299999999,0.26419197,0.7385172499999999,0.41438786,-0.493750075,-0.23222765,334
1747533125020,0.7670718999999999,0.273832235,0.7784206300000001,0.48363007,-0.54887752,-0.233825545,335
1747533125030,0.7585299,0.289085805,0.75657748,0.54834487,-0.54435015,-0.221308685,336
1747533125040,0.7474253,0.3081222799999999,0.7132573,0.5760417499999999,-0.502804815,-0.20213393,337
1747533125050,0.7307073749999999,0.3226436849999999,0.6634696499999999,0.560595425,-0.410393115,-0.168578105,338
1747533125060,0.7282668050000001,0.325450335,0.614414135,0.45247106,-0.2162486774999999,-0.0849548425,339
1747533125070,0.75023198,0.305925765,0.608312685,0.311057225,-0.0529969084999999,-0.0117179086,340
1747533125080,0.779396835,0.271391665,0.667984685,0.23222766,-0.0292947729999999,-0.0098536961,341
1747533125090,0.801117935,0.250646795,0.757553685,0.23355922,-0.085487477,-0.042610577,342
1747533125100,0.81356485,0.244301305,0.838824765,0.330231975,-0.224770815,-0.091879057,343
1747533125110,0.8201544000000001,0.2355152449999999,0.860423835,0.5273059250000001,-0.53982275,-0.18855181,344
1747533125120,0.82198482,0.2405184199999999,0.84053317,0.687628215,-0.85354312,-0.30360037,345
1747533125130,0.81283265,0.266144425,0.81734775,0.737429315,-0.96060222,-0.3696467599999999,346
1747533125140,0.79306403,0.28371654,0.78415595,0.7502125,-0.9108011,-0.3797667799999999,347
1747533125150,0.74718127,0.28994001,0.7228976,0.72597773,-0.747283,-0.331829875,348
1747533125160,0.70471527,0.2937229,0.6682287849999999,0.64874603,-0.461792135,-0.193079175,349
1747533125170,0.695441115,0.296773615,0.64846012,0.566188025,-0.200802355,-0.0513990105,350
1747533125180,0.69373274,0.30202085,0.6325964049999999,0.52144694,-0.0878843225,0.0167779144999999,351
1747533125190,0.700322275,0.304583445,0.62820337,0.487624805,-0.046871636,0.0495347975,352
1747533125200,0.72485003,0.28786552,0.6400401499999999,0.47803743,-0.1193096135,0.0005326324999999,353
1747533125210,0.74242216,0.272856,0.6487042,0.48203218,-0.19121496,-0.05219796,354
1747533125220,0.747059235,0.2694392,0.62600684,0.523843785,-0.404534175,-0.166713885,355
1747533125230,0.7368088349999999,0.269683265,0.5823206,0.51825117,-0.532898545,-0.22290658,356
1747533125240,0.7221654,0.27065949,0.510201675,0.47883639,-0.6298376,-0.273240335,357
1747533125250,0.71557585,0.261507335,0.446014625,0.33316147,-0.58429753,-0.29534458,358
1747533125260,0.7227755499999999,0.23929813,0.429784835,0.13688649,-0.396811,-0.27670245,359
1747533125270,0.72460597,0.2157466049999999,0.439791175,-0.0157126499999999,-0.147539129,-0.22929818,360
1747533125280,0.7161859850000001,0.1766974499999999,0.459437765,-0.15579493,0.149137031,-0.148604393,361
1747533125290,0.687387215,0.1131205399999999,0.48494174,-0.26098979,0.399474175,-0.035686357,362
1747533125300,0.68592285,0.078952522,0.50483239,-0.311323535,0.411192075,0.100401171,363
1747533125310,0.73693085,0.088470752,0.5065408,-0.334759355,0.2545982,0.137152795,364
1747533125320,0.7891591200000001,0.102626073,0.49860897,-0.3656520199999999,0.106260126,0.0298274065,365
1747533125330,0.82881837,0.1190999329999999,0.492263485,-0.3906857299999999,-0.042610579,-0.1187769835,366
1747533125340,0.83052675,0.1184897899999999,0.478108155,-0.398675215,-0.2298308,-0.294012985,367
1747533125350,0.8089277349999999,0.09091133,0.45687516,-0.431964735,-0.321709855,-0.397876275,368
1747533125360,0.7946504050000001,0.0474691375,0.44869925,-0.5259743299999999,-0.200269715,-0.389354165,369
1747533125370,0.78147132,0.007443745,0.472616865,-0.65194188,0.053263225,-0.339020415,370
1747533125380,0.77817655,-0.022209211,0.508371235,-0.756337775,0.37177729,-0.264185585,371
1747533125390,0.77061075,-0.1094596784999999,0.5691414800000001,-0.904143225,0.75687039,-0.1478054449999999,372
1747533125400,0.74010358,-0.192073055,0.65919861,-1.00534335,0.96273277,-0.053263224,373
1747533125410,0.6895837499999999,-0.199882885,0.73082943,-0.92305165,0.82717785,-0.0141147545,374
1747533125420,0.65419547,-0.187069875,0.7620687500000001,-0.72810825,0.508663765,0.014913702,375
1747533125430,0.6506566250000001,-0.14643434,0.7424221200000001,-0.4870921499999999,0.1115864549999999,0.0061252699999999,376
1747533125440,0.66078499,-0.071386741,0.6687168450000001,-0.2798982299999999,-0.25965821,-0.039414785,377
1747533125450,0.717650315,0.0240396389999999,0.414897325,-0.278566655,-0.5829659650000001,-0.1747033725,378
1747533125460,0.7757359500000001,0.06040417,0.156806785,-0.5089301049999999,-0.72065139,-0.331030935,379
1747533125470,0.79147765,0.0126909785,0.1147069,-0.81599258,-0.6450176249999999,-0.429035265,380
1747533125480,0.797335,-0.020988923,0.12935033,-0.9768475,-0.5816344,-0.47723848,381
1747533125490,0.68641102,-0.250036655,0.36803831,-1.44796075,-0.311323535,-0.4221110349999999,382
1747533125500,0.6150242699999999,-0.399765785,0.606726325,-1.58910825,-0.263120325,-0.26897928,383
1747533125510,0.6040417,-0.42978483,0.6892177,-1.556884,-0.28708878,-0.19760656,384
1747533125520,0.6621273000000001,-0.46517311,0.819056095,-1.1781825,-0.37124466,0.0580569129999999,385
1747533125530,0.755845275,-0.421486865,0.7155758299999999,-0.7819040749999999,-0.1917476005,0.28815403,386
1747533125540,0.81905609,-0.340581885,0.5230146999999999,-0.5446164250000001,0.1115864545,0.50094059,387
1747533125550,0.849685265,-0.2707815,0.4065994,-0.59122175,0.302535095,0.585895445,388
1747533125560,0.89654425,-0.2034217099999999,0.3636453,-0.6807039749999999,0.443682635,0.563524915,389
1747533125570,0.92924795,-0.2115976299999999,0.3786547999999999,-0.754207225,0.388555215,0.3336941,390
1747533125580,0.9177773,-0.318494695,0.360106465,-0.7914914799999999,0.048203215,0.0737695645,391
1747533125590,0.899350985,-0.4382047799999999,0.329721345,-0.81972098,-0.504935365,-0.047404268,392
1747533125600,0.90447617,-0.49201941,0.33533466,-0.8383631,-0.8277105,-0.096939065,393
1747533125610,1.01479,-0.54278335,0.454190535,-0.711330365,-1.8389128,-0.247940305,394
1747533125620,1.14597075,-0.516791235,0.53277695,-0.54088804,-2.1590247,-0.337688835,395
1747533125630,1.23126875,-0.482623185,0.5422952,-0.33529199,-1.9877834,-0.4929511399999999,396
1747533125640,1.19234165,-0.476155675,0.461512265,-0.266582425,-1.4247912,-0.593086005,397
1747533125650,1.10948425,-0.500073325,0.378166705,-0.4157194349999999,-0.81838945,-0.532898545,398
1747533125660,1.01137323,-0.55693865,0.4048909699999999,-0.7930893750000001,-0.0053263199999999,-0.335025665,399
1747533125670,0.95243338,-0.6046518249999999,0.55083718,-1.07165605,0.65540396,-0.15819177,400
1747533125680,0.93290885,-0.620515555,0.7343682250000001,-0.95607485,0.86792423,-0.12144015,401
1747533125690,0.8911751,-0.6221019050000001,0.882877075,-0.633566035,0.8839032,-0.10226539,402
1747533125700,0.8357740499999999,-0.6112413400000001,0.92766162,-0.230097126,0.757403025,-0.050067429,403
1747533125710,0.8095378799999999,-0.5643823649999999,0.863840635,0.287355109,0.464455305,0.0210389725,404
1747533125720,0.8206424800000001,-0.49507012,0.757919765,0.7006777,0.21038973,0.0599211215,405
1747533125730,0.83333347,-0.439791155,0.66322557,0.8713863,0.14647386,0.0761664049999999,406
1747533125740,0.84272969,-0.388905225,0.5785377,0.97604855,0.156061245,0.09880328,407
1747533125750,0.8690878449999999,-0.33533466,0.5098355999999999,1.0130665,0.204530775,0.107059078,408
1747533125760,0.957314525,-0.26895108,0.42844251,0.9153285,0.325970925,0.040213732,409
1747533125770,1.0399279,-0.22050571,0.361326755,0.73876092,0.46738477,-0.068709558,410
1747533125780,1.06506585,-0.211231535,0.356323585,0.57178071,0.5653890850000001,-0.160588617,411
1747533125790,1.0862987999999998,-0.2227022249999999,0.39915563,0.41784999,0.648479715,-0.26631612,412
1747533125800,1.10143035,-0.253697505,0.473226995,0.33316146,0.6932208150000001,-0.38935417,413
1747533125810,1.0566459,-0.322643685,0.555840385,0.34594463,0.65247445,-0.54594805,414
1747533125820,0.96707685,-0.36864847,0.6289355249999999,0.432763685,0.53849117,-0.65487132,415
1747533125830,0.901303435,-0.359740375,0.6743301749999999,0.588824945,0.40240364,-0.6793724000000001,416
1747533125840,0.839068835,-0.350344165,0.6840925,0.77524623,0.305730895,-0.6751113550000001,417
1747533125850,0.7628009,-0.33960564,0.6589546,0.92278535,0.246342405,-0.630103925,418
1747533125860,0.70276285,-0.3236198999999999,0.55986735,1.01892545,0.1334243715,-0.4985437649999999,419
1747533125870,0.69983418,-0.306169825,0.439181025,1.0114686,0.0351537265,-0.362722545,420
1747533125880,0.71777236,-0.29774985,0.39586085,0.9715212,0.01438107,-0.32490566,421
1747533125890,0.819544235,-0.2981159249999999,0.377068445,0.7779093749999999,0.0399474175,-0.28336035,422
1747533125900,0.88068057,-0.313247475,0.43942507,0.60933125,0.209590775,-0.312122495,423
1747533125910,0.88495159,-0.309586615,0.53399725,0.510527975,0.438356325,-0.3336941,424
1747533125920,0.83894679,-0.290062025,0.6073364699999999,0.5107943,0.5219796,-0.32756883,425
1747533125930,0.81539524,-0.28432667,0.64162654,0.5699165,0.63436496,-0.29561087,426
1747533125940,0.68628897,-0.22941381,0.667862655,0.771517775,0.59122177,-0.197872875,427
1747533125950,0.6391859200000001,-0.191462905,0.580856225,0.963531725,0.295877197,-0.109455923,428
1747533125960,0.64553142,-0.1542441849999999,0.46858991,1.0663297,-0.033822148,-0.0609863905,429
1747533125970,0.67835713,-0.127763975,0.41367706,1.0221212,-0.18562233,-0.0692421875,430
1747533125980,0.71667413,-0.125811505,0.377800635,0.9241169,-0.21997711,-0.081759045,431
1747533125990,0.73351408,-0.133621335,0.363035145,0.8628642,-0.20240025,-0.08575379,432
1747533126000,0.70788808,-0.106042875,0.41550744,0.491885865,0.2601908385,0.0748348299999999,433
1747533126010,0.6710354249999999,-0.0554009964999999,0.51605903,0.326503565,0.6050702,0.2452771349999999,434
1747533126020,0.659930795,-0.0184263219,0.6057501,0.34594465,0.761397775,0.34274883,435
1747533126030,0.65968674,-0.0017084008,0.6487042,0.3797668,0.82185155,0.3834952,436
1747533126040,0.65578185,0.0495436234999999,0.6416265,0.58989018,0.805073615,0.421844725,437
1747533126050,0.6548056,0.065407341,0.51752338,0.708400845,0.5179848499999999,0.43729106,438
1747533126060,0.69348865,0.082613375,0.43649638,0.67990503,0.1691107399999999,0.42024682,439
1747533126070,0.750231975,0.1197100825,0.424903665,0.551008035,0.014913702,0.330498285,440
1747533126080,0.77732235,0.14521407,0.43539813,0.49375007,-0.027696876,0.27217507,441
1747533126090,0.7782985499999999,0.1969542,0.48640611,0.39175101,-0.071639035,0.099868547,442
1747533126100,0.72387382,0.203299685,0.4967785249999999,0.32810146,-0.118244355,0.0103863285,443
1747533126110,0.67286584,0.207570695,0.501659675,0.278300345,-0.139549645,-0.009054748,444
1747533126120,0.670181185,0.21269589,0.51508285,0.269778225,-0.10093381,0.0455400555,445
1747533126130,0.67799103,0.21159762,0.5254553,0.2711098,-0.06870956,0.07882957,446
1747533126140,0.7072779,0.209767205,0.51825555,0.2423476749999999,0.186421288,0.21118868,447
1747533126150,0.7392494000000001,0.251256935,0.47261686,0.1054611855,0.5701828,0.34434673,448
1747533126160,0.7708548500000001,0.283228435,0.410626335,-0.1283643645,1.003479075,0.45753108,449
1747533126170,0.7693905000000001,0.279567585,0.41367705,-0.24501082,1.1563445,0.48629323,450
1747533126180,0.7265584,0.29433305,0.482013075,-0.5123922,1.3592775,0.5219796,451
1747533126190,0.6914141650000001,0.3119051699999999,0.59244898,-0.70627035,1.2772521,0.4990764,452
1747533126200,0.678967265,0.33582278,0.73485638,-0.574710165,0.764060915,0.3637878,453
1747533126210,0.65700212,0.372919485,0.798433285,-0.34035198,0.1251685799999999,0.22077605,454
1747533126220,0.63528102,0.41282284,0.7479134350000001,-0.193611805,-0.259658215,0.179763375,455
1747533126230,0.6365012999999999,0.486772195,0.62686105,-0.2308960649999999,-0.413322615,0.21252025,456
1747533126240,0.6441891,0.56816528,0.5353396,-0.417583675,-0.3289004,0.28628982,457
1747533126250,0.6527311,0.629789715,0.52826195,-0.59734705,-0.169110728,0.3565972699999999,458
1747533126260,0.6792113,0.68628898,0.543149425,-0.76086515,-0.015180018,0.40559943,459
1747533126270,0.70508135,0.733514065,0.5963538749999999,-0.8793758300000001,0.04527374,0.39441416,460
1747533126280,0.7213112,0.785010125,0.6884855,-0.88869688,-0.13768543,0.24767398,461
1747533126290,0.72485003,0.8131987249999999,0.754625,-0.7965515000000001,-0.493483775,0.055660065,462
1747533126300,0.712037,0.8112463,0.751696315,-0.696682965,-0.83090628,-0.0468716349999999,463
1747533126310,0.70434922,0.81905615,0.719602795,-0.621049195,-1.11826138,-0.091346425,464
1747533126320,0.71716225,0.833333475,0.685922865,-0.568318605,-1.3486248500000002,-0.095607482,465
1747533126330,0.7813493,0.842485605,0.657612235,-0.591754405,-1.4972292500000002,-0.083889572,466
1747533126340,0.8334555,0.84614646,0.6467517,-0.63436496,-1.5456988,-0.07989483,467
1747533126350,0.91314021,0.86164412,0.68775335,-0.73529878,-1.2711268,-0.1238369949999999,468
1747533126360,0.95182328,0.8518818,0.7148437000000001,-0.80427465,-0.9259811,-0.15739282,469
1747533126370,0.91716715,0.8096599250000001,0.74766935,-0.887365285,-0.19973708,-0.153664395,470
1747533126380,0.8445601,0.738517255,0.76426525,-0.9339706,0.51771854,-0.0958738015,471
1747533126390,0.79916545,0.66163918,0.77598002,-0.911866365,0.8423578700000001,-0.0159789665,472
1747533126400,0.771586975,0.5944014,0.803436485,-0.837031545,1.02558335,0.060453757,473
1747533126410,0.760482375,0.5554743,0.829428565,-0.6924218799999999,1.08124345,0.109455922,474
1747533126420,0.7665838300000001,0.5230147,0.80685322,-0.6018744,1.0849719,0.12410331,475
1747533126430,0.7875727299999999,0.48628406,0.7559672900000001,-0.3494067349999999,1.0221213,0.0894822125,476
1747533126440,0.8067312,0.46041399,0.73607665,-0.299339315,0.99149495,0.0199737095,477
1747533126450,0.8140529249999999,0.428442495,0.74620503,-0.3470099,1.04023075,-0.057257966,478
1747533126460,0.805266875,0.377190475,0.77244118,-0.39947417,1.10121715,-0.132359113,479
1747533126470,0.77512582,0.256504175,0.8053889000000001,-0.42983422,1.07911295,-0.193878135,480
1747533126480,0.7458389400000001,0.1239810829999999,0.835285905,-0.4069310299999999,0.95421065,-0.22610238,481
1747533126490,0.740469695,0.0444184194999999,0.858349335,-0.3155846,0.75713673,-0.230363435,482
1747533126500,0.75389284,-0.0184263235,0.87885015,-0.1768339025,0.50866379,-0.243146615,483
1747533126510,0.76463133,-0.04368625,0.8876362,-0.096939065,0.37550572,-0.25353295,484
1747533126520,0.77744435,-0.0705325475,0.826743915,0.22876554,-0.137152797,-0.34993936,485
1747533126530,0.7557232700000001,-0.0646751725,0.73168365,0.4013383849999999,-0.4295678899999999,-0.3936152149999999,486
1747533126540,0.74181202,-0.0514960785,0.65334125,0.408262615,-0.50520168,-0.371510985,487
1747533126550,0.7435204,-0.041367702,0.605139935,0.35260255,-0.5067995750000001,-0.33369409,488
1747533126560,0.73607665,-0.005979402,0.592082885,0.255929795,-0.35020569,-0.27137612,489
1747533126570,0.7238738,0.023673553,0.5942794,0.19973709,-0.21358553,-0.22903186,490
1747533126580,0.67738088,0.0560111365,0.572680335,0.17390443,0.02876214,-0.0884169485,491
1747533126590,0.649924455,0.0741934029999999,0.54497985,0.13315806,0.175502315,0.0250337145,492
1747533126600,0.64040625,0.098599128,0.53912245,0.065247447,0.279365605,0.135554898,493
1747533126610,0.650412575,0.138380455,0.5747548,0.010120012,0.278832975,0.216248685,494
1747533126620,0.67188962,0.173402675,0.621247715,0.007190535,0.1776328449999999,0.2330266,495
1747533126630,0.69495302,0.19451363,0.649802415,0.04154531,0.03834952,0.18961707,496
1747533126640,0.7131352500000001,0.22038369,0.6676186,0.094009585,-0.117978035,0.12010857,497
1747533126650,0.7132573,0.260409075,0.65273112,0.14727281,-0.2713761249999999,0.0490021675,498
1747533126660,0.7081321,0.3014107,0.624298455,0.172839155,-0.429035265,-0.01091896,499
1747533126670,0.712037,0.331795835,0.615878465,0.15552861,-0.510261675,-0.038882151,500
1747533126680,0.7199688799999999,0.3551033,0.62600683,0.10759171,-0.4844290249999999,-0.040213732,501
1747533126690,0.72533816,0.36291313,0.635281,0.0793622,-0.4607269,-0.039947417,502
1747533126700,0.702152675,0.3636453,0.6989799800000001,0.071106402,-0.39947415,-0.0202400245,503
1747533126710,0.6790892749999999,0.35693373,0.7409578299999999,0.152599132,-0.41731734,0.038615838,504
1747533126720,0.67347595,0.34863578,0.7546250299999999,0.26844664,-0.4862932399999999,0.1115864574999999,505
1747533126730,0.6870211500000001,0.34851374,0.759140085,0.359526755,-0.57151438,0.161653885,506
1747533126740,0.71984685,0.361204715,0.757797735,0.4479437,-0.64768078,0.196807605,507
1747533126750,0.7743936,0.40000984,0.7313175000000001,0.527305885,-0.6823019,0.192812865,508
1747533126760,0.8221068,0.43771669,0.6920243,0.54328485,-0.6540723749999999,0.15925704,509
1747533126770,0.8362621699999999,0.448089105,0.67506235,0.4876247999999999,-0.585362795,0.12543489,510
1747533126780,0.82857439,0.44760099,0.6782351200000001,0.42743737,-0.50706587,0.09773801,511
1747533126790,0.77988497,0.4399132,0.69104812,0.41332262,-0.4133226,0.09853696,512
1747533126800,0.72350775,0.4340558399999999,0.6958072200000001,0.44022054,-0.35340148,0.133957005,513
1747533126810,0.7002002700000001,0.43356772,0.689705785,0.478570055,-0.34461306,0.187752865,514
1747533126820,0.701420545,0.42917466,0.683238265,0.523311165,-0.34061831,0.246342415,515
1747533126830,0.724239875,0.418192075,0.6821400200000001,0.575242815,-0.33635725,0.2980077399999999,516
1747533126840,0.7505980299999999,0.427344235,0.66737455,0.63676184,-0.332895145,0.33156356,517
1747533126850,0.76499743,0.44967547,0.624786555,0.68256819,-0.294012995,0.3539341099999999,518
1747533126860,0.76548555,0.46334267,0.5734125050000001,0.662594465,-0.2247708,0.366717295,519
1747533126870,0.7636551,0.473959185,0.532044795,0.5797701749999999,-0.15259913,0.368048875,520
1747533126880,0.76133655,0.480182665,0.509957615,0.48096691,-0.068709557,0.37044571,521
1747533126890,0.761214525,0.468345865,0.5145947,0.330764615,0.050067433,0.374973085,522
1747533126900,0.771709025,0.431859285,0.5448578,0.1800297,0.1304949,0.366983605,523
1747533126910,0.784278,0.385122315,0.612949765,0.095341173,0.0937432725,0.32197618,524
1747533126920,0.788549,0.36047253,0.66188323,0.061252706,0.051665325,0.2876214,525
1747533126930,0.7839119,0.32801294,0.76975656,0.11611383,-0.09427591,0.20719394,526
1747533126940,0.76121455,0.29823795,0.83784854,0.24554345,-0.25246766,0.14008227,527
1747533126950,0.694098805,0.22392252,0.79538259,0.4748416,-0.551806975,0.133424375,528
1747533126960,0.71838252,0.21757704,0.76353307,0.5797701749999999,-0.709732435,0.17470337,529
1747533126970,0.75218443,0.236003355,0.7423001,0.609597595,-0.7017429850000001,0.204530775,530
1747533126980,0.77524783,0.25796852,0.7000782,0.60613547,-0.60586918,0.229298175,531
1747533126990,0.8047788,0.25064681,0.62991175,0.4362258,-0.3296993549999999,0.2596582149999999,532
1747533127000,0.8274761,0.231122215,0.5963539,0.21172132,-0.069508507,0.271642445,533
1747533127010,0.84297373,0.207082575,0.6258848,0.1099885575,-0.028495825,0.24421188,534
1747533127020,0.86201023,0.17596528,0.6681067,0.0940095874999999,-0.113983298,0.18322548,535
1747533127030,0.882388965,0.15863721,0.69897995,0.15792545,-0.2998719549999999,0.085487468,536
1747533127040,0.90581843,0.1552204,0.6731099,0.289485615,-0.6823019,-0.1086569719999999,537
1747533127050,0.921682165,0.15033926,0.60257735,0.365652025,-1.00454435,-0.29854036,538
1747533127060,0.925587075,0.13020454,0.54937287,0.28815403,-1.005875915,-0.39095206,539
1747533127070,0.922414375,0.099697385,0.52887207,0.14860439,-0.845819965,-0.43542685,540
1747533127080,0.9188756,0.08444381,0.5269196,0.07829694,-0.7355651,-0.44101948,541
1747533127090,0.8522479300000001,0.015985749,0.5308245,-0.2902845599999999,0.02237055,-0.21518342,542
1747533127100,0.83687235,-0.0242836965,0.5691415,-0.4008057499999999,0.195476025,-0.127831737,543
1747533127110,0.82881845,-0.040635532,0.62466455,-0.4093278649999999,0.2029328799999999,-0.088150632,544
1747533127120,0.8334555,-0.024283696,0.653219225,-0.304133,0.045540058,-0.1107875,545
1747533127130,0.844560075,0.0112266335,0.608190655,-0.055393755,-0.407729977,-0.24234766,546
1747533127140,0.86445075,0.0065895455,0.494948115,0.067644292,-0.75207672,-0.3675162349999999,547
1747533127150,0.908503125,-0.044540446,0.407697645,-0.108656973,-0.6495450199999999,-0.40027311,548
1747533127160,0.94254912,-0.0874945199999999,0.412578775,-0.374440435,-0.35926045,-0.40559943,549
1747533127170,0.94913864,-0.10348027,0.43539813,-0.5113269,-0.18109496,-0.40107206,550
1747533127180,0.8709183,-0.2286816299999999,0.6655441,-0.7648599,0.68443238,-0.171507575,551
1747533127190,0.81088022,-0.2571142899999999,0.745594875,-0.63702817,0.74515248,-0.04793689825,552
1747533127200,0.7839119,-0.25894472,0.77195305,-0.4000068,0.6024070499999999,0.0572579617499999,553
1747533127210,0.7597502,-0.22965786,0.7597502,-0.26045716,0.479369,0.10173275,554
1747533127220,0.75999427,-0.16205402,0.6731099,0.1094559205,-0.211188685,0.0444747915,555
1747533127230,0.792819985,0.054668823,0.30702401,0.131027525,-0.5520733,-0.0921453785,556
1747533127240,0.7785426099999999,0.0679699425,0.18706987,-0.09321064,-0.47484162,-0.159789665,557
1747533127250,0.7479134249999999,0.038805103,0.1424074,-0.418116315,-0.259391895,-0.1659149349999999,558
1747533127260,0.71386745,-0.0261141245,0.248938395,-0.74888095,-0.015446333,-0.131293848,559
1747533127270,0.6958072,-0.0690682,0.35193056,-0.9033443,0.103863284,-0.108124346,560
1747533127280,0.66237134,-0.12032023,0.49031103,-1.1185277,0.3818973,-0.025566347,561
1747533127290,0.66993713,-0.18060236,0.6164886,-0.92278535,0.311323535,0.0087884316,562
1747533127300,0.68616697,-0.214282275,0.713745415,-0.64768079,0.187752865,0.0399474155,563
1747533127310,0.73143959,-0.207570695,0.609655,-0.299871945,0.0985369624999999,0.156327555,564
1747533127320,0.77048874,-0.19988288,0.503002,-0.12250541,0.080960095,0.24980451,565
1747533127330,0.85956967,-0.17547716,0.3939084,-0.098004326,0.18322548,0.32490566,566
1747533127340,0.934861285,-0.143993775,0.33289408,-0.161387563,0.29401299,0.2878877199999999,567
1747533127350,1.02443025,-0.12202862,0.26614443,-0.26924559,0.39547944,0.18455707,568
1747533127360,1.0028312,-0.153512005,0.242592915,-0.370445715,0.21225395,-0.0034621099999999,569
1747533127370,0.9486505,-0.196100005,0.210987495,-0.460194245,-0.139283325,-0.1438107049999999,570
1747533127380,0.94401345,-0.23954219,0.2058622949999999,-0.5225122200000001,-0.426904735,-0.16218651,571
1747533127390,0.97952385,-0.278103235,0.236491475,-0.56565545,-0.58562913,-0.155262295,572
1747533127400,1.0379755,-0.283838585,0.35071026,-0.5512743499999999,-0.62131548,-0.15286545,573
1747533127410,1.074584,-0.276638895,0.43808277,-0.3813646499999999,-0.44554685,-0.187486545,574
1747533127420,1.06225915,-0.301776795,0.389759435,-0.2396845,-0.2828277,-0.21784659,575
1747533127430,1.0384636,-0.348391725,0.29994635,-0.24048344,0.03621899,-0.195209715,576
1747533127440,1.007468335,-0.38951537,0.231244235,-0.37657098,0.217846585,-0.15180018,577
1747533127450,0.98794377,-0.40635532,0.208913,-0.46658584,0.294013,-0.12783173,578
1747533127460,0.95072503,-0.4344219099999999,0.32776889,-0.8428905,0.45167213,-0.084688527,579
1747533127470,0.95426385,-0.447723015,0.50593066,-0.9454222,0.524110135,-0.114782242,580
1747533127480,0.95389775,-0.4698102,0.6199053800000001,-0.85940208,0.5826996600000001,-0.1504686,581
1747533127490,0.90838108,-0.480670765,0.67786898,-0.7193198000000001,0.7126619249999999,-0.13901701,582
1747533127500,0.86982006,-0.47981656,0.6877533,-0.50253849,0.91932325,0.015712655,583
1747533127510,0.753038645,-0.505198515,0.70654572,-0.256196095,1.02212125,0.20612868,584
1747533127520,0.723629745,-0.473227015,0.68970579,-0.0386158325,0.943558,0.319046705,585
1747533127530,0.7285108849999999,-0.43368973,0.66200532,0.2002697225,0.70760195,0.397077325,586
1747533127540,0.76450935,-0.37633628,0.6305219,0.4077299749999999,0.35579835,0.3978762799999999,587
1747533127550,0.846634635,-0.28884175,0.57194815,0.593884945,-0.19441075,0.2375539749999999,588
1747533127560,0.93925435,-0.22611904,0.51374051,0.69774824,-0.5640575,0.10066749,589
1747533127570,0.9698835,-0.21599068,0.49592432,0.74248934,-0.9086706,-0.08522116,590
1747533127580,1.0301656,-0.196100005,0.45236011,0.742489335,-1.13637085,-0.33103092,591
1747533127590,1.016376335,-0.21733299,0.42014456,0.68842715,-1.05328023,-0.43436158,592
1747533127600,0.9840388,-0.2565041799999999,0.421730935,0.51825113,-0.6535397599999999,-0.45167214,593
1747533127610,0.95743659,-0.28810959,0.4748133599999999,0.367249915,-0.2087918349999999,-0.397609965,594
1747533127620,0.931078425,-0.31410168,0.53265493,0.351270965,0.043143215,-0.315318275,595
1747533127630,0.92570918,-0.336188865,0.57902583,0.3829625749999999,0.2514024099999999,-0.22716764,596
1747533127640,0.9263193,-0.338385375,0.6179529699999999,0.510528,0.396012055,-0.143011755,597
1747533127650,0.93644762,-0.3336262399999999,0.6192952700000001,0.672980825,0.41145839,-0.1131843499999999,598
1747533127660,0.945965825,-0.3309416149999999,0.58695765,0.78616515,0.31025827,-0.154729665,599
1747533127670,0.94352525,-0.32557237,0.5684093,0.8383631,0.24767399,-0.18269286,600
1747533127680,0.9286378,-0.2849368249999999,0.54497985,0.9251822,-0.02716425,-0.309991955,601
1747533127690,0.89202925,-0.25272127,0.53277698,0.947286435,-0.16724652,-0.412257335,602
1747533127700,0.83906883,-0.20927909,0.5283839800000001,0.954743265,-0.1848233799999999,-0.45300371,603
1747533127710,0.8125886,-0.185483505,0.51349647,0.96086853,-0.091879059,-0.41838261,604
1747533127720,0.79318607,-0.1784058399999999,0.488480585,0.940628525,0.060986391,-0.34807515,605
1747533127730,0.7642652700000001,-0.15936938,0.486406105,0.901213725,0.20240025,-0.25566347,606
1747533127740,0.7493777699999999,-0.121174425,0.50117156,0.90813795,0.29374668,-0.151001237,607
1747533127750,0.7606044,-0.09603653,0.4881144899999999,0.942226425,0.32810146,-0.079628517,608
1747533127760,0.76975653,-0.07834238,0.4372285449999999,0.929975875,0.32170988,-0.05486112,609
1747533127770,0.773661465,-0.042343933,0.381705525,0.87351685,0.308394065,-0.042077945,610
1747533127780,0.7846440699999999,-0.0046370875,0.354859235,0.78802935,0.279099285,-0.04713795,611
1747533127790,0.800751835,0.0429540755,0.394030435,0.6945524000000001,0.21065605,-0.1115864499999999,612
1747533127800,0.8041685999999999,0.083955693,0.4613902399999999,0.62238075,0.100667492,-0.2024002449999999,613
1747533127810,0.78122722,0.096280586,0.49507014,0.600010215,0.030626353,-0.25140242,614
1747533127820,0.76292294,0.099087246,0.5047104,0.60507023,0.024501082,-0.2657835,615
1747533127830,0.66859484,0.14619029,0.509469475,0.6130597,0.0151800185,-0.222640265,616
1747533127840,0.62100369,0.17718556,0.49897504,0.5797701799999999,-0.091346425,-0.1510012325,617
1747533127850,0.61990542,0.19671014,0.513130365,0.55526908,-0.248472935,-0.0753674625,618
1747533127860,0.6559038500000001,0.212207775,0.54375955,0.6087986,-0.369913085,-0.035420045,619
1747533127870,0.6804316,0.21745501,0.5515694,0.6535397,-0.43036684,-0.02609898,620
1747533127880,0.7545029750000001,0.24539955,0.4689559949999999,0.66286081,-0.59095545,-0.0319579345,621
1747533127890,0.8040466,0.27468642,0.3956167849999999,0.534230135,-0.6492787,-0.0548611185,622
1747533127900,0.8122225249999999,0.296163465,0.37914292,0.376038365,-0.5984123,-0.0759000924999999,623
1747533127910,0.8047788,0.31263733,0.397325185,0.19947077,-0.4948153199999999,-0.0876180045,624
1747533127920,0.7659737,0.316420215,0.431371185,0.04660532,-0.37124467,-0.085753792,625
1747533127930,0.70837618,0.306047785,0.46309865,-0.129695945,-0.20399815,-0.04101268335,626
1747533127940,0.662005305,0.29628551,0.49336175,-0.28842035,-0.070041137,0.02982740465,627
1747533127950,0.632718445,0.290184075,0.5289941,-0.352868855,-0.0290284559999999,0.1017327579999999,628
1747533127960,0.62503064,0.2877435,0.5464442,-0.37390783,-0.013848438,0.14221281,629
1747533127970,0.6654221149999999,0.27981162,0.5812223249999999,-0.39521311,0.024767398,0.305464575,630
1747533127980,0.6980037299999999,0.293356805,0.628203375,-0.3462109399999999,-0.029294775,0.35952675,631
1747533127990,0.7043492,0.30238694,0.6487042,-0.30040458,-0.08735169,0.3536678,632
1747533128000,0.69812575,0.353150845,0.6344268,-0.153131765,-0.23995082,0.34487937,633
1747533128010,0.690438,0.36803833,0.61795294,-0.1123854,-0.28176245,0.34674358,634
1747533128020,0.68043162,0.38341394,0.59086257,-0.1014664399999999,-0.3105245749999999,0.35952675,635
1747533128030,0.641992585,0.489456785,0.39195594,-0.342482525,-0.1523328165,0.620516525,636
1747533128040,0.671767585,0.526309465,0.379997135,-0.51345749,0.0724379835,0.7390272,637
1747533128050,0.6867771,0.5442477,0.38512233,-0.5992113,0.19547603,0.79628515,638
1747533128060,0.72094506,0.5864696,0.41904628,-0.83569995,0.7872304649999999,0.94275905,639
1747533128070,0.75169635,0.6360132,0.4825012,-0.9358348,1.109473,1.0018812,640
1747533128080,0.74937776,0.6510227150000001,0.489090725,-1.0618024,1.4168017,1.04688865,641
1747533128090,0.7592620800000001,0.64431115,0.507883115,-1.1496867000000002,1.51187655,1.04475815,642
1747533128100,0.7757359699999999,0.639796085,0.5554742749999999,-1.19762355,1.4927018,1.00960445,643
1747533128110,0.84028909,0.66676441,0.612949785,-1.14143085,1.2498215,0.8724516,644
1747533128120,0.92107204,0.70605761,0.6316201699999999,-1.0532802499999998,0.93956325,0.67883975,645
1747533128130,0.95694849,0.7313175350000001,0.60684836,-1.0266486499999998,0.75394095,0.50679955,646
1747533128140,0.960853395,0.75303863,0.565968775,-1.0588729,0.6210492000000001,0.32650356,647
1747533128150,0.95597225,0.76219076,0.5418071,-1.0940266,0.5683186,0.23489082,648
1747533128160,0.9437694,0.729975225,0.563772225,-1.2703278999999998,0.5968144200000001,0.0537958554999999,649
1747533128170,0.91728915,0.7055694800000001,0.644921265,-1.3590111,0.6942861,-0.0332895145,650
1747533128180,0.85456645,0.7008103800000001,0.759872265,-1.3185311,0.7430219499999999,-0.0479369,651
1747533128190,0.7638992,0.703373,0.8877583,-1.17685095,0.716124,-0.01651159825,652
1747533128200,0.6822620500000001,0.709474425,1.0366332,-0.7611314499999999,0.448209995,0.11211908175,653
1747533128210,0.6865330000000001,0.6759165549999999,1.1148535000000002,-0.202133925,0.0511327,0.243679245,654
1747533128220,0.7739055,0.59623185,1.05713395,0.211987625,-0.208259195,0.283626665,655
1747533128230,0.87201657,0.508249195,0.933518985,0.50440273,-0.36378781,0.2974751,656
1747533128240,0.96329402,0.437716665,0.795870735,0.67191556,-0.4692490099999999,0.29933931,657
1747533128250,1.07617045,0.3706009249999999,0.66298155,0.71266193,-0.5331648499999999,0.2695119,658
1747533128260,1.1643971,0.325206285,0.59562173,0.61013023,-0.55500277,0.0982706415,659
1747533128270,1.1822133,0.304827515,0.599648655,0.46046056,-0.52251223,-0.1486043885,660
1747533128280,1.1609803,0.266998635,0.608190625,0.35446675,-0.438356325,-0.343814095,661
1747533128290,1.1021625,0.214648355,0.61429205,0.2372876599999999,-0.31265512,-0.51212589,662
1747533128300,0.97391042,0.137770315,0.6462635999999999,0.1278317375,-0.142479123,-0.6085323499999999,663
1747533128310,0.88324314,0.08981306,0.6784792,0.084155895,-0.046871636,-0.6306366,664
1747533128320,0.84553632,0.0583296795,0.7063017199999999,0.1512675524999999,-0.0268979275,-0.58722705,665
1747533128330,0.8025822499999999,0.024283697,0.7340021999999999,0.2692455849999999,-0.0181094955,-0.520115365,666
1747533128340,0.80856167,0.0298970125,0.697637645,0.3779025649999999,-0.037550571,-0.482831105,667
1747533128350,0.827354105,0.0460047915,0.644921265,0.425839465,-0.033822146,-0.47697215,668
1747533128360,0.8405331650000001,0.0641870565,0.6161225,0.387756255,-0.0010652644999999,-0.498810085,669
1747533128370,0.8517597800000001,0.081881205,0.60648223,0.35952675,0.019707393,-0.51292485,670
1747533128380,0.8542003499999999,0.097012755,0.6138039550000001,0.253266615,0.085221158,-0.579503875,671
1747533128390,0.81588335,0.12544543,0.6269830750000001,0.17630127,0.176833905,-0.5997438850000001,672
1747533128400,0.76133658,0.153267955,0.643823025,0.12570121,0.270044535,-0.5850965100000001,673
1747533128410,0.7282668299999999,0.16510473,0.6606629500000001,0.130228575,0.313720375,-0.539822775,674
1747533128420,0.70910832,0.17535513,0.675428425,0.158458085,0.33076461,-0.479369,675
1747533128430,0.70361704,0.184019155,0.68360435,0.2087918349999999,0.307595105,-0.410126815,676
1747533128440,0.72912102,0.21086545,0.69336663,0.327302505,0.191481285,-0.3206446,677
1747533128450,0.76768205,0.25455171,0.70398313,0.464188995,0.044208476,-0.268979265,678
1747533128460,0.7857423,0.29262464,0.6995901200000001,0.5603291100000001,-0.059388494,-0.283094015,679
1747533128470,0.7907455,0.31068486,0.69239044,0.60773337,-0.10972224,-0.29561087,680
1747533128480,0.79623675,0.352052585,0.636623335,0.6711166,-0.21038973,-0.33502567,681
1747533128490,0.77219713,0.379997135,0.57792757,0.68363345,-0.33742252,-0.382696255,682
1747533128500,0.74266621,0.40159619,0.535583645,0.667121875,-0.39228364,-0.369380445,683
1747533128510,0.7242398800000001,0.41587353,0.528750025,0.677774525,-0.414920515,-0.321443545,684
1747533128520,0.7141115,0.42441553,0.5256993,0.6892261,-0.42344263,-0.29188246,685
1747533128530,0.70544747,0.45016359,0.51398455,0.720118775,-0.4455468649999999,-0.18295917,686
1747533128540,0.7077659949999999,0.47469135,0.52374685,0.7350324850000001,-0.48709218,-0.123570678,687
1747533128550,0.708376125,0.49677855,0.5392445,0.76352832,-0.54328489,-0.0852211579999999,688
1747533128560,0.70349498,0.5012936,0.524234965,0.782969385,-0.595482855,-0.072437985,689
1747533128570,0.70068836,0.50165965,0.4993411299999999,0.7755125,-0.66818713,-0.062584287,690
1747533128580,0.70544748,0.504832375,0.4865281449999999,0.7571367,-0.75793565,-0.061252702,691
1747533128590,0.7124031,0.52423495,0.4693220999999999,0.77071885,-0.8897621499999999,-0.07084008,692
1747533128600,0.712037025,0.548152575,0.43417783,0.7864315,-0.97365175,-0.07084008,693
1747533128610,0.707277895,0.5588911,0.39207795,0.75234305,-0.93263905,-0.0492684765,694
1747533128620,0.70459324,0.5618198,0.37169918,0.7233146,-0.8942895,-0.034621093,695
1747533128630,0.71240309,0.550715175,0.3441207149999999,0.508663775,-0.6045375749999999,0.0830906285,696
1747533128640,0.7368088150000001,0.51996395,0.3796310499999999,0.342482525,-0.38935415,0.178698115,697
1747533128650,0.7614586,0.503978195,0.4445502999999999,0.2956108899999999,-0.297208785,0.2074602549999999,698
1747533128660,0.77170898,0.49995126,0.495680275,0.313720375,-0.25007084,0.20506341,699
1747533128670,0.75206241,0.495924325,0.5104457250000001,0.36192359,-0.256995055,0.1957423449999999,700
1747533128680,0.71081673,0.49397187,0.461146175,0.339553045,-0.33289515,0.2000034,701
1747533128690,0.68750925,0.495924325,0.4220970149999999,0.2388855549999999,-0.395213115,0.21172131,702
1747533128700,0.6867771,0.49616838,0.42661208,0.18642128,-0.40053943,0.21731395,703
1747533128710,0.7227755499999999,0.47847423,0.467491675,0.0513990105,-0.292681405,0.24394556,704
1747533128720,0.7382732,0.4737151,0.4842096,0.010652645,-0.24074976,0.24820662,705
1747533128730,0.7854982500000001,0.4229512199999999,0.568653385,-0.08708537,-0.0095873805,0.195209715,706
1747533128740,0.7879388300000001,0.3865866799999999,0.60343155,-0.0735032485,-0.018908444,0.1459412299999999,707
1747533128750,0.777444365,0.34607318,0.64211463,-0.004527375,-0.17896442,0.07882957,708
1747533128760,0.7576757350000001,0.31349154,0.663957745,0.1038632835,-0.430100525,0.0340884635,709
1747533128770,0.76536355,0.2826183,0.635158985,0.22397185,-0.7022756,0.0905474734999999,710
1747533128780,0.81612743,0.26687661,0.57951394,0.27537086,-0.81386205,0.200802345,711
1747533128790,0.88824636,0.26651052,0.54778652,0.22876554,-0.68656295,0.280430875,712
1747533128800,0.92814976,0.264314,0.536926,0.19441076,-0.5949502,0.31478566,713
1747533128810,0.98367274,0.2618734299999999,0.5175233850000001,0.0910801099999999,-0.28815404,0.35579832,714
1747533128820,0.99453324,0.2608972,0.511544,0.06231797,-0.1933455,0.35739622,715
1747533128830,0.939254345,0.2549177999999999,0.495924325,0.117978038,-0.389620485,0.20612868,716
1747533128840,0.92143816,0.265534285,0.45626505,0.18535602,-0.67724189,0.129962267,717
1747533128850,0.93876621,0.278591335,0.3850003199999999,0.202400255,-0.8836368649999999,0.0711064005,718
1747533128860,0.95597225,0.28432667,0.34119204,0.18695392,-0.9438243,0.047404267,719
1747533128870,1.0311419,0.24796216,0.23356278,-0.283893,-0.5566007,-0.022370555,720
1747533128880,1.03846355,0.190120595,0.285180895,-0.7651262,0.2298308085,0.0101200129999999,721
1747533128890,0.9980721,0.126665708,0.37011281,-1.00134863,0.7006777,0.073769565,722
1747533128900,0.9715919,0.090789296,0.4234393,-1.0881677,0.8857674,0.10972224,723
1747533128910,0.877873895,0.042343933,0.6195393499999999,-0.7368967000000001,0.29055087,0.049002165,724
1747533128920,0.84565837,0.069556316,0.67286585,-0.23542345,-0.68496508,-0.11478224,725
1747533128930,0.8509056500000001,0.113608655,0.57963595,0.0292947729999999,-1.27645315,-0.2556634599999999,726
1747533128940,0.86066793,0.141675235,0.43332362,0.1073253929999999,-1.5411713,-0.34807515,727
1747533128950,0.86933196,0.15107143,0.35534734,0.09161274,-1.5792545,-0.37603834,728
1747533128960,0.91472652,0.07773223,0.25979894,-0.48203215,-0.8346347000000001,-0.308660375,729
1747533128970,0.941572845,0.0336798985,0.34668332,-0.9062737,-0.180828645,-0.244744505,730
1747533128980,0.95060295,0.015375607,0.40049794,-0.9938917,-0.00479369,-0.23435818,731
1747533128990,0.88604985,-0.05235028,0.54095285,-0.8554073600000001,0.162719145,-0.23462449,732
1747533129000,0.8546885,-0.07370529,0.562796,-0.76592517,0.11930962,-0.22370553,733
1747533129010,0.79660285,-0.02330746765,0.45748531,-0.34248253,-0.2191781649999999,-0.0990695955,734
1747533129020,0.8027043,-0.0061014313,0.41148052,-0.30999196,-0.2428803,-0.075101145,735
1747533129030,0.86518294,-0.0046370877,0.3414361,-0.37710363,-0.21411815,-0.08841695,736
1747533129040,0.960853375,-0.026236154,0.35864212,-0.56139435,-0.170708625,-0.246342405,737
1747533129050,1.028091175,-0.074193405,0.43491003,-0.58429755,-0.13502227,-0.50067429,738
1747533129060,1.03992795,-0.1284961475,0.47542353,-0.51984905,-0.063383235,-0.7041398,739
1747533129070,0.99355705,-0.14936304,0.443452,-0.455666865,0.050866375,-0.70254192,740
1747533129080,0.93583757,-0.14643434,0.40672138,-0.410925765,0.188818115,-0.63037027,741
1747533129090,0.870918305,-0.131790905,0.37597018,-0.37736995,0.27830033,-0.51958276,742
1747533129100,0.7989213850000001,-0.112998503,0.35607952,-0.3075951249999999,0.20692762,-0.35127096,743
1747533129110,0.75950615,-0.1025040409999999,0.349489975,-0.199470775,0.01438107,-0.22050975,744
1747533129120,0.7592621,-0.102259986,0.34778157,-0.08841695,-0.16804546,-0.17496969,745
1747533129130,0.7480355,-0.113120535,0.3081222799999999,0.01571265,-0.349406725,-0.117445405,746
1747533129140,0.7536488,-0.13777032,0.25931082,0.063915865,-0.48203215,-0.05139901,747
1747533129150,0.78964723,-0.16425053,0.21110951,-0.032224255,-0.4777711,0.030360037,748
1747533129160,0.8441940299999999,-0.187069885,0.19512377,-0.18322549,-0.34168358,0.098803277,749
1747533129170,0.85310212,-0.20976721,0.1913408899999999,-0.23702134,-0.24873926,0.11558119,750
1747533129180,0.85261402,-0.26040908,0.208790975,-0.41385524,0.02689793,0.286023505,751
1747533129190,0.8883684000000001,-0.311661095,0.261629375,-0.4561995,0.124635945,0.400273115,752
1747533129200,0.9358375,-0.326426565,0.29640754,-0.388555215,0.138750695,0.541686975,753
1747533129210,0.9898962,-0.323863965,0.285913065,-0.307062475,0.0529969055,0.65380607,754
1747533129220,1.0174747,-0.32117933,0.26797485,-0.29241508,-0.011717909,0.67484504,755
1747533129230,1.13779485,-0.261629365,0.31153908,-0.32810145,-0.13848438,0.5243764200000001,756
1747533129240,1.20771725,-0.227827435,0.36791631,-0.32863409,-0.25007083,0.235157125,757
1747533129250,1.2250454,-0.2346610499999999,0.39842346,-0.308660375,-0.35579833,-0.06631271,758
1747533129260,1.1798948,-0.2587007,0.3995217199999999,-0.28788771,-0.42104578,-0.21438447,759
1747533129270,1.1362085,-0.275906735,0.40867385,-0.2671150599999999,-0.44661212,-0.306263535,760
1747533129280,1.10875205,-0.2872553949999999,0.436008255,-0.23755398,-0.40586576,-0.354733065,761
1747533129290,1.061649,-0.2917704599999999,0.4904330249999999,-0.171507585,-0.252201365,-0.362189915,762
1747533129300,1.00588195,-0.29518725,0.52972625,-0.022636875,0.128896995,-0.286289825,763
1747533129310,0.96414815,-0.2939669649999999,0.528383935,0.1387506949999999,0.50946272,-0.154729663,764
1747533129320,0.9418169,-0.28994003,0.52350277,0.19760656,0.6247776,-0.092145376,765
1747533129330,0.9259532,-0.279689625,0.510445715,0.25566347,0.7041398000000001,-0.023968451,766
1747533129340,0.918875565,-0.2340509,0.416361675,0.44741107,0.81199785,0.204264455,767
1747533129350,0.966222715,-0.1875579849999999,0.38060728,0.5110606200000001,0.629837625,0.22663501,768
1747533129360,1.0222338,-0.14155319,0.363889355,0.5536712,0.373108875,0.164849675,769
1747533129370,1.0431006,-0.1300825,0.35974038,0.5651228,0.2775014,0.11717909,770
1747533129380,1.0965492,-0.1330112,0.33313814,0.57417756,0.06338324,-0.054328486,771
1747533129390,1.1044811,-0.142773495,0.32545035,0.5137238,-0.128897005,-0.25619611,772
1747533129400,1.0499343,-0.11629328,0.39586085,0.5190501000000001,-0.230363445,-0.381098365,773
1747533129410,0.9792797,-0.092375668,0.4778641,0.6034723,-0.286556135,-0.458596345,774
1747533129420,0.9358375,-0.092009583,0.49848694,0.7283745699999999,-0.307861425,-0.46578688,775
1747533129430,0.88043655,-0.08847075,0.422341065,0.8628642200000001,-0.326237245,-0.44448159,776
1747533129440,0.8286964,-0.074681515,0.291770435,0.9286443,-0.34168358,-0.3203782899999999,777
1747533129450,0.83199113,-0.0601601125,0.213550085,0.86126632,-0.32810146,-0.169643365,778
1747533129460,0.860667855,-0.0474691354999999,0.1865817599999999,0.720651385,-0.261522425,-0.09560748,779
1747533129470,0.8745791599999999,-0.02745644,0.1957339049999999,0.5805691150000001,-0.15153387,-0.037550571,780
1747533129480,0.8981306849999999,-0.00219651475,0.26492414,0.425839465,0.0631169199999999,0.0101200125,781
1747533129490,0.90520832,0.02989701375,0.3414361,0.33768883,0.21358553,0.030360037,782
1747533129500,0.89032084,0.049543623,0.36340126,0.33768883,0.21358553,0.030360037,783
1747533129510,0.83211317,0.108727505,0.41880224,0.293746665,0.57790595,0.035952675,784
1747533129520,0.8151512,0.12178457,0.42954078,0.304133,0.6135923,0.03834952,785
1747533129530,0.7307074,0.12202863,0.39024755,0.350472,0.58909124,0.046339005,786
1747533129540,0.750109985,0.1139747325,0.324108035,0.43809,0.1446096485,0.1083906555,787
1747533129550,0.799165435,0.108483445,0.2783473,0.41705103,-0.0058589565,0.1193096174999999,788
1747533129560,0.8297946,0.105676785,0.25674823,0.39254996,-0.05912218,0.11984225,789
1747533129570,0.8944698,0.11275445,0.24820623,0.3009372,-0.05912218,0.10066749,790
1747533129580,0.8944698,0.11275445,0.24820623,0.3009372,-0.05912218,0.10066749,791
1747533129590,0.89654428,0.16742327,0.34180218,0.19281286,0.1829591599999999,-0.00745685,792
1747533129600,0.860301765,0.22733932,0.444916365,0.11984225,0.45833003,-0.119309618,793
1747533129610,0.78305766,0.228803665,0.43466595,0.1850897,0.48043427,-0.0990695955,794
1747533129620,0.752794575,0.21806514,0.39659301,0.2375539749999999,0.4114583899999999,0.0023968425,795
1747533129630,0.7614586,0.2111095,0.37828872,0.249271885,0.34408042,0.11611382,796
1747533129640,0.8252795900000001,0.203421715,0.34643927,0.2197108,0.33902042,0.18002969,797
1747533129650,0.8893446199999999,0.194635655,0.33496858,0.170176,0.37044572,0.215449735,798
1747533129660,0.942060965,0.200248965,0.35534735,0.0444747885,0.48549429,0.17630127,799
1747533129670,0.95133513,0.2290477249999999,0.41111442,-0.0751011465,0.5933523199999999,0.08602011,800
1747533129680,0.922292365,0.249792595,0.46834585,-0.092411695,0.6095976000000001,-0.0053263224999999,801
1747533129690,0.87555538,0.250890845,0.507395,-0.0575242825,0.5797701850000001,-0.0905474775,802
1747533129700,0.8188120299999999,0.2425928949999999,0.5155708999999999,0.0013315804999999,0.518517465,-0.13635385,803
1747533129710,0.7681701999999999,0.231610325,0.46834585,0.0612527055,0.4332963199999999,-0.1041296049999999,804
1747533129720,0.7584078999999999,0.2206277649999999,0.4156295,0.073236931,0.373108875,-0.0346210972499999,805
1747533129730,0.7913555999999999,0.21684488,0.40550112,0.0399474175,0.348607785,0.00958737975,806
1747533129740,0.8139309,0.21843125,0.40513504,0.004261058,0.3257046,0.0260989785,807
1747533129750,0.845536295,0.23649148,0.4125787749999999,-0.044208476,0.308660375,0.0093210635,808
1747533129760,0.83223522,0.250158675,0.436496375,-0.12490226,0.294279305,-0.049534798,809
1747533129770,0.8158834,0.25650415,0.4554108,-0.198938135,0.2764361199999999,-0.09800433,810
1747533129780,0.77927479,0.24661985,0.493239715,-0.2295644849999999,0.24181503,-0.1086569725,811
1747533129790,0.746937185,0.24478943,0.52801785,-0.22690133,0.18908444,-0.1022653875,812
1747533129800,0.693610665,0.252599245,0.547176335,-0.1552623,0.0466053149999999,-0.02396845,813
1747533129810,0.6638357,0.260165,0.54815257,-0.09427591,-0.06551377,0.04474111,814
1747533129820,0.6455314,0.27651685,0.52423495,-0.013848438,-0.23062976,0.13369069,815
1747533129830,0.6389419,0.30800024,0.49031103,0.0572579665,-0.44900897,0.283892975,816
1747533129840,0.6493143,0.369136585,0.413921105,0.040213736,-0.50653327,0.3989415349999999,817
1747533129850,0.68836345,0.39012552,0.38841711,-0.080427464,-0.44501424,0.55447016,818
1747533129860,0.7294871,0.400864025,0.412822845,-0.188285495,-0.34248252,0.69029138,819
1747533129870,0.7409578,0.40489095,0.43832684,-0.20080236,-0.30200246,0.72491246,820
1747533129880,0.73558855,0.46151224,0.49177536,-0.12783173,-0.23915187,0.799481,821
1747533129890,0.7060576,0.51593703,0.4803047,-0.010120012,-0.18322548,0.89535475,822
1747533129900,0.6784792,0.5559624,0.42197496,0.1041296,-0.07004114,1.067395,823
1747533129910,0.72594827,0.6504125999999999,0.24686391,-0.0007989499999999,0.10279802,1.2554142,824
1747533129920,0.75438094,0.6784792,0.23795582,-0.11930962,0.22956449,1.3821807,825
1747533129930,0.8053889,0.72533816,0.2689511,-0.3291667299999999,0.32623723,1.4138723,826
1747533129940,0.9451117,0.8108801800000001,0.34033784,-0.48469533,0.380832045,1.2575447,827
1747533129950,1.0205254,0.8884903749999999,0.379631055,-0.6111954749999999,0.39521313,1.0359696500000002,828
1747533129960,1.03480275,0.887392105,0.37401773,-0.6974819,0.3781689,0.866326325,829
1747533129970,1.008444565,0.8422415299999999,0.36864847,-0.802410455,0.36831519,0.71905351,830
1747533129980,0.95475194,0.8416314149999999,0.41916832,-0.8820389799999999,0.34061831,0.637560785,831
1747533129990,0.91082165,0.837482415,0.493971865,-0.892158985,0.2990729949999999,0.61891865,832
1747533130000,0.8819008749999999,0.8279641799999999,0.61368194,-0.730238765,0.163251774,0.644485,833
1747533130010,0.88092465,0.83601808,0.730097225,-0.4577973899999999,-0.038882151,0.688693475,834
1747533130020,0.8942258,0.8429737,0.7658516,-0.33076462,-0.1272991,0.70840085,835
1747533130030,0.95670444,0.8417535,0.7734174,-0.048469532,-0.25086978,0.7121293,836
1747533130040,1.05908642,0.7732954000000001,0.67384205,0.190682344,-0.186953913,0.59281968,837
1747533130050,1.1842878,0.66871685,0.54034273,0.42104578,-0.0175768659999999,0.40852893,838
1747533130060,1.21857785,0.5972081,0.483111305,0.3752394,0.178964427,0.294545625,839
1747533130070,1.2291943,0.5407088499999999,0.454556615,0.2870887649999999,0.35499938,0.1978728699999999,840
1747533130080,1.2233369,0.5006834649999999,0.46114614,0.1810949499999999,0.49108691,0.0982706475,841
1747533130090,1.1979549500000002,0.435764225,0.5230146499999999,0.067910605,0.5406217,-0.1017327525,842
1747533130100,1.1430421000000002,0.36474356,0.581710435,0.011984225,0.512125885,-0.323307755,843
1747533130110,1.078611,0.31605415,0.5953776550000001,0.02263687,0.438356325,-0.451672135,844
1747533130120,1.048714,0.2923806,0.60038084,0.03089267,0.39148468,-0.50653327,845
1747533130130,0.966344675,0.24686389,0.60477385,0.03834952,0.23355923,-0.59841235,846
1747533130140,0.91472655,0.22611904,0.62564075,0.0684432425,0.128630688,-0.6242449999999999,847
1747533130150,0.886782,0.2141602349999999,0.64809402,0.1265001525,0.068709558,-0.621581825,848
1747533130160,0.89874083,0.217577035,0.649436355,0.176567585,0.082557993,-0.610396525,849
1747533130170,0.922658415,0.230268025,0.639185965,0.2093244699999999,0.132625423,-0.6202502,850
1747533130180,0.943037215,0.238077855,0.61941731,0.21917816,0.207460255,-0.65194182,851
1747533130190,0.93303088,0.244667395,0.6202715050000001,0.2149171,0.285757185,-0.704139795,852
1747533130200,0.8898327500000001,0.252599255,0.641504495,0.23595608,0.328367755,-0.7331682749999999,853
1747533130210,0.84517027,0.254063595,0.6552937050000001,0.31585092,0.327036185,-0.70919982,854
1747533130220,0.80978194,0.254063595,0.662981485,0.37071204,0.32117724,-0.68816084,855
1747533130230,0.78903712,0.25906678,0.66676438,0.5302353949999999,0.245277135,-0.5816344,856
1747533130240,0.78696265,0.30104463,0.64028418,0.65194188,0.160588615,-0.49508167,857
1747533130250,0.7939182499999999,0.35864213,0.58207652,0.80986735,0.0716390365,-0.37736994,858
1747533130260,0.81319875,0.387806965,0.51532687,0.9020127,0.01225054095,-0.27803403,859
1747533130270,0.86847772,0.407453565,0.4582175,0.81279678,-0.07137271555,-0.2428803,860
1747533130280,0.92021787,0.42673409,0.4395471199999999,0.67990503,-0.202400235,-0.250603465,861
1747533130290,0.9442575,0.434788005,0.45431256,0.62397865,-0.321177225,-0.294279305,862
1747533130300,0.954996,0.43442193,0.46639338,0.6130597,-0.37763625,-0.32011196,863
1747533130310,0.918997585,0.41758193,0.500805465,0.6745787,-0.5997439,-0.37870151,864
1747533130320,0.90130347,0.41416514,0.50788313,0.7089335,-0.6791061,-0.39041942,865
1747533130330,0.8533461849999999,0.42600192,0.4718846949999999,0.82904205,-0.816791525,-0.34221621,866
1747533130340,0.79648082,0.445648535,0.408429815,0.9491506,-0.95447695,-0.294013,867
1747533130350,0.7863524550000001,0.46395281,0.353760985,0.9800433,-0.912398985,-0.20106867,868
1747533130360,0.7894031850000001,0.486284045,0.29774985,0.9257148,-0.78430095,-0.134223325,869
1747533130370,0.816249475,0.5125202200000001,0.236979595,0.7302387699999999,-0.48948904,-0.077231675,870
1747533130380,0.843949945,0.5324109,0.2020794,0.50227219,-0.196008663,-0.0615190225,871
1747533130390,0.84504819,0.54278333,0.202445485,0.34168358,-0.0388821514999999,-0.0841558925,872
1747533130400,0.84102124,0.54766446,0.20574026,0.26312032,0.027164243,-0.10013486,873
1747533130410,0.81466305,0.53936654,0.2169669,0.11984225,0.12357068,-0.13741912,874
1747533130420,0.742666225,0.475545555,0.27456441,-0.07669904335,0.13182648,-0.151267555,875
1747533130430,0.7102066,0.41721587,0.33130771,-0.17283916,0.0817590465,-0.1193096174999999,876
1747533130440,0.70020025,0.384756255,0.38097335,-0.19813919,0.018908443,-0.0577905965,877
1747533130450,0.6960513,0.37023485,0.4080637,-0.20240025,-0.018109497,-0.018642128,878
1747533130460,0.7305853499999999,0.32874512,0.46822384,-0.16484967,-0.1272991,0.062051656,879
1747533130470,0.7764681,0.3066579299999999,0.49055508,-0.0865527325,-0.286822455,0.0838895775,880
1747533130480,0.8157613,0.307268065,0.47774206,-0.0146473864,-0.4442152849999999,0.065247448,881
1747533130490,0.84028905,0.3109289349999999,0.44723492,-0.0082557994,-0.49854375,0.0274305595,882
1747533130500,0.8466345500000001,0.31105096,0.4216089,-0.0444747905,-0.5057343000000001,-0.0066579035,883
1747533130510,0.8377264799999999,0.2934788299999999,0.41550745,-0.13901701,-0.41065947,-0.017576864,884
1747533130520,0.83028278,0.2608971949999999,0.4277103249999999,-0.244478185,-0.24927188,0.010652645,885
1747533130530,0.8341877,0.224166575,0.449919535,-0.31638354,-0.1086569685,0.063915869,886
1747533130540,0.83455375,0.189388415,0.48067075,-0.35792886,0.0098536965,0.12277173,887
1747533130550,0.82772015,0.16278618,0.515815005,-0.34061832,0.06258429,0.17257284,888
1747533130560,0.8081956,0.147166515,0.546810265,-0.19893815,-0.140614905,0.175236,889
1747533130570,0.7981892500000001,0.15753895,0.53753608,-0.01038633,-0.51771852,0.124902255,890
1747533130580,0.8022162,0.1718163,0.51398456,0.06178534,-0.68869346,0.09161274,891
1747533130590,0.85041755,0.21403821,0.38524437,0.16564862,-1.0077401,0.019707393,892
1747533130600,0.9523114,0.205374175,0.295675335,-0.1086569749999999,-0.9744507,-0.06578008,893
1747533130610,1.0467615499999998,0.180846415,0.285180895,-0.4679174,-0.6247776,-0.105727495,894
1747533130620,1.065554,0.17254847,0.31263736,-0.59122175,-0.4612595,-0.11771172,895
1747533130630,1.0261386849999998,0.1140967599999999,0.43515408,-0.73290193,-0.12996227,-0.13528858,896
1747533130640,0.966832785,0.07358326,0.50226984,-0.71186295,0.153398078,-0.123038045,897
1747533130650,0.87494525,0.0622346,0.5181335499999999,-0.51798482,0.0545948,-0.060986388,898
1747533130660,0.80599907,0.081515125,0.4879924599999999,-0.28735508,-0.21491711,-0.0069242191,899
1747533130670,0.80111792,0.1127544499999999,0.43100509,-0.156061243,-0.46631953,-0.00106526445,900
1747533130680,0.81795785,0.1269097699999999,0.36059458,-0.116113828,-0.62903865,0.00079894835,901
1747533130690,0.84517025,0.125689485,0.30665792,-0.18322549,-0.6681870999999999,0.0050600062,902
1747533130700,0.89154115,0.10299216,0.28652319,-0.387756275,-0.504669025,0.0151800185,903
1747533130710,0.926807415,0.068702116,0.31495587,-0.59841232,-0.25965821,0.0229031865,904
1747533130720,0.93107843,0.055645052,0.3436326,-0.68097032,-0.099069594,0.0191747605,905
1747533130730,0.913018135,0.008175919,0.41038227,-0.6862966500000001,0.0093210644999999,0.0095873797,906
1747533130740,0.885561705,-0.019280522,0.44613665,-0.60773337,0.0194410768,0.0071905352,907
1747533130750,0.815395235,-0.0114706904,0.422219035,-0.35872779,-0.1629854617,0.0697748235,908
1747533130760,0.76463133,0.0051252022,0.38805103,-0.16937704,-0.32277513,0.12836437,909
1747533130770,0.74169,0.047347106,0.31678632,-0.06870956,-0.4282363,0.19973709,910
1747533130780,0.74535084,0.06760386,0.23429495,-0.092145376,-0.39254996,0.29507825,911
1747533130790,0.80123992,0.0461268185,0.20940112,-0.36059202,-0.1094559225,0.4311658,912
1747533130800,0.83125895,0.025503982,0.273100055,-0.60107544,0.2577939724999999,0.523843795,913
1747533130810,0.8341876,0.015375607,0.30848834,-0.7281082,0.5049353,0.57790595,914
1747533130820,0.8538343049999999,-0.0229413815,0.372919485,-0.660464,0.67058396,0.6311692,915
1747533130830,0.86298645,-0.030751213,0.38341394,-0.46339005,0.721184,0.7099988,916
1747533130840,0.9471862,-0.012202862485,0.318128615,-0.223439225,0.62690813,0.7874967500000001,917
1747533130850,1.04676155,-0.004271001985,0.253453455,-0.112385405,0.63809341,0.7701862,918
1747533130860,1.116928,-0.0145214065,0.19915072,-0.121706465,0.79308938,0.69641665,919
1747533130870,1.1497537,-0.021477038,0.17352471,-0.17470337,0.8948221,0.6540724,920
1747533130880,1.1739154,-0.061014313,0.14985114,-0.3834952,1.0780476,0.52357745,921
1747533130890,1.07067915,-0.14301755,0.223678465,-0.8522115750000001,0.96220015,0.246342405,922
1747533130900,0.98769967,-0.195245795,0.36340125,-1.025849685,0.5672533200000001,0.0479369024999999,923
1747533130910,0.96207365,-0.225386865,0.46773571,-0.903876905,0.1536644,-0.0745685125,924
1747533130920,0.958900895,-0.26492414,0.521672375,-0.69721559,-0.23995082,-0.1768339,925
1747533130930,0.962073665,-0.3184947,0.50885939,-0.500674295,-0.5273059,-0.237287655,926
1747533130940,0.96402615,-0.38853915,0.41001619,-0.3898868,-0.63250075,-0.203731825,927
1747533130950,0.9637821,-0.43198135,0.314955885,-0.4210457749999999,-0.51345745,-0.0945422215,928
1747533130960,0.961585565,-0.43576423,0.27273397,-0.577373335,-0.275104545,0.0290284585,929
1747533130970,0.95938903,-0.43588626,0.25357547,-0.67537767,-0.15020229,0.09427591,930
1747533130980,0.95938903,-0.43979117,0.25137895,-0.9310411,0.096939065,0.2050634,931
1747533130990,1.0001466,-0.41990049,0.43576422,-1.2508868,0.434361595,0.207460245,932
1747533131000,0.99636375,-0.430028855,0.599160535,-1.16140465,0.562725965,0.0801611445,933
1747533131010,0.9664667,-0.469566155,0.725338135,-0.90414325,0.58429758,-0.0660463955,934
1747533131020,0.915580725,-0.48811451,0.767193975,-0.7717841,0.5496765,-0.11504856,935
1747533131030,0.858471325,-0.490433035,0.7626789249999999,-0.2572613675,0.31132354,-0.12942963,936
1747533131040,0.796358785,-0.4577293799999999,0.67286585,0.2034655125,0.067644293,-0.014913705,937
1747533131050,0.75950617,-0.42685616,0.5972081,0.4841627,-0.091080114,0.07989483,938
1747533131060,0.781593325,-0.34741549,0.479206385,0.639957635,-0.233292915,0.196541295,939
1747533131070,0.806487175,-0.291282325,0.43393378,0.655670285,-0.28469193,0.215716055,940
1747533131080,0.85883745,-0.23075613,0.40879589,0.6471481649999999,-0.340352,0.15978967,941
1747533131090,0.91362833,-0.185117425,0.3998878,0.6380934149999999,-0.385359425,0.062051653,942
1747533131100,0.94620998,-0.178893965,0.393420265,0.62957129,-0.409594195,-0.019707392,943
1747533131110,0.9831846,-0.19207306,0.3793869749999999,0.6087986249999999,-0.42743737,-0.095074855,944
1747533131120,1.002099,-0.20183535,0.37291947,0.5949502,-0.4346279,-0.12996227,945
1747533131130,1.0723876,-0.251012875,0.39659303,0.46845004,-0.319579335,-0.25406557,946
1747533131140,1.07604845,-0.27297802,0.3964710099999999,0.41412156,-0.2191781649999999,-0.2809635,947
1747533131150,1.0729977000000002,-0.28884175,0.41184663,0.37763625,-0.097738013,-0.303866685,948
1747533131160,1.0592085,-0.28786552,0.4568752,0.39441416,0.031691617,-0.33076461,949
1747533131170,1.0506665,-0.28286234,0.4837215,0.42184472,0.0958738,-0.34461305,950
1747533131180,0.954996,-0.2511349,0.5125202,0.6897587,0.37444046,-0.33981937,951
1747533131190,0.898008665,-0.229657865,0.431859285,0.82344945,0.5400890700000001,-0.2825614,952
1747533131200,0.8768977149999999,-0.225630925,0.36742818,0.844488425,0.61785338,-0.236755025,953
1747533131210,0.87226063,-0.22648512,0.33655494,0.83996105,0.6508766,-0.21411815,954
1747533131220,0.89190722,-0.221726,0.308000255,0.7307714249999999,0.6548712999999999,-0.164050725,955
1747533131230,0.90740484,-0.185117415,0.34314449,0.6665892250000001,0.5970807,-0.17550232,956
1747533131240,0.89105302,-0.134231485,0.380607275,0.65380605,0.544616435,-0.2119876299999999,957
1747533131250,0.85944763,-0.08615221,0.4186802,0.65700185,0.486825835,-0.24927188,958
1747533131260,0.84517026,-0.06321083,0.4417436,0.6625945,0.4564658,-0.267914,959
1747533131270,0.8019721,-0.04271002,0.49128726,0.7595336,0.32650355,-0.33609092,960
1747533131280,0.75328273,-0.0655293715,0.475057435,0.8857674,0.24447818,-0.32250881,961
1747533131290,0.71557588,-0.074925575,0.440035205,0.9571401,0.165382305,-0.26791401,962
1747533131300,0.7016646,-0.08041686,0.395250705,0.9952233,0.0756337775,-0.20106867,963
1747533131310,0.723629745,-0.0562551944999999,0.34839172,0.99149485,-0.0564590175,-0.1038632835,964
1747533131320,0.7607264499999999,-0.0021965149999999,0.31837269,0.95660745,-0.1555286149999999,-0.0218379202,965
1747533131330,0.790257375,0.0523502795,0.3162982,0.907605315,-0.1552623,0.0101200123,966
1747533131340,0.8095379,0.109337645,0.3242300449999999,0.841026315,-0.127831735,0.0268979275,967
1747533131350,0.8086837,0.175843255,0.3359448,0.77045255,-0.11584751,0.021038973,968
1747533131360,0.7812272499999999,0.222214135,0.34717144,0.679905065,-0.18828549,-0.0276968755,969
1747533131370,0.7414459,0.23539322,0.350954325,0.6101302150000001,-0.31398669,-0.073769565,970
1747533131380,0.71362335,0.23612539,0.3405819,0.57444385,-0.41545313,-0.0727043,971
1747533131390,0.7110607499999999,0.220749775,0.32764686,0.50972905,-0.4865595499999999,-0.050067429,972
1747533131400,0.74339837,0.19561188,0.34595114,0.43915528,-0.5217133,-0.01464738675,973
1747533131410,0.7874507,0.17450093,0.37401773,0.37151098,-0.4854943,0.07190535225,974
1747533131420,0.81051408,0.16547081,0.388051035,0.32490565,-0.430100535,0.17603495,975
1747533131430,0.82540155,0.176087305,0.400497945,0.33209619,-0.41012682,0.252467675,976
1747533131440,0.8574951,0.198174485,0.400986045,0.37151098,-0.375505715,0.3091930149999999,977
1747533131450,0.8808026,0.208913,0.39854547,0.39627838,-0.35153726,0.32756883,978
1747533131460,0.92217032,0.26638849,0.353150845,0.303067745,-0.37390782,0.20586236,979
1747533131470,0.90203559,0.287621475,0.3198370299999999,0.27563718,-0.44900896,0.1470064999999999,980
1747533131480,0.87726377,0.282130185,0.281031935,0.196274975,-0.56725333,0.1137169849999999,981
1747533131490,0.8712844,0.27017137,0.26480213,0.13795175,-0.6375608,0.10226539,982
1747533131500,0.91850945,0.25296533,0.3533948999999999,-0.062051655,-0.83197155,0.097738018,983
1747533131510,0.94376937,0.26199545,0.398545475,-0.11025487,-0.86499475,0.127299108,984
1747533131520,0.95719254,0.26870704,0.41294485,-0.0751011425,-0.78589885,0.16724652,985
1747533131530,0.9654905,0.28627914,0.42026657,-0.053795855,-0.7339672,0.18801917,986
1747533131540,0.9606093,0.31605412,0.400009825,-0.01251685735,-0.5366269800000001,0.266049795,987
1747533131550,0.928027685,0.337531165,0.3520526,0.0117179086499999,-0.386158365,0.34221621,988
1747533131560,0.899350985,0.357055755,0.284326705,0.005326322,-0.313454065,0.408528925,989
1747533131570,0.90691675,0.3741397549999999,0.21904138,-0.066845345,-0.344346735,0.440753175,990
1747533131580,0.94743025,0.39647098,0.162664155,-0.21571606,-0.3701794,0.4593953,991
1747533131590,1.02150165,0.4465027299999999,0.19085277,-0.440486865,-0.348075165,0.45087318,992
1747533131600,1.05518155,0.514106585,0.285546975,-0.785099915,-0.12836437,0.35926044,993
1747533131610,1.01784075,0.5533998,0.3602285,-1.0375676,0.186154965,0.26791401,994
1747533131620,0.9589009,0.55950123,0.40574517,-1.09029815,0.4263721,0.265783475,995
1747533131630,0.89312752,0.5507151800000001,0.42600192,-1.1092065999999998,0.64208815,0.30892669,996
1747533131640,0.80612112,0.537292065,0.436008285,-1.0660634,0.76619145,0.459661615,997
1747533131650,0.747181275,0.537902205,0.445648535,-0.97258642,0.7422230000000001,0.63250078,998
1747533131660,0.752062425,0.560599505,0.45187199,-0.86392947,0.6178534,0.72677668,999
1747533131670,0.7754919,0.592326935,0.44735694,-0.7211840350000001,0.443150025,0.8018778,1000
