timestamp,acc_x,acc_y,acc_z,gyro_x,gyro_y,gyro_z,id
1747533792660,-0.37121108,0.14985114,0.9698835,-0.9667275,0.04261058,0.7781757,1
1747533792670,3.3789728,-0.70142055,2.0686293,5.434447,-2.010154,-8.377239,2
1747533792680,2.9445508,-0.8434618,1.2754432,5.729525,-1.9803267,-8.49655,3
1747533792690,2.60128415,-0.90825905,0.733269985,5.0184608,-1.5345135,-8.57964,4
1747533792700,2.4952412,-0.9237567,0.6033095,4.2887545,-1.2245215,-8.537029,5
1747533792710,2.4062823,-0.94096275,0.535461585,3.89114465,-1.06526445,-8.4970815,6
1747533792720,2.118905,-0.9808661,0.47884035,2.7760792,-0.6540724,-8.305867,7
1747533792730,1.8644753,-1.0304097,0.7022747300000001,1.7827201,-0.40533313,-7.738081,8
1747533792740,1.8653295,-1.0391958,0.763167,1.5211977,-0.43196473,-7.4419374,9
1747533792750,1.9278082,-1.048714,0.9171671,1.4375744,-0.53795856,-7.2347436,10
1747533792760,1.9426957,-1.0592085,1.0479817,1.5158713,-0.64182186,-7.10052,11
1747533792770,1.92085265,-1.14401835,1.13694075,1.8740665,-0.69002505,-6.894125000000001,12
1747533792780,1.9541664,-1.1905112,1.12412775,2.2285332,-0.605336535,-6.7923925,13
1747533792790,2.01969575,-1.2105239,1.05408325,2.463424,-0.52464277,-6.74632,14
1747533792800,2.0574026,-1.2207743,1.01479,2.6136262,-0.4708469,-6.7868,15
1747533792810,2.03897635,-1.24725455,0.8916632,2.650378,-0.36112465,-6.8019797,16
1747533792820,2.1544154,-1.28203275,0.8020941500000001,2.56142835,-0.1837581165,-6.78946305,17
1747533792830,2.2799828,-1.3093672,0.7470592,2.4884577,-0.050600063,-6.7899957,18
1747533792840,2.3767515,-1.34951445,0.7995315000000001,2.5467811,0.157126507,-6.8704231,19
1747533792850,2.3583252,-1.3547617,0.8263778,2.6173549,0.2263687,-6.8970547,20
1747533792860,2.1642997,-1.3296238,0.835652,2.8085697,0.3568636,-6.872554,21
1747533792870,1.8626448,-1.3449996,0.77122086,3.200587,0.56938386,-6.6877303,22
1747533792880,1.6907066,-1.3310881499999998,0.66871685,3.39419885,0.64661553,-6.49571635,23
1747533792890,1.5636748,-1.3182752,0.5664568649999999,3.438141,0.65513766,-6.4230123,24
1747533792900,1.4916779,-1.3103434,0.50837123,3.4099116,0.6317018,-6.2424498,25
1747533792910,1.377215,-1.2703179,0.43515408,3.281547,0.57577544,-6.0618873,26
1747533792920,1.27886,-1.244692,0.3807293,3.0871365,0.5070659,-5.884521,27
1747533792930,0.9623177,-1.4091865,0.5022698,2.8554413,-0.04527374,-5.503156,28
1747533792940,0.8283303,-1.5922295,0.5618198,3.025351,-0.3174488,-5.428055,29
1747533792950,0.5544981,-1.8318938,0.49201941,3.333745,-0.21624869,-5.396097,30
1747533792960,0.025137896,-2.042271,0.2779812,3.6405413,0.26045716,-5.158543,31
1747533792970,-0.9474302,-2.42422065,-0.444916344,3.08181015,0.841825245,-4.1574609,32
1747533792980,-1.3491484,-2.6485093,-0.83125895,2.49698,0.98377174,-3.6772928,33
1747533792990,-1.7382978,-2.87060135,-1.0578661500000002,1.39123535,1.20241725,-2.97581625,34
1747533793000,-1.8716751,-2.919901,-1.1268123,1.045557,1.2783173,-2.7302728,35
1747533793010,-2.1340365,-2.9220974,-1.2129645,0.37390783,1.468467,-2.1124194,36
1747533793020,-2.34661045,-2.9450388,-1.2454241,0.25752768,1.15874135,-1.3094763,37
1747533793030,-2.41213985,-3.0343637,-1.39356685,0.429301575,0.567785935,-0.75766935,38
1747533793040,-2.429834,-3.078782,-1.4650756,0.49854377,0.28549087,-0.5613944,39
1747533793050,-2.4408164,-3.1105096,-1.582223,0.5997439,-0.24980451,-0.09640643,40
1747533793060,-2.3912728,-3.048763,-1.7318302,0.57151437,-0.70467246,0.35739622,41
1747533793070,-2.1867528,-2.84607365,-1.927076,-0.01997371,-1.1946941,1.004544375,42
1747533793080,-2.17613635,-2.7329531,-1.95282405,-0.7611314250000001,-1.36886485,1.5174692,43
1747533793090,-2.15453735,-2.6225172,-1.90803955,-1.4040185,-1.27352365,2.01468145,44
1747533793100,-2.0173772,-2.4646121,-1.6932692500000002,-1.6996294,-1.180313,2.2722092,45
1747533793110,-1.7782011,-2.3167135,-1.4512865,-2.85624025,-0.2332929215,3.69460345,46
1747533793120,-1.52560185,-2.2149417,-1.32510885,-3.029612,-0.027164243,3.9734364,47
1747533793130,-1.27044005,-2.11975935,-1.20747315,-3.4698327,0.314519325,4.818191,48
1747533793140,-1.1514622,-2.0766833,-1.1495095,-3.75372565,0.349673065,5.3707972,49
1747533793150,-0.45419052,-1.9924834,-0.94254905,-3.8967373,0.33182988,5.6363144,50
1747533793160,0.138502498,-1.9320792,-0.764143235,-4.9747851,0.14674018,6.646451300000001,51
1747533793170,0.33948365,-1.909748,-0.7067898,-5.5529573,0.11504856,6.83420395,52
1747533793180,0.79831125,-1.94916325,-0.530458435,-6.243781,0.118244355,6.98014515,53
1747533793190,1.18672835,-2.11194945,-0.205130115,-6.613694,0.12676647,7.054181,54
1747533793200,1.4399377,-2.2472792,0.05198419,-8.08802,0.3073288,7.196394,55
1747533793210,1.6350615,-2.48865175,0.534119305,-8.656339,0.6562029,7.2235584,56
1747533793220,1.71572245,-2.6419196,0.8262558200000001,-9.1748565,1.20694465,7.22275945,57
1747533793230,1.7744182,-2.7645584000000003,1.1214431,-9.2598115,1.3725933,7.2006552,58
1747533793240,2.05044695,-2.84497535,1.43932765,-9.244365,1.3981596,7.177752,59
1747533793250,2.2877927,-2.8703573,1.6124862,-8.386294,0.48522797,6.388391,60
1747533793260,2.438132,-2.8618152,1.7076685,-7.53994175,-0.836498915,5.6267269,61
1747533793270,2.60348065,-2.8237424,1.8592282,-6.91622945,-1.81760745,5.2203286,62
1747533793280,2.47559465,-2.8015331000000003,2.01127585,-6.5929217,-2.3078954,5.0568104,63
1747533793290,2.335872,-2.797384,2.1154883,-5.807289,-3.2186966,5.0648,64
1747533793300,2.2792506,-2.7139168,2.2411778,-3.9601207,-4.657869,5.7992997,65
1747533793310,2.3047546,-2.54624925,2.26338695,-2.2807311500000003,-4.77211865,6.3846623000000005,66
1747533793320,2.2779083,-2.43739975,2.12403025,-1.1819109,-4.391553,6.729808,67
1747533793330,2.3756533,-2.31512715,1.6570267,-0.6375608,-4.091681,6.906642,68
1747533793340,2.488896,-2.2399576,1.2964321,0.002130529,-3.1127028,7.007842,69
1747533793350,2.5084205,-2.140138,1.0472497,-0.101200126,-2.7638285,6.9583073,70
1747533793360,2.55198455,-2.02579725,0.9200958,-0.25992453,-2.461826,6.9439263,71
1747533793370,2.5447848,-1.9912632,0.9196077,-0.34567833,-2.1917815,7.076552,72
1747533793380,2.5145219,-1.8909556,1.00356335,-0.214384475,-1.9358519,7.5412735,73
1747533793390,2.502319,-1.8685023,1.0199152,-0.12516858,-1.8471686,7.731157,74
1747533793400,2.6062875,-1.8726513,0.9928249,0.44794372,-1.4919028,8.683503,75
1747533793410,2.73478355,-1.83775115,0.90069325,0.607733385,-1.3555489500000002,8.889897999999999,76
1747533793420,3.6002105,-1.3635478,0.18292091,0.63889236,-1.4397049,9.022524,77
1747533793430,4.1591017,-0.846878635,-0.3740177249999999,-0.0260989799999999,-2.04078025,8.794824,78
1747533793440,4.6447757,-0.47530146,-0.6476058849999999,-0.43782368,-2.290851,8.710668,79
1747533793450,4.808416,-0.28164205,-0.7470592,-1.5664713,-2.3776703,8.542889,80
1747533793460,4.9341054,-0.041001618,-0.8812907,-3.0322752,-1.8157432,8.420916,81
1747533793470,4.9338613,0.060770255,-0.87348086,-4.7841024,-0.535828,8.2803,82
1747533793480,4.7000546,0.33899552,-0.09518232,-6.5369954,1.9824572,7.7284937,83
1747533793490,4.6695476,0.4612682,0.47859627,-9.105881,1.9504992,7.3924026,84
1747533793500,4.874555,0.68702114,1.121199,-9.511213,0.9864349,7.167632,85
1747533793510,5.8039255,1.6154149000000002,2.2937720500000003,-8.7878995,-1.69962945,7.0419308,86
1747533793520,6.8960815,2.4641239,3.06645715,-7.742875,-3.26743245,6.5801388,87
1747533793530,7.547226,2.916484,3.4560945,-7.139935,-3.8589206,6.1891866,88
1747533793540,7.9967794,5.0924983,3.7706845,-5.178783,-1.7550232,2.7174897,89
1747533793550,7.9967794,5.4600487,4.0093727,-4.424576,0.23489082,0.8016115,90
1747533793560,7.9967794,5.0541816,4.126764,-3.2607746,1.6362462,-1.4636734,91
1747533793570,7.9967794,4.232929,4.0864944,-2.1800637,1.865278,-3.1537154,92
1747533793580,7.9967794,3.3977652,3.670865,-1.0764498,1.824798,-4.486361,93
1747533793590,6.7382988,1.590277,2.9424762500000003,0.6540724,2.2162826,-6.0847907,94
1747533793600,6.59882,1.2676333,2.6338658,0.8942895,2.6077673,-6.775082,95
1747533793610,6.2044234,0.47639978,2.0054183,0.6764429,3.0940607,-7.4232955,96
1747533793620,5.580613,-0.13593988,1.7996782,0.36272255,3.6011264,-7.730624,97
1747533793630,4.53067875,-0.748889655,1.87021075,0.556334345,4.15266725,-7.23208015,98
1747533793640,4.4219510500000005,-0.819666225,1.9031584,0.77125144,4.1545315,-7.1117053,99
1747533793650,4.3861966,-0.8449261,1.9248794,1.29909,4.0080576,-7.089335,100
1747533793660,4.336409,-0.8642067,1.9514818,1.9734024,3.78595,-7.199057,101
1747533793670,4.2578225,-0.9193637,1.9746673,2.7606328,3.4647727,-7.408914,102
1747533793680,3.96763875,-1.16012615,1.9584373,5.0831757,2.2919165,-8.034491000000001,103
1747533793690,3.8956418,-1.2112561,1.9051108,5.5345817,2.0618193,-8.14661,104
1747533793700,3.7518923,-1.3049742,1.7210917,6.2989087,1.659682,-8.406002,105
1747533793710,3.4675653,-1.5493974,1.2311468,7.1852088,0.96433065,-9.03797,106
1747533793720,3.21691845,-1.75013455,0.867623535,7.472031100000001,0.53662699,-9.4771255,107
1747533793730,3.04241765,-1.8696006,0.688363465,7.3668363,0.33609093,-9.628659,108
1747533793740,2.9572418,-1.922927,0.61673266,7.2800174,0.23435818,-9.67846,109
1747533793750,2.7864015,-1.9495293,0.47981656,7.11969495,0.135554902,-9.6917755,110
1747533793760,2.6247135000000004,-1.93622825,0.26870704,5.63152075,-0.323307755,-9.501626,111
1747533793770,2.5927421,-1.9029144,0.24356914,4.42351075,-0.498277435,-9.280584,112
1747533793780,2.608728,-1.888515,0.27041543,3.6160402,-0.5275722,-9.1202615,113
1747533793790,2.6370385,-1.8826576,0.40903994,3.2261534,-0.5342301,-9.036638,114
1747533793800,2.6931717,-1.8953485,0.55815893,2.3936493,-0.43409526,-8.788964,115
1747533793810,2.7048864,-1.9002297,0.7653635,1.8924423,-0.26205507,-8.588695,116
1747533793820,2.622395,-1.8406798,0.9586569,1.5904398,-0.0037284256,-8.315987,117
1747533793830,2.3555185,-1.6334752,1.3452436,1.7377126,0.8447547200000001,-7.4539215,118
1747533793840,2.2685121,-1.57270485,1.4129695,2.13479,1.20241725,-7.2057149,119
1747533793850,2.2304392,-1.5424417,1.4196811,2.3702135,1.3768543,-7.1010528,120
1747533793860,2.11658655,-1.4954608,1.1973448,3.51750325,1.92466655,-6.73433565,121
1747533793870,2.1106071,-1.4865527,1.1475571,3.7199035,1.9552929,-6.6877303,122
1747533793880,2.0595992,-1.428711,1.0143019,4.121508,1.871137,-6.6749473,123
1747533793890,2.0017576,-1.4013767,0.912286,4.312723,1.6410398,-6.640326,124
1747533793900,1.8431203,-1.4121152,0.8412653,4.470915,1.2058793,-6.3409867,125
1747533793910,1.80968445,-1.4018647999999998,0.83589605,4.51485715,1.18484035,-6.2208781,126
1747533793920,1.5853959,-1.3159567,0.73900533,4.6307044,1.2096078,-5.8435082,127
1747533793930,1.517548,-1.2905748,0.707766,4.667989,1.2607405,-5.592106,128
1747533793940,1.4072341,-1.210768,0.64772797,4.6892943,1.274589,-5.387575,129
1747533793950,1.1302291,-1.1478013,0.5503491,4.7500143,0.9006811,-5.0568104,130
1747533793960,0.9911165,-1.17293915,0.516303115,4.770787,0.689492415,-4.96093655,131
1747533793970,0.6489482,-1.2732466,0.45809543,4.8900967,0.047404267,-4.626976,132
1747533793980,0.4253918,-1.38112,0.460536,5.1233892,-0.24767399,-4.3894224,133
1747533793990,-0.1199541399999999,-1.713648,0.111534165,5.6943713,-0.305198265,-3.86131725,134
1747533794000,-0.4275883,-1.9163376,-0.13520771,5.946839,-0.33662358,-3.5531895,135
1747533794010,-0.68994987,-2.0986483,-0.49860895,5.854161,-0.56459016,-3.141465,136
1747533794020,-0.88971069,-2.4962176,-1.14365228,4.943626,-0.7182545499999999,-2.8423918500000003,137
1747533794030,-0.93937635,-2.6619325,-1.3752626,4.475176,-0.7355651,-2.838397,138
1747533794040,-1.75062265,-3.36799,-1.82127725,1.00614225,0.069242195,-2.7574371,139
1747533794050,-1.8650855,-3.534437,-1.8553232,0.4463458,0.23169503,-2.5960495,140
1747533794060,-2.1373313,-4.00241675,-2.0138384,-0.7052051,0.4745753,-2.1901836,141
1747533794070,-2.2341,-4.1172457,-2.0149367,-0.7052051,0.4745753,-2.1901836,142
1747533794080,-2.2341,-4.1172457,-2.0149367,-0.7052051,0.4745753,-2.1901836,143
1747533794090,-2.3336754,-4.320667500000001,-1.24847485,-2.9443909,-0.2490055625,0.2519350483499999,144
1747533794100,-2.32708585,-4.1918054,-1.16281075,-2.86476245,-0.7536745899999999,0.8082694049999999,145
1747533794110,-2.23348985,-3.9839904,-1.10838595,-2.89432365,-1.1672635,1.3406353,146
1747533794120,-2.144531,-3.859033,-1.0765365,-3.0559775,-1.3981596,1.7781927,147
1747533794130,-1.7159666,-3.43876675,-0.81161237,-3.4666369,-1.41973125,2.56702105,148
1747533794140,-1.4816716,-3.2418125,-0.62356627,-3.7673078,-1.3576796,3.139867,149
1747533794150,-1.0472497,-3.0512037,-0.42075467,-3.9803607,-1.0056096,3.7230992,150
1747533794160,-0.4882365,-2.71891975,-0.22404455,-4.1518683,-0.50333744,4.2381544,151
1747533794170,-0.35827604,-2.6106803,-0.18401916,-4.4549358,0.18162759225,4.961202849999999,152
1747533794180,0.23893206,-2.2826674,-0.070532545,-4.5726476,0.36218992,5.197958,153
1747533794190,0.5791479,-2.1552696,0.011470691,-5.4951668,0.6330334150000001,6.196377050000001,154
1747533794200,0.9872115,-2.085225,0.12813005,-5.6853166,0.6114618,6.3079634,155
1747533794210,1.36159535,-2.1283011,0.3321619,-6.075736,0.5406217,6.4427195,156
1747533794220,1.4467713,-2.145507,0.4170938,-6.4315343,0.4644553,6.591324,157
1747533794230,1.6627622,-2.238005,0.7936742,-6.9204907,0.31478566,7.0408654,158
1747533794240,1.89937565,-2.25813975,1.0825159,-7.05045285,0.216781325,7.4941354,159
1747533794250,2.13293845,-2.28315565,1.2006396,-7.0754867,0.17150758,7.6390114,160
1747533794260,2.2543569,-2.301948,1.2466444,-7.1074443,0.08468852,7.80466,161
1747533794270,2.4208038,-2.331723,1.334261,-7.1495223,-0.0681769235,7.91731195,162
1747533794280,2.6426518,-2.4513109,1.5439061,-7.1591096,-0.17257284,7.9639173,163
1747533794290,2.8582765,-2.4908483,1.6597113,-7.087737,-0.36272255,7.9607215,164
1747533794300,2.9474795,-2.515254,1.6803342,-6.9902654,-0.6221144,7.84514,165
1747533794310,3.1356475,-2.5086644,1.7381756,-6.8224864,-1.0247844,7.5420723,166
1747533794320,3.142481,-2.4823062,1.8567874,-6.491189,-1.5243934,7.134076,167
1747533794330,2.6270323,-2.3946898,2.0737545,-5.9361863,-2.0458405,6.8240843,168
1747533794340,2.3849275,-2.3529558,2.050325,-4.363323,-2.988067,6.9236865,169
1747533794350,2.2589939,-2.2965786,1.8799729,-3.4546525,-3.4386737,7.2885394,170
1747533794360,2.3722365,-2.2323916,1.6263975,-3.0360036,-3.7800908,7.576161,171
1747533794370,2.822278,-2.1179287,1.172695,-3.1840754,-4.0037966,7.760452,172
1747533794380,2.937351,-2.1281792,1.1320595,-3.84986555,-3.48687685,7.763647300000001,173
1747533794390,2.9362526,-2.1472156,1.1739154,-4.073571,-3.2453282,7.788681,174
1747533794400,2.8530293,-2.24191,1.4191929,-4.3697147,-2.6573021,7.997473,175
1747533794410,2.7746868,-2.3290381,1.6381122,-4.444816,-2.0751352,8.322911,176
1747533794420,2.7990925,-2.3429496,1.8182266,-3.96997415,-2.11481625,9.2784535,177
1747533794430,3.7991171,-2.1280571,2.1096309,-3.72869185,-2.4578314,9.41028,178
1747533794440,4.285523250000001,-1.81078275,2.30097175,-3.603257,-2.561961,9.383382,179
1747533794450,4.505541,-1.6117541,2.3990827,-3.228284,-2.431466,9.034508,180
1747533794460,4.7769322,-1.1224194,2.357593,-2.9177594,-1.8572886,8.572183,181
1747533794470,4.7347108,0.0536925849999999,1.8179825,-3.0274817,-0.28176244,7.3897395,182
1747533794480,4.6746726,0.31995904,1.6940014,-3.1664987,-0.1257012,7.180415,183
1747533794490,4.629278,0.78464407,1.4843562,-3.7007287,-0.3110572,6.7569723,184
1747533794500,4.6658864,1.2942356,1.437009,-4.328702,-0.73130405,6.1684136,185
1747533794510,4.6031637,1.7664863,1.5917413,-4.8229847,-1.0466223,5.494634,186
1747533794520,4.15483045,2.36772145,2.31671345,-5.4368433,-1.6924389,5.116997700000001,187
1747533794530,4.5831511,2.8869532,2.82630505,-4.9468218,-2.10869105,5.66773935,188
1747533794540,4.9250755,3.23986,3.0597458,-4.5960836,-2.3750072,5.966546,189
1747533794550,6.3423157,4.0647736,3.3113687,-3.743872,-2.8932583,5.868009,190
1747533794560,7.9967794,4.8838296,3.2977014,-3.037069,-2.6535738,4.624313,191
1747533794570,7.9967794,5.2499156,3.2139897,-2.5901904,-1.7289242,2.6274748,192
1747533794580,7.9967794,4.2603852,3.1967839,-1.5638082,0.2255697465,-2.60057685,193
1747533794590,7.7831075,3.4991707,3.201787,-0.99762015,0.491086915,-4.03069445,194
1747533794600,7.5694356,3.086592,3.1925128,-0.7302388,0.5816344,-4.4948835,195
1747533794610,6.462636,1.9370824,2.631181,-0.13954964,1.4849787,-5.6331186,196
1747533794620,6.1246166,1.4082103,2.1625912,-0.3552657,2.1337247,-6.2152853,197
1747533794630,5.459804650000001,0.623200185,1.78540075,-0.74302197,2.8314729,-6.7101007,198
1747533794640,5.1845083,0.36388937,1.7325623,-1.0498182,3.4258904,-6.997722,199
1747533794650,4.233173,-0.2672427,2.1142678,-0.56245965,4.000068,-6.818758,200
1747533794660,4.0105927,-0.4746913499999999,2.20871815,0.21198763,3.9515984,-6.6174226,201
1747533794670,3.994729,-0.5315567,2.2175043,1.4093449,3.5505264,-6.5801387,202
1747533794680,4.0184026,-0.6228341,2.1855328,2.4564998,3.0679617,-6.7622986,203
1747533794690,3.934203,-0.7743936,2.0657005,4.5875616,2.08419,-7.4563184,204
1747533794700,3.8789238,-0.83296733,2.02652935,5.661348,1.7390442,-7.8398137,205
1747533794710,3.7111344,-1.036023,1.7589207,6.6397934,1.4604776,-8.230233,206
1747533794720,3.5742184,-1.283375,1.29887275,7.6467345,1.02584972,-8.813199000000001,207
1747533794730,3.46622305,-1.51352105,0.8788502,8.04301285,0.57977017,-9.389774,208
1747533794740,3.3144195,-1.7240204499999998,0.48823653,8.05260035,0.1504685949999999,-9.977001,209
1747533794750,3.226925,-1.7891837,0.36901456,7.9239697,0.02130529,-10.1802,210
1747533794760,3.0019042,-1.8794849,0.21281794,7.5463333,-0.20612867,-10.363425,211
1747533794770,2.8227663,-1.9422076,0.12764193,7.0419307,-0.5811018,-10.417754,212
1747533794780,2.53856145,-1.8780205,0.15192564,5.76308065,-1.66154615,-10.125605,213
1747533794790,2.3851714,-1.811881,0.19671014,5.063202,-2.193912,-9.871273,214
1747533794800,2.4193394,-1.7706354,0.24723,4.2125883,-2.5869946,-9.453156,215
1747533794810,2.6410655,-1.65446415,0.39036957,2.8429245,-2.68393375,-8.6819055,216
1747533794820,2.8581545,-1.5668476,0.53546159,1.92732975,-2.23865325,-8.115984000000001,217
1747533794830,3.0629185000000003,-1.4046715,0.7802509950000001,1.0721887,-0.7736483200000001,-7.6454032,218
1747533794840,3.150291,-1.2847173,0.94254905,0.6823019,0.32011196,-7.4712324,219
1747533794850,3.0677996,-1.2010058,1.1334019,0.70840085,1.2884374,-7.5463333,220
1747533794860,2.99507045,-1.19246375,1.22919435,1.3869742500000002,2.11934365,-7.6893452,221
1747533794870,2.7004936,-1.253478,1.4174845,1.7017599,2.3025692,-7.7189064,222
1747533794880,2.39261515,-1.49070165,1.3109535,3.19712485,1.99950145,-7.6017273,223
1747533794890,2.221409,-1.5880805,1.21028,3.92763,1.6447684,-7.4909396,224
1747533794900,2.050325,-1.6312786,1.0506665,4.432565,1.0833739,-7.273093,225
1747533794910,1.8067559,-1.6246891,0.89764255,4.8032775,0.46658584,-6.930078,226
1747533794920,1.4449409,-1.50021995,0.738029115,4.9920955,0.0458063749999999,-6.4091638,227
1747533794930,1.3349931,-1.461903,0.68653303,4.98517135,-0.13848438,-5.8778633,228
1747533794940,1.0213796,-1.275199,0.5444917,4.9454904,-0.21731395,-5.528723,229
1747533794950,0.918875515,-1.16390905,0.424903665,4.74335615,-0.18642127,-5.10022,230
1747533794960,0.843217785,-1.1110706,0.37450585,4.574778,-0.164583355,-4.86453,231
1747533794970,0.8066092,-1.0867869,0.35583547,4.4062,-0.139017015,-4.57211485,232
1747533794980,0.5608435,-1.1443844,0.40293851,4.326039,-0.11824436,-4.3840957,233
1747533794990,0.3807293,-1.3445114,0.31532198,4.3382893,-0.06231797,-4.1939464,234
1747533795000,0.30372924,-1.4810614,0.260653145,4.3846283,0.056991648,-4.024569,235
1747533795010,0.021232981,-1.8943723,-0.01854835,4.2615905,0.090813795,-3.6131107,236
1747533795020,-0.29433304,-2.1108513,-0.4249037,4.106062,0.00958738,-3.428021,237
1747533795030,-0.728632885,-2.22043275,-1.1653733,2.308428,-0.9337043,-2.7808728,238
1747533795040,-0.78464407,-2.2697322,-1.2317569,1.1563445,-1.0945592,-2.711098,239
1747533795050,-0.98818773,-2.4456975,-1.3650122,-0.15286545,-1.026915,-2.7585022,240
1747533795060,-1.270562,-2.643872,-1.4775226,-1.617604,-0.76912093,-2.815494,241
1747533795070,-1.63371915,-3.4131406,-1.2034463,-4.41685275,0.0327568799999999,-2.7113643,242
1747533795080,-1.9198763,-3.9784991,-0.83089288,-5.6264605,0.4588626649999999,-2.5039041,243
1747533795090,-2.0578907,-4.118954,-0.65138876,-5.819007,0.5123922,-2.3957798,244
1747533795100,-2.3905408,-4.2539177,-0.29482117,-5.732721,0.46498793,-1.9691414,245
1747533795110,-2.7497929,-4.2433017500000005,0.031361358,-5.05601135,0.26098979,-0.955009575,246
1747533795120,-2.7578468000000003,-4.0402459,0.1382584275,-4.2980757,0.158724405,0.307595075,247
1747533795130,-2.5338024,-3.80131375,0.2117196499999999,-3.5758264,0.165382305,1.7081515,248
1747533795140,-2.3751652,-3.7133312,0.234539,-3.3491914,0.19707392,2.2338595,249
1747533795150,-1.8174944,-3.4143608,0.25162303,-3.103648,0.31372038,2.992328,250
1747533795160,-1.26202,-3.1178312,0.15668476,-3.053048,0.5789712,3.675695,251
1747533795170,-0.80172807,-2.7981162,0.0622346,-3.1957934,1.0418286,4.245079,252
1747533795180,-0.16742326,-2.2570415,-0.1295944,-3.8679752,2.2280006,5.029646,253
1747533795190,0.109215612,-2.0592331,-0.014643438,-4.45387065,2.64957905,5.6381785,254
1747533795200,0.15595257,-2.0093234,0.046614934,-4.615258,2.7196202,5.848302,255
1747533795210,0.31654227,-1.9600239,0.16547081,-4.8512144,2.706837,6.278669,256
1747533795220,0.96170758,-2.0619176,0.383169865,-5.34975815,2.0045614,7.1471255,257
1747533795230,1.3681849,-2.1328163,0.5086153,-5.632586,1.5041534,7.5953355,258
1747533795240,1.8538588,-2.1894376,0.62259,-5.958024,1.071656,7.9229045,259
1747533795250,2.2372727,-2.1708894,0.79831123,-6.350574,0.75101143,8.244615,260
1747533795260,2.7179435,-2.08473695,1.2410311,-6.760168,0.64555025,8.578042,261
1747533795270,2.856934,-2.0386102,1.4416462,-7.534083,1.3241237,8.816129,262
1747533795280,2.75943325,-1.9695419,1.66483655,-8.006261,1.949434,8.5921565,263
1747533795290,2.6926837,-2.05374175,1.7963833500000002,-8.1442125,2.28872075,8.284828000000001,264
1747533795300,2.3987168,-2.12293205,1.9174357,-7.827829149999999,2.22959855,7.7010635,265
1747533795310,2.131108,-2.1281793,1.974179,-7.4957333,2.0378509,7.319965,266
1747533795320,1.8597162,-2.1747942,1.8706989,-6.965764,1.351288,7.061638,267
1747533795330,1.6039442,-2.2565534,1.6852154,-6.4427195,0.38402784,6.9939938,268
1747533795340,1.5522041,-2.45960895,1.46239095,-5.9718723,-0.9155948,7.105314,269
1747533795350,1.7625815,-2.58029525,1.4101627,-5.0509515,-3.4610443,7.4403396,270
1747533795360,2.08803185,-2.58017315,1.41541,-4.619519,-4.2978096,7.5809546,271
1747533795370,2.45423975,-2.566384,1.4086984,-4.345214,-4.8469534,7.684818,272
1747533795380,2.69451415,-2.55515735,1.4589742,-4.3457465,-4.784635,7.8925443,273
1747533795390,2.7683415,-2.5484457,1.5082738,-4.5369616,-4.091681,8.2297,274
1747533795400,3.1232007,-2.4686391,1.8677702,-5.045625,-2.2828617,9.157013,275
1747533795410,3.4697618,-2.3976183,2.006883,-5.325257,-1.3965617,9.430254,276
1747533795420,3.9315183,-2.2062776,2.1042616,-5.597432,-0.6578008,9.349826,277
1747533795430,4.208035,-1.9153614,2.2816913,-5.7865167,-0.3717773,8.99456,278
1747533795440,4.399376,-1.6603215,2.5464933,-5.7662764,-0.6125271,8.582836,279
1747533795450,4.759116,-1.185142,3.261337,-4.137487,-1.4583471,7.9575253,280
1747533795460,4.7974334,-0.6936107,3.1922688,-2.9358687,-1.5659387,7.698666,281
1747533795470,4.7471576,-0.17108414,2.6858501,-2.0703416,-1.5275892,7.494668,282
1747533795480,4.6480703,0.44662476,2.055206,-1.7805896,-1.4604776,7.2635055,283
1747533795490,5.08176,1.7289016,0.6365013,-3.2149682,-1.1345067,6.03206,284
1747533795500,5.2665114,2.1479478,0.28213018,-4.7872987,-0.8005462,4.9891663,285
1747533795510,4.94069505,2.0386102,0.809171825,-6.82994315,-0.291349835,3.7736995,286
1747533795520,4.7671704,1.9243914,1.0609169,-7.415306,-0.23702134,3.500459,287
1747533795530,4.88468375,2.3943237,3.1175871,-7.49333635,-0.561128035,4.0482713,288
1747533795540,6.0228447,3.22985365,4.31944715,-5.31513685,-0.6229134000000001,4.2291,289
1747533795550,6.6817994,3.5781233,4.4557533,-3.57556,-0.5858955,4.0171123,290
1747533795560,7.968469,4.0928397,4.3622794,-1.903095,-0.47297743,2.6003106,291
1747533795570,7.9967794,4.18009035,3.819496,-0.01997371,-0.46845004,-0.45966165,292
1747533795580,7.9419887,3.57873325,3.26731645,0.998152815,-0.60560282,-3.0586406,293
1747533795590,7.887198,3.0292385,2.9535809,1.5233282,-0.6764429,-4.6093993,294
1747533795600,7.098649,2.3783379,2.5169625,1.6266588,-0.23382555,-5.568137,295
1747533795610,6.402354,1.722312,2.0188415,1.2729911,0.664725,-6.3979783,296
1747533795620,5.7499886,1.0492021,1.6551963,0.8186557,1.274589,-6.8448567,297
1747533795630,4.6477043,0.1608337199999999,1.68106635,0.476439515,1.9169434,-7.073356,298
1747533795640,4.5380006,0.02831064,1.7359792,0.5704491,1.9393139,-7.097857,299
1747533795650,4.386685,-0.16986385,1.8943723,1.0183928,1.8855181,-7.2011876,300
1747533795660,4.3024853,-0.266510515,1.948309,1.3385048,1.82692855,-7.2813488,301
1747533795670,3.9744723,-0.744984765,1.9281742,3.1073763000000003,1.3318469,-7.73275475,302
1747533795680,3.8437796,-0.985381165,1.7661201,4.19421245,0.8109326,-8.11571725,303
1747533795690,3.8063169,-1.0562798,1.6898522,4.5587993,0.5566007,-8.300008,304
1747533795700,3.71650365,-1.2402989,1.6525116,5.375857099999999,-0.1347559549999999,-8.787632250000001,305
1747533795710,3.61387755,-1.3290137,1.6005274,5.912483849999999,-0.5408880300000001,-9.12904975,306
1747533795720,3.46097565,-1.4261485,1.22834015,6.170544,-0.7387609,-9.304552,307
1747533795730,3.3524922000000004,-1.5236494,0.73363607,6.3215456,-1.8168085,-10.069412,308
1747533795740,3.3089281,-1.5907651,0.49275157,6.1268687,-1.9792614,-10.203103,309
1747533795750,3.2808616,-1.6195638,0.417826,5.5026236,-2.1241374,-10.399112,310
1747533795760,3.1703036,-1.6630061,0.35974038,4.778776,-2.0005667,-10.497116,311
1747533795770,3.1122181,-1.7035197,0.34241232,3.8679752,-1.6458336,-10.518421,312
1747533795780,3.0995271,-1.8126132,0.46688148,2.6855316,-1.0359697,-10.376208,313
1747533795790,3.1297902,-1.84775745,0.53521754,2.50310515,-0.94435695,-10.338391,314
1747533795800,3.14565385,-1.90303645,0.66176123,2.21974485,-0.77604515,-10.244648,315
1747533795810,3.0775619,-1.9434278,0.8175918,2.036253,-0.47244477,-9.970343,316
1747533795820,3.0602338,-1.9919952,0.91570276,2.0644825,-0.12250541,-9.648633,317
1747533795830,2.85681215,-1.91926615,0.99306895,2.5337315,0.6876282,-8.9370365,318
1747533795840,2.7949436,-1.8807051,0.97208,2.8447888,0.86659265,-8.659534,319
1747533795850,2.630205,-1.8040712,0.9135063,3.2107072,0.85594,-8.3953495,320
1747533795860,2.3385566,-1.7140140499999998,0.8624982800000001,3.7878142,0.5166532699999999,-8.069910799999999,321
1747533795870,2.182848,-1.6876558,0.79770108,4.1244376,0.1254348884999999,-7.8587223,322
1747533795880,2.1774788,-1.692781,0.7636551,4.1891522,-0.034088463,-7.80466,323
1747533795890,2.178699,-1.7320743,0.69336665,4.217382,-0.37923414,-7.734885,324
1747533795900,2.0244548,-1.7413484,0.68214005,4.19874,-0.74781567,-7.595868,325
1747533795910,1.5273103,-1.61761145,0.695197075,4.084224000000001,-1.2311793999999998,-6.7428577,326
1747533795920,1.2830089,-1.5209647,0.70190865,4.0112534,-1.3891048,-6.1966434,327
1747533795930,1.1519502,-1.3852689,0.6936107,3.9153795,-1.3704628,-5.5521584,328
1747533795940,1.052252825,-1.28727995,0.7059356,3.76171505,-1.196292,-5.0525493,329
1747533795950,0.99550945,-1.2566508,0.7302193,3.7241645,-1.1217234,-4.919391,330
1747533795960,0.9469421,-1.240543,0.79440635,3.7476003,-0.9720538,-4.759069,331
1747533795970,0.78928113,-1.3237665,0.86274236,3.8658447,-0.87990844,-4.6653256,332
1747533795980,0.07224095,-1.530483,0.7570656,4.069843,-1.0748519,-4.3798347,333
1747533795990,-0.264314,-1.6654466,0.65993077,3.9702406,-1.3448963,-4.091681,334
1747533796000,-0.62503064,-1.866794,0.5640163,3.7848847,-1.5025555,-3.78595,335
1747533796010,-0.91057765,-1.9846735,0.5593792,3.5020568,-1.4524881,-3.407781,336
1747533796020,-1.3347491,-2.5352666,0.3687705,3.11882795,-0.702275625,-2.89059505,337
1747533796030,-1.7320743,-2.694636,0.17157225,2.9103024,-0.30519825,-2.6221485,338
1747533796040,-2.0347052,-2.7871337,-0.084931925,2.5608957,-0.10226539,-2.1342573,339
1747533796050,-2.161371,-2.898668,-0.43808278,1.9616845,-0.017576864,-1.6990968,340
1747533796060,-2.1713774,-3.0585253,-0.6867771,1.2159994,0.20080236,-1.4098775,341
1747533796070,-2.152341,-3.3084402,-0.84614646,0.4362258,0.44474792,-1.2213258,342
1747533796080,-2.4576566,-3.6032615,-1.1919756,-1.3907027,0.49002165,-0.6578008,343
1747533796090,-2.5086644,-3.7228491,-1.2886223,-2.2280006,0.11664646,-0.42717105,344
1747533796100,-2.5267248,-3.8080251,-1.2417632,-2.9800773,-0.41545314,-0.17630127,345
1747533796110,-2.6270323,-3.88295085,-0.35144244,-3.8573226,-1.43863965,1.118793975,346
1747533796120,-2.6226392,-3.8397527,-0.08542004,-3.8195057,-1.5536882,1.4748586,347
1747533796130,-2.4654663,-3.6613467,0.40733153,-3.0735542,-1.30015525,2.7068369,348
1747533796140,-2.1029193,-3.45109155,0.52545525,-2.57447775,-0.8873652999999999,3.5792885,349
1747533796150,-1.9788162,-3.3821454,0.4876264,-2.3675501,-0.6508766,4.026167,350
1747533796160,-1.2258996,-3.0534003,-0.025381953,-2.969691,1.1241203,6.16628325,351
1747533796170,-0.81734776,-2.919901,-0.23575929,-3.319364,1.4413028,6.460829,352
1747533796180,-0.38683072,-2.8291116,-0.35315084,-4.217382,2.100169,6.9029136,353
1747533796190,-0.028554698,-2.7471085,-0.3968371,-5.2229915,2.6812706,7.283213,354
1747533796200,0.6289356,-2.6389909,-0.26577836,-7.3114424,3.47436,7.894142,355
1747533796210,1.22199465,-2.6795045,0.2396642,-8.490424,3.5238949,8.373511,356
1747533796220,1.3796556,-2.6631527,0.4085518,-8.784171,3.4855454,8.503473,357
1747533796230,1.7459855,-2.6372826,0.72704655,-9.14423,3.341202,8.72931,358
1747533796240,2.6426518,-2.5994537,1.4445748,-9.1618065,2.5742116,8.7578055,359
1747533796250,2.9391813,-2.5081763,1.8582519,-8.640093,1.8836539,8.4211815,360
1747533796260,3.0648708,-2.3783379,2.2328796,-8.314921,1.6128104,8.231298,361
1747533796270,3.0682876,-2.268268,2.5032952,-6.9420622000000005,0.781904085,7.65472415,362
1747533796280,2.9652956,-2.1974914,2.6482651,-6.446448,0.51718587,7.4813523,363
1747533796290,2.6353302,-2.054962,2.541124,-4.381965,-0.33076462,6.919958,364
1747533796300,2.4803538,-2.0149367,2.323425,-3.5515916,-0.6263755,6.7143617,365
1747533796310,2.195783,-2.0259192,1.7894277,-2.8184234,-1.0655308,6.676545,366
1747533796320,2.0969398,-2.037878,1.6024799,-2.6498454,-1.2410331,6.724482,367
1747533796330,1.99297145,-2.05959915,1.29972685,-2.5539715,-1.5414376,6.8848042,368
1747533796340,1.9985847,-2.0693614,1.2305366,-2.3094933,-2.0772657,7.1825457,369
1747533796350,2.1414803,-2.0738765,1.1591499500000002,-2.06741205,-2.3371902,7.27868555,370
1747533796360,2.1921222,-2.0791237,1.1514622,-1.9808593,-2.408563,7.3082466,371
1747533796370,2.3971302,-2.09254685,1.1269343,-1.7731327,-2.3774038500000003,7.6813555,372
1747533796380,2.6011621,-2.05020285,1.10411495,-1.6644757,-2.11747935,7.98682,373
1747533796390,2.6763318,-2.0200617,1.0880072,-1.613343,-1.9457055,8.070976,374
1747533796400,2.7610197,-1.9607558,0.9999026,-1.7209347,-1.5403724,8.170578,375
1747533796410,2.7224586,-1.9583154,0.8860499,-2.04956875,-1.0218549,8.4842985,376
1747533796420,3.0573051,-1.87423765,0.9299802,-2.2517027,-1.0990866,8.835569499999998,377
1747533796430,3.63938165,-1.6599553500000002,1.08800725,-2.265285,-1.4516891,9.083243499999998,378
1747533796440,3.8949096,-1.5441502,1.1697664,-2.194445,-1.6042882,9.114935,379
1747533796450,4.3298197,-1.2456682,1.2954559,-1.963815,-1.514806,8.988169,380
1747533796460,4.716772300000001,-0.68311622,1.3420708,-1.62079985,-0.64874601,8.4984135,381
1747533796470,4.7888913,-0.5000733,1.2766634,-1.5504924,-0.26312032,8.264854,382
1747533796480,4.508713650000001,0.3452189599999999,0.456509075,-2.3760724,0.6135923,7.4531226,383
1747533796490,4.433544,0.5027579,0.32850105,-3.1015174,0.6173208,7.1111727,384
1747533796500,4.394495,0.97037166,0.17254847,-3.49246955,0.4889564,6.8994515,385
1747533796510,4.24586385,1.9458684,0.28908581,-4.816326999999999,0.0063915849999999,5.98332405,386
1747533796520,4.230244,2.268268,0.36096066,-5.083442,-0.12836437,5.7588196,387
1747533796530,4.983649,3.23070775,0.92900397,-6.0786653,-0.66232815,5.02937975,388
1747533796540,5.128131,3.4712262,1.1817253,-6.1556306,-0.6844324,4.9987535,389
1747533796550,6.4014995,4.605482,2.18577665,-5.0703926,-0.62371237,4.678108999999999,390
1747533796560,7.4899947,5.4386938,2.5514965,-3.69087515,-0.14860442,2.5012409,391
1747533796570,7.9967794,5.7997766,2.6062875,-2.4596957,0.2487392399999999,-0.7126619000000001,392
1747533796580,7.9967794,4.9173875,2.5782206,-1.78405165,-0.0290284599999999,-3.02002465,393
1747533796590,7.9967794,4.395471,2.5943284,-1.4386396,-0.30306774,-4.0293627,394
1747533796600,7.715626,3.35115,2.6709623,-0.79042625,-1.0343717,-5.237373,395
1747533796610,7.1103635,2.464734,2.5911558,-0.34567833,-1.4386396,-5.8994346,396
1747533796620,6.6769185,1.7147462,2.2497199,-0.36751625,-1.2016183,-6.3095613,397
1747533796630,5.64431185,0.566700925,1.70107905,-1.4370418,1.2767195,-6.5833344,398
1747533796640,5.4305177,0.4234393,1.6942455,-1.6809874,2.2722092,-6.5508437,399
1747533796650,5.123982,0.18914436,1.8277446,-1.4833808,2.7526433,-6.563627,400
1747533796660,4.9426475,-0.019280521,2.016889,-0.8314389,2.7808728,-6.6749473,401
1747533796670,4.62024785,-0.3970811199999999,2.0609414,1.1952267,2.0010993,-7.0674973,402
1747533796680,4.581687,-0.46419686,1.9897987,2.1326594,1.406149,-7.3290195,403
1747533796690,4.4284186,-0.5710939,1.8377512,2.8868666,0.8724516,-7.6225,404
1747533796700,4.2788115,-0.6733539,1.6993706,3.7433393,0.2974751,-8.039551,405
1747533796710,3.86928365,-0.85334618,1.38685535,4.233361,0.0567253324999999,-8.256066,406
1747533796720,3.6132674,-0.9630499,1.1517062,4.5060687,0.0018642125,-8.3862945,407
1747533796730,3.46610105,-1.05664585,0.9856252,4.5651907000000005,0.11531488,-8.486163000000001,408
1747533796740,3.3899553,-1.1097283,0.9025237,4.577441,0.20453078,-8.541823,409
1747533796750,3.184215,-1.2337095,0.7734174,4.57318,0.33822146,-8.648882,410
1747533796760,2.962611,-1.3154685,0.7067898,4.5918226,0.38615838,-8.75168,411
1747533796770,2.8366773,-1.445795,0.71264714,4.7313721,-0.0575242749999999,-8.951151,412
1747533796780,2.561869,-1.7096211,0.6452874,4.8016796,-0.39894155,-9.03078,413
1747533796790,2.5381954,-1.8155419,0.54986095,4.6179214,-0.6897587,-8.999354,414
1747533796800,2.545029,-1.8677702,0.46200037,4.255199,-0.8293084,-8.935438,415
1747533796810,2.540392,-1.8965688,0.42124277,3.8109837,-0.71159667,-8.84276,416
1747533796820,2.5799293,-1.9329334,0.54546793,3.4040525,-0.46498793,-8.712265,417
1747533796830,2.63325575,-1.98211085,0.63430476,2.9220204,0.123038046,-8.386827,418
1747533796840,2.57004485,-1.99040875,0.64467723,2.93187405,0.4625910949999999,-7.946073999999999,419
1747533796850,2.4973157500000003,-1.91975425,0.63576917,3.1196269,0.58536283,-7.4621775,420
1747533796860,2.51403365,-1.81346745,0.61404807,3.31536925,0.497744825,-7.1473917,421
1747533796870,2.4993902500000003,-1.70632625,0.54253929,3.45465255,0.282028775,-7.0390012,422
1747533796880,2.4326405500000003,-1.6293261,0.442963915,3.5063179,0.1470065,-7.032876,423
1747533796890,2.3863916,-1.6039442,0.39586085,3.4732947,-0.8085357,-7.25019,424
1747533796900,1.8353105,-1.57697595,0.43747263,3.42109685,-1.54889445,-7.24433075,425
1747533796910,1.6257873,-1.59357185,0.5106898,3.419499,-1.7656758,-7.20172,426
1747533796920,1.50046395,-1.6763072,0.5665789,3.5199001,-2.21069,-6.84459045,427
1747533796930,1.4010107,-1.756602,0.60172315,3.6637108,-2.3172165,-6.4451163000000005,428
1747533796940,1.3459758,-1.7828381,0.6108753,3.758253,-2.330266,-6.192915,429
1747533796950,0.8024602249999999,-1.64763055,0.30543765,3.8472025,-2.2556975,-5.128183,430
1747533796960,0.7082541,-1.619808,0.22013964,3.6623793,-2.1976407,-4.5566688,431
1747533796970,0.4628545899999999,-1.5833214,0.13484163,3.1641018,-2.05729195,-3.6993972,432
1747533796980,0.39293218,-1.5641629,0.14570218,2.99073,-2.0064256,-3.4402716,433
1747533796990,0.20842488,-1.7113295,0.12080834,2.4495757,-1.8290591,-3.0764837,434
1747533797000,-0.127153818,-1.7469617,0.048323338,1.87353385,-1.80029695,-3.04585745,435
1747533797010,-0.338507395,-1.8217653,0.048567393,1.4418354,-1.76168115,-2.9680931,436
1747533797020,-0.44613665,-1.8685023,0.06760386,1.2665994,-1.7315874,-2.912433,437
1747533797030,-0.70410514,-1.9239032,0.10201593,1.0135992,-1.7188042,-2.684999,438
1747533797040,-0.9518233,-1.9419636,0.062478654,0.7781757,-1.7251958,-2.3899207,439
1747533797050,-1.4372531,-1.956607,0.08102701,0.25992453,-1.7923075,-1.9393139,440
1747533797060,-1.7038856,-2.0006593,0.080416865,0.0282295149999999,-1.68471575,-1.6676715,441
1747533797070,-2.0343392,-2.0849811000000003,0.0650412549999999,-0.34541199,-1.45248805,-1.2085425,442
1747533797080,-2.0981603,-2.1252506,0.05027579,-0.48735848,-1.3278521,-1.0210559,443
1747533797090,-2.313907,-2.216528,-0.07297312,-1.4498249,-0.515588,-0.4777711,444
1747533797100,-2.313907,-2.216528,-0.07297312,-1.4498249,-0.515588,-0.4777711,445
1747533797110,-2.7002494,-2.4249527,-0.0156196635,-2.454902,-0.051665325,-0.26897928,446
1747533797120,-2.9892133000000003,-2.55405915,0.27151369,-2.7848676,-0.15632756,-0.024234765,447
1747533797130,-3.1860455,-2.6599799500000003,0.604041695,-2.55423795,-0.44048684,0.45992791,448
1747533797140,-3.303315,-2.7312446,0.82003236,-2.2945797,-0.64714813,0.8335694,449
1747533797150,-3.303803,-2.7771275,0.94938266,-1.8546255,-0.8069378,1.3022858,450
1747533797160,-3.18323865,-2.69121915,1.04444295,-1.058073925,-0.9102685,2.17447115,451
1747533797170,-3.0895207,-2.618246,1.036267,-0.74461985,-0.9214538,2.5182853,452
1747533797180,-2.20395895,-2.4698594,0.794040275,-0.28469193,-0.523044845,3.5183022,453
1747533797190,-1.9585594,-2.4142144,0.716064,-0.22050974,-0.21624869,3.9979374,454
1747533797200,-1.4165082,-2.2956026,0.5181335,-0.3403519849999999,0.08735168,4.1904839,455
1747533797210,-0.912286,-2.1889493,0.375116,-0.8452873,1.1867046,4.79369,456
1747533797220,-0.5195979,-2.123542,0.30629185,-1.2783173,2.0559604,5.2650695,457
1747533797230,0.12983845,-2.0732663,0.41148052,-1.917476,3.690076,6.526343,458
1747533797240,0.5527897,-2.0718021,0.45516676,-2.0714068,4.3542686,7.307714,459
1747533797250,1.010397,-2.0325086,0.36169282,-2.2604911,4.7654605,7.8275633,460
1747533797260,1.62005205,-2.0519113,0.18609365,-2.91855825,5.183044300000001,8.34528175,461
1747533797270,1.8057796,-2.0661886,0.1300825,-3.1989892,5.3012886,8.484299,462
1747533797280,2.3784599,-2.17686855,0.112266332,-5.08796955,5.666141700000001,8.885371,463
1747533797290,2.4461858,-2.1843123,0.15326795,-5.81474615,5.60488885,8.9258515,464
1747533797300,2.6252017,-2.1978575,0.4446723,-6.1455107,5.5095477,8.925319,465
1747533797310,2.6836534,-2.2140872,0.56523657,-6.567888,5.0568104,8.892828,466
1747533797320,2.7654128,-2.2172601,1.0880072,-6.474145,3.3140378,8.606804,467
1747533797330,2.8159325,-2.2023726,1.2014939,-6.066681,2.3164175,8.231298,468
1747533797340,2.8425348,-2.2855961,1.193928,-5.615009,1.3219932,7.7375484,469
1747533797350,2.7661448,-2.4003031,1.1658615,-4.9814430000000005,-0.1350223,7.205981250000001,470
1747533797360,2.6280084,-2.536731,1.1316935,-4.780374,-0.6173208,7.1031833,471
1747533797370,2.7207501,-2.70378825,1.1922196,-3.96384905,-2.76436125,7.53594715,472
1747533797380,2.94149995,-2.67364715,1.3373117,-3.63761185,-3.08287535,7.718640000000001,473
1747533797390,3.0580373,-2.6399672,1.4294434,-3.4626422,-3.1462586,7.791877,474
1747533797400,3.1872656,-2.485235,1.5766098,-2.8285434,-2.4700819000000003,7.926100249999999,475
1747533797410,3.1251531,-2.3458783,1.3780693,-2.82082015,-1.451689085,8.019044749999999,476
1747533797420,3.065115,-2.2665596,1.1656175,-3.2400018,-0.471645825,8.052068,477
1747533797430,3.150779,-2.2655835,0.98525906,-3.5175033,-0.20293288,8.031029,478
1747533797440,3.3030708,-2.1882172,0.9652464,-4.0661144,0.0058589545,7.775898,479
1747533797450,3.3225954,-2.08132,1.0675064,-4.4261737,-0.15978967,7.4067836,480
1747533797460,3.3369946,-2.0520332,1.4475036,-4.41099385,-0.406931035,7.2943983,481
1747533797470,3.6010647,-1.8304293,2.2101824,-2.744654,-1.1222562,7.4488616,482
1747533797480,3.83243085,-1.6376241,2.1830920000000003,-2.744654,-1.1222562,7.4488616,483
1747533797490,4.226338999999999,-1.22711985,1.99943895,-1.1371698,-0.4990764,6.941263,484
1747533797500,4.6265936,-0.49982923,1.445063,-0.7073356,-0.1635181,6.3372583,485
1747533797510,4.65600205,0.53973262,0.38548844,-1.03756755,-0.6476807899999999,5.37239505,486
1747533797520,4.4833317,1.2437157,-0.30909851,-1.9297266,-1.43091645,4.8413606,487
1747533797530,4.363988,1.4311516,-0.4893348,-2.4192157,-1.7017599,4.6813045,488
1747533797540,3.8858795,1.8304293,-0.5430274,-3.7955372,-2.0410466,4.5193844,489
1747533797550,3.460976,2.0686293,-0.20256752,-4.54335295,-2.06288455,4.5457497,490
1747533797560,3.2361991,2.25997,0.6286915,-6.6690884,-1.7853832,5.073322,491
1747533797570,4.127008,3.4412072,2.2492316,-6.9758844,-1.6165388,6.437926,492
1747533797580,6.5391481,4.861010500000001,3.03997705,-5.9934442,-1.53797555,6.23499265,493
1747533797590,7.4437466,5.336312,3.1903164,-5.645369,-1.3800501,5.8227353,494
1747533797600,7.9967794,6.0609174,3.586421,-4.98384,-0.43675843,3.5787559,495
1747533797610,7.850955450000001,5.1892675,4.4013285,-2.09297834,1.75981685,-1.5065503,496
1747533797620,7.19236725,3.76580335,4.32152185,0.82557996,1.9102855,-4.23842095,497
1747533797630,6.679603,3.1961737,4.0608687,1.9201392,1.4460965,-4.8192563,498
1747533797640,6.0465183,2.4022555,3.2750041,2.9497173,0.73290193,-5.316735,499
1747533797650,5.198297200000001,1.26372845,1.5074196,2.6072347,0.90654004,-5.814746,500
1747533797660,4.9517995,0.96622267,1.2350517,1.4586134,1.94011285,-5.9484365,501
1747533797670,4.838435,0.82027644,1.1614684,1.0887003,2.292449,-5.974003,502
1747533797680,4.5741213,0.466759465,1.24078705,0.414121575,3.0069753,-6.00702615,503
1747533797690,4.478695,0.36291313,1.3105874,0.283893,3.1654334,-6.0096893,504
1747533797700,4.241227,0.0372187315,1.5919854,1.10467922,3.0727553,-6.36655305,505
1747533797710,4.206815,-0.007321717,1.5949141,1.365669,2.9635658,-6.4959826,506
1747533797720,4.0903993,-0.07248501,1.5461026,1.9275961,2.6743464,-6.79692,507
1747533797730,3.74701085,-0.13703814,1.47215335,2.80830345,2.1928469,-7.150854000000001,508
1747533797740,3.6254702,-0.15863721,1.4328601,3.0956585,2.031992,-7.231015,509
1747533797750,3.175917,-0.28359452,1.1585398,4.0298953,1.6293219,-7.3162365,510
1747533797760,3.12442095,-0.31373559,1.08642085,4.1846251500000005,1.52918705,-7.3449986,511
1747533797770,3.0385127,-0.417826,0.8678676,4.5657234,1.2239889,-7.49307,512
1747533797780,2.9984872,-0.50593066,0.77829856,4.7382965,1.0173275,-7.7007966,513
1747533797790,2.9384494,-0.75340474,0.6452874,4.934838,0.7238472,-8.0299635,514
1747533797800,2.9533367,-0.9093573,0.5767073,5.0845075,0.09321064,-8.574313,515
1747533797810,2.9084303,-1.0575,0.56718904,5.107943,-0.2412824,-8.894425,516
1747533797820,2.71623505,-1.2855716,0.5618198,5.1276503,-0.53795856,-9.218266,517
1747533797830,2.4646121,-1.4604386,0.4931177,4.830974149999999,-0.8857674,-9.4102795,518
1747533797840,2.3078055,-1.5595258,0.4407674,4.582235,-0.9960223,-9.371664,519
1747533797850,2.20908415,-1.58625005,0.41941236,3.81950555,-0.880973725,-8.87818075,520
1747533797860,2.1729636,-1.5188903,0.435276095,3.2458607,-0.658599775,-8.445416999999999,521
1747533797870,2.1608827,-1.4731296,0.44857723,2.75637175,-0.384294165,-8.0307625,522
1747533797880,2.2028608,-1.3806318,0.51740134,2.5262747,-0.24181503,-7.822237,523
1747533797890,2.41275,-1.296188,0.7822035,1.9451729,0.04527374,-6.9870696,524
1747533797900,2.686582,-1.312784,0.95060295,1.9078887,0.0777643,-6.7106333,525
1747533797910,2.962855,-1.3374337,1.010275,2.1113541,0.12463594,-6.723682849999999,526
1747533797920,2.9855523,-1.3479282,1.0082005,2.2088258,0.17044231,-6.7857347,527
1747533797930,2.66156635,-1.3565922,0.93974242,2.65144325,0.52224588,-6.96336745,528
1747533797940,2.4703474,-1.3735542,0.88324314,2.8671594,0.6961503,-6.9945264,529
1747533797950,2.2112808,-1.5544006499999998,0.73571059,2.9800773,0.7643272,-6.9130335,530
1747533797960,1.96575915,-1.63066855,0.658954575,3.0349383,0.7435546,-6.693589,531
1747533797970,1.590155,-1.5930837,0.6346708999999999,2.9915289,0.51345749,-5.7428405,532
1747533797980,1.27544315,-1.4981453999999998,0.67201165,2.9555762,0.34194988,-5.217665,533
1747533797990,1.1990532,-1.4606826,0.6987359,2.9742184,0.23169503,-4.7484164,534
1747533798000,1.099966,-1.4101628,0.7380291,3.01762785,0.214384475,-4.5524077,535
1747533798010,0.95792466,-1.4047935,0.76975656,3.3513219000000003,0.17603496,-3.8176415,536
1747533798020,0.8000197,-1.4204131,0.8351639,3.4940674,0.14807177,-3.613377,537
1747533798030,0.545467945,-1.5700203,0.7314396000000001,3.8328216,0.053263225,-3.3752904,538
1747533798040,0.44906533,-1.6300584,0.626495,4.5540056,-0.21092236,-3.4184337,539
1747533798050,0.18133454,-1.7374434,0.3214234,4.6754456,-0.48629323,-3.6069853,540
1747533798060,-0.6355250849999999,-1.9991949,-0.41477529,3.8658447,-0.86366315,-3.8962049,541
1747533798070,-1.3742864,-2.1932205,-0.82308307,2.8285434,-0.8183894,-3.91644485,542
1747533798080,-1.89754505,-2.32745195,-0.94120678,1.89830125,-0.535828015,-3.51963375,543
1747533798090,-2.145019,-2.3976183,-0.97354436,1.3859091,-0.34567833,-3.2155008,544
1747533798100,-2.5091527,-2.5757802,-0.9686632,0.6498113,-0.049534798,-2.5917885,545
1747533798110,-2.7463763,-2.6753557,-0.8881243,0.046871636,0.34940675,-1.9680761,546
1747533798120,-2.898668,-2.7783477,-0.85127175,-0.42237735,0.77870834,-1.5052186,547
1747533798130,-3.2859867,-2.9113588,-0.7912336,-0.96299905,1.3646038,-0.65247446,548
1747533798140,-3.3560314,-2.9340563,-0.88958865,-1.1595404,1.4317155,-0.20453078,549
1747533798150,-3.3675021000000003,-2.9148978,-0.920339875,-1.26313735,1.41174175,0.0258326599999999,550
1747533798160,-3.287207,-2.8632796,-1.0211354,-1.5877767,1.284709,0.6956177,551
1747533798170,-3.1949534,-2.800801,-1.0816617,-2.17819955,0.8498146799999999,1.5656724,552
1747533798180,-2.7955538,-2.5846883,-0.932542725,-2.4879252000000003,0.545681715,2.05995505,553
1747533798190,-2.6802368,-2.5440528,-0.88373125,-2.5513084,0.43888897,2.193912,554
1747533798200,-2.464246,-2.4581444,-0.8105141,-2.6130936,0.18588865,2.4149544,555
1747533798210,-2.3305027,-2.3719923,-0.7067898,-2.5944517,-0.028229509,2.6839337,556
1747533798220,-1.9924834,-2.3095136,-0.5281399,-2.3829966,0.017576864,3.520699,557
1747533798230,-1.7403722,-2.2409337,-0.5171573,-2.3190808,0.19281286,4.0155144,558
1747533798240,-1.30582835,-2.14135835,-0.6266169699999999,-2.3931167,0.46871635,4.4645233,559
1747533798250,-1.1585398,-2.1174407,-0.6604189,-2.735599,0.87831056,4.973187,560
1747533798260,-0.82027644,-2.0879097,-0.7072779,-3.1989892,1.1691277,5.3465624,561
1747533798270,-0.21037734,-1.990287,-0.58280873,-4.3585296,1.5707325,5.9548283,562
1747533798280,0.093473926,-1.9641727,-0.4527262,-4.9470882,1.6964337,6.1684136,563
1747533798290,0.4127008,-1.9675895,-0.2630937,-5.4887753,1.7720674,6.372945,564
1747533798300,0.75389284,-2.0554502,-0.010006348,-5.9122176,1.7225326,6.5327344,565
1747533798310,1.1102164,-2.1751602,0.51642515,-6.1244715,1.5022891500000002,6.92235495,566
1747533798320,1.3929568,-2.26973235,0.905696475,-5.990781,1.33823845,7.3069152,567
1747533798330,1.57990465,-2.2632648,1.09654925,-5.764945,1.30681315,7.5591165,568
1747533798340,1.6556844,-2.2482553,1.1585398,-5.64963,1.3145363,7.677361,569
1747533798350,1.7891837,-2.207742,1.1758678,-5.560148,1.391768,7.8456726,570
1747533798360,2.003466,-2.204569,1.0853225,-5.7167416,1.496164,7.8792286,571
1747533798370,2.70610675,-2.19297625,1.03004355,-6.8893316,1.42452495,7.042197,572
1747533798380,2.7524775,-2.24251985,1.17159675,-7.3822825,1.31746585,6.64991325,573
1747533798390,2.7400305,-2.289989,1.2700739,-7.6081185,1.262871,6.4847975,574
1747533798400,2.5308735,-2.3824868,2.0530095,-7.0147665,0.86020108,5.9348548,575
1747533798410,2.3707721,-2.2467911,2.3385565,-6.623282,0.72011876,5.8301926,576
1747533798420,2.1778449,-2.13061975,2.42690515,-5.05867465,0.1595233535,5.50821615,577
1747533798430,2.0567925,-2.0533756,2.32025215,-4.0197755,-0.2673813815,5.3116748000000005,578
1747533798440,2.007859,-2.016645,2.238737,-3.522297,-0.49854377,5.215002,579
1747533798450,1.7962613,-1.9619763,1.7923565,-2.021872,-1.4072144,4.9220543,580
1747533798460,1.7962613,-1.9619763,1.7923565,-2.021872,-1.4072144,4.9220543,581
1747533798470,1.6066289,-2.024211,1.4948506,-1.0945592,-2.0612867,4.909804,582
1747533798480,1.5578175,-2.0661886,1.4226097,-0.6327671,-2.3185482,5.0637345,583
1747533798490,1.5436621,-2.119393,1.4133356,0.19387813,-2.1513016,5.5782576,584
1747533798500,1.64323745,-2.05117905,1.3133941,0.401871015,-1.93052555,5.7364493,585
1747533798510,1.8578858,-1.9472108,1.0909359,0.8801747499999999,-0.816525175,6.27494025,586
1747533798520,1.9729588,-1.9114565,0.9684192,0.8836369,-0.48682585,6.379869,587
1747533798530,2.2560651,-1.8621569,0.6631035,0.5752428,0.24341293,6.5551047,588
1747533798540,2.5674822,-1.7769808,0.3380193,-1.013599135,1.11506553,6.787865,589
1747533798550,3.129058,-1.4296874,0.33094162,-1.933455,1.3411679,6.872021,590
1747533798560,3.4424274,-1.1160738,0.5347294,-2.4021714,1.1318434,6.882141,591
1747533798570,3.7377367,-0.716064,0.68702114,-2.6189528,0.73769563,6.816627,592
1747533798580,4.04659115,0.1581491,0.54302741,-3.39446525,0.041545315,6.4088972,593
1747533798590,4.1223707,0.5759751,0.38878322,-3.983024,-0.20399815,6.169479,594
1747533798600,4.1663013,0.9901402,0.22184804,-5.119661,0.06498113,5.896239,595
1747533798610,3.978255,1.56733565,0.4804266749999999,-7.09066655,0.6095975849999999,5.402755,596
1747533798620,3.9620253,1.8237178,0.994777325,-8.0241046,0.6894924,5.15055375,597
1747533798630,4.3888815,2.2737594,2.1428227,-7.83555295,-0.22503715,4.98250825,598
1747533798640,4.792064,2.6416757,2.9572418,-7.3135734,-1.103614,4.905543,599
1747533798650,5.913019,3.86367025,4.0324359,-4.6797066,-3.17954805,4.7870325000000005,600
1747533798660,6.385514,4.2993126,4.313956,-3.6378782,-3.7731667,4.689827,601
1747533798670,7.532339,5.1398454,4.5411735,-0.52783857,-3.910053,3.10391445,602
1747533798680,7.9967794,5.7479145,3.5932547999999995,0.97445068,-2.7846013,0.31771515,603
1747533798690,7.9967794,5.19671125,2.82825745,1.55768295,-1.41786702,-2.57287995,604
1747533798700,7.800435699999999,4.34068035,2.5981115,1.5180018,-0.95234644,-3.4535873,605
1747533798710,7.17650385,3.3617666,2.5200132,1.2341088999999998,-0.21438448,-5.436311,606
1747533798720,6.7489157,2.847416,2.497926,1.1622036,-0.09853696,-5.83978,607
1747533798730,5.20000585,1.01735262,2.00724875,0.35366778,0.7864314800000001,-6.70956805,608
1747533798740,4.931421,0.76292294,1.9434278,0.16138756,1.0034791,-6.7521787,609
1747533798750,4.4860163,0.3585201,1.944404,-0.07137272,1.4695324,-6.6903934,610
1747533798760,4.155806800000001,0.040513503,2.11121725,0.168045465,1.92386755,-6.5617627,611
1747533798770,4.0698986,-0.032215554,2.1769907,0.35739622,1.9995013,-6.5369954,612
1747533798780,3.7382249,-0.31422371,2.3469765,2.5648905,1.08683605,-6.66935435,613
1747533798790,3.67355,-0.37243137,2.3334312,3.678092,0.409860505,-6.80703985,614
1747533798800,3.46951785,-0.4695661399999999,2.13830755,4.57344665,-0.15259913,-6.97615085,615
1747533798810,3.3318695,-0.530702475,1.89205375,5.2648031500000005,-0.622114435,-7.1668333,616
1747533798820,3.2735398,-0.56645685,1.7481819,5.546832,-0.8314389,-7.2640386,617
1747533798830,3.0790263500000004,-0.769390485,1.1609803,6.0389841,-1.3318469,-7.756989499999999,618
1747533798840,3.0509598,-0.80172807,1.0794652,6.0597568,-1.4072144,-7.8808265,619
1747533798850,2.9657836,-0.85493255,0.97403246,6.0485716,-1.6500946,-8.184427,620
1747533798860,2.7918929,-0.9815983,0.81063612,5.8874505,-2.1105552000000003,-8.629974,621
1747533798870,2.7231908,-1.0389518,0.7560893,5.790245,-2.278068,-8.77991,622
1747533798880,2.4680289,-1.1950263,0.517279325,4.8709217,-2.5790052,-8.9503525,623
1747533798890,2.4159226,-1.2049106,0.46541715,4.6179214,-2.576342,-8.945559,624
1747533798900,2.3201301,-1.25213575,0.352906785,3.69593505,-2.36541965,-8.853146500000001,625
1747533798910,2.3014598,-1.2710502,0.32215557,3.0463901,-2.14384465,-8.7460875,626
1747533798920,2.3822427,-1.3052181,0.45248213,2.7260118,-2.020274,-8.687232,627
1747533798930,2.3900526,-1.3018013,0.56011134,1.8423749,-1.5195998,-8.630773,628
1747533798940,2.3385565,-1.2878901,0.67628264,1.6490294,-1.1531488,-8.628642,629
1747533798950,2.2826674,-1.2715383,0.7890371,1.6556873,-1.03224127,-8.5937545,630
1747533798960,2.199688,-1.2544543,0.82759815,1.7726,-0.74035877,-8.425709,631
1747533798970,2.0691173,-1.2432276,0.8031924,1.9121497,-0.67324716,-8.233962,632
1747533798980,1.9190221,-1.1485333,0.7268025,2.1891184,-0.86179894,-7.8067904,633
1747533798990,1.8301853,-1.0648217,0.68336034,2.3276029,-1.0902982,-7.6256957,634
1747533799000,1.7057161,-1.018939,0.6106312,2.4485104,-1.3411679,-7.4302197,635
1747533799010,1.54537055,-0.97683912,0.4978768,2.5795378,-1.80588965,-6.96070435,636
1747533799020,1.49350835,-0.94084069,0.41855818,2.62001785,-2.0897826000000004,-6.5812037,637
1747533799030,1.50278255,-0.90984542,0.37133309,2.6245452,-2.2125543,-6.3673517,638
1747533799040,1.5075417,-0.895202,0.35656762,2.6338663,-2.269546,-6.269081,639
1747533799050,1.5058333,-0.84809893,0.38512233,2.7238812,-2.3915186,-6.0954432,640
1747533799060,1.4831358,-0.8217408,0.4075756,3.0123015,-2.4208134,-5.662946,641
1747533799070,1.2261436,-0.7592621,0.33582276,3.1758196,-2.3379892,-5.2107410000000005,642
1747533799080,1.0985017,-0.7577977,0.25772443,3.1792817500000004,-2.2407838,-4.8418932,643
1747533799090,1.0008788,-0.76926845,0.1889003,3.1595743,-2.18539,-4.6557384,644
1747533799100,0.8576172,-0.7670719,0.20549619,3.0439932,-2.08285835,-4.06504905,645
1747533799110,0.4059892149999999,-0.89385965,0.263703855,2.9955237,-2.0769993500000004,-3.64959595,646
1747533799120,0.028920783,-1.1161957999999998,0.31934892,2.9140309,-2.07300465,-3.31963035,647
1747533799130,-0.108117364,-1.2180897,0.32044718,2.8533108,-2.0532973,-3.2405345,648
1747533799140,-0.3031191,-1.4611707,0.31751847,2.5704832,-1.9398465,-3.1073763,649
1747533799150,-0.7042272,-2.1078003,0.07285109,1.80429165,-0.83916207,-2.49245265,650
1747533799160,-1.0695809,-2.3575929,-0.1890223349999999,0.719053505,0.0950748449999999,-1.93318875,651
1747533799170,-1.2844733,-2.4891398,-0.32581642,-0.425040545,0.374706775,-1.68311785,652
1747533799180,-2.0454438,-2.656197,-0.26675457,-0.9576728,0.39840892,-1.5957662,653
1747533799190,-2.2326357,-2.703422,-0.1637624,-1.7598169,0.28442562,-1.3741912,654
1747533799200,-2.2326357,-2.703422,-0.1637624,-1.7598169,0.28442562,-1.3741912,655
1747533799210,-2.3988385,-2.9343002,0.10836142,-1.9363845,-0.3981425899999999,-0.2862898275,656
1747533799220,-2.81715275,-3.31429755,0.6269831,-1.6500947,-0.6186523500000001,0.1672465225,657
1747533799230,-2.87487235,-3.3726273,0.5039782500000001,-1.5347798,-0.786964125,0.6889597700000001,658
1747533799240,-2.77334455,-3.3705527,0.36010648,-1.9156119,-0.725711405,1.5417040000000002,659
1747533799250,-2.6575394,-3.3445604,0.28798756,-2.5648905,-0.4045341799999999,2.3339945,660
1747533799260,-2.47352015,-3.15810085,0.3653537,-3.1068437,0.04234427,2.7585024,661
1747533799270,-2.3981063,-3.0970864,0.40903994,-3.3790188,0.29294774,2.9699574,662
1747533799280,-2.2226293,-2.97579,0.50495446,-3.8748994,0.89162636,3.4024546,663
1747533799290,-2.0444674,-2.8256948,0.6279593,-4.2599926,1.5014902,3.8647795,664
1747533799300,-1.5778301,-2.4962175,0.82808626,-4.6525426,2.5795379,4.8581386,665
1747533799310,-1.2808125,-2.3165915,0.9171671,-4.6275086,2.994991,5.3082128,666
1747533799320,-0.6749403199999999,-2.088886,0.927539555,-4.3097938,3.3579799,5.872004,667
1747533799330,-0.02904281,-1.9003518,0.85383427,-4.0208408,3.3899379,6.15722845,668
1747533799340,0.37706846,-1.7745403,0.7826916,-3.884487,3.3651705,6.2573633,669
1747533799350,0.71728426,-1.6695957,0.68482465,-3.5697012,3.0141659,6.417153,670
1747533799360,1.0562798,-1.6102897,0.6972716,-3.459979,2.6333337,6.432067,671
1747533799370,1.3767269,-1.5417097,0.8261338,-3.2107072,2.031992,6.412359,672
1747533799380,1.7612391,-1.38575705,1.3880756,-2.7382622,1.2543489,6.425143,673
1747533799390,1.8323817,-1.3374337,1.4753261,-0.9821738,-0.2647182,6.876282,674
1747533799400,2.02774955,-1.24054295,1.3902721,0.25300032,-0.8863,7.321563,675
1747533799410,2.3229369,-1.0945967,1.1704985,0.95234644,-1.0178602,7.651262,676
1747533799420,2.4227564,-1.0455412,1.0357789,1.2170646,-0.89322424,7.8994684,677
1747533799430,2.75259965,-0.8358961,0.619539325,0.447144765,0.0079895,7.9668465,678
1747533799440,2.886221,-0.7353445,0.45077375,-0.15659387,0.588026,7.909056,679
1747533799450,2.9086742,-0.7192367,0.4144092,-0.9816412,1.3374395,7.691742,680
1747533799460,2.852297,-0.74510676,0.42441553,-1.8535602,2.1054952,7.448329,681
1747533799470,2.5424664000000003,-0.96012128,0.52704162,-3.6767602,3.47728955,7.1628382,682
1747533799480,2.27034255,-1.1823354,0.6477279499999999,-4.9398975,4.23016525,7.0848075,683
1747533799490,2.1850445,-1.261776,0.6892177,-5.273059,4.3457465,7.094661,684
1747533799500,1.98772415,-1.5164496500000002,0.795992705,-6.0629527,4.248274800000001,7.19373075,685
1747533799510,1.93415365,-1.65421995,0.882999085,-6.4435184,3.98275755,7.220895199999999,686
1747533799520,1.9038906,-1.74134845,0.94450155,-6.68080595,3.6136434,7.17428995,687
1747533799530,1.85215045,-1.80736595,1.0225999,-6.7638965,3.41364,7.1335435,688
1747533799540,1.8255482,-1.8450727,1.0841023,-6.6717515,2.3707461,6.850183,689
1747533799550,1.9513597,-1.87496975,1.15280445,-6.234992999999999,1.30468262,6.67068615,690
1747533799560,2.0829066000000003,-1.85751965,1.1972229,-5.846970349999999,0.520647995,6.632869149999999,691
1747533799570,2.1642997,-1.8360426,1.2117443,-5.6650763,0.18429075,6.6456523,692
1747533799580,2.41433635,-1.718041,1.2598235,-4.7561395,-1.028246525,6.9300778,693
1747533799590,2.5130575,-1.6661788,1.2786158,-4.5699844,-1.2239889,6.995059,694
1747533799600,2.70793725,-1.4854544,1.2424954,-4.4088632,-1.3164006,7.06083915,695
1747533799610,2.902817,-1.30473,1.206375,-4.0011334,-1.4519554,7.2097096,696
1747533799620,3.59984435,-0.66871687,0.996363775,-4.0235038,-1.4088121999999998,6.73406915,697
1747533799630,3.72956075,-0.343022465,1.0467616,-4.25759585,-1.23437515,6.1529675,698
1747533799640,3.7997272,-0.15277983,1.0921562,-4.340953,-1.1520835,5.945241,699
1747533799650,3.96471,0.13471961,1.0755602,-4.44188675,-1.041828625,5.6863815,700
1747533799660,3.87331035,0.426856125,1.0363891,-5.14389575,-0.62557657,4.492486700000001,701
1747533799670,3.1206379,0.64357897,1.3515891,-5.59556775,-0.3286341,4.031227100000001,702
1747533799680,2.30975775,0.91045557,1.86301105,-5.823268,-0.1486044,3.8642468,703
1747533799690,2.118661,1.0423685,2.0739985,-5.658152,-0.3818973,4.172108,704
1747533799700,2.5386834,1.283497,2.5374632,-4.9795785,-1.0029465,4.5864964,705
1747533799710,3.6784308,1.5041249,2.7139168,-3.17715115,-3.17022695,4.6227152,706
1747533799720,5.9676875,3.2691468,2.88548885,-2.0474382,-4.56572345,3.9321575,707
1747533799730,7.470714,4.10370055,3.02667595,-1.5417039,-4.27863465,2.8099013,708
1747533799740,7.952361,4.484552,3.0311909,-1.3432984,-3.853594,2.107093,709
1747533799750,7.9967794,4.7000546,2.7961638,-1.3821807,-2.3105586,0.20612867,710
1747533799760,7.54112455,3.2211896,2.74503385,-1.97073925,0.40080575,-2.8253476500000003,711
1747533799770,7.0854697,2.3258655,2.9064777,-2.2088258,1.4775218,-3.923369,712
1747533799780,6.3716025,1.5424417,3.1400404,-1.64849675,2.10176685,-4.5396245,713
1747533799790,5.7175293,0.9474302,3.277201,-1.3092101,2.2759376,-4.657869,714
1747533799800,4.98792005,0.478474225,3.3451707500000003,-0.43888897,2.5177526,-4.6472163,715
1747533799810,4.6646663,0.29823794,3.0726807000000003,1.83651597,2.6296053,-4.8102015,716
1747533799820,4.4419640000000005,0.1126324165,2.609338,3.42961895,2.41974815,-5.1407,717
1747533799830,4.287353700000001,-0.0357543835,2.19529495,4.14521035,2.04317725,-5.4509582000000005,718
1747533799840,4.2012014,-0.10518867,1.9954121,4.424576,1.8338528,-5.6070194,719
1747533799850,4.0018067,-0.22892569,1.6810663,4.681837,1.4476944,-5.888782,720
1747533799860,3.56677465,-0.343266525,1.3900281,4.67171725,1.05727498,-6.36495525,721
1747533799870,3.346757,-0.37877685,1.3093672,4.615791,0.96140116,-6.6003785,722
1747533799880,3.1966617,-0.42905265,1.2681215,4.6485477,0.94249275,-6.96523165,723
1747533799890,3.056573,-0.5120321,1.2488409,4.674913,0.9086706,-7.0856066,724
1747533799900,2.9574857,-0.6047739,1.2852055,4.955344,0.63809342,-7.439007999999999,725
1747533799910,2.7495489,-0.7542589500000001,1.3584227,5.090899,0.52144694,-7.5601816,726
1747533799920,2.638747,-0.835408,1.3628157,5.95323025,-0.09108011055,-8.156996,727
1747533799930,2.61055835,-1.017596675,1.1952704,6.1673485,-0.26498453,-8.3492765,728
1747533799940,2.6079957,-1.0721434,1.1331578,6.243515,-0.350472,-8.447547,729
1747533799950,2.5308735,-1.1658615,1.0069802,6.262157,-0.55074173,-8.712265,730
1747533799960,2.3507595,-1.3652563,0.6897058,5.863748,-0.8628642,-8.967929,731
1747533799970,2.247523,-1.4167523,0.5618198,5.4285874,-0.99495703,-8.9199915,732
1747533799980,2.0995025500000004,-1.4157760499999998,0.4735930849999999,4.65573835,-0.9337043,-8.6163915,733
1747533799990,1.9732029,-1.3860011,0.451871985,3.90552595,-0.7339671999999999,-8.3229115,734
1747533800000,1.8764341,-1.3235225000000002,0.462854575,3.2064461,-0.567519625,-8.063786,735
1747533800010,1.850564,-1.2467665,0.482501195,2.996589,-0.49002165,-7.925035,736
1747533800020,1.8453168,-1.2078394,0.48909074,2.5545042,-0.3291667,-7.547931,737
1747533800030,1.91096825,-1.12742245,0.60562805,2.2445122,-0.240483445,-7.149256,738
1747533800040,1.9417195,-1.1060674,0.6496804,2.18539,-0.23116238,-7.040333,739
1747533800050,2.101333,-1.1058234,0.8102701,2.3270702,-0.39734364,-6.8176928,740
1747533800060,2.220433,-1.1033828,0.8773858,2.5331988,-0.6311692,-6.903979,741
1747533800070,2.17491625,-1.10850805,0.8634744999999999,2.7494476,-0.83516735,-7.0653663,742
1747533800080,2.1457515,-1.1187584,0.8754333,2.954511,-1.0386329,-7.186274,743
1747533800090,1.8973011,-1.1707426,0.8390688,3.1558459,-1.2159994,-7.215569,744
1747533800100,1.7774689499999998,-1.1698884,0.8169816299999999,3.2929987,-1.2370383500000002,-7.072291,745
1747533800110,1.57502345,-1.159516,0.7886710299999999,3.4700990000000003,-1.200553,-6.8089043,746
1747533800120,1.3823403,-1.1292529,0.75267255,3.546798,-1.1291803,-6.4480457,747
1747533800130,1.3374337,-1.163909,0.7185045,3.5963329,-1.3630059,-5.96920935,748
1747533800140,1.1153417,-1.2295604,0.7883049,3.6330845,-1.5121429,-5.7007627,749
1747533800150,0.95694845,-1.32010565,0.914116425,3.81311405,-1.77872535,-5.1585431,750
1747533800160,0.7923318500000001,-1.3629377,1.035901,4.0618532,-1.8546254,-4.7835701,751
1747533800170,0.6897058,-1.3733101,1.099966,4.222708,-1.8636801,-4.588627,752
1747533800180,0.46248847,-1.4182167,1.1275444,4.7425575,-1.707619,-4.106062,753
1747533800190,-0.21965154,-1.6124862,0.77756643,5.264537,-1.1291803,-3.639476,754
1747533800200,-0.706057615,-1.68497125,0.359740375,4.8988847,-0.784833575,-3.21843035,755
1747533800210,-0.929125965,-1.7546496,0.112632417,4.3603937,-0.526773275,-2.88606775,756
1747533800220,-0.988675925,-1.81895865,-0.066139518,3.7284257,-0.198671828,-2.55104205,757
1747533800230,-0.956582375,-1.9825989,-0.38695279,3.407781,-0.020772656,-2.3936493,758
1747533800240,-0.946454,-2.111339,-0.6384538,2.0618193,0.6668556,-1.923335,759
1747533800250,-1.1492655,-2.1171966,-0.839801,0.8314389,0.6215818,-1.6943032,760
1747533800260,-1.3235224,-2.1428227,-0.9027678,-0.14221281,0.4788364,-1.6879115,761
1747533800270,-1.3547617,-2.2836437,-0.79782313,-0.9395633,0.37230992,-1.8674086,762
1747533800280,-1.8775324,-2.9255142000000003,-0.63711145,-2.3803334,0.25859295,-2.12200675,763
1747533800290,-2.0347052,-3.0543764,-0.5859815,-2.6072347,0.22264028,-2.0309267,764
1747533800300,-2.3981063,-3.316738,-0.44784504,-2.9337382,0.16831179,-1.6042882,765
1747533800310,-2.7630940500000003,-3.5108856,-0.3090985149999999,-3.1286817,0.11451593,-1.0061423,766
1747533800320,-2.8535173,-3.5503008,-0.27944556,-3.2868736,-0.05273059,-0.35473305,767
1747533800330,-3.0311909,-3.3814132,-0.0061014313,-3.7215014,-0.5725796,1.051416,768
1747533800340,-2.8847566,-3.2630453,0.25089085,-3.8173752,-0.56618804,1.6612799,769
1747533800350,-2.693904,-3.1261294,0.4932397,-3.7918088,-0.34834146,2.2945797,770
1747533800360,-2.3888323,-3.0158153,0.6296677,-3.722034,0.6407565449999999,3.5835495,771
1747533800370,-1.6588572,-2.749305,0.55742675,-3.7502635,1.1659319,4.2306976,772
1747533800380,-1.3064384,-2.5979893,0.5593792,-3.9292278,1.5707325,4.8368335,773
1747533800390,-0.8751893,-2.4818182,0.57329047,-4.1353564,1.9414445,5.355617,774
1747533800400,-0.4761557,-2.369552,0.54790854,-4.3856936,2.2626216,5.781723,775
1747533800410,0.03941524,-2.2270224,0.6106312199999999,-4.789429,2.4602282,6.2616243,776
1747533800420,0.63491491,-2.1594186,0.81405295,-5.32898535,2.28685655,7.1058464,777
1747533800430,1.0433447,-2.1333044,0.9659786,-5.540973,2.1481059,7.5489964,778
1747533800440,1.4011327,-2.1018212,1.1634209,-5.58891,2.0618193,7.9804287,779
1747533800450,1.7496464,-2.0129843,1.398204,-5.4941015,2.0469058,8.371381,780
1747533800460,2.1459954,-1.8953485,1.5734371,-5.3098106,2.160889,8.674448,781
1747533800470,2.626178,-1.62273665,1.6094355,-4.992628099999999,2.4114925,8.55141,782
1747533800480,2.60946,-1.5722169,1.5883245,-4.9635997,2.418683,8.422513,783
1747533800490,2.4522872,-1.615415,1.4887493,-4.996623,2.3627565,8.125304,784
1747533800500,2.318788,-1.7159665,1.3825843,-5.1271176,2.2525017,8.0635195,785
1747533800510,2.299019,-1.8399476,1.3154685,-5.322061,1.9339876,8.158328,786
1747533800520,2.53819535,-2.10438375,1.4440867000000002,-5.6685386,0.74595145,8.5812375,787
1747533800530,2.6353302,-2.152341,1.5595258,-5.6416407,0.5182512,8.663795,788
1747533800540,2.8017771,-2.1889493,1.7164546,-5.412076,0.13795175,8.824118,789
1747533800550,2.8840246,-2.1899257,1.7547716,-5.14576,-0.12676647,8.948221,790
1747533800560,3.04876315,-2.2411777,1.5579395,-5.0299125,-0.15952335,8.882707499999999,791
1747533800570,3.1009915,-2.2785184,1.410895,-5.2552159,0.00772317,8.741027249999998,792
1747533800580,3.0033686,-2.3434377,1.3049742,-5.4099455,0.09427591,8.7058735,793
1747533800590,2.9811594,-2.400059,1.2510375,-5.7657437,0.21997711,8.633436,794
1747533800600,2.9892132,-2.447406,1.206619,-6.0863886,0.22690132,8.479506,795
1747533800610,2.99153175,-2.52635855,1.7134039,-5.68931115,-0.48682585885,8.582303249999999,796
1747533800620,3.0941577,-2.486211,2.0347052,-5.17612,-0.97897804,8.7857685,797
1747533800630,3.4685416,-2.331723,2.1811397,-4.2264366,-1.6266588,9.079249,798
1747533800640,3.9888716,-2.025675,2.2838876,-2.858637,-2.4037693,9.138904,799
1747533800650,4.50188,-1.4726415,2.2140872,-1.7022926,-2.6567695,8.8528805,800
1747533800660,4.898717,-0.8537123,1.8377512,-0.53609433,-1.8216022,7.23128125,801
1747533800670,5.0078106,0.41587353,0.7541369,-0.3158509,-1.2362394,6.2371235,802
1747533800680,4.3398259,1.08019745,-0.28164205,-1.8801918,-0.1816275849999999,4.787032,803
1747533800690,4.0264564,1.244448,-0.6557818,-2.6668897,0.19547603,4.363323,804
1747533800700,3.440231,1.2097918,-0.8605459,-4.7148604,0.9369001,3.6788907,805
1747533800710,2.2331238,0.9401085,0.1292282999999999,-6.6637616,1.7385116,3.212305,806
1747533800720,1.6652026,0.8664033,0.8849516,-8.796421,2.2897859,3.3864758,807
1747533800730,2.2803489,1.17245097,1.8122471,-7.873369500000001,0.99389178,4.01684595,808
1747533800740,2.6402113,1.3498806,1.9934596,-7.390272,0.41918156,4.2163167,809
1747533800750,3.700884,1.8838779,2.063016,-6.2547,-1.1653993,4.5252433,810
1747533800760,7.51293635,4.0478114000000005,1.74122645,-4.6954192500000005,-4.43842435,2.78992765,811
1747533800770,7.9967794,4.8097582,1.8426323,-4.8237836000000005,-4.277835700000001,0.891626335,812
1747533800780,7.9967794,5.0839567,1.934886,-4.9806437,-3.8908784,-0.21198763,813
1747533800790,7.652659,3.3533466,2.617758,-5.5814533,0.17150758,-4.3558664,814
1747533800800,6.3718467,2.0915706,3.2340026,-5.0999537,1.1579424,-4.802212,815
1747533800810,5.7038617,1.2515256,3.7431061,-4.036287,1.4705976,-4.666391,816
1747533800820,5.72338675,0.6749403,3.7249236,-2.8623655,1.3203954,-4.535896,817
1747533800830,5.81271175,0.393786345,3.41680145,-2.0895162,1.164334,-4.8235173,818
1747533800840,5.804658,0.23575929,3.2557237,-1.685781,1.412008,-5.3407035,819
1747533800850,5.1391134,-0.03807293,2.9086742,-0.9171927,2.932673,-5.762548,820
1747533800860,4.942159,-0.18279888,2.625568,-0.37763625,3.7555897,-5.6986322,821
1747533800870,4.742276,-0.3316738,2.2467911,0.409860505,4.4922202,-5.703958500000001,822
1747533800880,4.4442825,-0.49201941,1.8555672,0.6791061,4.614193,-5.7401776,823
1747533800890,3.888076,-0.6872652,1.5109584,1.3960291,4.0442767,-5.8376493,824
1747533800900,3.6430423,-0.72631437,1.4870408,1.7976338,3.6197686,-5.8925104,825
1747533800910,3.3977652,-0.73583263,1.5326794,2.2983081,3.2458608,-5.947904,826
1747533800920,3.1705477,-0.76926845,1.5485432,2.8756814,2.9470541,-5.9995694,827
1747533800930,2.92173135,-0.86908785,1.4371311000000002,4.0948765,2.4218787,-6.2144866,828
1747533800940,2.8542495,-0.9405966,1.3625716,4.690892,2.1358552,-6.3511066,829
1747533800950,2.8542495,-0.9405966,1.3625716,4.690892,2.1358552,-6.3511066,830
1747533800960,2.8072685,-1.1560992,1.37977765,6.0919811500000005,1.42186175,-6.93034435,831
1747533800970,2.79653,-1.3702594,1.46776025,7.1476583,0.7941546500000001,-7.4003923,832
1747533800980,2.8022654,-1.462391,1.4938743,8.122908,-0.0380832,-7.924236050000001,833
1747533800990,2.809099,-1.956363,1.3181533,8.723451,-0.6066681,-8.2776375,834
1747533801000,2.7610197,-2.1642997,1.1246158,8.942895,-1.0221212,-8.600412,835
1747533801010,2.5852983,-2.2570415,0.9191196,8.87099,-1.1829761,-8.776181,836
1747533801020,2.4195836,-2.2114027,0.72070104,8.532768,-0.7909589,-8.613195,837
1747533801030,2.2572856,-1.9446481,0.29140437,7.0030484,-0.31372038,-8.432633,838
1747533801040,2.2021286,-1.8375069,0.12715383,6.1332603,0.2231729,-8.253137,839
1747533801050,2.1721096,-1.7498904,0.0353883,5.278918,0.69987875,-8.051269,840
1747533801060,2.2176262,-1.6132185,-0.03087324175,3.96012055,1.13903405,-7.7463367,841
1747533801070,2.2494757,-1.5734371,-0.04612682,3.5515916,1.24849,-7.658186,842
1747533801080,2.12195575,-1.45665565,0.123492965,2.3137543,1.2937636,-7.4999943,843
1747533801090,2.0754628,-1.4372531,0.18401916,1.9675435,1.1840415,-7.458449,844
1747533801100,1.9976085,-1.4201691,0.3338703,1.8242654,1.0833739,-7.4057183,845
1747533801110,1.8477575,-1.3781912,0.4842096,1.9398465,1.0354371,-7.337009,846
1747533801120,1.5353642,-1.3054622,0.6635916,2.75264335,0.98563592,-7.0062445,847
1747533801130,1.3697713,-1.28313095,0.70129847,3.5329496,0.82265049,-6.626744,848
1747533801140,1.3240106,-1.2778838,0.6894617,3.8152447,0.71585774,-6.47521,849
1747533801150,1.2817887,-1.2495731,0.5857374,4.316984,0.3616573,-6.1934476,850
1747533801160,1.2651927,-1.2305366,0.46614933,4.705806,-0.1470065,-5.9441757,851
1747533801170,1.2160153,-1.3325526,0.245155505,5.123922,-1.7113473,-5.4094128,852
1747533801180,1.2007617,-1.2959439499999998,0.21037735,5.1140685,-2.411226,-5.1963598,853
1747533801190,1.210524,-1.2595794,0.19646609,5.092497,-2.711098,-5.1228566,854
1747533801200,1.1923417,-1.22345895,0.170229935,5.03603775,-2.9611689,-5.096757650000001,855
1747533801210,0.791111535,-1.159882,0.28335047,4.79155945,-3.53907475,-4.8823733,856
1747533801220,0.54864067,-1.1495095,0.38341394,4.7292414,-3.5744948,-4.75321,857
1747533801230,0.1020159335,-1.3775811999999998,0.2776151,4.571316,-3.25251865,-4.379035999999999,858
1747533801240,-0.052716363,-1.4645876,0.2111095,4.467719,-3.1031153,-4.220045,859
1747533801250,-0.4458926,-1.6466542,0.05662128,4.0197754,-2.7563717,-3.7774277,860
1747533801260,-1.090935965,-1.9591695,0.021721097,3.1558459,-2.2567627,-3.026949,861
1747533801270,-1.359399,-2.1259825,0.099087246,1.7566211,-1.5041534,-1.7033578,862
1747533801280,-1.4870408,-2.29365,0.18597162,1.1622036,-1.1994878,-1.2458268,863
1747533801290,-1.6024799,-2.3182998,0.38878322,0.7536746,-0.8788432,-1.0088054,864
1747533801300,-1.8722851,-2.4417927500000003,0.50324605,0.50573428,-0.362722545,-0.972586465,865
1747533801310,-2.28364365,-2.67865035,0.39171189,0.36831518,-0.13608753,-0.86499473,866
1747533801320,-2.575048,-2.95187245,0.22038369,0.27510455,-0.0761664075,-0.581101765,867
1747533801330,-2.600918,-3.0553527,0.136428,0.2609898,-0.090014845,-0.4245079,868
1747533801340,-2.6284966,-3.1688392,-0.18572757,0.007989483,-0.103863284,0.00958738,869
1747533801350,-2.6255679,-3.2161864500000004,-0.53363115,-0.50387007,-0.06657903,0.33076462,870
1747533801360,-2.6228833,-3.2188709,-0.6145361,-1.2261194,0.02609898,0.6061355,871
1747533801370,-2.7013476,-2.93710685,-0.273710205,-2.9851374,0.4303668499999999,1.3110742,872
1747533801380,-2.690243,-2.865232,-0.11202228,-3.2415998,0.5251754,1.4562165,873
1747533801390,-2.5996978,-2.7214823,0.20964517,-3.487676,0.7414241,1.7923075,874
1747533801400,-2.4466739,-2.5892034,0.4527262,-3.5143075,0.9997507,2.2120216,875
1747533801410,-2.2272666,-2.494021,0.6033095,-3.3140378,1.6165388,3.0487867,876
1747533801420,-1.5788064,-2.13647725,0.58036815,-3.15664495,2.3893881,3.8786277,877
1747533801430,-1.02198975,-1.99455795,0.454312575,-3.16330275,3.1031153,4.5550708,878
1747533801440,-0.8319912,-1.9231712,0.38219365,-3.2293491,3.3214946,4.7366986,879
1747533801450,-0.1917069725,-1.7296337,0.146434344,-3.91031945,3.78994465,5.204083000000001,880
1747533801460,0.2114755975,-1.64384755,0.0165958932,-4.58010435,3.86691,5.480253,881
1747533801470,0.40928398,-1.6473864,0.0068336032,-5.0815778,3.70445715,5.652559650000001,882
1747533801480,0.5994046,-1.70168915,0.0572314239999999,-5.6062208,3.4232273,5.87013985,883
1747533801490,0.69239044,-1.7430568,0.09737884,-5.881858,3.2533176,5.9995694,884
1747533801500,0.84834296,-1.8706989,0.25894472,-6.2190137,2.9870014,6.292517,885
1747533801510,1.0904477849999998,-1.96417275,0.6384537849999999,-6.408364499999999,2.54305255,7.12289095,886
1747533801520,1.2512815,-1.9876022,0.79513854,-6.413957,2.3382554,7.5724325,887
1747533801530,1.560502,-2.0156689,0.88031447,-6.430469,2.0506341,7.9681783,888
1747533801540,2.2499638,-2.0110316,1.1416998,-6.5188856,1.3582122,8.325574,889
1747533801550,2.536975,-1.9636846,1.3137602,-6.39425,0.98803276,8.160459,890
1747533801560,2.7085474,-1.8433644,1.4333482,-6.1385865,0.5928197,7.768974,891
1747533801570,2.75882315,-1.71035315,1.42224355,-5.71940465,-0.0303600399999999,6.8224862,892
1747533801580,2.6382589,-1.75220895,1.4077222,-5.53058665,-0.29321404,6.39744575,893
1747533801590,2.3445359,-1.88375585,1.43920555,-5.13856965,-0.676176595,6.205698249999999,894
1747533801600,2.1315958,-1.9712504,1.4636112,-4.840562,-0.94488955,6.182795,895
1747533801610,2.0005372,-2.0244548,1.4716653,-4.4868937,-1.2767195,6.432067,896
1747533801620,1.9751552,-2.076195,1.4907017,-3.9273636,-1.68205255,6.964699,897
1747533801630,2.0554502,-2.0554502,1.5692881,-3.7193708,-1.7880464,7.141533,898
1747533801640,2.3778498,-1.8914437,1.5324354,-2.7798076,-2.0516994,7.4200997,899
1747533801650,2.4690051,-1.8428763,1.5123007,-2.6165558,-2.0700752,7.332481599999999,900
1747533801660,2.6546109,-1.7376877,1.4467713,-2.1587584,-2.0005667,6.960438,901
1747533801670,2.51549805,-1.73927405,1.34524355,-1.8269285,-1.69030835,6.679474600000001,902
1747533801680,2.46351385,-1.87594605,1.16439715,-1.72705995,-1.4024206,6.78094105,903
1747533801690,2.4618053,-1.9937036,1.0208915,-1.7150757,-1.2154667,6.9268823,904
1747533801700,2.5435646,-2.1132917,0.84150934,-1.9984361,-1.0727214,7.278952,905
1747533801710,2.6785283,-2.2294629,0.8463905,-2.364887,-1.0343717,7.726896,906
1747533801720,3.0270421,-2.16564205,1.065676,-2.7427896,-0.8261126000000001,8.2976115,907
1747533801730,3.153952,-2.114024,1.1697664,-2.7728834,-0.7595336,8.384164,908
1747533801740,3.7762978,-1.8177384,1.9292725,-1.4855113,-0.9901633,8.154067,909
1747533801750,3.9800857,-1.2883782,1.6889981500000002,0.192812875,-1.4753913,7.638745,910
1747533801760,4.0164504,-1.1150976,1.4826478,0.6854977,-1.6831179,7.45259,911
1747533801770,4.1609321,-0.474935405,0.46065806,1.1805793,-2.20509745,6.87388515,912
1747533801780,4.1684976,-0.24942651,0.10860548,1.1456919,-2.2903185,6.6871977,913
1747533801790,4.194368,0.69336665,-0.8834872,-0.76485986,-1.6069515,6.400109,914
1747533801800,4.5150592,1.168058,-0.647239825,-2.7561054,-0.55899752,6.88160845,915
1747533801810,4.8552749,1.52303925,-0.30763415,-3.5241611,-0.0892159,7.2200962,916
1747533801820,5.0319724,1.7213358,-0.14643435,-3.8663774,0.09161274,7.357249,917
1747533801830,6.869967450000001,3.7053993,1.17660005,-3.55532,0.8016115,7.363641,918
1747533801840,7.4374003,4.2951636,1.2730026,-2.5084314,1.00054965,6.0917148,919
1747533801850,7.9967794,6.599674,1.3026556,-1.7963021,0.70147665,4.4541369,920
1747533801860,7.9967794,7.9970236,1.3308442,-1.4551512,0.4181163,3.4935348,921
1747533801870,7.9967794,5.9750094,-0.10421244,-1.4881744,-0.091080114,-0.314253,922
1747533801880,7.6797492,4.988896,1.7491583,0.41438788,-0.45220476,-4.027232,923
1747533801890,7.9967794,3.556402,1.1753798,1.1062771,-0.83516735,-5.6315207,924
1747533801900,7.3676002,2.34661045,0.480792765,1.0420949350000002,0.307328805,-7.5372785,925
1747533801910,6.814322,2.1350129,0.39317623,0.89375687,0.34567833,-7.877098,926
1747533801920,6.2654376,0.2689511,0.051252022,0.32330775,0.16777915,-8.27817,927
1747533801930,5.38207245,-0.317396445,0.40074203,-1.3475596,1.075118185,-8.259528,928
1747533801940,5.2884765,-0.4549227,0.5791479,-1.5824504,1.3347764,-8.194547,929
1747533801950,5.3008012,-0.77573598,1.598331,-0.8037420350000001,1.78138845,-8.334629,930
1747533801960,5.291405,-0.8673795,2.006883,-0.25406557,1.7773937,-8.459798,931
1747533801970,4.9353256,-1.2246792,2.5975013,3.3981936,0.63862604,-9.269931,932
1747533801980,4.3641097,-1.51132445,2.1411143,5.6970343,-0.516919565,-9.7016295,933
1747533801990,4.156051,-1.5958903,1.922927,6.306898,-0.8516789,-9.804694,934
1747533802000,3.534193,-1.69973665,1.02467435,6.94073065,-1.36779955,-9.95276575,935
1747533802010,3.082077,-1.6673991,0.31153908,6.2610918,-1.33637425,-9.90909025,936
1747533802020,2.8247187,-1.6276178,-0.12080834,5.5718656,-1.2186625,-9.844109,937
1747533802030,2.57944105,-1.5932057,-0.2506468,3.88794895,-0.8492820999999999,-9.69097725,938
1747533802040,2.5250163,-1.5785623,-0.22306833,3.4637074,-0.7590009,-9.6465025,939
1747533802050,2.4222682,-1.5165718,-0.014399378,2.75504015,-0.75580515,-9.512279,940
1747533802060,2.15234085,-1.47776655,0.476765825,2.6778085000000003,-1.0061423,-9.319999,941
1747533802070,1.91645955,-1.45018815,0.7015425550000001,2.80430865,-1.27751845,-9.0155995,942
1747533802080,1.854347,-1.427979,0.73436826,2.8751488,-1.3587449,-8.867261,943
1747533802090,1.8465372,-1.3828284,0.7490117,2.9822078,-1.4620755,-8.583368,944
1747533802100,1.8506861,-1.3064384,0.76511943,3.06157,-1.555286,-8.375109,945
1747533802110,1.8826576,-1.2249234,0.7839119,3.06955945,-1.5579493,-8.02197365,946
1747533802120,2.0527656,-1.1399914,0.6999562,3.0061762,-1.5068166,-7.8925443,947
1747533802130,2.09474335,-1.087153,0.7032509499999999,2.8873992,-1.442368,-7.7519293,948
1747533802140,2.1174407,-1.0797093,0.6975156,2.7553065,-1.4109428,-7.609184,949
1747533802150,2.2272666,-1.1031388,0.6901939,2.6029737,-1.427987,-7.535681,950
1747533802160,2.293406,-1.1058234,0.6587105,2.437325,-1.4658039,-7.5623126,951
1747533802170,2.1418464,-1.1060674,0.6218578,2.2631543,-1.4466292,-7.55379,952
1747533802180,1.85556725,-1.1210769,0.64370102,1.90469285,-1.3997575,-6.89519035,953
1747533802190,1.67728345,-1.0906918,0.659930795,1.8604844,-1.3848438,-6.6999807,954
1747533802200,1.5065654,-1.0100309,0.69019389,1.7425063,-1.1970909,-5.95376315,955
1747533802210,1.36489015,-0.92790565,0.740469695,1.6860473,-1.07831395,-5.475992,956
1747533802220,1.31925145,-0.89276142,0.787694755,1.6871125500000002,-1.12918035,-5.28264635,957
1747533802230,1.3061944,-0.88275504,0.80563295,1.6974989,-1.1797804,-5.2112737,958
1747533802240,1.2771516,-0.8998391,0.84004503,1.7294569,-1.2836437,-5.1244545,959
1747533802250,1.2432276,-0.9159469,0.8673795,1.7672738,-1.3693974,-5.0648,960
1747533802260,1.1748916,-0.9132622,0.88373125,1.7853832,-1.4620755,-5.0062103,961
1747533802270,0.899839075,-0.97000555,0.99306895,1.99390865,-1.6072177,-4.6568036,962
1747533802280,0.83028275,-0.9813542,1.0042956,2.065015,-1.6117451,-4.5641255,963
1747533802290,0.6672525,-1.073852,1.0440769,2.2040322,-1.5824504,-4.349475,964
1747533802300,0.0583296899999999,-1.2333432,0.99209275,2.3646207,-1.01280025,-4.0410807,965
1747533802310,-0.444794325,-1.30704855,0.88202293,2.37900175,-0.434095285,-3.84480585,966
1747533802320,-0.56596875,-1.3281596,0.85859346,2.3664849,-0.26205507,-3.7811563,967
1747533802330,-0.71215904,-1.4860646,0.75535715,2.3819313,-0.02396845,-3.6096487,968
1747533802340,-0.83223516,-1.6808223,0.6728658,2.5108283,0.14807177,-3.3859432,969
1747533802350,-1.4499441,-1.9729588,0.15790504,2.683401,-0.16724652,-2.9481194,970
1747533802360,-1.76489995,-2.20261675,-0.1616879299999999,2.4381239,-0.696150335,-2.4671525,971
1747533802370,-1.896813,-2.3998148500000003,-0.35790994,2.1915152,-0.752609335,-2.10336475,972
1747533802380,-1.9553868,-2.5125692,-0.46810177,2.0421119,-0.7078682,-1.9100192,973
1747533802390,-2.080832,-2.85351745,-0.7353445000000001,1.07618345,-0.13848438,-1.087635,974
1747533802400,-2.1079225,-3.06926405,-0.873969,0.385625715,0.48682585,-0.44607949,975
1747533802410,-2.135501,-3.1922688,-1.0069802,0.16245283,0.7669904,-0.18322548,976
1747533802420,-2.3375802,-3.4082596,-1.5317032,-0.73822826,1.0082728,0.32650355,977
1747533802430,-2.5130575,-3.3396795,-1.7486702,-2.9603699,1.33131425,1.366468,978
1747533802440,-2.2929177,-3.239616,-1.4243181,-3.9760995,1.5520903,1.8322549,979
1747533802450,-2.2055454,-3.04070925,-1.02516248,-4.96093655,1.8780612,2.23519125,980
1747533802460,-2.2021286,-2.9821355,-0.88739216,-5.2059474,1.9302592,2.3702135,981
1747533802470,-2.1457515,-2.8876853,-0.6460195,-5.475459,1.8482338,2.6913908,982
1747533802480,-1.75342935,-2.68206715,-0.246009705,-5.4277888,1.40082275,3.3454629,983
1747533802490,-1.5456146,-2.5608926,-0.09298581,-5.3098106,1.1819109,3.6794233,984
1747533802500,-1.3530535,-2.4752285,-0.005857374,-5.1287155,1.0098706,4.027765,985
1747533802510,-1.2085714,-2.3815105,0.03172744,-4.9247174,0.8090684,4.4789042,986
1747533802520,-1.0140579,-2.314639,0.04637088,-4.6924898,0.42504051,5.24349805,987
1747533802530,-0.53082454,-2.1494124,0.10982577,-4.56385915,0.1800297,5.9417788,988
1747533802540,-0.123492972,-2.07375445,0.172914565,-4.4884918,0.061519025,6.58360065,989
1747533802550,0.025137896,-2.0615516,0.18304294,-4.51885175,0.12703279,6.9282138,990
1747533802560,0.49250752,-2.0253091000000003,0.16730124,-4.65999935,0.280164555,7.264570949999999,991
1747533802570,0.8482209199999999,-2.00566245,0.17022993,-4.8815744,0.40240365,7.5279578,992
1747533802580,1.25591855,-2.0344611500000003,0.165470815,-5.31859915,0.41465419,7.6648445,993
1747533802590,1.46654,-2.0627718,0.14497001,-5.63951,0.39627838,7.718374,994
1747533802600,1.586128,-2.140382,0.21062139,-5.9979715,0.21358553,7.91385,995
1747533802610,1.9407433,-2.25093995,0.436374335,-6.326072849999999,-0.259924528,8.4249105,996
1747533802620,2.0642362,-2.2702205,0.52399087,-6.391054,-0.45859635,8.604141,997
1747533802630,2.8400941,-2.11756265,0.923634645,-6.14497785,-1.15501297,8.742625499999999,998
1747533802640,2.9670038,-2.063504,0.99087244,-5.921805,-1.4301175,8.634501,999
1747533802650,3.1229565,-1.9624643,1.1434082,-5.6629457,-1.4199976,8.406002,1000
1747533802660,3.171768,-1.8816814,1.2525018,-5.6629457,-1.4199976,8.406002,1001
