id,timestamp,acc_x,acc_y,acc_z,gyro_x,gyro_y,gyro_z
1,1747533679150,-0.640162185,-0.266266465,0.2113536,-0.8727179399999999,1.68684626,0.13235911
2,1747533679160,-1.3933228,-1.7711234,0.4898229,0.9187906,1.2868395,6.1151505
3,1747533679170,-1.3689171,-1.7605069,0.50117155,0.9387643,1.36007645,6.074137950000001
4,1747533679180,-0.9066727,-1.6847272,0.5254553,0.93903065,1.2921658,5.7066216
5,1747533679190,-0.7170402,-1.7262169,0.5125202,0.81545997,0.9720538,5.449893
6,1747533679200,-0.55693865,-1.7750283,0.5383903,0.7344999,0.48948902,5.2538843
7,1747533679210,-0.3328941,-1.8272567,0.51618105,0.72651035,-0.1123854,5.132977
8,1747533679220,-0.124225145,-1.89241995,0.47127454,0.753408275,-0.3760383499999999,5.0661315
9,1747533679230,0.8529801,-2.285352,0.17840585,1.2378373,-0.95447695,4.553473
10,1747533679240,1.1346222,-2.3595455,-0.07443746,1.5792545,-0.56618804,4.304201
11,1747533679250,1.4614148,-2.4608293,-0.32532832,1.9339876,0.29134983,4.001666
12,1747533679260,1.72231195,-2.5389276,-0.400986075,2.0138824,0.636761815,3.8064563
13,1747533679270,2.694636,-2.8461957,-0.54839665,2.0804615,1.6559536,2.1960428
14,1747533679280,2.7468643,-2.9191687,-0.53961056,1.8716697,1.3406353,1.4695324
15,1747533679290,2.7678533,-2.9711528,-0.5130083,1.540905,0.7275756,0.8266452
16,1747533679300,2.77224625,-2.9690783,-0.501903715,1.3984259,0.412789963,0.53795854
17,1747533679310,2.7904285,-2.9707868,-0.4994631399999999,1.1938951,-0.144343337,-0.0093210599999999
18,1747533679320,2.8389959,-2.983966,-0.562795995,1.0977549999999998,-0.54435013,-0.52863747
19,1747533679330,2.732953,-2.857422,-0.9803779,0.700944,-0.5965481,-1.8743328
20,1747533679340,2.622395,-2.7295363,-1.0077124,0.4612595,-0.44900897,-2.2525017
21,1747533679350,2.5557675,-2.6233714,-0.9862353,0.31611722,-0.447677385,-2.44957565
22,1747533679360,2.5089085,-2.5604048,-0.9686632,-0.22583607,-0.5784386,-3.0988543
23,1747533679370,2.2594821,-2.4378877,-0.8649389,-1.1574098,-1.0072075,-4.0309606
24,1747533679380,2.136477,-2.4076247,-0.77854264,-1.6026903,-1.1749867,-4.4948835
25,1747533679390,1.9839413,-2.4408164,-0.6199054,-1.9867182,-1.3267869,-4.986503
26,1747533679400,1.7659982,-2.4786453,-0.3961049,-2.2993734,-1.468467,-5.6155415
27,1747533679410,1.0377314,-2.4400845,-0.08639627,-2.4554346,-1.427987,-6.356433
28,1747533679420,0.77829856,-2.422024,0.051496077,-2.457565,-1.3784522,-6.6685553
29,1747533679430,0.5379022,-2.4393523,0.1403329,-2.481001,-1.401888,-7.024354
30,1747533679440,0.3265486,-2.4805977,0.20769271,-2.5342641500000003,-1.4647386,-7.22995
31,1747533679450,0.035876416,-2.566994,0.27822527,-2.6828685,-1.6200009,-7.6552568
32,1747533679460,-0.59061855,-2.6641288,0.42051062,-3.2794166,-1.9813919,-8.61213
33,1747533679470,-0.96451426,-2.7012258,0.5105677,-3.5020568,-2.0181434,-8.859804
34,1747533679480,-1.3891739,-2.7022018,0.67091334,-3.6288233,-1.901497,-9.00255
35,1747533679490,-1.53878095,-2.70988965,0.76792612,-3.5811528,-1.80775375,-9.0246545
36,1747533679500,-1.81712825,-2.72721775,0.95401975,-3.2618399,-1.4551512,-9.090434
37,1747533679510,-2.3100019,-2.6636407,1.1665937,-2.5033715,-0.87564737,-9.134643
38,1747533679520,-2.5245283,-2.60946,1.0836142,-2.2354574,-0.74781567,-9.127186
39,1747533679530,-2.6377707,-2.5650415,0.97476465,-2.1827269,-0.7451525,-9.065933
40,1747533679540,-2.64667885,-2.57663425,0.95267749,-2.26794805,-0.8008125500000001,-9.067531
41,1747533679550,-2.6487533,-2.6228832,0.938034015,-2.5161546,-1.0229202000000002,-9.1250555
42,1747533679560,-2.65692915,-2.66803385,0.9796457,-3.145726,-1.798699,-9.277921
43,1747533679570,-3.0619423,-2.4854789,1.1848979,-3.6746297,-2.1848574,-8.757539
44,1747533679580,-2.9867725,-2.527457,1.4301754,-3.6938045,-2.305765,-8.470983
45,1747533679590,-2.8657203,-2.570167,1.6288381,-3.5452,-2.457565,-8.370316
46,1747533679600,-2.8029974,-2.5518627,1.679602,-3.44799465,-2.4682177000000003,-8.372179500000001
47,1747533679610,-2.7854254,-2.5164742,1.6532438,-3.1957934,-2.3813987,-8.399077
48,1747533679620,-2.7473524,-2.3895645,1.6249331,-2.9379995,-1.866876,-8.343151
49,1747533679630,-2.750281,-2.3029244,1.5927176,-2.62854,-1.1488878,-8.16472
50,1747533679640,-2.72978025,-2.24544885,1.61822155,-2.4098945,-0.7597999200000001,-8.094412
51,1747533679650,-2.681823,-2.1714994,1.6678872,-1.9297266,-0.055393755,-8.0033315
52,1747533679660,-2.9528487,-1.9570951,1.7506226,-0.66152924,0.8905611,-7.902664
53,1747533679670,-3.0674335,-1.80443725,1.75135485,-0.414920515,0.881772665,-7.78442
54,1747533679680,-3.415093,-1.2427394,1.5878365,0.19760656,0.64395237,-7.28055
55,1747533679690,-3.6564658,-0.48128092,1.1768441,0.18056233,-0.1603223,-6.2147527
56,1747533679700,-3.6168065,-0.3486358,1.1194906,0.02689793,-0.437557365,-5.9345882
57,1747533679710,-3.4604878,-0.061746486,0.950359,-0.62051654,-1.4689997,-4.999286
58,1747533679720,-3.4346175,-0.05832968,0.792942,-1.0823087,-1.8876486,-4.5034056
59,1747533679730,-3.3853179,-0.05674331,0.734856375,-1.3358416,-2.0367856,-4.3103263
60,1747533679740,-3.3916636,0.27212384,0.579636,-2.469283,-2.6775422,-3.7284255
61,1747533679750,-3.5200377,0.39952172,0.58158845,-2.61655575,-2.77528025,-3.61524115
62,1747533679760,-3.7492074,0.65749022,0.5498609750000001,-2.8948561,-2.98300685,-3.3196304000000003
63,1747533679770,-3.8900287,1.1148535,0.44735694,-3.2879388,-3.371562,-2.6439865
64,1747533679780,-3.7116225,1.4431105,0.38390204,-3.5574505,-3.6501286,-2.1720743
65,1747533679790,-3.3150296,1.8296971,0.04344219,-4.687164,-3.8237667,-1.6042882
66,1747533679800,-3.128814,1.8775325,0.24454537,-5.210741,-3.691674,-1.6410398
67,1747533679810,-2.9740815,1.9429398,0.707522,-5.3508234,-3.281547,-1.9148128
68,1747533679820,-3.1195397,2.0469081,1.2263877,-4.938566,-2.1369205,-2.3872576
69,1747533679830,-5.101773,2.5779767,2.5125692,-3.914847,-0.072970614,-2.808037
70,1747533679840,-6.18978,2.6997612,3.0243573,-0.82078624,4.5811696,-2.469283
71,1747533679850,-7.038367,2.7058628,3.3233275,0.63436496,5.4637413,-1.7763284
72,1747533679860,-7.631914,2.7507694,3.1705477,1.6367788,4.6930227,-0.58429754
73,1747533679870,-7.9970236,2.89037,2.60043,1.5803198,3.097789,0.5954828
74,1747533679880,-7.776152,2.5621128,1.7728319,0.14168017,-0.82557994,3.086071
75,1747533679890,-7.1772356,2.016401,1.8106607,-0.5289038,-2.5379925,4.149738
76,1747533679900,-6.3750196,1.415044,2.0578907,-0.76592517,-3.794472,4.9492188
77,1747533679910,-5.3900046,0.79269797,2.3129306,-0.5001417,-4.429902,5.4813185
78,1747533679920,-4.5304346,0.34509695,2.3566167,0.13741912,-4.35054,5.763613
79,1747533679930,-3.371163,-0.08956901,2.2389812,1.8269285,-2.6077673,5.722068
80,1747533679940,-3.2536493,-0.1333772899999999,2.2493536,2.31535225,-1.88099065,5.6869143
81,1747533679950,-3.0975745,-0.2882316,2.3651588,3.5036547,-0.21252026,5.674131
82,1747533679960,-3.1090453,-0.4053791,2.4344711,4.130563,0.4644553,5.7998323
83,1747533679970,-3.0978186,-0.53717,2.4569242,4.6701193,0.9289106,5.9819927
84,1747533679980,-3.290624,-0.81149036,2.4164107,5.597965,1.4514228,6.5540395
85,1747533679990,-3.2750041,-0.9091133,2.246059,5.884521,1.4759239,6.9465895
86,1747533680000,-3.171768,-1.044565,2.00371,5.975601,1.4636734,7.3162365
87,1747533680010,-3.022649,-1.1919756,1.786255,5.9212723,1.5132082,7.6177063
88,1747533680020,-2.7461321,-1.5202327,1.6063848,5.6826534,1.8998991,8.011854
89,1747533680030,-2.6587596,-1.6595892,1.5834434,5.6602826,2.1960428,8.155132
90,1747533680040,-2.6016503,-1.7251186,1.56282055,5.650429000000001,2.32866815,8.211857
91,1747533680050,-2.4610732,-1.8941283,1.445795,5.5404406,2.6727486,8.341554
92,1747533680060,-2.4443554,-1.9209746,1.39979025,5.4458983,2.8107003,8.3407545
93,1747533680070,-2.5128136,-1.9922394,1.4030851,4.9188585,3.432282,8.148208
94,1747533680080,-2.6363065,-1.9912632,1.4047935,4.7036753,3.560114,8.075769
95,1747533680090,-2.7778594,-1.965393,1.3825843,4.393151,3.5744948,8.156198
96,1747533680100,-2.8413144,-1.9620982,1.3331627,4.217648499999999,3.5156389,8.2344945
97,1747533680110,-2.9335681,-1.96295245,1.24359375,3.584615,3.2112398,8.5295725
98,1747533680120,-2.9518726,-2.0942552,1.0804414,3.0503848,2.7158918,8.730907
99,1747533680130,-2.7688293,-2.3053648,1.0474937,1.824798,1.230913,8.860337
100,1747533680140,-2.5628452,-2.4820623,1.1063116,1.3134711,0.4575311,8.716526
101,1747533680150,-2.314883,-2.5733397,1.1944162,1.0205233,-0.2514024,8.428905
102,1747533680160,-2.0988922,-2.5984776,1.2254114,0.9683254,-0.6801714,8.049138
103,1747533680170,-1.9414753,-2.3200083,1.2056428,1.454086,-0.5075985,7.570302
104,1747533680180,-1.7840585,-2.229707,1.1744035,1.8524948,-0.0037284256,7.4653735
105,1747533680190,-1.6134624,-2.2253141,1.1297411,2.227468,0.61838603,7.319965
106,1747533680200,-1.462391,-2.2265344,1.1126571,2.6045716,1.2937636,7.073889
107,1747533680210,-1.40699,-2.118905,1.1260802,2.9997847,1.9212044,6.829943
108,1747533680220,-1.4787428,-1.956851,1.0428566,3.6336172,2.7393274,6.5758777
109,1747533680230,-1.4885051,-1.9424516,1.0350468,3.8727689,2.8698225,6.582269
110,1747533680240,-1.4459171,-1.9686877,1.00588195,3.97609945,2.8186898,6.615026
111,1747533680250,-1.3096111,-2.0560602,0.8854397,4.149205,2.1976407,6.768158
112,1747533680260,-0.92156017,-2.2819352,0.4510178,3.93775,1.4966966,6.850183
113,1747533680270,-0.10421244,-2.7546742,-0.34070393,2.9364014,0.588026,6.7862673
114,1747533680280,0.4737151,-2.9958029,-0.46614933,2.3872576,0.48363006,6.498646
115,1747533680290,1.205887,-3.2720757,-0.42270714,2.18805315,0.44847633,6.24404775
116,1747533680300,1.7633137,-3.5039299,-0.43710655,1.7454358,0.45327002,5.3561497
117,1747533680310,2.1801634,-3.6432865,-0.44833317,1.6229304,0.6396913,4.709534
118,1747533680320,2.874018,-3.789965,-0.44808912,1.6226641,0.7550061699999999,4.0251017
119,1747533680330,3.2125256,-3.965198,-0.63235235,1.3448963,0.660464,2.6823359
120,1747533680340,3.5268714,-4.0833216,-0.801484,0.8293084,0.20985709,1.9457055
121,1747533680350,3.64902195,-4.1085818,-0.8905649,0.4753742749999999,-0.08388958,1.5350461000000002
122,1747533680360,3.9376197,-4.126032,-1.0279691,-1.3347764,-1.113734,-0.64075655
123,1747533680370,3.8392644,-4.0301175,-0.8600578,-1.76248,-1.0892329,-1.4434333
124,1747533680380,3.6986876,-3.908333,-0.6382097,-1.9771309,-0.9214538,-2.211489
125,1747533680390,3.5312643,-3.773613,-0.4002539,-2.0516994,-0.8117315,-2.958772
126,1747533680400,3.2930644,-3.6481678,-0.17938207,-2.0501015,-0.8362326,-3.4328147500000004
127,1747533680410,2.506956,-3.3238156,-0.004148973,-2.1427794,-1.2053467,-5.2506886
128,1747533680420,2.0881538,-3.1297903,0.05735345,-2.2386532,-1.3273195,-5.763613
129,1747533680430,1.692537,-2.9901893,0.14399378,-2.3355923,-1.4572818,-6.227536
130,1747533680440,1.48069535,-2.92307365,0.19256117,-2.39045345,-1.5153387,-6.4445835
131,1747533680450,0.5110559,-2.6507058,0.4893348,-2.5891252,-1.7449032,-7.4520574
132,1747533680460,0.5110559,-2.6507058,0.4893348,-2.5891252,-1.7449032,-7.4520574
133,1747533680470,0.154122165,-2.60262655,0.5818325,-2.66635695,-1.923335,-7.798534699999999
134,1747533680480,-0.382803785,-2.5873729,0.739737525,-2.7782097,-2.21069015,-8.2962795
135,1747533680490,-0.562796,-2.6201985,0.80514485,-2.8128307,-2.3196135,-8.447547
136,1747533680500,-1.3347491,-2.9828675,0.9647583,-3.0935279,-2.7387949000000003,-9.1096085
137,1747533680510,-1.7623373,-2.9679801,1.0423685,-3.3944652,-2.900715,-9.5751295
138,1747533680520,-2.1093867,-2.9120913,1.1194906,-3.4056504,-2.753176,-9.546368
139,1747533680530,-2.3351398,-2.9291751,1.1582958,-3.3646379,-2.5896578,-9.469135
140,1747533680540,-2.4803538,-2.9765222,1.1499978,-3.381682,-2.3734093,-9.414274
141,1747533680550,-2.5944506,-3.0870801,1.30314365,-3.341202,-1.9510318,-9.57726
142,1747533680560,-2.9096506,-3.1495588,1.6356717,-3.0999196,-1.8301244,-9.661948
143,1747533680570,-3.141505,-3.052668,1.7086449,-2.9569079,-1.7976338,-9.6427735
144,1747533680580,-3.2898917,-2.8593748,1.6486067,-2.6221485,-1.7086842,-9.483517
145,1747533680590,-3.26389955,-2.8298439,1.5769759,-2.6583675,-1.82399905,-9.4486295
146,1747533680600,-3.2830582,-2.7788358,1.4831358,-2.8826056,-2.0410466,-9.428123
147,1747533680610,-3.380193,-2.7222145,1.5168158,-3.0754185,-2.1193435,-9.381784
148,1747533680620,-3.429248,-2.668766,1.6190758,-3.230947,-2.1177456,-9.285911
149,1747533680630,-3.4942895,-2.64252985,1.7329284500000002,-3.1755533,-2.0807277,-9.058743
150,1747533680640,-3.648656,-2.3078055,2.1862648,-2.8495824,-2.0383835,-8.503473
151,1747533680650,-3.4453564,-2.2182362,2.2201886,-2.4964473,-1.9600866,-8.274974
152,1747533680660,-3.2791533,-2.1386735,2.1857767,-2.0953753,-1.7358484,-8.1055975
153,1747533680670,-3.2420566,-2.07277825,2.1408701,-1.8644792,-1.51986605,-8.00413075
154,1747533680680,-3.1239328,-1.7393959,1.9434278,-1.14702355,-0.883104235,-7.6981334
155,1747533680690,-3.17189,-1.63469535,1.9201203,-0.48416271,-0.35606464,-7.3857449
156,1747533680700,-3.26878085,-1.38050975,1.9209745,-0.103596965,-0.290817195,-7.0930635
157,1747533680710,-3.37262725,-1.07946515,1.9417194,0.269245585,-0.46552059,-6.715161
158,1747533680720,-3.4225367,-0.80599903,1.85642145,0.7344999,-0.9779128,-6.0762687
159,1747533680730,-3.10392,-0.27871338,1.210768,1.0104034,-1.7369137,-5.3433666
160,1747533680740,-3.116611,-0.09298581,0.77829856,1.0024139,-1.9686087,-5.046158
161,1747533680750,-3.2020311,0.13691612,0.35193056,0.8543421,-2.0996363,-4.7287087
162,1747533680760,-3.3267446,0.44149956,-0.016351834,0.5613944,-2.2498386,-4.4006076
163,1747533680770,-3.6020408,1.0660421,-0.75535715,0.0053263223,-2.356365,-4.051201
164,1747533680780,-3.9930208,1.3569584,-0.91423845,-2.273807,-3.0088394,-2.9481194
165,1747533680790,-3.93884005,1.3673308,-0.8494412600000001,-2.273807,-3.0088394,-2.9481194
166,1747533680800,-3.77703,1.3242546,-0.5720702,-4.1832933,-4.2067294,-2.3313313
167,1747533680810,-3.76543735,1.34707395,-0.4441842,-4.7148604,-4.410195,-2.20563
168,1747533680820,-3.904428,1.3205938,0.37633628,-4.947621,-4.1907506,-2.1102889
169,1747533680830,-4.0679464,1.4025971,0.8659151,-4.395814,-2.7079022,-2.0921793
170,1747533680840,-4.259287,1.6007715,1.2886223,-3.4930022,-1.593103,-2.1358552
171,1747533680850,-4.6612496,1.8558112,1.5951582,-2.334527,-0.32969934,-2.1571605
172,1747533680860,-5.3184953,2.0195737,1.6976621,-0.9406285,1.0844392,-2.0586236
173,1747533680870,-6.8018756,2.1711333,1.8753358,-0.04580637,1.7656758,-1.7859159
174,1747533680880,-7.3822436,2.3805344,1.8716751,1.4050838,1.7443706,-0.28442562
175,1747533680890,-7.6965895,2.5594285,1.5905211,1.7086842,1.2378373,0.8293084
176,1747533680900,-7.684875,2.5584521,1.1656175,1.6042882,0.6599313,2.0532973
177,1747533680910,-6.88998,1.8653295,0.8327233,0.7190535,-0.7254451,4.2642536
178,1747533680920,-6.5683125,1.5841756,0.8709183,0.26205507,-1.406149,5.060539
179,1747533680930,-5.490556,0.7365648,1.1629328,0.046339005,-1.8599517,5.6922407
180,1747533680940,-4.922635,0.33582276,1.4767904,0.23276028,-1.7188042,5.9356537
181,1747533680950,-4.52775,0.01952458,1.8379952,0.7142598,-1.274589,6.067746
182,1747533680960,-4.4112127,-0.098599135,2.0127402,1.4652712,-0.6575345235,6.1590925
183,1747533680970,-4.1040664,-0.6277153,2.6375268,2.9885995,0.57364494,6.347911
184,1747533680980,-4.097477,-0.73290396,2.7219706,3.720436,1.1531488,6.5380607
185,1747533680990,-4.0769763,-0.7930640600000001,2.7236788,4.057326,1.4162691,6.65657135
186,1747533681000,-4.0867386,-0.946454,2.6677897,4.938566,2.1528995,7.0797477
187,1747533681010,-3.9742281,-1.1790406,2.4139702,5.4690676,2.2945797,7.872837
188,1747533681020,-3.7806907,-1.3313323,2.2482553,5.4450994,2.1278658,8.148741
189,1747533681030,-3.5834925,-1.4972912,2.0866895,5.366802,2.0714068,8.364989
190,1747533681040,-3.4767173500000004,-1.5840536,2.06228375,5.347360999999999,2.1041636500000003,8.441422
191,1747533681050,-3.172012,-1.8287209,2.0073707,5.351356,2.2887206,8.633436
192,1747533681060,-3.0026364,-1.9168257,1.9134089,5.3652043,2.5076325,8.768191
193,1747533681070,-2.6363065,-2.072534,1.7657542,5.120726,3.1233554,8.763398
194,1747533681080,-2.6119008,-2.1408703,1.8221315,4.849084,3.438141,8.612663
195,1747533681090,-2.736858,-2.0859573,1.9014499,4.689827,3.4908717,8.651546
196,1747533681100,-2.7895741,-2.0991364,1.906087,4.5428205,3.4557178,8.789497
197,1747533681110,-2.6668136,-2.1816278,1.6935132,3.9324238,2.9933932,9.097891
198,1747533681120,-2.5909119,-2.2833996,1.6625179,3.5329497,2.8000476,9.031312
199,1747533681130,-2.6065314,-2.2902331,1.803339,3.2671661,2.7254791,8.886969
200,1747533681140,-2.65290235,-2.27668795,1.86862435,3.23254505,2.7158917,8.834505
201,1747533681150,-2.78225265,-2.2631428,1.94525835,3.1957935,2.72574545,8.805476500000001
202,1747533681160,-2.822034,-2.3856597,1.8287209,2.8826056,2.2226744,9.123458
203,1747533681170,-2.579441,-2.5101287,1.7140139,2.5347967,1.5446335,9.057943
204,1747533681180,-2.3724804,-2.6324015,1.6032121,2.1582258,0.7238472,8.900817
205,1747533681190,-2.174062,-2.7344174,1.513643,1.8716697,0.05486112,8.6723175
206,1747533681200,-1.8892472,-2.8554697,1.3867333,1.6745957,-0.314253,8.331966
207,1747533681210,-1.4343245,-2.9765222,1.360131,1.6186694,-0.4708469,7.7966704
208,1747533681220,-1.103871,-2.8156884,1.4367651,2.2397184,-0.044208474,6.5369954
209,1747533681230,-1.1392592,-2.6265442,1.4416462,2.8218856,0.5219796,6.165218
210,1747533681240,-1.1656174,-2.5096407000000003,1.3991802,3.1824776,0.9302422,6.09837275
211,1747533681250,-1.1757458,-2.3030461,1.2683655,3.7334856,1.5345135,6.05043575
212,1747533681260,-1.1180263,-2.1581984,0.9117979,4.014449,1.7992316,6.1284666
213,1747533681270,-0.5957437,-2.2304392,0.2689511,3.3603768,0.9171927,6.198774
214,1747533681280,-0.087616555,-2.4435012,-0.0776102,2.757437,0.087884314,6.0198092
215,1747533681290,0.1755991925,-2.5372191,-0.21037735,2.4650220000000003,-0.276169793,5.8427091
216,1747533681300,0.70337302,-2.75565035,-0.38841712,1.8093517,-0.9406285,5.1047473
217,1747533681310,1.8685023,-3.2559679,-0.4144092,2.394182,0.13102753,3.5473306
218,1747533681320,2.0735104,-3.355787,-0.652365,2.9166942,0.9054748,2.9033782
219,1747533681330,2.181872,-3.2945287,-1.036023,3.047189,1.500425,2.4277377
220,1747533681340,2.2953586,-3.29892185,-1.2856936,2.4703483,1.39869225,1.9518308
221,1747533681350,2.4537516,-3.3614006,-1.5097381,0.95927066,0.6194513,0.95234644
222,1747533681360,2.4703474,-3.3875144,-1.4094306,0.10226539,-0.18056233,0.47830373
223,1747533681370,2.5694346,-3.389223,-1.3493925,-0.5539375,-0.81013364,0.051132694
224,1747533681380,2.7297804,-3.4114323,-1.3183973,-0.9869675,-1.1345067,-0.41971418
225,1747533681390,2.8266711,-3.40825965,-1.26031165,-1.2626047,-1.05301395,-1.10334764
226,1747533681400,2.7258754,-3.3057554,-1.0711672,-1.7097495,-0.80533993,-2.3494408
227,1747533681410,2.498902,-3.1566365,-0.8917852,-1.8732675,-0.773382,-2.805374
228,1747533681420,2.3502712,-3.0155714,-0.7309515,-2.0687435,-0.91825795,-3.240002
229,1747533681430,2.1352568,-2.8203256,-0.55693865,-2.7190876,-1.5249261,-4.271178
230,1747533681440,1.9946798,-2.7573588,-0.45907167,-3.1004522,-1.7939054,-4.868791
231,1747533681450,1.7486702,-2.7046423,-0.30580372,-3.4141726,-1.9281287,-5.4552193
232,1747533681460,1.4518965,-2.6426518,-0.10518867,-3.5952675,-1.8988339,-6.000102
233,1747533681470,1.044565,-2.6018944,0.119099945,-3.6634445,-1.716141,-6.600911
234,1747533681480,0.24600971,-2.6180022,0.48396555,-3.5920718,-1.3113406,-7.363641
235,1747533681490,0.0384390149999999,-2.63386595,0.556206475,-3.5907402,-1.2556805,-7.5181042
236,1747533681500,-0.56523657,-2.6755996,0.75169635,-3.6288233,-1.1899004,-7.936753
237,1747533681510,-0.738029085,-2.7007375,0.8368723250000001,-3.65359065,-1.2080099,-8.062720500000001
238,1747533681520,-1.1822133,-2.7995808,1.0799533,-3.690076,-1.3017532,-8.458733
239,1747533681530,-1.6398207,-2.823254,1.3015573,-3.536678,-1.5536882,-8.984441
240,1747533681540,-1.7485482,-2.81459,1.28764605,-3.4916705500000003,-1.6468988,-9.1045495
241,1747533681550,-2.025675,-2.7766392,1.1912434,-3.4653053,-1.8002969,-9.334912
242,1747533681560,-2.3163474,-2.7615077,1.1165619,-3.57556,-1.8072212,-9.331717
243,1747533681570,-2.49951235,-2.72026215,1.0983797,-3.7193708,-1.6692694,-9.162872
244,1747533681580,-2.920145,-2.6885345,1.2207743,-4.036287,-1.5643408,-8.941298
245,1747533681590,-2.94723535,-2.72563125,1.26738925,-4.220045,-1.6490294,-8.98231
246,1747533681600,-2.9743257,-2.762728,1.3140042,-4.354801,-1.7518274,-9.056346
247,1747533681610,-3.0684098,-2.84497525,1.5104703,-4.37637275,-1.79257375,-9.0771185
248,1747533681620,-3.0368044,-2.8767028,1.6420171,-4.252536,-1.7374463,-9.224658
249,1747533681630,-3.2710993,-2.7983603,1.6842391,-4.19874,-1.5302523,-9.312542
250,1747533681640,-3.530288,-2.6243474,1.7803977,-4.1236386,-1.351288,-9.305617
251,1747533681650,-3.8236446,-2.434715,1.9092598,-4.0266995,-1.2953615,-9.139969
252,1747533681660,-3.9423785,-2.289867,1.97649765,-3.94174475,-1.2783173,-8.951417
253,1747533681670,-3.8897843,-1.569044,2.2699766,-2.8788772,-0.9571401,-7.7924094
254,1747533681680,-3.6637876,-1.4372531,2.1677165,-2.2935145,-0.83889574,-7.397729
255,1747533681690,-3.5406605,-1.3739202499999998,2.0742426,-1.995773,-0.77577882,-7.2113078
256,1747533681700,-3.1654224,-1.1490215,1.7845466,-1.3598101,-0.6918893,-6.825682
257,1747533681710,-3.120028,-0.699224,1.5075417,-0.8809737,-0.6002765,-6.331932
258,1747533681720,-3.1643244,-0.58097826,1.462147,-0.7653924999999999,-0.536626965,-6.1215422
259,1747533681730,-3.19934655,-0.3666960099999999,1.394299,-0.531833275,-0.474309,-5.6839847
260,1747533681740,-3.1612735,-0.194269572,1.31424825,-0.23009712,-0.6317018,-5.0536146
261,1747533681750,-3.074145,0.19500175,0.7831797,-0.17257284,-0.8942895,-4.6594667
262,1747533681760,-3.074145,0.19500175,0.7831797,-0.25885928,-1.3070794,-4.2690473
263,1747533681770,-2.9953146,0.48542988,0.07858644,-1.0519487,-2.1699438,-3.5649076
264,1747533681780,-2.9938502,0.63357264,-0.16180995,-1.5813851,-2.3499734,-3.3161683
265,1747533681790,-3.0419296,0.7396155,-0.250036655,-1.84530435,-2.366485,-3.17874915
266,1747533681800,-3.15444,1.0679946,-0.45394647,-2.64878,-2.3840618,-2.748915
267,1747533681810,-3.1622498500000003,1.21931005,-0.48481971,-3.2447956,-2.4426515,-2.51722
268,1747533681820,-3.1800659,1.4594624,-0.4549227,-4.3542686,-2.7686224,-2.2365227
269,1747533681830,-3.175673,1.4448189,-0.29482117,-4.832572,-2.8075044,-2.2226744
270,1747533681840,-3.20874275,1.4171184,-0.1036023075,-4.9827745,-2.7108316500000003,-2.2767365
271,1747533681850,-3.444624,1.32157,0.7158199,-5.0072756,-2.2162826,-2.5326662
272,1747533681860,-4.531411,1.4726415,2.0146925,-4.364921,-1.4791197,-2.6498454
273,1747533681870,-5.2579694,1.5568411,2.3519797,-1.7976338,1.1014835,-2.4458473
274,1747533681880,-5.985504,1.585884,2.416899,-0.39414784,2.214152,-2.0943098
275,1747533681890,-6.313029,1.7037636,2.3480748,0.15819178,2.50337145,-1.8269285
276,1747533681900,-7.1511216,2.1686926,1.9829651,1.3475596,2.7787423,-0.77391464
277,1747533681910,-7.2864511,2.2511840000000003,1.6226146,1.19575935,1.797900075,0.3028013799999999
278,1747533681920,-7.1064587,2.1128037,1.1231514,0.4133226,-0.79415464,2.7345338
279,1747533681930,-6.5578184,1.7152344,1.1673259,0.098004326,-1.6527578,3.6607814
280,1747533681940,-6.246157200000001,1.49924375,1.2583592,0.113184348,-1.8684739,4.0629187
281,1747533681950,-5.184752250000001,0.8479769500000001,1.4700788,0.4644553,-2.1283984,5.003547
282,1747533681960,-3.921756,0.14301755,1.6598334,1.5765914,-1.2000204,5.220861
283,1747533681970,-3.6310837,-0.035632357,1.7142582,2.2162826,-0.49161956,5.2256546
284,1747533681980,-3.5151567,-0.16449459,1.7611171,2.871953,0.28176245,5.2831793
285,1747533681990,-3.49306935,-0.219041385,1.7768587500000002,3.1904671,0.692421875,5.32871915
286,1747533682000,-3.5188174,-0.35827604,1.811881,4.0746365,1.8695391,5.511678
287,1747533682010,-3.8263295,-0.50934744,1.7703912,5.038701,3.2240229,6.2344604
288,1747533682020,-3.951043,-0.62551874,1.7081566,5.271461,3.594735,6.733004
289,1747533682030,-3.9569001,-0.74242216,1.6732564,5.341768500000001,3.7153762,6.98467275
290,1747533682040,-3.9230982,-0.8095379300000001,1.63896645,5.426989799999999,3.84107735,7.47123225
291,1747533682050,-3.78923285,-0.9707377,1.49033565,5.3596118,3.77636255,7.906659
292,1747533682060,-3.5903262,-1.22992645,1.2853275,5.1377705,3.6719667,8.25127225
293,1747533682070,-3.2540154,-1.52609,1.2503053,4.4725127,3.8498657,8.733571
294,1747533682080,-3.1175873,-1.6525116,1.3420708,4.244014,4.0543966,8.905078
295,1747533682090,-2.98640655,-1.75940865,1.37245595,4.0709083,4.1097903,9.0006855
296,1747533682100,-2.7743207,-1.92170675,1.3761168,3.78275405,4.1132525,9.1133375
297,1747533682110,-2.6934156,-1.9771078,1.3493925,3.6677055,4.061321,9.130382
298,1747533682120,-2.5634552,-2.04324725,1.3072926,3.41976525,4.0290966,9.1125385
299,1747533682130,-2.3666232,-2.1474595,1.2993608,2.9710226,3.99847,9.046759
300,1747533682140,-2.4334948,-2.1457515,1.3330406,2.7281423,4.073571,8.989234
301,1747533682150,-2.42495275,-2.13123,1.30033695,2.61336005,4.05173315,8.9796465
302,1747533682160,-2.343926,-2.1935866,1.1312053,2.179531,4.012851,8.747419
303,1747533682170,-2.3195202,-2.2221413,1.1014304,1.7752632,3.91751,8.46033
304,1747533682180,-2.3680875,-2.1806517,1.1502419,1.3848438,3.2176313,8.148741
305,1747533682190,-2.452043,-2.1201253,1.347196,1.1422298,3.0154973,8.1189135
306,1747533682200,-2.3871238,-2.1108513,1.4162643,0.8309063,2.408563,8.023572
307,1747533682210,-2.2931619,-2.0627718,1.385513,0.81226414,2.0474384,7.967113
308,1747533682220,-2.1474595,-2.0459318,1.2659249,0.7930894,1.7853832,7.929296
309,1747533682230,-1.726705,-2.2311714,1.0086887,0.5539375,1.4088123,7.755125
310,1747533682240,-1.60150365,-2.27693215,0.97159195,0.499609025,1.3427658999999998,7.68854615
311,1747533682250,-1.2515256,-2.4452095,0.9488945,0.44581318,1.2298478,7.383348
312,1747533682260,-1.0035634,-2.4891398,1.0831261,0.660464,1.2708606,7.0318108
313,1747533682270,-0.70923036,-2.4061604,1.2078394,1.0902982,1.4056164,6.568953
314,1747533682280,-0.61209553,-2.1420906,0.94206095,1.5787219,1.6346483,6.155098
315,1747533682290,-0.443574025,-2.0877878,0.835285925,1.8224011,1.83118965,5.8293935
316,1747533682300,-0.15448824,-2.0325086,0.53253293,1.9068234,1.8642128,5.2767873
317,1747533682310,-0.057109397,-2.1306198,0.31556603,1.4562165,1.3432984,5.1596084
318,1747533682320,-0.057109397,-2.1306198,0.31556603,1.4562165,1.3432984,5.1596084
319,1747533682330,0.84248555,-2.856446,-0.025137896,0.43196473,0.21784659,4.8826394
320,1747533682340,1.149875725,-2.99372825,-0.0212329804999999,0.398408905,0.0940095925,4.661064700000001
321,1747533682350,1.8118811,-3.23168405,-0.0988431825,0.35926044,-0.1339570075,4.122041
322,1747533682360,2.6446042,-3.4758635,-0.31727442,0.33768883,-0.28176245,3.0439932
323,1747533682370,2.971641,-3.5141802,-0.36022848,0.41864893,-0.19014971,2.2221417
324,1747533682380,3.0846395,-3.5183294,-0.4937278,0.6668556,-0.19973709,0.690824
325,1747533682390,3.14528775,-3.5459077,-0.58061218,0.64528398,-0.288952985,0.399474173
326,1747533682400,3.358716,-3.602285,-0.9127741,0.5078648299999999,-0.4972121699999999,-0.217047627
327,1747533682410,3.4338853,-3.5788555,-1.1292529,-0.05219796,-0.8495484,-1.2367721
328,1747533682420,3.4031343,-3.4739108,-1.0987457,-1.1393003,-1.3720607,-2.7803402
329,1747533682430,3.2410803,-3.372627,-0.8920292,-1.490305,-1.5425029,-3.5595813
330,1747533682440,3.0148392,-3.2379074,-0.6760386,-1.6128104,-1.6010925,-4.273841
331,1747533682450,2.8703573,-3.1715238,-0.604529815,-1.5885756,-1.5864451000000002,-4.593953
332,1747533682460,2.4212918,-2.9679801,-0.4790844,-1.4290522,-1.4226607,-5.635782
333,1747533682470,2.4212918,-2.9679801,-0.4790844,-1.4290522,-1.4226607,-5.635782
334,1747533682480,1.42273175,-2.6509497,-0.40342663,-1.44716175,-1.3411679,-6.97934635
335,1747533682490,0.69287854,-2.4308102,-0.28237423,-1.5643408,-1.3342438,-7.5473986
336,1747533682500,0.456997205,-2.3553965,-0.226607155,-1.58830925,-1.3046827,-7.6765618
337,1747533682510,-0.108117364,-2.200664,0.084931925,-1.649562,-1.25861,-8.051802
338,1747533682520,-0.79391825,-2.1298876,0.17669745,-1.6559536,-1.1930962,-8.451276
339,1747533682530,-1.1880707,-2.0659447,0.26870704,-1.609082,-1.1494204,-8.513061
340,1747533682540,-1.36879505,-2.03287495,0.30934257,-1.5909725,-1.1424962,-8.492022
341,1747533682550,-1.7152344,-2.00371,0.41562948,-1.582983,-1.2191951,-8.472048
342,1747533682560,-1.8275007,-2.0530095,0.44930938,-1.6831179,-1.4274544,-8.543954
343,1747533682570,-2.1899257,-2.0176213,0.51398456,-2.0820594,-1.9286613,-8.643556
344,1747533682580,-2.2589939,-1.9802804,0.5530337,-2.294047,-2.1310616,-8.649415
345,1747533682590,-2.2517941,-1.9730808,0.54851865,-2.412824,-2.1965753,-8.661399
346,1747533682600,-2.2021284000000003,-1.97503325,0.545712,-2.8059065,-2.2466428,-8.740495
347,1747533682610,-2.2746134,-2.0015135,0.6343048,-3.033873,-2.0596888,-8.695221
348,1747533682620,-2.5635774,-1.876068,0.8742131,-2.988067,-1.536644,-8.160991
349,1747533682630,-2.5970132,-1.9073074,0.9235126,-2.9582393,-1.4130733,-7.9010663
350,1747533682640,-2.55833015,-1.94721075,0.9517012,-2.9696909,-1.42718805,-7.85579265
351,1747533682650,-2.6106803,-2.0659447,1.2332213,-3.00883935,-1.62985465,-7.867777
352,1747533682660,-2.64972945,-2.0255531,1.2665351,-2.994991,-2.0074909,-7.9569926
353,1747533682670,-2.6936598,-1.8997418,1.2778838,-2.9358687,-2.052232,-7.8952074
354,1747533682680,-2.6033587,-1.8514184,1.2913069,-2.7718182,-1.7475663,-7.808388
355,1747533682690,-2.59201,-1.81871465,1.3373117,-2.5238779,-1.4072143,-7.7143787
356,1747533682700,-2.5843222,-1.6549523,1.4567777,-1.726261,-0.55340487,-7.376424
357,1747533682710,-2.5006106,-1.4365209,1.4396937,-0.8767126,-0.22210763,-7.0073094
358,1747533682720,-2.489506,-1.37355415,1.37465245,-0.8018778,-0.36511939,-6.9447252
359,1747533682730,-2.5381954,-1.1580516,1.1656175,-0.68656296,-0.87618,-6.722884
360,1747533682740,-2.5381954,-1.1580516,1.1656175,-0.68656296,-0.87618,-6.722884
361,1747533682750,-2.689999,-0.8092938,0.9803779,-0.6428871,-1.6287893,-6.2893214
362,1747533682760,-2.7558944,-0.588178,0.78610843,-0.6860303,-1.9169434,-5.9239354
363,1747533682770,-2.596769,-0.26968327,0.44516042,-0.6764429,-1.6000272,-4.954545
364,1747533682780,-2.4588768,-0.2633378,0.32117933,-0.69774824,-1.1110709,-4.6594667
365,1747533682790,-2.44704005,-0.3034852,0.276516855,-0.80693784,-1.003212825,-4.5651908500000005
366,1747533682800,-2.44606375,-0.346073175,0.253087355,-1.06739497,-0.972053825,-4.41632015
367,1747533682810,-2.7410069,-0.010494461,0.40513504,-1.892975,-2.1848574,-4.2541337
368,1747533682820,-2.9709089,0.28408262,0.27383223,-2.171009,-2.8032434,-4.083691
369,1747533682830,-3.1529756,0.605262,0.0012202862,-2.4804683,-3.1952608,-3.820571
370,1747533682840,-3.3872707,0.90496427,-0.21257387,-2.9784794,-3.1233554,-3.3609095
371,1747533682850,-3.6159523,1.1873385,-0.3082443,-3.4088464,-2.9390647,-2.898052
372,1747533682860,-3.7128427,1.4128474,-0.13057062,-4.313256,-2.700978,-2.0703416
373,1747533682870,-3.6310837,1.3791674,0.13398743,-4.7260456,-2.7121632,-1.9217371
374,1747533682880,-3.526383,1.4001565,0.6882414,-4.9481535,-2.6839337,-1.9105518
375,1747533682890,-3.5380979000000004,1.4357888,1.0577441,-4.84295875,-2.6530411000000003,-1.94330865
376,1747533682900,-3.75433265,1.6368919,1.9588034,-3.781689,-2.3670176,-2.02719825
377,1747533682910,-4.430615,1.9751552,2.434227,-1.180313,-0.96299905,-1.933455
378,1747533682920,-4.927516,2.1206133,2.183092,0.036751624,0.11451593,-1.5749935
379,1747533682930,-5.2284384,2.1594186,1.8931521,0.98377174,1.0604708,-1.1414309
380,1747533682940,-5.751941,2.1879733,1.4528728,1.9425098,1.903095,-0.22264028
381,1747533682950,-5.8675023500000005,2.21152485,1.34438935,1.9446403,1.77046955,0.0934769499999999
382,1747533682960,-6.079466,2.2258022,1.0579882,1.7108147,1.0434265,1.135572
383,1747533682970,-5.974277,2.1257386,0.94254905,1.3896375,0.3472762,1.8865833
384,1747533682980,-5.8467575,2.0221363,0.919485625,1.115598215,-0.211455,2.5379926
385,1747533682990,-5.3808525,1.59942915,1.01967115,0.819987315,-1.02212125,3.5156391
386,1747533683000,-4.6832147,0.9471862,1.3110756,1.0013486,-1.4556838,4.2456117
387,1747533683010,-4.51091005,0.7963587999999999,1.3720899,1.2016183,-1.4109427,4.39874335
388,1747533683020,-4.045981,0.3961049,1.4723973,1.9206718,-1.051416,4.7638626
389,1747533683030,-3.858301,0.21550256,1.445551,2.442119,-0.6013418,4.9332395
390,1747533683040,-3.77458935,0.080294838,1.3886857,2.8511805,-0.18722024,5.1239219
391,1747533683050,-3.67367175,-0.102992157,1.3049741,3.41763475,0.4037352349999999,5.4381749500000005
392,1747533683060,-3.6076543,-0.24918245,1.2337095,3.832289,0.86499476,5.8557587
393,1747533683070,-3.4958758,-0.36852646,1.1600041,4.05706,1.0530139,6.233395
394,1747533683080,-3.2044718,-0.60306543,0.97500867,4.175304,1.2543489,6.7564397
395,1747533683090,-3.1561484,-0.645897515,0.957558585,4.1800976,1.438107,6.9902654
396,1747533683100,-3.030947,-0.7660957,0.91521466,4.1774344,1.6953684,7.2533855
397,1747533683110,-2.9695666,-0.8257677000000001,0.90105936,4.1649177,1.8242654,7.385744750000001
398,1747533683120,-2.7607756,-1.0535952,0.87640953,4.103399,2.1848574,7.7146454
399,1747533683130,-2.4798658,-1.3237665,0.8263778,3.904194,2.5624936,8.019311
400,1747533683140,-2.39822865,-1.3863672,0.81246655,3.77636235,2.54225365,8.0608565
401,1747533683150,-2.2609463,-1.5575734,0.79660285,3.3779535,2.4240093,8.141284
402,1747533683160,-2.2362967,-1.6234688,0.8588374,3.1473238,2.3409185,8.151403
403,1747533683170,-2.2287307,-1.7577002,1.006004,2.9358687,2.2732744,8.231298
404,1747533683180,-2.1684487,-1.7979698,1.0260166,2.931075,2.3499734,8.26805
405,1747533683190,-2.12293195,-1.81578595,1.0045396,2.8799424,2.4213462,8.249941
406,1747533683200,-2.0085912,-1.8611807,0.93278676,2.7324033,2.428803,8.170046
407,1747533683210,-2.0006593,-1.84946595,0.91692303,2.6280074,2.3792682,8.1324955
408,1747533683220,-1.9878463,-1.7408603,0.8293065,2.0037625,1.8844528,8.010256
409,1747533683230,-2.016889,-1.722556,0.8019721,1.7747306,1.6527578,7.921839
410,1747533683240,-2.0525214,-1.6940013,0.789281135,1.556884,1.4674017,7.8190413
411,1747533683250,-2.2023726,-1.6166352,0.76926845,1.3518206,1.3060142,7.7402115
412,1747533683260,-2.2541128,-1.6226146,0.771953075,1.1994878,1.1664646,7.66298
413,1747533683270,-2.4654663,-1.8062676,0.75096416,0.91133374,1.1590078,7.583085
414,1747533683280,-2.4022555,-1.8699666,0.78659654,0.8005462,1.1590078,7.5505943
415,1747533683290,-2.30390035,-1.90254825,0.80160602,0.74461983,1.11746245,7.4928038
416,1747533683300,-1.922927,-2.0063946,0.8710403,0.5603291,0.819721,7.0941286
417,1747533683310,-1.5456146,-1.9502616,0.9959976,0.48629323,0.53795856,6.72608
418,1747533683320,-1.4101628,-1.952214,1.0545714,0.54807854,0.06498113,6.160424
419,1747533683330,-1.2398108,-2.0049303,1.1787965,0.8586032,0.04314321,5.936719
420,1747533683340,-1.1779423,-2.0454438,1.22370305,1.14728985,0.1118527699999999,5.8522966
421,1747533683350,-1.1236396,-2.1167085,1.1290088,2.1816616,0.4878911,5.7391124
422,1747533683360,-1.1766,-2.1164646,0.77317333,2.8932583,0.88683265,5.939382
423,1747533683370,-0.41294485,-2.311222,-0.24308102,3.3129725,1.3017532,6.348976
424,1747533683380,0.26748675,-2.4740083,-0.66969305,2.8064392,1.2144015,6.063485
425,1747533683390,0.566822945,-2.574682,-0.755723275,2.4615598,1.07884658,5.7817227
426,1747533683400,1.2710502,-2.8513207,-0.8327233,1.7989653,0.7773767300000001,5.1755874
427,1747533683410,1.513399,-2.9496758,-0.7050814,1.0902982,0.39361522,4.304201
428,1747533683420,2.080344,-3.1192956,-0.60062486,1.0934939,0.45540056,3.7252297
429,1747533683430,2.5687025,-3.2635336,-0.63943,1.2804478,0.6199839,3.472762
430,1747533683440,2.81617655,-3.3477333,-0.7239958,1.3251889499999998,0.63543025,3.2716934
431,1747533683450,3.5229664,-3.4963639,-1.0365112,1.24342995,0.5744438700000001,2.7097665
432,1747533683460,4.1753316,-3.6220536,-1.3467078,-0.018642128,-0.2625877,0.6194513
433,1747533683470,4.2087674,-3.6161964,-1.334505,-0.66365975,-0.63436496,-0.31318775
434,1747533683480,4.100894,-3.5966718,-1.2429836,-1.1755193,-0.8357,-1.1456919
435,1747533683490,4.0336561500000006,-3.57934365,-1.1702545,-1.3257216,-0.82824312,-1.5137408
436,1747533683500,3.8016796,-3.4853814,-0.91423845,-1.5664713,-0.6125271,-2.599778
437,1747533683510,3.542979,-3.3430963,-0.79660285,-1.5563514,-0.2977414,-3.2783513
438,1747533683520,2.8608391,-3.0385127,-0.5625519,-1.6421051,-0.039947417,-4.4586644
439,1747533683530,2.4825501,-2.9057455,-0.40220633,-1.8524948,-0.3339604,-5.123922
440,1747533683540,2.31854375,-2.8509546500000003,-0.3425343349999999,-1.96115175,-0.50227218,-5.371596
441,1747533683550,1.837019,-2.707083,-0.14130914,-2.16142155,-0.80507363,-5.851764
442,1747533683560,1.1365746,-2.6026266,0.1513155,-2.3398533,-1.0114686,-6.8832064
443,1747533683570,0.72875494,-2.5640655,0.34290043,-2.2003038,-0.85753787,-7.2161016
444,1747533683580,0.33777523,-2.5303855,0.4720067,-1.9712719,-0.6982809,-7.504788
445,1747533683590,-0.07443746,-2.4969497,0.5374141,-1.716141,-0.5853628,-7.729559
446,1747533683600,-0.70410514,-2.4657104,0.45589894,-1.3214606,-0.46019423,-8.188155
447,1747533683610,-0.9098454,-2.4696152,0.36047253,-1.3092101,-0.396811,-8.431568
448,1747533683620,-1.0943527,-2.5184267,0.33020946,-1.3651364,-0.41172472,-8.705341
449,1747533683630,-1.2883781,-2.5784647,0.36510965,-1.4375744,-0.5400891,-8.9913645
450,1747533683640,-1.5036367,-2.6228833,0.3746279,-1.5382419,-0.7233146,-9.254485
451,1747533683650,-1.9954121,-2.5996978,0.3734076,-1.8434402,-1.0748519,-9.521334
452,1747533683660,-2.182848,-2.6248357,0.50666285,-1.9249328,-1.2767195,-9.560748
453,1747533683670,-2.4727879,-2.6065314,0.53936654,-1.9792614,-1.4588797,-9.492572
454,1747533683680,-2.6712067,-2.5245283,0.5854933,-2.0596888,-1.6682042,-9.256616
455,1747533683690,-2.7352717,-2.5087866,0.61331585,-2.09138045,-1.76061585,-9.1492905
456,1747533683700,-2.82703725,-2.5013428,0.65407343,-2.1624869,-1.9363844,-8.9396995
457,1747533683710,-2.9006205,-2.5374632,0.7653635,-2.2828617,-1.9201392,-8.524246
458,1747533683720,-2.8896377,-2.554059,0.7985553,-2.2503712,-1.7779263,-8.456069
459,1747533683730,-2.9003763,-2.5118372,0.80294836,-2.2226744,-1.556884,-8.404404
460,1747533683740,-2.8747504,-2.4579005,0.9371798,-2.146508,-1.1914983,-8.505604
461,1747533683750,-2.9443066,-2.391517,1.0025872,-2.0857878,-1.1685951,-8.506137
462,1747533683760,-2.9606586,-2.272661,1.0052718,-2.0751352,-1.1984226,-8.411328
463,1747533683770,-2.9979992,-2.2009084,1.0801975,-1.9979035,-1.1472899,-8.198276
464,1747533683780,-2.9800611000000004,-2.15893055,1.1558551499999998,-1.8423749,-0.9992181,-8.0651175
465,1747533683790,-2.7807882,-2.0483723,1.4260265,-0.51452273,-0.04474111,-7.595868
466,1747533683800,-2.8898818,-1.8946164,1.3655003,0.036751624,0.2806972,-7.4387417
467,1747533683810,-2.9508961,-1.77832315,1.2986285999999998,0.2237055419999999,0.2974751,-7.31756785
468,1747533683820,-3.1180754,-1.4162643,1.0640897,0.5858955,0.15765914,-6.8773475
469,1747533683830,-3.1739645,-1.1321816,0.8705522,0.60933125,-0.060720075,-6.4965153
470,1747533683840,-3.05986775,-0.861033985,0.7097184750000001,0.494549025,-0.2271676475,-6.033924150000001
471,1747533683850,-2.8975696500000003,-0.52899407,0.521062225,0.31345408,-0.3882889,-5.396896
472,1747533683860,-2.852541,-0.3568117,0.49934113,0.11930962,-0.3888215,-4.8709216
473,1747533683870,-2.9486997,-0.23697957,0.5354616,-0.047404267,-0.50387007,-4.4485445
474,1747533683880,-3.1109977,-0.27846932,0.63625723,-0.68869346,-1.3646038,-3.6117792
475,1747533683890,-3.0906188500000003,-0.31434573,0.674086095,-0.8881642299999999,-1.7102821,-3.47143055
476,1747533683900,-3.111974,-0.4971446,0.7353445,-1.448227,-2.847452,-3.2016523
477,1747533683910,-3.1361356,-0.3904916,0.6211257,-1.7656758,-3.8083205,-3.2330775
478,1747533683920,-3.1131942,0.01513155,0.28359452,-2.0453076,-4.13003,-3.2895367
479,1747533683930,-3.3731153,0.9196077,0.0156196635,-2.6477149,-3.3896716,-3.10205
480,1747533683940,-3.40069375,1.11705,0.11556111175,-2.70257595,-3.1843418,-3.0061762
481,1747533683950,-3.5554261,1.4233419,0.44320798,-2.7467844,-2.6290727,-2.8160267
482,1747533683960,-3.7531126,1.4894813,0.613804,-2.630138,-2.2892532,-2.7696877
483,1747533683970,-3.8941774,1.9727148,0.87274873,-1.995773,-2.034655,-2.743056
484,1747533683980,-4.1079717,2.2484994,0.91399443,-1.3022858,-1.5435683,-2.8932583
485,1747533683990,-4.850882,2.554059,0.83125895,-0.57311225,-0.74461985,-2.8788772
486,1747533684000,-5.886417,2.8459516,0.65993077,0.18588865,0.22210763,-2.4197483
487,1747533684010,-6.7088895,2.997511,0.45394647,0.7813715,0.91825795,-1.6458336
488,1747533684020,-7.3600345,2.971641,-0.08517598,0.96619487,1.1792477,-0.75420725
489,1747533684030,-7.370285,2.7849374,0.039781332,0.68336713,0.9582054,0.15765914
490,1747533684040,-7.2979219,2.6016502,0.210621401,0.224238155,0.320111975,1.10494557
491,1747533684050,-6.8997426,1.9588034,0.7365648,-0.48522797,-1.0615361,2.9699574
492,1747533684060,-6.3803883,1.4318839,1.0928884,-0.44847634,-1.6788567,4.0027313
493,1747533684070,-4.9045744,0.27920148,1.6342072,0.5496765,-1.6708673,4.8959556
494,1747533684080,-4.3598385,-0.045394648,1.6417731,1.2319783,-1.2042814,5.012602
495,1747533684090,-4.0015626,-0.22282428,1.5812469,1.8695391,-0.5704491,5.05468
496,1747533684100,-3.8741648,-0.32728076,1.4999758,2.427205,0.09534117,5.137238
497,1747533684110,-3.837068,-0.37194324,1.4245622,2.6378611,0.3949467849999999,5.215535
498,1747533684120,-3.801436,-0.47591165,1.3010693,3.222425,1.3848438,5.626194
499,1747533684130,-3.7728808,-0.54815257,1.2881342,3.209109,1.3022858,5.8765316
500,1747533684140,-3.756529,-0.66017485,1.2778838,3.1771512,1.0865698,6.167881
501,1747533684150,-3.675746,-0.73729694,1.2434716,3.2000544,0.94755274,6.5567026
502,1747533684160,-3.4477968,-0.8644508,1.2341975,3.2937977,0.8788432,6.910903
503,1747533684170,-2.94992,-1.1155857,1.1155857,3.5515916,1.1494204,7.359912
504,1747533684180,-2.7136724,-1.2014939,1.0333383,3.6543896,1.4066817,7.525028
505,1747533684190,-2.4976819,-1.2993608,0.9520673,3.7151098,1.7182716,7.6315546
506,1747533684200,-2.37052795,-1.3640359000000002,0.90533038,3.739611,2.0506341,7.6784263
507,1747533684210,-2.243374,-1.428711,0.85859346,3.739611,2.0506341,7.6784263
508,1747533684220,-2.058379,-1.6019918,0.7839119,3.3763556,2.7505128,7.823835
509,1747533684230,-2.0378782,-1.6508033,0.820154375,3.2892703,2.8445224,7.777495999999999
510,1747533684240,-2.0732663,-1.730854,1.0079564,3.165966,3.1872714,7.661915
511,1747533684250,-2.11561025,-1.7375655,1.0672623,3.1824776000000004,3.2621062,7.6504632
512,1747533684260,-2.1833361,-1.74305675,1.0982576,3.1361386,3.3467946,7.6965357
513,1747533684270,-2.1564898,-1.7530633,1.0035634,2.8570392,3.2096417,7.7892137
514,1747533684280,-2.1049938,-1.7884516,0.95694846,2.5145566,2.8975194,7.7663107
515,1747533684290,-2.1096308,-1.79235645,0.94743023,2.2799321,2.66422645,7.749798999999999
516,1747533684300,-2.1528289000000003,-1.8015086,0.93327493,1.881257,2.29484595,7.74021145
517,1747533684310,-2.2748578,-1.9265879,0.99233675,1.51507245,2.0479709,7.8563253
518,1747533684320,-2.1840682,-2.012008,1.0892274,1.2831111,1.8407769,8.05553
519,1747533684330,-1.9900427,-2.1003566,1.1712307,1.3459617,1.7326527,8.014517
520,1747533684340,-1.8562995,-2.195539,1.1870944,1.4732608,1.6735305,7.780159
521,1747533684350,-1.8394594,-2.0532537,1.0865428,1.6431705,1.6421051,7.473363
522,1747533684360,-1.8182266,-1.9419636,0.9686632,1.8684739,1.7273263,7.020093
523,1747533684370,-1.7228,-1.8919317,0.86664724,1.824798,1.7965685,6.8480525
524,1747533684380,-1.6561724,-1.8693564,0.8223508900000001,1.7752632,1.85835385,6.74019455
525,1747533684390,-1.4775226,-1.7745403,0.7682922,1.6250609,2.0602214,6.427806
526,1747533684400,-1.4082103,-1.6954657,0.92180425,1.5483619,2.1688783,6.317018
527,1747533684410,-1.3768489499999998,-1.71560045,0.94889459,1.7406421,2.0383835,6.330334
528,1747533684420,-1.2261436,-1.7891837,0.97403246,1.9323897,1.8375812,6.3777385
529,1747533684430,-1.0262607,-1.8582519,0.91545874,2.16515,1.6117451,6.3819995
530,1747533684440,-0.7094744,-1.9473327,0.71874857,2.3670175,1.3566142,6.279734
531,1747533684450,-0.28969595,-2.1425786,0.45174995,2.406965,1.2133362,6.0602894
532,1747533684460,0.33655494,-2.4500906,0.011958805,2.040514,1.0407634,5.577192
533,1747533684470,0.5269196,-2.57578015,-0.0428320475,1.86714225,0.95580855,5.51886875
534,1747533684480,1.2708061,-2.997511,-0.073217176,1.4871092,0.7052051,5.2858424
535,1747533684490,1.8365307,-3.1768932,-0.1313028,1.44316705,0.644485,5.1313789
536,1747533684500,2.4420369,-3.274516,-0.3448529,1.29296475,0.503603765,4.7817059
537,1747533684510,3.543467,-3.3919077,-0.54717636,0.7046724400000001,0.160322305,3.9313586
538,1747533684520,3.769342,-3.4846494,-0.5596232800000001,-0.0218379199999999,-0.294545625,2.91509615
539,1747533684530,4.369601,-3.7370045,-0.5615757,-0.6785734,-0.799481,1.7651432
540,1747533684540,4.613292,-3.83950865,-0.5424172,-0.89855055,-0.872185275,0.814394675
541,1747533684550,4.8152494,-3.8756292,-0.52033,-1.2479573,-0.84848315,-1.1520835
542,1747533684560,4.7251922,-3.8024119,-0.50471037,-1.32971635,-0.821851525,-1.6442356500000002
543,1747533684570,4.3044376,-3.5798316,-0.383658,-1.6106799,-0.8969527,-3.0445259
544,1747533684580,3.86415835,-3.38971115,-0.255405915,-1.7795243,-1.14489295,-3.91218365
545,1747533684590,2.82179,-2.9508963,-0.06662763,-2.072472,-1.5994946,-5.310876
546,1747533684600,2.5840782,-2.84936835,-0.0517401385,-2.1273331,-1.67512835,-5.52073315
547,1747533684610,2.15002235,-2.67962645,-0.029042814,-2.2407838,-1.8018948,-5.928463150000001
548,1747533684620,1.7772249,-2.5679704,-0.0002440575,-2.3574302,-1.86900645,-6.3321983500000005
549,1747533684630,1.2432276,-2.4498467,0.0873725,-2.503904,-1.7795243,-7.326889
550,1747533684640,0.84529227,-2.3979845,0.166202995,-2.53453035,-1.7443705500000002,-7.49147225
551,1747533684650,0.091033354,-2.3300145,0.28701133,-2.599778,-1.6405072,-7.927698
552,1747533684660,-0.23990828,-2.32855,0.30092257,-2.705239,-1.627724,-8.187623
553,1747533684670,-0.5691415,-2.3514917,0.29579738,-2.8703551,-1.6788567,-8.354337
554,1747533684680,-1.0277251,-2.5089085,0.3482697,-3.3023198,-1.8418423,-8.707472
555,1747533684690,-1.1484114,-2.5507643,0.38390205,-3.3949979,-1.8823223,-8.7953565
556,1747533684700,-1.4914337,-2.6660812,0.54986095,-3.5452001500000003,-1.958755,-8.9689945
557,1747533684710,-1.7928444,-2.6878026,0.68531275,-3.6261601,-2.060754,-9.160742
558,1747533684720,-1.991507,-2.6635188000000003,0.781593325,-3.587278,-2.1305289,-9.139703
559,1747533684730,-2.25569905,-2.61336495,0.905818435,-3.50791585,-2.2117554,-9.05821
560,1747533684740,-2.4659543,-2.5657737,0.9791577,-3.3523872,-2.15503,-8.787899
561,1747533684750,-2.665105,-2.5220876,0.9698835,-3.304983,-2.0442424,-8.558334
562,1747533684760,-2.7266075,-2.4942651,0.96719888,-3.3310819,-1.933455,-8.337293
563,1747533684770,-2.898912,-2.4276376,1.0306537,-3.459979,-1.8189391,-8.004397
564,1747533684780,-2.9277108,-2.4576566,1.1404796,-3.9127164,-1.9568908,-7.8217044
565,1747533684790,-2.8498566,-2.486211,1.3537855,-4.098605,-2.1875205,-7.656588
566,1747533684800,-2.694392,-2.5037832,1.59467,-4.1007357,-2.3616912,-7.590009
567,1747533684810,-2.6568072000000003,-2.5037832,1.69802825,-3.990214350000001,-2.402704,-7.586546999999999
568,1747533684820,-2.5687025,-2.2585058,1.8616686,-3.2762208,-2.1981733,-7.506386
569,1747533684830,-2.4993904,-2.13184,1.7657542,-1.943575,-0.96992326,-7.2491245
570,1747533684840,-2.4413047,-2.007615,1.6720362,-1.262871,-0.3110572,-7.123956
571,1747533684850,-2.3881001,-1.9087718,1.5451264,-0.6737798,0.15925704,-7.0041137
572,1747533684860,-2.42959,-1.7684387,1.325475,-0.2727077,0.44687843,-6.8352695
573,1747533684870,-2.5560114,-1.4001565,1.0550594,0.13848437,0.5209143,-6.263222
574,1747533684880,-2.5286772,-1.2837411,0.98794377,0.19121496,0.30466563,-6.0198092
575,1747533684890,-2.5142777,-1.1824573,0.9266854,0.15446335,-0.15446335,-5.828062
576,1747533684900,-2.5338023,-1.0155222,0.8122225,0.07137272,-0.49055427,-5.6922407
577,1747533684910,-2.5494219,-0.911187715,0.7890370499999999,0.03275688275,-0.59601545,-5.61261235
578,1747533684920,-2.6553428,-0.34900185,0.75657743,-0.05912218,-0.85487473,-5.0434947
579,1747533684930,-2.732465,-0.10177187,0.7826916,-0.10333065,-0.9267801,-4.718056
580,1747533684940,-2.8103192,0.09567044,0.83809257,-0.14274544,-1.026915,-4.345214
581,1747533684950,-2.8850007,0.23722363,0.8188121,-0.22796659,-1.2697952,-3.9111185
582,1747533684960,-2.9367409,0.29530928,0.7682922,-0.3616573,-1.663943,-3.445598
583,1747533684970,-2.7427154,0.3248402,0.51496077,-0.8021441,-2.8272119,-2.6977823
584,1747533684980,-2.690243,0.36437747,0.31654227,-1.0295781,-3.18301,-2.5667548
585,1747533684990,-2.7036662,0.43979117,0.10958171,-1.16406775,-3.2490565,-2.54438425
586,1747533685000,-2.7824967,0.5757311,-0.071264714,-1.613343,-3.2107072,-2.5023062
587,1747533685010,-2.9652956,1.0994779,-0.30751213,-2.321744,-2.4857945,-2.4240093
588,1747533685020,-3.0553527,1.1907552,-0.28237423,-2.809635,-1.9680761,-2.4351945
589,1747533685030,-3.043882,1.2466444,-0.052716363,-3.2538502,-1.5073493,-2.5598304
590,1747533685040,-3.1155128000000003,1.2848394,0.1306926685,-3.3960631,-1.33211325,-2.6644927000000003
591,1747533685050,-3.41692355,1.37233395,0.6219799,-3.4855453,-0.9552759,-2.8642298
592,1747533685060,-4.2801539,1.63554965,1.4804513,-2.5161546,-0.24474451,-2.91083505
593,1747533685070,-5.682385,2.047152,2.1408703,-0.19600865,1.1377025,-2.5331988
594,1747533685080,-6.5036373,2.366379,1.9622203,1.1387677,2.1369205,-1.8461033
595,1747533685090,-7.243375,2.6880465,1.5978427,2.1124194,2.9193573,-0.8383631
596,1747533685100,-7.6714516,2.847416,1.138771,2.3856597,3.0988543,0.3898868
597,1747533685110,-7.6282535,2.557964,0.38975942,0.8543421,0.8564726,2.854376
598,1747533685120,-7.2467923,2.1069462,0.33240595,-0.572047,-1.3187973,4.07943
599,1747533685130,-6.6161475,1.5075417,0.6543175,-1.2713932,-2.753176,4.877846
600,1747533685140,-6.22419175,1.24273952,0.81832395,-1.33903745,-3.120426,5.1662663
601,1747533685150,-5.4159965,0.7623128,1.1310833,-1.2253204,-3.3963295,5.5958343
602,1747533685160,-4.021819,0.019280521,1.8824136,0.70200926,-1.109473,5.7348514
603,1747533685170,-3.9938746,-0.0494215895,1.9862599,1.6682042,0.05752428,5.7854514
604,1747533685180,-4.021087,-0.24503349,2.2126231,2.4991105,0.8612663,5.9250007
605,1747533685190,-4.075512,-0.37194324,2.2541127,3.1419976,1.3672669,6.117281
606,1747533685200,-4.2578225,-0.69239044,2.3427055,4.134291,1.6474315,6.6568375
607,1747533685210,-4.2631917,-0.81539524,2.2824233,4.459197,1.5227956,6.9939938
608,1747533685220,-4.130425,-0.94962674,2.1459954,4.7249804,1.4551512,7.3402047
609,1747533685230,-3.943721,-1.104359,1.9387908,4.882107,1.4817829,7.6331525
610,1747533685240,-3.81217415,-1.17611185,1.8367749,4.9651976,1.6239957,7.881359
611,1747533685250,-3.55091095,-1.30460805,1.66007745,4.97931245,1.7414411,7.986287499999999
612,1747533685260,-2.9706647,-1.5951582,1.3701375,4.944425,2.6519759,8.399077
613,1747533685270,-2.7468643,-1.7020552,1.3247427,4.934838,3.1388018,8.556204
614,1747533685280,-2.4874313,-1.8179823,1.2002735,4.8570733,3.47436,8.61213
615,1747533685290,-2.2780304,-1.9385467,1.1416998,4.63336775,3.69700025,8.5846995
616,1747533685300,-2.2284868,-1.9463564,1.202226,4.1603904,3.849333,8.512528
617,1747533685310,-2.1938305,-1.9585594,1.1631769,3.8786278,3.7257624,8.474711
618,1747533685320,-2.1899257,-1.9556307,1.0963051,3.568636,3.778493,8.427839
619,1747533685330,-2.19407465,-1.94123125,1.13169345,3.4341463,3.8477352,8.39481625
620,1747533685340,-2.19736945,-1.914629,1.2215066,3.1798143000000003,3.91191745,8.318117749999999
621,1747533685350,-2.1965153,-1.9024262,1.2759314,3.059972,3.9068575,8.274442
622,1747533685360,-2.2133553,-1.8429983,1.26860965,2.6711505,3.6077844,8.173508
623,1747533685370,-2.1940746,-1.7364672,1.2512815,2.0548952,3.03121,8.09601
624,1747533685380,-2.0913267,-1.8026069,1.2317569,1.8168086,2.6359968,8.06565
625,1747533685390,-1.9207305,-1.9763755,1.2117443,1.433846,2.1054952,7.648066
626,1747533685400,-1.8782645,-1.9768637,1.2471325,1.3859091,2.040514,7.3146386
627,1747533685410,-1.8592281,-1.9407433,1.2874019,1.4333134,2.0809941,6.965764
628,1747533685420,-1.846293,-1.9163376,1.3315763,1.5499598,2.15503,6.6264777
629,1747533685430,-1.8440965,-1.8267684,1.3496367,1.7821875,2.352104,6.3601613
630,1747533685440,-1.8741156,-1.7830821,1.2822767,2.1033647,2.7079022,6.3298016
631,1747533685450,-1.7911361,-1.8284769,1.1968567,2.0932446,2.7963192,6.3484435
632,1747533685460,-1.683507,-1.9312251,1.1302291,1.9643476,2.6375947,6.361759
633,1747533685470,-1.4831358,-2.0984042,1.0985017,1.87992545,2.44691235,6.3553675
634,1747533685480,-0.8246695,-2.3776057,1.1011863,1.6367788,1.0135992,6.040582
635,1747533685490,-0.5554743,-2.4315424,0.8815348,1.6117451,0.4063984,5.8035607
636,1747533685500,-0.19500175,-2.4488704,0.605262,1.5174692,-0.007989483,5.5292554
637,1747533685510,0.29262465,-2.4762049,0.45321432,1.5068166,0.0015978967,5.2858424
638,1747533685520,0.694831,-2.5391717,0.36047253,1.6165388,0.25566345,5.04456
639,1747533685530,1.5451264,-2.7444239,-0.03172744,1.9036276,1.2809805,4.5582666
640,1747533685540,1.79467495,-2.8244746000000003,-0.127397885,1.9097529,1.4937671,4.36572
641,1747533685550,2.566994,-3.0421734,-0.36315718,1.7608821,1.8977686,3.572897
642,1747533685560,2.7834728,-3.1158787,-0.36657399,1.6032229999999998,1.8410433,3.1518512000000003
643,1747533685570,3.1163670000000003,-3.24315475,-0.321545425,1.0961571,1.3630059,1.8093517
644,1747533685580,3.2981894,-3.244985,-0.2511349,0.29294774,-0.19707392,0.16085494
645,1747533685590,3.32857455,-3.2299755,-0.237955815,0.194144455,-0.437024735,-0.158724395
646,1747533685600,3.3520042,-3.172622,-0.246009715,0.03888215,-0.8202536,-1.0743192
647,1747533685610,3.3184462,-3.0128868,-0.3577879,0.032490566,-0.7142598,-1.6287893
648,1747533685620,3.0631626,-2.7551622,-0.4368625,-0.20293288,-0.26738137,-2.6530411
649,1747533685630,2.9484557,-2.7025679,-0.377312525,-0.31718249,-0.29268141,-2.87408355
650,1747533685640,2.587739,-2.5638213,-0.19500175,-0.6892261,-0.5906891,-3.4738274
651,1747533685650,2.4322746,-2.463758,-0.08956901,-0.95927066,-0.97418433,-3.818973
652,1747533685660,2.3899306,-2.41738715,-0.052716365,-1.12198983,-1.238369915,-4.032825
653,1747533685670,2.2497199,-2.2819352,0.07004443,-1.7374463,-2.0703416,-5.089301
654,1747533685680,2.1164646,-2.2777863,0.14228538,-1.8993665,-2.2019017,-5.594769
655,1747533685690,1.8577638,-2.2589939,0.25357547,-1.9813919,-2.218946,-6.0863886
656,1747533685700,1.4926541,-2.2250698,0.40708748,-1.97526665,-2.20855965,-6.29997395
657,1747533685710,1.1329137,-2.2131112,0.48665017,-1.9137475,-2.1715417,-6.886402
658,1747533685720,0.45809543,-2.243374,0.5112999,-1.8732675,-2.1816616,-7.5228977
659,1747533685730,0.12910628,-2.279739,0.5405868,-1.8780613,-2.1443772,-7.888816
660,1747533685740,-0.24015234,-2.3117104,0.5518134,-1.8769959,-2.1236048,-8.148741
661,1747533685750,-0.54961693,-2.3693078,0.5598673,-1.9148128,-2.1587584,-8.390555
662,1747533685760,-0.780251015,-2.4319085,0.558647025,-2.0205404,-2.2588932,-8.6392945
663,1747533685770,-1.185142,-2.5913997,0.5696296,-2.3020365,-2.523079,-9.157546
664,1747533685780,-1.4135796,-2.6934156,0.5869577,-2.492719,-2.6594326,-9.406285
665,1747533685790,-1.7057161,-2.7483287,0.61502427,-2.58007065,-2.7065706,-9.487245
666,1747533685800,-2.2524045,-2.8664525,0.6360132,-2.7979171,-2.732936,-9.656622
667,1747533685810,-2.5569878,-2.9399135,0.73729694,-2.8756814,-2.2445123,-9.767409
668,1747533685820,-2.8103192,-2.9655397,0.96817505,-2.6434538,-1.9068234,-9.81002
669,1747533685830,-3.095622,-2.9208772,1.1824573,-2.211489,-1.6309199,-9.772737
670,1747533685840,-3.2681708,-2.8027534,1.2036903,-1.7417074,-1.4285196,-9.633186
671,1747533685850,-3.3050232,-2.6570513,1.0882512,-1.4146712,-1.2277173,-9.429721
672,1747533685860,-3.3365068,-2.4122617,0.93473923,-1.2958943,-1.0668623,-8.94396
673,1747533685870,-3.2925763,-2.353444,0.9391323,-1.3219932,-1.1925635,-8.641958
674,1747533685880,-3.2358329,-2.3546643,0.94071865,-1.35208695,-1.298291,-8.53117025
675,1747533685890,-3.1112417,-2.3612539,0.94559975,-1.39363225,-1.4966965,-8.371114250000002
676,1747533685900,-3.0048327,-2.3444138,0.9984382,-1.3198626,-1.6378441,-8.345282
677,1747533685910,-3.0048327,-2.3444138,0.9984382,-1.3198626,-1.6378441,-8.345282
678,1747533685920,-3.3373609,-1.87435975,1.1144873999999998,-0.5906891,-1.0279802,-7.925035
679,1747533685930,-3.3543227,-1.5851518,0.9642702,0.5699165,-0.042077947,-6.9828086
680,1747533685940,-3.3263781,-1.47190925,0.88617185,0.7483483,0.1347559615,-6.74152615
681,1747533685950,-3.25133045,-1.24261745,0.74205605,0.8761800200000001,0.1547296705,-5.81607775
682,1747533685960,-2.954557,-0.6982478,0.53887844,0.82557994,-0.002130529,-5.1319118
683,1747533685970,-2.8532734,-0.46614933,0.5198419,0.53742594,-0.48948902,-4.802745
684,1747533685980,-2.8056822,-0.27505252,0.5459561,0.21891184,-1.1169298,-4.4426856
685,1747533685990,-2.7605316,-0.186825825,0.5754870000000001,0.0892158965,-1.453287,-4.25306845
686,1747533686000,-2.63838095,-0.0277004974999999,0.643578975,-0.1211738285,-2.0580909,-3.8783616
687,1747533686010,-2.365891,0.07248501,0.99965847,0.021837922,-2.4831314,-3.1345406
688,1747533686020,-2.4701035,0.1718163,1.0941086,0.43729106,-2.2200112,-2.8362665
689,1747533686030,-2.6612,0.31605414,1.0431006,0.9715212,-1.9590213,-2.4831314
690,1747533686040,-2.75198935,0.38524437,0.89825267,1.216532,-1.92200335,-2.2716764
691,1747533686050,-2.9170941,0.5128863,0.461390235,1.4199976,-2.0554278,-1.8397117
692,1747533686060,-2.9355206,1.0211354,-0.83443177,-0.18162759,-2.9193573,-1.8386464
693,1747533686070,-2.9040372,1.3325526,-0.8334555,-1.3464943,-3.3284187,-1.9920446
694,1747533686080,-3.129302,1.5331676,-0.3961049,-2.2200112,-3.6746297,-2.0122845
695,1747533686090,-3.24510715,1.5840536,-0.1159271899999999,-2.3630229,-3.76491095,-1.91454655
696,1747533686100,-3.4299805,1.63420735,0.3997657599999999,-2.36195755,-3.8067226,-1.7084179000000002
697,1747533686110,-3.7138193,1.4997318,0.88739216,-0.6609966,-2.3265376,-1.5227956
698,1747533686120,-4.0008307,1.5741693,0.8520039,0.09640643,-1.4098775,-1.5664713
699,1747533686130,-4.361547,1.6537318,0.7792748,0.7590009,-0.54914385,-1.5973641
700,1747533686140,-4.5813205,1.70327545,0.7491337250000001,1.0540792,-0.17150759,-1.57872195
701,1747533686150,-5.0543034,1.8089523,0.69007185,1.6386431,0.49348376,-1.4759239
702,1747533686160,-6.348173,1.922439,0.2689511,2.996589,1.7166736,-0.5448828
703,1747533686170,-6.602725,1.9873582,0.007565775,3.3087113,2.0208068,0.16618125
704,1747533686180,-6.6988835,1.9614881,-0.264314,3.06529845,1.7377127,1.102016075
705,1747533686190,-6.42395275,1.76270345,-0.42868655,2.4610273,1.09988555,2.3907198000000003
706,1747533686200,-5.9498715,1.4437206,-0.567311065,1.6964337,0.359260444,3.0522491
707,1747533686210,-5.56218675,1.1816031,-0.3685264399999999,0.99256015,-0.3097256559999999,3.63175285
708,1747533686220,-5.023918,0.750232,0.32215557,0.57417756,-0.7946873,4.37078
709,1747533686230,-4.639772,0.44808912,0.7656076,0.9038769,-0.6061355,4.75321
710,1747533686240,-4.2771034,0.05735345,1.1099724,1.5259914,0.1789644299999999,5.07358835
711,1747533686250,-4.1826534,-0.07199689,1.1829455,2.7499802,1.8887138,5.7071543
712,1747533686260,-4.1274962,-0.20622836,1.1524384,3.1510522,2.5236115,6.0006347
713,1747533686270,-4.1519017,-0.31727442,1.0997219,3.3667684,2.9667616,6.4022393
714,1747533686280,-4.292235,-0.51569295,1.1629328,3.3835462,3.0778154,6.79745245
715,1747533686290,-4.30578,-0.5902524250000001,1.1726950500000002,3.3513219,3.1470575,7.3990605
716,1747533686300,-4.2873535,-0.735588515,1.17025445,3.22908285,3.0551784,7.8187747
717,1747533686310,-4.111388,-1.0216236,1.1927078,3.0061762,2.9523804,8.408665
718,1747533686320,-3.9844787,-1.2481087,1.2598236,2.8985846,3.0487869,8.688297
719,1747533686330,-3.7658033,-1.5792944,1.4345685,2.8666267,3.459979,9.115468
720,1747533686340,-3.6981995,-1.6580029,1.4056476999999998,2.79392235,3.5398738,9.2496915
721,1747533686350,-3.48587,-1.9034024,1.3423148,2.583799,3.5862128,9.488577
722,1747533686360,-3.2630453,-2.0356815,1.3535415,2.1140172,3.235208,9.750898
723,1747533686370,-2.7824967,-2.425685,1.3100992,1.4040185,2.2210765,9.722669
724,1747533686380,-2.741739,-2.5838342,1.3911263,1.2522184,1.9259981,9.548498
725,1747533686390,-2.6768198,-2.5596724,1.4226097,1.3001553,1.9046929,9.43558
726,1747533686400,-2.536731,-2.5130575,1.3652563,1.4253238,2.0516994,9.42546
727,1747533686410,-2.4539956,-2.51830475,1.3155906,1.46420595,2.18033005,9.430786
728,1747533686420,-2.101089,-2.5711432,1.2010058,1.4998924,2.4857945,9.298161
729,1747533686430,-1.6383562,-2.5953047,1.0423685,1.190433,2.3158848,8.646751
730,1747533686440,-1.4850883,-2.5379512,1.0130817,1.0381002,2.1949775,8.2483425
731,1747533686450,-1.3916144,-2.4796216,1.0042956,0.96619487,2.1076257,7.8541946
732,1747533686460,-1.4396937,-2.4762049,0.99355704,0.9896307,2.0996363,7.501592
733,1747533686470,-1.7188951,-2.3100019,1.0152781,1.3310479,2.590723,7.1495223
734,1747533686480,-1.7823502,-2.2021286,1.0233321,1.6309199,2.9981868,7.1308804
735,1747533686490,-1.752575,-2.181872,1.0484699,2.005893,3.3214946,7.0461917
736,1747533686500,-1.598575,-2.0793676,1.0357789,2.2791333,3.419499,6.869358
737,1747533686510,-1.3752626,-1.9622203,0.8502955,2.4453146,3.3992589,6.592389
738,1747533686520,-1.0350468,-1.7652661,0.38439015,2.3803334,3.163303,5.997439
739,1747533686530,-0.8844635,-1.7376877,0.16473864,2.2365227,2.9166942,5.777462
740,1747533686540,-0.818690065,-1.77698095,0.078220347,2.1454426,2.7835361,5.6589513
741,1747533686550,-0.6218578,-1.8438525,-0.13349932,1.8764633,2.549178,5.2576127
742,1747533686560,-0.4527262,-1.9836973,-0.39805737,1.4998924,2.773416,4.815528
743,1747533686570,-0.27310005,-2.3390448,-0.5520575,1.3507553,2.7638285,4.714328
744,1747533686580,0.20915705,-2.6665695,-0.8027043,1.0215886,2.4991105,4.525776
745,1747533686590,0.569995675,-2.70256795,-0.88507365,0.726776665,2.3968451,4.299939999999999
746,1747533686600,1.1846538,-2.7613858,-0.95780272,0.08495483,2.1038973,3.8179079
747,1747533686610,1.4384733,-2.7842052,-0.94816244,-0.26205507,1.9132149,3.5617118
748,1747533686620,2.5816374,-3.1524875,-0.6125837,-2.556102,0.068176925,2.2162826
749,1747533686630,3.0282624,-3.2998981,-0.3961049,-3.10205,-0.3110572,1.7603495
750,1747533686640,3.469518,-3.4058187,-0.2203837,-3.2743565500000003,-0.3339604,1.42053015
751,1747533686650,3.6676925,-3.4543861,-0.15290187,-3.5020568,-0.254864525,0.773914635
752,1747533686660,4.05513325,-3.51625475,0.13801436,-3.48501265,0.152599135,-0.285490865
753,1747533686670,4.1516576,-3.4624403,0.5874458,-3.2320123,0.55074173,-1.814678
754,1747533686680,3.9290776,-3.3311374,0.7575537,-3.0477216,0.47990164,-2.5129588
755,1747533686690,3.6230297,-3.1576126,0.8407772,-2.9364014,0.2977414,-3.0940607
756,1747533686700,3.4006937,-3.0080056,0.95426387,-2.8655615,0.058589544,-3.571299
757,1747533686710,3.0770738,-2.7478404,1.1143653,-2.5917885,-0.43888897,-4.415521
758,1747533686720,2.9020846,-2.677552,1.1675699,-2.3494408,-0.5992113,-5.0019493
759,1747533686730,2.6748674,-2.630205,1.2324891,-2.0687435,-0.6450176,-5.4967647
760,1747533686740,2.383463,-2.5723634,1.2976524,-1.88551805,-0.65700185,-5.7372482
761,1747533686750,2.0513012,-2.5311177,1.2854495,-1.3214606,-0.6982809,-6.4272733
762,1747533686760,1.2383465,-2.4964616,1.1492655,-0.6540724,-0.74675035,-7.225689
763,1747533686770,0.8102701,-2.5167184,1.0941086,-0.314253,-0.78723043,-7.5623126
764,1747533686780,0.39342028,-2.544541,0.9664667,-0.034621093,-0.86872315,-7.8605866
765,1747533686790,0.2079367725,-2.57578035,0.90545235,0.0553937535,-0.937166375,-8.0091908
766,1747533686800,-0.7648754,-2.7827406,0.613804,0.13475595,-1.7406421,-8.823052
767,1747533686810,-1.1021625,-2.8640118,0.54766446,-0.022903185,-2.143312,-9.086173
768,1747533686820,-1.4033291,-2.932836,0.4837215,-0.1246359425,-2.3225428,-9.1977595
769,1747533686830,-1.5458585500000002,-2.96834635,0.46590531,-0.3289004,-2.6391927,-9.40522
770,1747533686840,-2.0696054,-3.1005034,0.4651731,-0.5885586,-2.9236183,-9.644904
771,1747533686850,-2.25765145,-3.1206381,0.48750435,-0.6314355,-2.9364015,-9.685917
772,1747533686860,-3.0641387,-3.1268616,0.58158845,-0.6945524,-2.7686224,-9.673667
773,1747533686870,-3.2408361,-3.1188076,0.6016011,-0.71958613,-2.5470474,-9.638513
774,1747533686880,-3.3311374,-3.0341196,0.66798466,-0.7344999,-2.338788,-9.624664
775,1747533686890,-3.3700646,-3.00141595,0.67286583,-0.7866978,-2.1784658,-9.55489
776,1747533686900,-3.41484915,-2.9311274000000003,0.710328635,-0.8234494299999999,-2.1092236,-9.49417
777,1747533686910,-3.4973404,-2.7607756,0.8844635,-0.904942155,-2.0679447,-9.265138
778,1747533686920,-3.4492612,-2.668278,0.9135063,-0.97738016,-2.1582258,-8.936503
779,1747533686930,-3.4385226,-2.612877,0.9198518,-1.0285128,-2.240251,-8.811868
780,1747533686940,-3.4499933,-2.5416122000000003,0.92424483,-1.0548780999999998,-2.3137543000000003,-8.731973
781,1747533686950,-3.47464315,-2.4015232,0.95487401,-1.1124024,-2.5031052000000003,-8.514126000000001
782,1747533686960,-3.4678092,-1.9392788,1.1263242,-0.88470215,-2.2168152,-7.6981335
783,1747533686970,-3.39386,-1.798946,1.2642165,-0.47351006,-1.6442357,-7.215569
784,1747533686980,-3.2147222,-1.6900965,1.3757507,0.07669904,-1.0695255,-6.770821
785,1747533686990,-2.8466837,-1.6037002,1.3223021,0.8863,-0.46019423,-6.1806645
786,1747533687000,-2.745888,-1.517304,1.2974083,1.0588728,-0.5411543,-5.970807
787,1747533687010,-2.7073271,-1.4184607,1.3059504,1.1723236,-0.7909589,-5.746569
788,1747533687020,-2.638747,-1.2827649,1.3198615,1.3688648,-1.139833,-5.4184675
789,1747533687030,-2.5052476,-1.14230995,1.29216105,1.67912305,-1.2572784,-5.185441
790,1747533687040,-2.28010475,-0.9426711,1.2039344,2.18219425,-1.3318469,-4.87251975
791,1747533687050,-2.11365785,-0.8614000500000001,1.043222675,2.53905785,-1.18697095,-4.74868275
792,1747533687060,-1.9285403,-0.8283303,0.68702114,2.9358687,-0.76485986,-4.711132
793,1747533687070,-2.0129843,-0.7822035,0.5108118,3.0498521,-0.46711847,-4.7825046
794,1747533687080,-2.6570513,-0.5188657,0.21745501,2.9417279,-0.3584615,-4.8682585
795,1747533687090,-3.1920247,-0.23405088,0.102748096,2.819755,-0.6412892,-4.7233825
796,1747533687100,-3.7445705,0.12837411,-0.073949344,2.4847293,-1.3768543,-4.3542686
797,1747533687110,-4.227072,0.47737598,-0.3521746,1.907356,-2.189651,-3.8541267
798,1747533687120,-4.5419054,1.0762925,-0.73729694,1.0508834,-3.1835427,-3.1590416
799,1747533687130,-4.315176,1.0894716,-0.6252747,-0.94275904,-4.9129996,-2.0527647
800,1747533687140,-4.138723,0.9859913,-0.3441207,-1.6202673,-5.223524,-1.9164108
801,1747533687150,-4.0276766,0.89666635,-0.07590181,-1.8402443,-4.979046,-1.9462382
802,1747533687160,-4.0389033,0.8423635949999999,0.067237765,-1.7086841499999998,-4.5723813,-2.0405141
803,1747533687170,-4.2514772,0.81466305,0.47005424,-0.8745821,-3.0301447,-2.3537018
804,1747533687180,-5.1725492,1.1485333,0.541319,1.2623384,-0.23702134,-2.3318639
805,1747533687190,-5.915704,1.2119883,0.52911615,2.1518342,0.9864349,-2.011752
806,1747533687200,-6.675454,1.2661691,0.49763274,3.0652986,1.9366508,-1.3880396
807,1747533687210,-7.2692447,1.2830089,0.30629185,3.8738341,2.4122913,-0.4958806
808,1747533687220,-7.4644914,1.3210819,-0.14594623,4.3441486,2.433064,0.47830373
809,1747533687230,-7.1267157,1.3237665,-1.1133891,3.7124467,1.5014902,2.2743397
810,1747533687240,-6.93769335,1.2492070000000002,-1.22919435,3.25544825,1.065264415,2.6732812
811,1747533687250,-6.2053995,0.8778739,-1.2969202,1.5739282,-0.3568636,3.9079227
812,1747533687260,-5.708255,0.6062382,-0.9967298,0.8111989,-0.9054748,4.4336305
813,1747533687270,-5.31605515,0.323131795,-0.588910135,0.52783855,-0.9755159,4.828310999999999
814,1747533687280,-4.583395,-0.20012695,0.24454537,0.38402784,-0.7685883,5.519135
815,1747533687290,-4.42170715,-0.323497895,0.4615122849999999,0.5581985700000001,-0.5470133,5.639776250000001
816,1747533687300,-3.999854,-0.6386978,0.9449896,1.1957593,0.20932446,5.932458
817,1747533687310,-3.7963104,-0.7665838,1.1021625,1.6964337,0.80374205,6.091182
818,1747533687320,-3.5002692,-0.9271735,1.3098553,2.8447888,2.273807,6.508233
819,1747533687330,-3.4707382,-0.95743655,1.3175430499999998,3.0394658,2.5656894,6.62035225
820,1747533687340,-3.4122864,-1.0108851,1.30607235,3.3617083,3.1047132,6.86403155
821,1747533687350,-3.2850106,-1.074584,1.1880707,3.572897,3.7039244,7.273626
822,1747533687360,-3.1311325,-1.1237616,1.086298815,3.2032502,3.7268276,7.8009315
823,1747533687370,-2.89037,-1.2688537,0.9169231,2.8027108,3.4855454,8.006528
824,1747533687380,-2.873652,-1.31693295,0.942305025,2.6298716,3.40857995,8.105331
825,1747533687390,-2.80629225,-1.41541005,1.026626775,2.3398534,3.26423655,8.306932
826,1747533687400,-2.5728514,-1.6403086,1.1844097,2.0453076,2.9177594,8.52904
827,1747533687410,-2.2907214,-1.8833898,1.3306,2.00615925,2.8650287,8.508267
828,1747533687420,-2.268024,-1.9190221,1.4201691,2.1459754,3.0013826,8.338358
829,1747533687430,-2.3566167,-1.9253676,1.4204131,2.25596385,3.2109734,8.363391499999999
830,1747533687440,-2.3989607,-1.9147511,1.4317618,2.46528815,3.676494,8.464591500000001
831,1747533687450,-2.43434905,-1.90791755,1.4422563,2.6232136,4.1169809,8.6297075
832,1747533687460,-2.2755897,-1.965637,1.3315763,2.4788704,4.5247107,8.856608
833,1747533687470,-2.1574662,-1.9468447,1.2817887,2.0415792,4.0719733,8.788964
834,1747533687480,-2.12915555,-1.96283045,1.2422513999999998,1.7941716,3.76357925,8.7391635
835,1747533687490,-2.08913005,-2.01798745,1.2014938,1.2924321,3.1097733,8.614794
836,1747533687500,-2.0392203,-2.0865675,1.24530205,0.847684185,2.4322652,8.443286
837,1747533687510,-1.8911997,-2.1374533,1.5639188,0.5906891,1.3156016,8.064585
838,1747533687520,-1.6986383,-2.1784549,1.6725243,0.8383631,1.1749867,7.939416
839,1747533687530,-1.6018697,-2.1769905,1.68570345,1.00960435,1.16246985,7.845406349999999
840,1747533687540,-1.43725315,-2.1394057,1.67691745,1.3672669000000002,1.1960256500000002,7.64966385
841,1747533687550,-1.2564068,-2.050813,1.5792944,1.7907096,1.401888,7.415838499999999
842,1747533687560,-1.2154051,-1.8357986,1.3764828,2.6796727,2.2988408,7.0158315
843,1747533687570,-1.104359,-1.7408603,1.2944796,2.9379995,2.5726137,6.9210234
844,1747533687580,-0.9767171,-1.6920489,1.2605556,3.1430628,2.6887274,6.7495155
845,1747533687590,-0.8937377,-1.6180996,1.2197981,3.325223,2.6482475,6.558833
846,1747533687600,-0.8252796,-1.573071,1.142798,3.3822147,2.56249375,6.48026985
847,1747533687610,-0.51117789,-1.4853324,0.88043647,3.2858083,1.8194717,6.0794644
848,1747533687620,0.006345488,-1.4846002,0.473227,3.0232205,1.4924355,5.7210026
849,1747533687630,0.124591229,-1.5597699,0.38085135,2.89032875,1.44210175,5.5476308
850,1747533687640,0.24283697,-1.6349396,0.2884757,2.757437,1.391768,5.374259
851,1747533687650,0.47151858,-1.8497099,0.2865232,2.5614283,1.3970944,5.000884
852,1747533687660,1.0311419,-2.1508765,0.31678632,2.9827404,1.716141,3.9649143
853,1747533687670,1.23932275,-2.20676565,0.035876415,2.9928606,1.4871092,3.6650424
854,1747533687680,1.68728985,-2.2951144,-0.651998945,2.6375948,1.2905679,3.5039212
855,1747533687690,2.19517305,-2.387368,-1.33169835,1.57153135,0.88976215,3.1127028
856,1747533687700,2.8317962,-2.932836,-1.1712307,-0.6884271500000001,0.1467402,2.1845911
857,1747533687710,2.877435,-3.2327824,-0.7353445,-2.5600968,-0.529170125,1.2479573
858,1747533687720,3.000684,-3.4338853,-0.37975308,-3.0397322,-0.5944176,0.53103435
859,1747533687730,3.07048425,-3.4940456500000003,-0.1854835095,-2.9097699,-0.469515325,0.2809635099999999
860,1747533687740,3.20654605,-3.5589649000000003,0.0927417555,-2.56568945,-0.2141181549999999,-0.252734015
861,1747533687750,3.328697,-3.3069756,-0.051252022,-2.1278658,0.12623383,-1.1057445
862,1747533687760,3.2964811,-3.1995907,-0.051252022,-2.586462,-0.3472762,-2.2226744
863,1747533687770,3.1854353,-3.1451657,0.025381953,-2.9885995,-0.8479505,-2.7755466
864,1747533687780,3.1388203,-3.1238108,0.1138527014999999,-3.1606396,-1.11586455,-3.1185618
865,1747533687790,3.02838435,-3.09891695,0.31886079,-3.343865,-1.51294185,-3.74999715
866,1747533687800,2.7683415,-3.09489,0.5776835,-3.2653018,-1.66154625,-4.328435649999999
867,1747533687810,2.3051207,-2.97579,0.5947675,-2.615757,-1.4594123,-5.797169
868,1747533687820,1.9629525,-2.9089184,0.47786412,-2.4543693,-1.3076121,-6.401174
869,1747533687830,1.6051645,-2.8403382,0.39805737,-2.4053671,-1.2048141,-7.5766935
870,1747533687840,0.7653635,-2.8330164,0.38561043,-2.5949843,-1.2575446,-8.123174
871,1747533687850,0.31776255,-2.8571782,0.43515408,-2.7712855,-1.3171995,-8.730907
872,1747533687860,0.0572314299999999,-2.89549515,0.491775365,-2.81602655,-1.3488911,-8.931177
873,1747533687870,-0.7407138,-3.0363162,0.73632073,-2.8426583,-1.4439659,-9.404155
874,1747533687880,-1.1629328,-3.1131942500000003,0.8994730150000001,-2.6274748,-1.4415691000000002,-9.5783255
875,1747533687890,-1.9322013,-3.2925763,1.0501783,-2.2130868,-1.3582122,-9.94957
876,1747533687900,-2.1079225,-3.304291,1.0305317,-2.1760689,-1.35155425,-10.0486395
877,1747533687910,-2.647777,-3.2645097,0.98208636,-2.1715416,-1.36034265,-10.192184
878,1747533687920,-2.9958029,-3.1168551,1.0160104,-2.27753545,-1.44183545,-10.2481105
879,1747533687930,-3.0175238,-3.056329,0.95719254,-3.0120351,-2.4857945,-10.272878
880,1747533687940,-3.0447361500000003,-3.0332656,0.9097234,-3.25038815,-2.71695695,-10.255834
881,1747533687950,-3.0431497,-2.9735935,0.8600578,-3.9563923,-3.323625,-10.2260065
882,1747533687960,-3.1170993,-3.0238693,0.93937635,-4.14680815,-3.4487936,-10.223876
883,1747533687970,-3.3921516,-3.005565,1.3025336,-4.495949,-3.503122,-10.097109
884,1747533687980,-3.52406465,-2.9057455,1.3587888,-4.26452,-2.9395972,-9.8632835
885,1747533687990,-3.66818045,-2.7279498,1.4637334,-3.7899445,-1.9401129,-9.4917725
886,1747533688000,-3.6879491,-2.5508864,1.5380488,-3.2650355,-1.0809771,-9.187373
887,1747533688010,-3.64597135,-2.33330945,1.543174,-2.7044401,-0.26418558,-8.770322
888,1747533688020,-3.5184513500000003,-2.0779035,1.5276763,-2.1619542,0.4495416,-8.126903
889,1747533688030,-3.20434965,-1.92609975,1.56416285,-2.01042035,0.3912183649999999,-7.8728373
890,1747533688040,-2.8908580500000003,-1.8952265,1.6182216,-1.7670074,0.255663465,-7.5679053
891,1747533688050,-2.7558943,-1.8237178,1.66837535,-1.55475345,0.141680173,-7.4999945
892,1747533688060,-2.7015916,-1.6828968,1.6969301,-1.26872995,0.144343333,-7.4485955
893,1747533688070,-3.0460784,-1.1790406,1.7501346,-0.0777643,0.82398206,-6.7239494
894,1747533688080,-3.2518187,-0.88958865,2.0478845,1.0492855,1.2053467,-5.752428
895,1747533688090,-3.1944652,-0.7138674,1.978084,1.4969629000000002,1.2080099,-5.3428337500000005
896,1747533688100,-3.086836,-0.6544395000000001,1.833236,2.22800065,1.032773915,-4.60220875
897,1747533688110,-2.6873143,-0.54156303,1.2622641,2.632801,0.16138756,-3.8983352
898,1747533688120,-2.61190065,-0.3487578,0.920828,2.0229373,-1.3843112,-3.6586509
899,1747533688130,-2.5679703500000004,-0.0490555025,0.459437775,1.75369165,-1.700961,-3.60565395
900,1747533688140,-2.62263905,0.1037243274999999,0.25089086,1.16992668,-2.26501845,-3.50525265
901,1747533688150,-2.7307564,0.145214055,0.136183945,0.529702755,-2.69645055,-3.4016556500000004
902,1747533688160,-3.0587695,0.17523311,0.22453266,-0.3387541,-3.2874062,-3.1148334
903,1747533688170,-3.3279648,0.6074585,0.28164205,-0.6114618,-3.8216362,-2.9166942
904,1747533688180,-3.5934987,0.89080894,0.10494461,-0.813862,-3.7566552,-2.7968519
905,1747533688190,-3.75396645,1.04871397,0.043320158,-0.95793905,-3.6306876,-2.66635695
906,1747533688200,-4.06318725,1.30668245,-0.009396204245,-1.24556045,-3.351322,-2.3531692
907,1747533688210,-4.27881195,1.41565405,0.050763907755,-1.50921335,-3.0296121,-1.99497405
908,1747533688220,-4.3152983,1.38026575,0.340581915,-1.803759,-2.58113575,-1.69430315
909,1747533688230,-4.3174945000000005,1.36745275,0.8085616500000001,-1.8445054,-2.0570257,-1.63038725
910,1747533688240,-4.5221365,1.4795971,1.26238605,-1.40774695,-1.480185,-1.70921675
911,1747533688250,-4.694197,1.560258,1.4867967,-1.1046792,-1.1472899,-1.7267936
912,1747533688260,-6.1160746,1.5914973,1.8184706,1.310808,1.5435683,-0.50173956
913,1747533688270,-6.3711147,1.5761217,1.803339,1.9121497,1.8892465,0.20399815
914,1747533688280,-6.5126677,1.5329236,1.6810663,2.3068302,1.8333201,0.94755274
915,1747533688290,-6.52865335,1.4883831,1.5667255,2.3635556,1.67219885,1.34889112
916,1747533688300,-6.501563,1.38099795,1.3697713,2.37580615,1.2580773,2.1670142500000003
917,1747533688310,-5.8280873,0.82076454,1.3552499,2.1832595,-0.15765914,4.3148537
918,1747533688320,-5.374385,0.50885934,1.449456,2.3510387,-0.35579833,4.918326
919,1747533688330,-5.1223958,0.35803197,1.46239105,2.4860610000000003,-0.311057225,5.142564
920,1747533688340,-4.6248848,0.066627628,1.5075416,2.7933898,-0.0878843199999999,5.5036887
921,1747533688350,-4.004247,-0.30726805,1.6386005,3.3934,0.6844324,5.772668
922,1747533688360,-3.785816,-0.50324607,1.802851,4.3814325,2.146508,6.1918497
923,1747533688370,-3.8016796,-0.5847612,1.8077321,4.8144627,2.769155,6.595585
924,1747533688380,-3.8068048,-0.62893555,1.77197765,4.97718185,3.0418627000000003,6.8882665
925,1747533688390,-3.7737352,-0.72582627,1.6728904,5.157744,3.4346789,7.393468
926,1747533688400,-3.6613467,-0.8956901,1.496071,5.0157976,3.5750275,7.943677
927,1747533688410,-3.6440187,-1.1482893,1.4941185,4.5843654,3.3944652,8.621185
928,1747533688420,-3.5627477,-1.2883781,1.4980234,4.483698,3.3257556,8.961537
929,1747533688430,-3.4781818500000004,-1.3841706500000002,1.4626351,4.42244535,3.32868505,9.1253215
930,1747533688440,-3.2814716500000003,-1.57953845,1.41675235,4.30872835,3.35718085,9.4150735
931,1747533688450,-2.9338121,-1.8150537,1.3428029,4.19021765,3.38567675,9.6086855
932,1747533688460,-2.635086,-2.1040175,1.1485333,3.459979,3.2410672,9.623067
933,1747533688470,-2.552595,-2.1286674,1.0513986,3.2615735,3.1425302,9.578592
934,1747533688480,-2.4879196,-2.1047497,0.9859913,2.6578348,2.8927257,9.490973
935,1747533688490,-2.473032,-2.12390815,0.98294055,2.4919199,2.89139415,9.464342
936,1747533688500,-2.4627817,-2.1940746,0.99917036,2.20536375,2.97554995,9.396698
937,1747533688510,-2.4249527,-2.2394693,1.3308442,2.0021646,3.2575786,9.244898
938,1747533688520,-2.4517992,-2.213355,1.317421,2.052232,3.1883366,9.216668
939,1747533688530,-2.44215885,-2.1993217,1.2654368,2.0224046,3.1119038,9.2148035
940,1747533688540,-2.3712602,-2.1708891,1.1399914,1.85835385,2.8221518,9.211608
941,1747533688550,-2.0400746,-2.1384296,0.93010217,1.139833,1.7736653,9.119196
942,1747533688560,-1.8931521,-2.186509,0.92814976,1.020789665,1.59736405,9.05954125
943,1747533688570,-1.7042516,-2.2099385,0.99038434,0.7882957,1.1808456,8.807607
944,1747533688580,-1.6345734,-2.2381271,1.01710862,0.78882832,1.12119085,8.678177000000002
945,1747533688590,-1.4782548,-2.33880065,1.0460294,0.81652519,1.021322325,8.3822995
946,1747533688600,-1.2959439499999998,-2.45985305,1.09240025,0.91745902,0.990962275,7.99480975
947,1747533688610,-0.9279056,-2.2785184,1.163909,1.7534252,1.4199976,6.737265
948,1747533688620,-0.81783587,-2.1315958,0.9896521,1.9893813,1.6682042,6.2861257
949,1747533688630,-0.776102065,-2.0450776,0.918631465,2.0269319,1.72998955,6.08159485
950,1747533688640,-0.73558855,-1.8637432,0.794406365,2.0501014,1.7105484,5.7316555000000005
951,1747533688650,-0.73449032,-1.68106635,0.64443318,1.95049915,1.4460964500000002,5.54017425
952,1747533688660,-0.50702895,-1.6194418499999998,0.388051025,1.5968314,0.7957525400000001,5.46826875
953,1747533688670,0.061502427,-1.744277,0.1803583,1.1680624,-0.006924219,5.1958275
954,1747533688680,0.3505882485,-1.8918097,0.1618099499999999,1.18936775,-0.0934769545,4.7561395
955,1747533688690,0.63967407,-2.0393424,0.1432616,1.2106731,-0.18002969,4.3164515
956,1747533688700,0.956582435,-2.18894945,0.0019524549999999,1.4671355,0.16964337,3.94600575
957,1747533688710,1.43347025,-2.42751535,-0.196954195,2.1523669,1.3938985,3.3246903
958,1747533688720,1.7893056,-2.5772445,-0.2704154199999999,2.387524,1.73664735,3.1870049
959,1747533688730,1.9851615,-2.6380148,-0.28627914,2.6226811,2.0793962,3.0493195
960,1747533688740,2.953825,-2.9216092,-1.0858107,1.7097495,1.1329087,1.6618125
961,1747533688750,3.2078884,-3.00947,-1.1480453,1.23384257,0.643419705,1.314003685
962,1747533688760,3.312833,-3.0978186,-1.1575636,-0.091080114,-0.74089146,0.22050974
963,1747533688770,3.2763465,-3.14626395,-1.12986305,-0.779773557,-0.97711383,-0.46871633
964,1747533688780,3.2032515000000004,-3.20801045,-1.026138675,-1.59629875,-1.06819393,-1.41653535
965,1747533688790,3.11526885,-3.20227515,-0.8793382249999999,-1.78804635,-0.7427556550000001,-1.92253605
966,1747533688800,2.9921418500000003,-3.13467135,-0.7601162699999999,-1.94384125,-0.42797001,-2.3947146
967,1747533688810,2.83936195,-3.0543765,-0.61441412,-2.1606225500000003,-0.278034035,-2.84372355
968,1747533688820,2.630449,-2.9862845,-0.3133695,-2.5523736,-0.5091964,-3.5691686
969,1747533688830,2.464246,-2.9428423500000003,-0.167057183,-2.8035097,-0.83756415,-4.1545315
970,1747533688840,2.1550255,-2.87279795,0.055156937,-3.14199745,-1.2823121,-5.090899
971,1747533688850,1.8558114,-2.8283795,0.2166008,-3.2173649,-1.4221281,-5.6978333
972,1747533688860,1.3664765,-2.7485726,0.43124917,-3.0706248,-1.4183996,-6.4134245
973,1747533688870,1.0083225,-2.71172,0.484331635,-2.9158951,-1.3448964,-6.7961209
974,1747533688880,0.23697957,-2.6336217,0.5620638,-2.634399,-1.1574098,-7.4808197
975,1747533688890,-0.052472305,-2.6262999,0.5757311,-2.5624936,-1.0721886,-7.791877
976,1747533688900,-0.33069757,-2.642896,0.6040417,-2.5614283,-1.0476876000000002,-7.957259500000001
977,1747533688910,-0.60867876,-2.6553428,0.6382097,-2.591256,-1.0034791,-8.449145
978,1747533688920,-1.1827015,-2.797384,0.6850687,-2.7249465,-0.9321064,-9.082445
979,1747533688930,-1.31266195,-2.8418025,0.72777872,-2.7284086,-0.8908274,-9.208945
980,1747533688940,-1.58710425,-2.912091,0.8434618700000001,-2.6791401,-0.802676765,-9.4270575
981,1747533688950,-1.8648414,-2.95895,0.97208005,-2.53213355,-0.738760885,-9.5809885
982,1747533688960,-2.3013378500000004,-2.9273447,1.0751942,-2.3329291000000003,-0.7499461700000001,-9.6481005
983,1747533688970,-2.7351494,-2.758091,1.0311419,-1.8216022,-0.8969527,-9.443037
984,1747533688980,-2.7894522,-2.69085325,0.95816875,-1.8162759,-0.92464957,-9.3498265
985,1747533688990,-2.89732565,-2.5480797500000003,0.8250355,-1.8793928,-1.00028337,-9.0811135
986,1747533689000,-2.9857962,-2.3473425,0.6972716,-2.0852551,-0.99229383,-8.594021
987,1747533689010,-2.8173969,-2.3319669,0.83736044,-2.305765,-0.9550096,-8.325042
988,1747533689020,-2.7102559,-2.3302586,0.86201024,-2.4383903,-1.1174624,-8.334097
989,1747533689030,-2.6148295,-2.3561287,0.9096014,-2.615757,-1.3166668,-8.428905
990,1747533689040,-2.5987216,-2.3905407,0.9917267,-2.67993915,-1.3989585,-8.521049999999999
991,1747533689050,-2.6619325,-2.3983507,1.3071706,-2.7164245,-1.5254587,-8.80015
992,1747533689060,-2.74845075,-2.34697665,1.4150439,-2.62481165,-1.4958976,-8.832640000000001
993,1747533689070,-3.444624,-1.8026069,1.7428128,-1.8114822,-1.051416,-8.115185
994,1747533689080,-3.42754,-1.6963199,1.76697445,-1.6061525,-0.9683254,-7.8563255
995,1747533689090,-3.2901359,-1.4987555,1.7577002,-1.2024173,-0.805872575,-7.379353
996,1747533689100,-3.2130138,-1.3822182,1.6670329499999998,-0.65034398,-0.538491175,-6.856574500000001
997,1747533689110,-3.1363797,-1.108264,1.4699568,0.022370555,-0.17044231,-6.2440476
998,1747533689120,-3.1559043,-0.9242448,1.3647681,0.36272255,0.03888215,-5.870672
999,1747533689130,-3.16139555,-0.8465125499999999,1.31046535,0.508131125,0.121972775,-5.671734
1000,1747533689140,-3.1400404,-0.5950116,1.0799533,0.704672415,0.148071757,-5.24882415
