timestamp,acc_x,acc_y,acc_z,gyro_x,gyro_y,gyro_z,id
1747532579970,-0.231610337,0.318250655,1.24542415,-0.63090288,-0.13795174,-1.184307827,1
1747532579980,1.9361062,-0.051007964,0.10201593,-0.505468,0.78776306,9.523464,2
1747532579990,2.3817546,0.18060236,0.051007964,-0.15286545,1.055677,10.162622,3
1747532580000,2.856934,0.47103047,0.0043930304,0.1107875,1.2186625,10.731474,4
1747532580010,3.8338954,1.0243083,0.077122085,0.47244477,1.2144015,11.315239,5
1747532580020,4.0961347,1.0056379,0.0906672625,0.700944,1.1920309,10.993529,6
1747532580030,4.582663,0.8293065,0.20354374,1.0274476,1.107875,10.4401245,7
1747532580040,4.724216,0.7319277,0.28261828,1.4769892,1.0546118,9.876067,8
1747532580050,4.7979217,0.77122086,0.2975058,1.988316,1.0695255,9.369,9
1747532580060,4.241959,1.0623811,0.044418417,2.8117654,1.4530207,8.9327755,10
1747532580070,3.8851473,1.2010058,-0.22916976,2.7654266,1.856756,9.259811,11
1747532580080,3.8607419,1.4035733,-0.63625723,2.3121564,2.396845,9.596435,12
1747532580090,4.03329,1.6117541,-1.0289453,1.459945,2.8336034,9.618273,13
1747532580100,4.148973,1.7718556,-1.32157,0.33502567,3.03121,9.207613,14
1747532580110,4.2968717,2.0361695,-0.788793,-1.1771172,2.4783378,7.223026,15
1747532580120,4.0972333,2.2367847,-0.47884035,-1.2362394,1.8961707,5.7577543,16
1747532580130,3.337727,2.3419733,-0.22331238,-0.922519,0.9555422,4.1183124,17
1747532580140,2.447162,2.3436816,-0.13203497,-0.65726817,0.16884442,3.1808796,18
1747532580150,1.7869871,2.311222,-0.20329969,-0.5629923,-0.36005938,2.505502,19
1747532580160,0.9405966,2.2294629,-0.3585201,-1.1169298,-0.54648066,1.5291871,20
1747532580170,0.72167724,2.1921222,-0.29091623,-1.5547534,-0.20559604,1.0695255,21
1747532580180,0.609655,2.13184,-0.12568948,-1.8354506,0.3158509,0.6199839,22
1747532580190,0.609655,2.13184,-0.12568948,-1.8596854,0.5552691,0.40346891,23
1747532580200,0.43051702,1.9553868,0.22868164,-1.6341157,1.0498182,-0.23169503,24
1747532580210,0.33191785,1.888271,0.36559775,-0.22423817,0.7137272,-1.0183928,25
1747532580220,0.3121492,1.8819253,0.19280522,0.079628515,0.563258585,-1.16167085,26
1747532580230,0.3287451,1.8736275,-0.06662763,0.7520767,0.17630127,-1.5899072,27
1747532580240,0.357909935,1.88936915,-0.198784625,0.80454097,0.108656976,-1.7441042,28
1747532580250,0.50641876,1.9300048,-0.5793919,0.72437984,-0.0127831735,-2.2509038,29
1747532580260,0.6962953,1.965637,-0.77073276,0.42237735,0.027696876,-2.6312032,30
1747532580270,0.80587703,1.9712504,-0.7307074,-0.24980451,0.31691617,-3.3433325,31
1747532580280,0.8931274650000001,1.9536783,-0.6798215000000001,-0.349673055,0.340618315,-3.54573275,32
1747532580290,1.5802706,1.9014499,-0.33313814,-0.2609898,0.16085494,-4.498612,33
1747532580300,1.8260365,1.9090158,-0.25089085,-0.0127831735,0.017044231,-4.860269,34
1747532580310,2.1274471,1.8965688,-0.26358184,0.22264028,-0.11984225,-5.179848,35
1747532580320,2.4354472,1.900962,-0.30019042,0.42344263,-0.29294774,-5.4930363,36
1747532580330,2.6079957,1.9714943,-0.3743838,0.5107943,-0.53795856,-5.7779946,37
1747532580340,2.9911656,2.1215897,-0.42002252,0.2743056,-1.0823087,-6.314355,38
1747532580350,3.2115493,2.1899257,-0.33142975,0.01438107,-1.2543489,-6.567355,39
1747532580360,3.5507889,2.2016404,-0.1615659,-0.30679616,-1.274589,-6.930078,40
1747532580370,3.7721486,2.179187,0.012202863,-0.5091964,-1.1531488,-7.2422004,41
1747532580380,4.0220633,2.1037736,0.44882128,-0.6215818,-0.98590225,-7.5191693,42
1747532580390,4.08381,2.084493,0.6970275,-0.38296258,-0.62317973,-7.7743,43
1747532580400,4.1968083,2.0730224,0.9623177,0.0127831735,-0.48629323,-7.8211718,44
1747532580410,4.2856455,2.0308003,1.1312053,0.5486112,-0.3637878,-7.9047947,45
1747532580420,4.2309766,1.8985213,1.1702545,1.1073424,-0.26525086,-8.050203,46
1747532580430,3.9633678,1.66325015,1.03956185,1.4578144000000002,-0.0766990474999999,-8.135158,47
1747532580440,3.3096604,1.1507299,0.76121455,1.8860507,0.33822146,-8.111456,48
1747532580450,2.9711528,0.9364477,0.66188323,1.8716697,0.5230448,-7.9271655,49
1747532580460,2.6663256,0.71728426,0.5762192,1.8072212,0.65886605,-7.718374,50
1747532580470,2.4330065,0.5005614,0.54034275,1.7459685,0.69348717,-7.5505943,51
1747532580480,1.8955926,0.016107777,0.4876264,1.7422401,0.56245965,-7.334346,52
1747532580490,1.6344513,-0.21623473,0.46444094,1.7667412,0.49428272,-7.1633706,53
1747532580500,1.411627,-0.4510178,0.5098356,1.8434402,0.43303,-6.94872,54
1747532580510,1.29692015,-0.54705432,0.52447903,2.0857878,0.40373522,-6.58653,55
1747532580520,1.0113733,-0.9730562,0.48665017,2.3446472,0.32117724,-6.2227426,56
1747532580530,0.83736044,-1.0838583,0.37145513,2.6732812,0.094808534,-5.4323163,57
1747532580540,0.7700006,-1.1846539,0.2506468,2.6365294,0.13262543,-5.0621367,58
1747532580550,0.6965394,-1.3230344,0.117635585,2.4437168,0.30839407,-4.711132,59
1747532580560,0.6882414,-1.4680043,0.052472305,2.1582258,0.5049353,-4.4181843,60
1747532580570,0.6967834,-1.6254213,0.009518232,1.8455707,0.545948,-4.2077947,61
1747532580580,0.39805737,-1.8858303,-0.13276714,0.9624664,0.29241508,-3.6144423,62
1747532580590,0.316298185,-1.94843095,-0.171206155,0.6993461000000001,0.2159823599999999,-3.39233465,63
1747532580600,0.14716652,-2.0988922,-0.21623473,-0.0958738,0.006924219,-2.6652918,64
1747532580610,0.1181237,-2.1838243,-0.17718557,-0.55766594,-0.091080114,-2.1662152,65
1747532580620,0.06467517,-2.4137263,0.011714748,-1.0253171,-0.18801917,-1.2351742,66
1747532580630,-0.019280521,-2.485235,0.078830495,-1.0327739,-0.30253512,-0.7419567,67
1747532580640,-0.0848098905,-2.5036613,0.0943281325,-0.985902275,-0.39228365,-0.45753109,68
1747532580650,-0.30604777,-2.4998784,0.09396204,-0.819721,-0.69987875,0.5203817,69
1747532580660,-0.3708449849999999,-2.46851705,0.0572314244999999,-0.78563253,-0.810133605,1.0279802,70
1747532580670,-0.43076107,-2.2250698,-0.11665936,-0.79894835,-1.0769824,2.3750072,71
1747532580680,-0.2877435,-2.0862012,-0.15570852,-1.1142666,-1.257012,3.9329565,72
1747532580690,-0.2877435,-2.0862012,-0.15570852,-1.1142666,-1.257012,3.9329565,73
1747532580700,0.3572998,-1.6249331,-0.12544543,-1.7571537,-1.1329087,5.417935,74
1747532580710,0.5281399,-1.4972912,-0.09200958,-1.9323897,-1.099353,5.620335,75
1747532580720,0.66090703,-1.3735542,-0.054912884,-2.0570257,-1.0966897,5.7375145,76
1747532580730,0.73290396,-1.2661691,0.0019524579,-2.1017668,-1.1265172,5.826997,77
1747532580740,0.7570656,-1.1748916,0.08932495,-1.984055,-1.2463595,5.98146,78
1747532580750,0.72777873,-1.1094842,0.17279254,-1.7273263,-1.3662016,6.2104917,79
1747532580760,0.66847277,-0.89813066,0.23405088,-1.3582122,-1.4530207,6.5471153,80
1747532580770,0.7485236,-0.7470592,0.14887492,-0.70200926,-1.4721955,7.5228977,81
1747532580780,0.98428285,-0.49470404,0.045394648,-0.6002765,-1.3896375,8.070976,82
1747532580790,1.415532,-0.24869433,-0.028066583,-0.64821345,-1.1712582,8.515191,83
1747532580800,2.0249429,-0.043930303,-0.034168016,-0.7520767,-0.81226414,8.661665,84
1747532580810,2.8876853,0.191829,-0.017572122,-0.8175905,-0.3323625,8.428905,85
1747532580820,2.8513207,0.23771177,0.0034168016,-0.7350325,0.38083205,7.7231674,86
1747532580830,2.7463763,0.34192422,0.014399378,-0.6114618,0.4628574,8.000669,87
1747532580840,2.6716948,0.4595598,0.117635585,-0.38722363,0.43356264,8.72132,88
1747532580850,3.0048327,0.5598673,0.24967057,0.019707393,0.41385525,9.615609,89
1747532580860,4.2800317,0.99111646,0.31239328,1.1515509,0.7126619,10.903514,90
1747532580870,4.8403873,1.0438329,0.22306833,1.6516925,0.76912093,10.9397335,91
1747532580880,5.1989074,0.93937635,0.0034168016,1.9659456,0.8127968,10.608969,92
1747532580890,5.4263687,0.83687234,-0.28505886,1.9526298,0.9598033,9.915482,93
1747532580900,5.4622455,0.8505395,-0.575487,1.6346483,1.1632688,9.302955,94
1747532580910,4.694929,0.8771418,-0.61892915,0.62317973,1.355549,8.574313,95
1747532580920,4.355446,0.87982637,-0.36755022,0.34408042,1.2996227,8.566324,96
1747532580930,4.118466,0.946454,-0.15082738,0.27803403,1.2974921,8.662198,97
1747532580940,4.067214,1.023576,-0.10860548,0.25832662,1.3837786,8.641958,98
1747532580950,4.041221999999999,1.08495645,-0.10042956,0.234358175,1.4484934,8.512262,99
1747532580960,3.9786215,1.325963,-0.08956901,0.16298546,1.68152,7.8733697,100
1747532580970,3.6901455,1.7145022,-0.1889003,0.10705908,1.8524948,5.7747984,101
1747532580980,3.2030072,1.8658178,-0.31312546,0.015446335,1.5691346,4.7036753,102
1747532580990,2.8756045,1.9013281,-0.38133946,-0.1014664374999999,1.34409745,4.238421,103
1747532581000,1.9492851,1.9763755,-0.5315567,-0.5699165,0.6737798,3.0019152,104
1747532581010,1.0579882,1.9497733,-0.2928687,-1.1723236,0.21411815,1.8674086,105
1747532581020,0.8324793,1.9485531,-0.10421244,-1.2213258,0.32969934,1.4290522,106
1747532581030,0.66798466,1.9690539,0.00976229,-1.0588728,0.58696073,1.0237192,107
1747532581040,0.6008689300000001,1.95599685,-0.0147654649999999,-0.94196005,0.65833345,0.789361,108
1747532581050,0.44784504,1.8965688,-0.2020794,-0.7765778,0.6066681,0.18162759,109
1747532581060,0.38975942,1.8052914,-0.2716357,-0.92731273,-0.06977482,-0.5400891,110
1747532581070,0.3699908,1.777957,-0.17669745,-0.97471696,-0.35420042,-0.85594,111
1747532581080,0.35705575,1.7552598,-0.12056428,-0.99948438,-0.413588925,-0.99229385,112
1747532581090,0.43710655,1.7713674,-0.044174362,-1.1371698,-0.25300032,-1.6362462,113
1747532581100,0.5266756,1.824816,-0.03734076,-1.1936288,0.007989483,-1.9153455,114
1747532581110,0.5937913,1.8660617,-0.05686534,-1.2564794,0.28549087,-2.231729,115
1747532581120,0.80416864,1.8833898,-0.06882414,-1.3331785,0.4564658,-2.7164245,116
1747532581130,0.97452056,1.9514818,0.025137896,-1.2564794,0.45327002,-3.1798143,117
1747532581140,0.97452056,1.9514818,0.025137896,-1.2564794,0.45327002,-3.1798143,118
1747532581150,1.6098017,1.9768637,0.12764193,-0.3584615,0.06764429,-4.5470815,119
1747532581160,1.9622203,1.9485531,0.042221904,-0.11558119,-0.0314253,-4.98384,120
1747532581170,2.2360525,1.9041346,-0.07468152,-0.010652645,-0.042077947,-5.3604107,121
1747532581180,2.8508327,1.7745403,-0.19646609,-0.12836437,0.0127831735,-6.0208745,122
1747532581190,3.1768932,1.7708794,-0.026846299,-0.13102753,-0.06231797,-6.4586983,123
1747532581200,3.504906,1.8052914,0.15424417,0.06018744,-0.11984225,-6.805442,124
1747532581210,3.9022315,1.8179823,0.25796852,0.34194988,-0.2130529,-7.228352,125
1747532581220,4.181433,1.7943089,0.33826336,0.6530071,-0.36272255,-7.681622,126
1747532581230,4.5567927,1.6849711,0.3790209,0.9438243,-0.5603291,-8.089086,127
1747532581240,4.7181144,1.6281059,0.38341394,1.3502227,-0.8016115,-8.581238,128
1747532581250,4.84112,1.6202961,0.3961049,1.4801849,-0.78936094,-8.707472,129
1747532581260,4.884806,1.61102195,0.38439016,1.546764,-0.6982809,-8.761268,130
1747532581270,5.0280676,1.5529363,0.35290676,1.5350461,-0.5363607,-8.789497,131
1747532581280,5.1608343,1.3020455,0.464685,1.653823,-0.31957933,-9.192167,132
1747532581290,4.867722,1.0943527,0.47469133,1.7571537,-0.32437304,-9.338641,133
1747532581300,4.5619183,0.8593256,0.49299565,1.850897,-0.39095205,-9.355685,134
1747532581310,4.1843615,0.55645055,0.5315567,1.9936424,-0.45220476,-9.292302,135
1747532581320,3.7833753,0.26919514,0.53253293,2.1539648,-0.51026165,-9.175655,136
1747532581330,2.8666964,-0.23307467,0.4271002,2.3254724,-0.55127436,-8.71333,137
1747532581340,2.6681558,-0.347049405,0.399033615,2.3086944000000003,-0.53982276,-8.510929999999998,138
1747532581350,2.0744865,-0.643823,0.35363895,2.23599,-0.47244477,-7.9543295,139
1747532581360,1.7296337,-0.8031924,0.3277689,2.179531,-0.36432046,-7.5979986,140
1747532581370,1.57038635,-0.8570070000000001,0.321423415,2.149171,-0.32517198,-7.399593100000001,141
1747532581380,0.9772052,-1.0765365,0.30751213,1.9744676,-0.18855181,-6.315953,142
1747532581390,0.84614646,-1.159272,0.29726174,1.897236,-0.113983296,-5.9196744,143
1747532581400,0.7568215,-1.2493291,0.27456442,1.7848506,-0.022370555,-5.5478973,144
1747532581410,0.6406503,-1.3650122,0.29091623,1.6586168,0.090014845,-5.1889033,145
1747532581420,0.46785772,-1.6017478,0.30751213,1.4365091,-0.058589544,-4.3303,146
1747532581430,0.38512233,-1.7098651,0.24991462,1.27885,-0.24714136,-3.9675775,147
1747532581440,0.3018988,-1.8013865,0.15302388,0.9912286,-0.36911413,-3.5835497,148
1747532581450,0.25406358,-1.8799729,0.08981306,0.60507023,-0.4346279,-3.200587,149
1747532581460,0.22502078,-1.973935,0.09005712,0.1965413,-0.44741106,-2.8570392,150
1747532581470,0.1681554425,-2.04727415,0.14204132,-0.1025316999999999,-0.45753108,-2.5531726,151
1747532581480,0.0302631,-2.229219,0.24308102,-0.5592638,-0.52411014,-1.9425098,152
1747532581490,0.0302631,-2.229219,0.24308102,-0.5592638,-0.52411014,-1.9425098,153
1747532581500,-0.28383857,-2.3929813,0.3236199,-0.6087986,-0.80374205,-0.9038769,154
1747532581510,-0.396470985,-2.4100653000000003,0.306413875,-0.5858955,-0.892159,-0.21092236,155
1747532581520,-0.5449798,-2.4003031,0.24942651,-0.5789712,-0.9470201,1.4183996,156
1747532581530,-0.50788313,-2.3549085,0.1901206,-0.62317973,-0.85540736,2.273807,157
1747532581540,-0.46590528,-2.30817155,0.1538780925,-0.67484504,-0.79362203,2.6834012,158
1747532581550,-0.29311275,-2.1462393,0.063943,-0.8831042,-0.6269081,3.8498657,159
1747532581560,0.094206095,-1.9331775,-0.0056133163,-1.3070794,-0.5566007,5.0424294,160
1747532581570,0.38048524,-1.8272567,-0.0012202862,-1.6016251,-0.588026,5.502091,161
1747532581580,0.6047739,-1.7213358,0.041001618,-1.6921726,-0.59708075,5.6054215,162
1747532581590,0.7404697,-1.6010156,0.09518232,-1.881257,-0.58696073,5.8376493,163
1747532581600,0.8002637,-1.5063213,0.1637624,-1.8913771,-0.5784386,5.998504,164
1747532581610,0.844194,-1.4028411,0.3082443,-1.5259913,-0.62744075,6.512494,165
1747532581620,0.8773858,-1.3381659,0.35949633,-1.1510183,-0.7057377,6.809703,166
1747532581630,0.899595,-1.279104,0.37413976,-0.6860303,-0.7840346,7.1825457,167
1747532581640,0.95438585,-1.22992645,0.3482696899999999,-0.45540055,-0.77764302,7.44220385,168
1747532581650,1.2908187,-1.0030752,0.2255089,0.24660872,-0.5917544,8.470983,169
1747532581660,2.506224,-0.4702983,-0.15619664,0.40959418,-0.2609898,9.122392,170
1747532581670,3.1939774,-0.10592084,-0.34949,0.18002969,-0.03089267,9.036106,171
1747532581680,3.5834925,0.358032,-0.43954712,-0.13901702,0.30945933,8.962603,172
1747532581690,3.7176019,0.5277738000000001,-0.42404946,-0.29348037,0.505734295,8.978048999999999,173
1747532581700,3.91589835,0.7238738,-0.35461516,-0.53263226,0.92864428,9.0174635,174
1747532581710,4.0245037,0.80465674,0.0051252022,-0.19121496,1.9963056,9.63798,175
1747532581720,4.0753898500000005,0.83247927,0.0749255761,0.5656554,2.0671456,10.296313,176
1747532581730,4.66369,0.8395569,0.22306833,1.3342438,1.8343854,10.646786,177
1747532581740,4.9330072000000005,0.82601173,0.15717287,1.69243895,1.67805785,10.620154,178
1747532581750,5.4612692,0.82454738,-0.057841565,2.25117015,1.34889115,10.3788715,179
1747532581760,5.547421,1.3423148,-1.0841023,1.7603495,1.1835088,8.910937,180
1747532581770,5.123738,1.4079663,-1.3347491,0.6593987,1.4221281,8.627044,181
1747532581780,4.856007,1.406502,-1.2781278,-0.54648066,1.7923075,8.402806,182
1747532581790,4.5860796,1.376971,-0.95597225,-1.530785,2.0751352,8.123174,183
1747532581800,4.236346,1.3484163,-0.5379022,-2.2248049,2.0932446,7.787616,184
1747532581810,3.4419394,1.2903306,0.14423785,-2.183792,1.2905679,7.2752237,185
1747532581820,3.2811058,1.3608632,0.46273252,-1.6144083,0.7888283,6.852846,186
1747532581830,3.3038030000000003,1.4742278,0.6103871599999999,-1.0953582,0.5736449,6.46668785,187
1747532581840,3.28732895,1.74989045,0.7851321499999999,0.0615189999999999,0.1691107379999999,5.540706849999999,188
1747532581850,2.98494205,2.02372265,0.57194815,1.14302875,-0.267381377,4.459996,189
1747532581860,2.12207775,2.18370225,-0.24661982,1.1462245,-1.0503508,2.412824,190
1747532581870,1.1102165,2.247523,-1.1524384,-0.022370555,-0.9518138,1.9041603,191
1747532581880,0.90740484,2.1769907,-1.1878266,-1.7726,-0.5134575,1.3081448,192
1747532581890,0.84004502,2.1239082500000004,-1.032118065,-2.3491744,-0.2625877045,1.05834025,193
1747532581900,0.706545725,2.01871955,-0.653341235,-3.24905655,0.2340918655,0.55633435,194
1747532581910,0.4283205,1.9785721,0.59183884,-2.9422605,0.7073356,-0.68389976,195
1747532581920,0.3180066,1.9685657,0.878362,-1.9574234,0.3669836,-1.0705907,196
1747532581930,0.27920148,1.9487971,0.89349353,-0.8926916,-0.10972224,-1.3646038,197
1747532581940,0.35144243,1.9241474,0.4283205,0.5411543,-0.6993461,-1.9286613,198
1747532581950,0.45589894,1.9700302,0.13276714,0.7281082,-0.6945524,-2.2983081,199
1747532581960,0.59989274,1.9924834,-0.18572757,0.4926848,-0.5022722,-2.6423886,200
1747532581970,0.74510676,1.9756435,-0.36632994,0.04314321,-0.1768339,-3.0141659,201
1747532581980,0.8432178,1.9429398,-0.41587353,-0.43569317,0.25726137,-3.3667684,202
1747532581990,1.1304731,1.8604484,-0.29726174,-1.0721886,0.88203895,-4.081028,203
1747532582000,1.3281596,1.798946,-0.16986385,-1.1403656,0.9534117,-4.524178,204
1747532582010,1.5216969,1.7181631,-0.049299564,-1.0546118,0.8863,-4.968926,205
1747532582020,1.726705,1.6422611,0.077122085,-0.8474179,0.70840085,-5.400358,206
1747532582030,2.2221413,1.5119346,0.25699228,-0.13475595,0.28495824,-6.182795,207
1747532582040,2.4723,1.4811834,0.3184947,0.23861924,0.17150758,-6.466155,208
1747532582050,2.7392986,1.4631232,0.3231318,0.5640575,0.10439592,-6.6919913,209
1747532582060,3.0538883,1.4872849,0.25821257,0.76965356,0.09534117,-6.876282,210
1747532582070,3.4568267,1.5500076,0.16864355,0.8165252,0.11345066,-7.1117053,211
1747532582080,4.1885104,1.6744769,0.08297946,0.53103435,0.12676647,-7.838216,212
1747532582090,4.2982142,1.6889983,0.129594395,0.427703695,0.12410331,-8.0113215,213
1747532582100,4.6514874,1.6817985,0.34290043,0.2066613,0.17736652,-8.499212,214
1747532582110,4.8574715,1.5580615,0.5347294,0.24873926,0.4032026,-8.868859,215
1747532582120,4.9633923,1.4392056,0.6953191,0.43196473,0.64341974,-9.078184,216
1747532582130,4.9233665,1.2129645,0.92278045,1.176052,1.0120013,-9.228386,217
1747532582140,4.816714,1.061405,0.9193637,1.6101472,1.0418286,-9.188438,218
1747532582150,4.626105,0.8856837,0.810026,1.9819245,0.99495703,-9.122925,219
1747532582160,4.330552,0.72558224,0.70361704,2.2391858,0.86659265,-8.994028,220
1747532582170,3.97386225,0.5552302600000001,0.6334505699999999,2.37340915,0.7084008749999999,-8.751946499999999,221
1747532582180,3.3020947,0.22209209,0.52033,2.582201,0.3435478,-8.107728,222
1747532582190,3.0102022,0.053692598,0.42612398,2.5550368,0.26684874,-7.852064,223
1747532582200,2.7148929,-0.1403329,0.31556603,2.422944,0.29454562,-7.6342177,224
1747532582210,2.4024994,-0.36291313,0.23307467,2.1928468,0.40852892,-7.448329,225
1747532582220,2.0185976,-0.5749989,0.16303024,1.9393139,0.62371236,-7.255516,226
1747532582230,1.3132721,-0.9757409,0.200371,1.591505,0.902279,-6.5801387,227
1747532582240,1.0304097,-1.1075318,0.2936009,1.6064188,0.9337043,-6.1385865,228
1747532582250,0.7475473,-1.1351103,0.3270367,1.7166736,0.88896316,-5.6363144,229
1747532582260,0.53985465,-1.1490215,0.2818861,1.816276,0.77231675,-4.9481535,230
1747532582270,0.26529023,-1.1883147,0.11983211,1.700162,0.7355651,-3.9239016,231
1747532582280,0.26529023,-1.1883147,0.11983211,1.700162,0.7355651,-3.9239016,232
1747532582290,0.17523311,-1.2339534,0.022941383,1.3012205,0.7909589,-3.0812774,233
1747532582300,0.14789869,-1.2546983,-0.034900185,1.019458,0.81705785,-2.7340012,234
1747532582310,0.13227904,-1.2720264,-0.076389916,0.6844324,0.85594,-2.4261398,235
1747532582320,0.16473864,-1.3630598,-0.114218794,-0.037284255,0.9321064,-1.9877834,236
1747532582330,0.21501444,-1.479475,-0.11031388,-0.4394216,0.98590225,-1.9196066,237
1747532582340,0.21416024,-1.5574512500000002,-0.11434082,-0.5747102000000001,1.006408625,-1.93425395,238
1747532582350,0.12349297,-1.769171,-0.12422514,-0.91825795,1.026915,-1.963815,239
1747532582360,-0.074437465,-1.85288255,-0.1007956399999999,-1.002413875,0.88709902,-1.7915085,240
1747532582370,-0.5105677,-1.9756435,-0.05515694,-1.0503508,0.5006743,-1.158475,241
1747532582380,-0.66993713,-1.9854058,-0.056377225,-0.96939063,0.23489082,-0.50120693,242
1747532582390,-0.7177723650000001,-1.9927274,-0.0674818325,-0.92811164,0.129695951,-0.10572749,243
1747532582400,-0.7830577000000001,-2.0010254,-0.09518233,-0.8583368250000001,-0.030892669,0.697215575,244
1747532582410,-0.79013535,-1.99187335,-0.139478715,-0.8237157500000001,-0.108124345,1.4948323,245
1747532582420,-0.50690687,-1.9043787,-0.26553428,-0.9400959,-0.24394555,3.3358757,246
1747532582430,-0.34241232,-1.8550792,-0.30970863,-1.0189254,-0.31851408,3.8482678,247
1747532582440,-0.16547081,-1.8040712,-0.35119838,-1.1254519,-0.4111921,4.297277,248
1747532582450,0.15741692,-1.6688635,-0.44882128,-1.2500879,-0.53476274,4.6946206,249
1747532582460,0.268463,-1.5873483,-0.49250755,-1.6426378,-0.74941355,5.3721285,250
1747532582470,0.36901456,-1.5007081,-0.5015376,-1.8935076,-0.84422207,5.6688046,251
1747532582480,0.4720067,-1.4211453,-0.5012936,-2.1539648,-0.9507485,5.93086,252
1747532582490,0.56548065,-1.351345,-0.4544346,-2.4293356,-1.1382351,6.224873,253
1747532582500,0.67140144,-1.2983845,-0.3743838,-2.5507758,-1.3363743,6.441654,254
1747532582510,1.0308977,-1.1663495,-0.277005,-2.5630262,-1.7566211,6.773484,255
1747532582520,1.2688537,-1.1158297,-0.22502078,-2.5028389,-1.9584887,6.91836,256
1747532582530,1.5299948,-1.0377314,-0.1552204,-2.3979104,-2.1065605,7.1367393,257
1747532582540,1.6673991,-1.0077124,-0.12263876,-2.3206786,-2.13692045,7.29892565,258
1747532582550,2.1252506,-0.93986446,-0.05344854,-2.126268,-2.0831246,7.887218,259
1747532582560,3.2235081,-0.8139309,-0.09176553,-2.1470406,-1.4173343,9.041965,260
1747532582570,3.8277938,-0.46956614,-0.059305906,-2.1981733,-0.9267801,9.690178,261
1747532582580,4.1040664,0.021477038,0.07516963,-2.179531,-0.53476274,10.686733,262
1747532582590,4.373139699999999,0.221481944,0.202079405,-2.0796625,-0.4655205599999999,11.1714285,263
1747532582600,5.30177765,0.527285695,0.47042034,-1.70602105,-0.41891524,11.697669,264
1747532582610,7.2851086,1.0052718,1.0040516,-0.4596616,-0.46552056,10.809238,265
1747532582620,6.4897265,1.0208915,0.83174706,1.7789917,-0.40906155,8.782041,266
1747532582630,5.4895797,0.9864794,0.53082454,2.5411885,-0.1736381,8.755941,267
1747532582640,5.17596605,0.99941445,0.305681715,2.8730183,0.08628642,9.3988285,268
1747532582650,4.833798,1.1797727,-0.5120321,2.5108283,0.19547603,9.83612,269
1747532582660,5.516182,1.6500711,-1.2251674,0.38615838,0.14168017,9.061672,270
1747532582670,5.51056865,1.73378275,-1.1432862,-0.23622241,0.13768543,8.5540735,271
1747532582680,4.9470406,1.9148731,-0.54986095,-1.8034927,0.10972224,7.0717583,272
1747532582690,4.279788,1.9038906,-0.09884319,-2.422944,0.12250541,6.246178,273
1747532582700,3.3648171,1.8165181,0.6887296,-2.624279,0.04314321,4.794223,274
1747532582710,2.8869534,1.8221315,0.89032084,-2.2173479,-0.087884314,3.820571,275
1747532582720,2.1691809,1.8218873,0.9440134,-1.7848506,-0.10546118,3.2027175,276
1747532582730,1.5155954,1.7965053,0.8605459,-1.3864417,-0.070307456,2.815494,277
1747532582740,0.65260905,1.6551963,0.63186425,-1.1749867,-0.096672751,2.61362635,278
1747532582750,0.37755656,1.6134624,0.64992446,-0.7669904,-0.13315806,2.2349248,279
1747532582760,0.2550398,1.5875924,0.66700846,-0.525708,-0.10013486,1.9941751,280
1747532582770,0.13520771,1.5944259,0.71215904,-0.23222765,-0.032490566,1.6804547,281
1747532582780,0.007321717,1.6595892,0.72826684,0.13315806,0.07190535,1.3592775,282
1747532582790,-0.094206095,1.7740521,0.49470404,0.9139969,0.257794,0.70467246,283
1747532582800,-0.10079564,1.7833264,0.34265637,1.1057445,0.17417073,0.42983422,284
1747532582810,-0.12642166,1.7752724,0.22355644,1.1925635,0.033023197,0.18588865,285
1747532582820,-0.12837411,1.7921125,0.1300825,1.1840415,-0.072970614,-0.013315806,286
1747532582830,0.082491346,1.8931521,-0.0034168016,1.091896,-0.05539375,-0.19813919,287
1747532582840,0.165592838,1.9134088,-0.0261141258,0.92997585,0.065513765,-0.470314265,288
1747532582850,0.45589894,1.978328,-0.10323621,0.57311225,0.31957933,-1.1275824,289
1747532582860,0.6252747,2.0317764,-0.14521407,0.3520699,0.43409526,-1.6793894,290
1747532582870,0.77146494,2.050325,-0.19597797,0.17097494,0.42184472,-2.13479,291
1747532582880,0.95218932,2.02579715,-0.221970065,-0.05779059,0.29348036,-2.59232105,292
1747532582890,1.3603752,1.9771078,-0.21403822,-0.51452273,0.12410331,-3.5473306,293
1747532582900,1.5551329,1.9390348,-0.15497635,-0.70840085,0.18535602,-4.040548,294
1747532582910,1.8558112,1.8575197,-0.09884319,-0.86179894,0.31158987,-4.525776,295
1747532582920,2.0681412,1.7652661,-0.045882765,-0.93157375,0.45806372,-4.9918294,296
1747532582930,2.5706549,1.6490947,0.13618395,-0.8149273,0.58696073,-5.7407103,297
1747532582940,2.73942055,1.6356716,0.20976721,-0.6418218250000001,0.612260765,-5.94151265,298
1747532582950,3.2676823,1.6024799,0.35168648,-0.14061491,0.5864281,-6.4917216,299
1747532582960,3.6396258,1.5590377,0.36681804,0.14061491,0.50813115,-6.9311433,300
1747532582970,3.8556163,1.487773,0.37316352,0.3270362,0.4181163,-7.3668365,301
1747532582980,4.318349,1.3798997,0.4761557,0.5113269,0.3616573,-8.027833,302
1747532582990,4.318349,1.3798997,0.4761557,0.5113269,0.3616573,-8.027833,303
1747532583000,4.4939483,1.32937985,0.59842837,0.6743123799999999,0.362189925,-8.130098499999999,304
1747532583010,4.908479,1.2176017,0.8766537,1.1291803,0.4133226,-8.2105255,305
1747532583020,5.4044037,0.98818773,0.9371798,1.598962,0.4543353,-8.279235,306
1747532583030,5.38182855,0.94218299,0.90374398,1.9052255,0.38722363,-8.3567335,307
1747532583040,5.2284384,0.87079626,0.82100856,2.350506,0.1949434,-8.368717,308
1747532583050,5.0658965,0.81246656,0.7390053,2.380866,0.14327806,-8.284029,309
1747532583060,4.822327,0.605506,0.63064396,2.301504,0.20026971,-8.243549,310
1747532583070,4.0181584,0.26992732,0.50593066,1.9835224,0.6492787,-8.026768,311
1747532583080,3.6218095,0.14472595,0.5339973,1.8359833,0.8873653,-7.7652454,312
1747532583090,3.2652419,-0.018792408,0.55913514,1.778459,1.2016183,-7.455253,313
1747532583100,2.9003763,-0.20647243,0.58305275,1.8285265,1.4301175,-7.254451,314
1747532583110,2.5635774,-0.37218732,0.6191732,1.9483687,1.5116103,-7.0989223,315
1747532583120,1.8306733,-0.7507201,0.5835409,2.4208136,1.5270566,-6.8294106,316
1747532583130,1.4853324,-1.01479,0.59135073,2.7521107,1.4455639,-6.620619,317
1747532583140,1.1817253,-1.2044226,0.58891016,3.1489217,1.2724584,-6.3670855,318
1747532583150,0.88373125,-1.3232784,0.53058046,3.5617118,1.0306433,-6.0416474,319
1747532583160,0.45809543,-1.5841756,0.2608972,4.0325584,0.5683186,-4.99396,320
1747532583170,0.35485923,-1.7518429,0.0622346,3.961186,0.4394216,-4.5337653,321
1747532583180,0.2882316,-1.8648415,-0.16888762,3.649596,0.27696875,-4.1177797,322
1747532583190,0.235149155,-1.90083995,-0.298359995,3.3372072,0.1946770749999999,-3.91964055,323
1747532583200,0.12007617,-2.024699,-0.66749656,2.0948424,-0.015978966,-3.381682,324
1747532583210,-0.022209208,-2.1994438,-0.82491344,0.9709886,-0.05965481,-3.095126,325
1747532583220,-0.065407336,-2.340509,-0.74193406,-1.2852416,-0.011185277,-2.6407907,326
1747532583230,-0.15619664,-2.5032952,-0.575487,-2.1640847,0.025033714,-2.4650218,327
1747532583240,-0.3162982,-2.6409433,-0.38194957,-2.7585022,0.008522116,-2.231729,328
1747532583250,-0.5427833,-2.7612636,-0.18109047,-3.1031153,-0.15393071,-1.7449032,329
1747532583260,-0.8683557,-2.8718216,0.19231711,-2.7441213,-0.78776306,-0.3089267,330
1747532583270,-0.92314652,-2.8497345000000003,0.254063595,-2.4732778,-0.96566223,0.192280235,331
1747532583280,-0.9952655,-2.7334414,0.35119838,-1.562743,-1.4551512,1.7832527,332
1747532583290,-0.9399865,-2.65534295,0.32801294,-1.254082615,-1.5571503,2.3206786,333
1747532583300,-0.78842693,-2.49328885,0.244545365,-0.6972156,-1.69669995,3.3467946,334
1747532583310,-0.14594623,-2.097428,-0.10079564,0.0005326322,-1.6213325,5.312474,335
1747532583320,0.17669745,-1.9487971,-0.2438132,-0.10226539,-1.5084145,5.838182,336
1747532583330,0.372309325,-1.8829016,-0.3223996249999999,-0.233559235,-1.48657655,5.93112615,337
1747532583340,0.7196028,-1.7650219,-0.450895775,-0.7286409,-1.532383,6.091182,338
1747532583350,1.099966,-1.5980868,-0.5532778,-1.1446266,-1.6761936,6.1007695,339
1747532583360,1.2351737,-1.5539125,-0.5715821,-2.011752,-1.9707392,6.2749405,340
1747532583370,1.1892909,-1.6273737,-0.50666285,-2.3995082,-2.0964406,6.6595006,341
1747532583380,1.185142,-1.7037637,-0.44271985,-2.735599,-2.221609,7.3071814,342
1747532583390,1.23444155,-1.7454975,-0.409894155,-2.9009814,-2.2951123,7.7455377,343
1747532583400,1.5238935,-1.8643533,-0.32532832,-3.4935348,-2.44638,9.392969,344
1747532583410,2.9821355,-1.7511108,-0.09518232,-3.9212384,-2.461826,10.727746,345
1747532583420,3.7267542,-1.5038807,-0.0019524579,-3.913249,-2.4724789,10.6356,346
1747532583430,4.2285357,-1.2205303,0.050031736,-3.8764973,-2.5081651,10.305368,347
1747532583440,4.46283055,-1.1406016,0.0978669579999999,-3.82776145,-2.45570085,10.118414,348
1747532583450,4.8535666,-0.93278676,0.39586085,-3.4839475,-2.0245352,9.751964,349
1747532583460,5.092254,-0.45052966,0.95377576,-2.1667478,-1.0002834,10.812967,350
1747532583470,5.5408316,-0.25845662,1.0792211,-1.0215886,-0.59388494,11.607121,351
1747532583480,6.1534157,-0.21843125,1.1612244,-0.036751624,-0.47723848,11.885688,352
1747532583490,6.3676977,-0.05222825,1.1004542,0.90707266,-0.44421527,11.989018,353
1747532583500,7.2731495,0.5691415,0.5532778,1.8439728,-0.53103435,11.216702,354
1747532583510,7.308172,0.8000195999999999,0.4108704,1.79363905,-0.58003649,10.7157615,355
1747532583520,7.3431945,1.0308977,0.268463,1.7433053,-0.62903863,10.214821,356
1747532583530,6.5104713,1.5336558,0.30385128,1.2639363,-0.5800365,7.867511,357
1747532583540,6.1347451500000005,1.58930085,0.45040764,1.3182648,-0.5083974649999999,7.432350250000001,358
1747532583550,5.064798,1.7509888,0.683116225,1.8319885,-0.355532015,6.36335725,359
1747532583560,3.918339,1.9136529,0.5525456,2.5891252,-0.29614353,5.167065,360
1747532583570,3.4992929,1.9705181,0.25699228,2.6525085,-0.27537087,4.577974,361
1747532583580,3.065115,1.990531,-0.13276714,2.3281355,-0.25246766,3.9910133,362
1747532583590,2.4618053,1.9390348,-0.75145227,0.6540724,-0.03888215,2.6493127,363
1747532583600,2.144531,1.8982773,-0.7660957,-0.32810146,0.12144015,1.8727349,364
1747532583610,1.743545,1.8406798,-0.63918597,-1.186172,0.31158987,1.1456919,365
1747532583620,1.2246792,1.7813739,-0.41880223,-1.798699,0.53316486,0.54275227,366
1747532583630,0.6796995,1.730854,-0.13764828,-2.1630194,0.69348717,0.0628506,367
1747532583640,0.37438385,1.68326285,0.041489735,-2.04104665,0.734233535,-0.093743275,368
1747532583650,-0.111046046,1.6176114,0.31385764,-1.5393071,0.7765778,-0.3616573,369
1747532583660,-0.173524698,1.6170013,0.32850107,-1.3073458,0.7597998850000001,-0.4247742,370
1747532583670,-0.27261195,1.5863721,0.32679266,-0.8375642,0.6969492850000001,-0.5605954,371
1747532583680,-0.18694785,1.5121787,0.24161668,-0.14753912,0.51718587,-0.8213189,372
1747532583690,-0.19597797,1.4985116,0.19719826,0.6317018,0.22423817,-1.3001553,373
1747532583700,-0.1867038,1.4775226,0.13398743,0.9683254,0.09321064,-1.504686,374
1747532583710,-0.0605262,1.4670281,0.039537273,1.1520835,0.06657903,-1.6442357,375
1747532583720,0.0656514,1.4824038,-0.05515694,1.23837,0.08894958,-1.8002969,376
1747532583730,0.34949,1.4867967,-0.33777523,0.94329166,0.15925704,-2.2034996,377
1747532583740,0.524479,1.4838681,-0.456143,0.56938386,0.17204021,-2.4426515,378
1747532583750,0.70093244,1.4982674,-0.45174995,0.14487597,0.14753912,-2.7238812,379
1747532583760,0.921072,1.5321914,-0.3402158,-0.20186761,0.10439592,-3.0578415,380
1747532583770,1.1602482,1.5534244,-0.18304294,-0.3920173,0.08894958,-3.4253578,381
1747532583780,1.6681312,1.5678238,-0.0014643435,-0.41598576,0.13741912,-4.314321,382
1747532583790,1.9361062,1.5109584,-0.002928687,-0.3717773,0.18002969,-4.718589,383
1747532583800,2.157222,1.4604386,-0.016839951,-0.35260254,0.17310548,-5.0706587,384
1747532583810,2.395666,1.4189488,-0.049787678,-0.39894155,0.13688648,-5.363074,385
1747532583820,2.690487,1.3486603,-0.07809832,-0.52837116,0.08362326,-5.643771,386
1747532583830,3.2342465,1.2363939,0.14545812,-0.75154406,-0.016511599,-6.1934476,387
1747532583840,3.440963,1.2400548,0.42099872,-0.67005134,-0.1486044,-6.4581656,388
1747532583850,3.7572613,1.3037539,0.6489482,-0.42024684,-0.32969934,-6.7804084,389
1747532583860,4.2339053,1.381364,1.0108851,-0.018109497,-0.396811,-7.0307455,390
1747532583870,5.180359,1.2842293,1.381364,1.1744541,-0.18961707,-7.7806916,391
1747532583880,5.319472,1.2388345,1.2798362,1.598962,0.026631612,-8.064052,392
1747532583890,5.3943973,1.0196712,0.9906283,1.7997643,0.4676511,-8.301073,393
1747532583900,5.329234,0.63284045,0.97793734,1.9622171,0.82611257,-8.491223,394
1747532583910,5.120565,0.47981656,1.1988091,2.279666,0.87564737,-8.459798,395
1747532583920,4.472105,0.39805737,1.1141213,2.7499802,0.871919,-7.8344874,396
1747532583930,4.3613033,0.4803047,1.1165619,3.007774,0.70627034,-7.3838806,397
1747532583940,4.3471475,0.400742,1.0706791,3.1569111,0.62317973,-7.264571,398
1747532583950,4.053059,0.32410803,0.9855032,3.1989892,0.56245965,-7.210775,399
1747532583960,3.4299805,0.00024405724,0.7304634,3.0844731,0.62104917,-7.1575117,400
1747532583970,3.031435,-0.28164205,0.66700846,2.740393,1.0663297,-7.25019,401
1747532583980,2.5999417,-0.55401,0.63235235,2.6471822,1.3880396,-7.266169,402
1747532583990,2.114756,-0.8105141,0.65382934,2.6871295,1.6825852,-7.1868067,403
1747532584000,1.6593453,-0.9876996,0.69556314,2.8842034,1.8482338,-6.95884,404
1747532584010,1.3037539,-1.0928884,0.6801876,3.232545,1.8514296,-6.475743,405
1747532584020,0.92278045,-1.2246792,0.5444917,3.7854173,1.5339808,-5.6347165,406
1747532584030,0.8459024,-1.258115,0.47078642,3.9760995,1.2873721,-5.2368402,407
1747532584040,0.82564565,-1.2677553,0.42209701,4.0131175500000005,1.1845740500000002,-5.0352386,408
1747532584050,0.82576768,-1.3122958,0.30726808,4.0112533,0.98936435,-4.6770433,409
1747532584060,0.878362,-1.6180996,-0.00707766,3.4120421,0.5320996,-4.495416,410
1747532584070,0.73461235,-1.7552598,-0.1696198,2.8889973,0.37284255,-4.5875616,411
1747532584080,0.640040175,-1.82445,-0.24173872,2.4272051500000003,0.278300335,-4.58143615,412
1747532584090,0.545468,-1.8936402,-0.31385764,1.965413,0.18375812,-4.5753107,413
1747532584100,0.1181237,-2.1242743,-0.37291947,0.28229508,0.034621093,-4.127367,414
1747532584110,-0.114462845,-2.3761413,-0.20940112,-1.0205233,-0.035153728,-3.3523872,415
1747532584120,-0.19475769,-2.553083,-0.056377225,-1.3779196,-0.11664646,-2.8815403,416
1747532584130,-0.29774985,-2.7078152,0.07272906,-1.5094798,-0.22210763,-2.3616912,417
1747532584140,-0.49543622,-2.796408,0.1483868,-1.5094798,-0.22210763,-2.3616912,418
1747532584150,-0.93473923,-2.8413146,0.11983211,-1.0604708,-0.8586032,0.28336033,419
1747532584160,-1.0992339,-2.7763953,0.033679903,-0.9422264,-1.0940266,1.4498249,420
1747532584170,-1.1143653,-2.669742,-0.058085624,-0.9262474,-1.2559468,2.674879,421
1747532584180,-0.9459658,-2.545517,-0.14204131,-1.0423613,-1.3198626,3.8179078,422
1747532584190,-0.6728658,-2.3912728,-0.1683995,-1.2357068,-1.2868395,4.786766,423
1747532584200,-0.3018988,-2.2663157,-0.14789869,-1.4333134,-1.1723236,5.523396,424
1747532584210,0.6633476,-2.0532537,-0.110557936,-1.7166736,-0.94488955,6.1178136,425
1747532584220,1.0072243,-1.9426957,-0.13276714,-1.7864485,-0.9715212,6.0688114,426
1747532584230,1.1712307,-1.8228635,-0.22355644,-1.8764633,-1.1334413,5.963883,427
1747532584240,1.1409676,-1.7559919,-0.284692785,-2.0122846,-1.31506895,5.984123,428
1747532584250,1.1844097,-1.6817985,-0.47469133,-2.4857945,-1.9062908,6.2626896,429
1747532584260,1.3464638,-1.7047399,-0.43539813,-3.2506545,-2.984871,7.1814804,430
1747532584270,1.6171232,-1.735003,-0.31141704,-3.5350802,-3.4887412,7.8446074,431
1747532584280,2.110363,-1.7681948,-0.16132185,-3.7374804,-3.7619815,8.560998,432
1747532584290,2.6675458,-1.7152344,-0.0021965152,-3.8136468,-3.7188382,9.260877,433
1747532584300,4.182409,-1.4780107,0.15058333,-3.83655,-3.0120351,10.203635,434
1747532584310,4.498829199999999,-1.347074,0.18426323,-3.81817415,-2.53932405,10.300308,435
1747532584320,5.2960424,-0.8829991,0.42051062,-3.5457327,-1.0961571,10.5786085,436
1747532584330,5.496413,-0.62478656,0.7324158,-2.9204226,-0.25992453,10.964234,437
1747532584340,6.1702557,-0.26065314,1.2527459,-0.36964676,0.34674358,11.885156,438
1747532584350,6.1702557,-0.26065314,1.2527459,-0.36964676,0.34674358,11.885156,439
1747532584360,7.412019,0.10055158,1.0448091,3.037069,-0.075101145,12.386362,440
1747532584370,7.635575,0.47493544,0.59232694,4.3654537,-0.12516858,12.191952,441
1747532584380,7.598967,0.9459658,-0.039781332,4.960404,-0.09321064,11.908059,442
1747532584390,7.52574965,1.3614733,-0.617098766,4.2115231,0.2029328799999999,11.121361,443
1747532584400,7.1699142,2.0063946,-1.1429201,2.308428,1.0460896,9.219331,444
1747532584410,6.750136,2.2116468,-0.8973985,1.3752564,1.4876418,7.9862876,445
1747532584420,5.9825754,2.3475866,-0.6582224,0.71319455,1.6223978,6.7479177,446
1747532584430,4.0259686,2.4281254,-0.4170938,-0.19600865,1.1403656,4.9034123,447
1747532584440,3.3235717,2.3427055,-0.3756041,-0.61199445,0.8809737,4.2381544,448
1747532584450,2.7529657,2.2397132,-0.29994637,-0.98856544,0.7462177,3.6597161,449
1747532584460,2.2526484,2.1076784,-0.22111587,-1.3582122,0.7819041,3.0407975,450
1747532584470,1.744277,1.9361062,-0.13593988,-1.4639397,0.85380945,2.8253477,451
1747532584480,1.3326745,1.8354326,-0.0513740475,-1.5984293,1.0889666,2.20642895,452
1747532584490,0.921072,1.734759,0.033191785,-1.6271914,1.2522184,1.80296,453
1747532584500,0.41538543,1.6508032,0.08932495,-1.2548815,1.0972224,0.9763149,454
1747532584510,0.073949344,1.649583,0.073217176,-1.11346765,1.02851285,0.810932575,455
1747532584520,-0.1969542,1.6163912,0.013667206,-0.7392935,0.7952199,0.4250405,456
1747532584530,-0.5022698,1.5160836,-0.012202863,-0.36911413,0.5608617,0.16990969,457
1747532584540,-0.6023333,1.5165718,0.051496077,-0.015978966,0.5187838,0.050600063,458
1747532584550,-0.656514,1.496803,0.051496077,0.29614353,0.4809669,-0.0031957934,459
1747532584560,-0.70410514,1.4985116,0.017328065,0.598146,0.47564057,-0.017044231,460
1747532584570,-0.62771522,1.51596165,-0.0622345975,0.8127967999999999,0.413855235,-0.0380832055,461
1747532584580,-0.38902727,1.5897889,-0.24283697,1.1158645,0.18056233,-0.16458336,462
1747532584590,-0.287743505,1.62578735,-0.276028745,1.1177287,0.04687164,-0.249804515,463
1747532584600,0.04905551,1.7384197,-0.3607166,1.0396981,-0.4101268,-0.58056915,464
1747532584610,0.2638259,1.8194468,-0.35510328,0.90654004,-0.7600662,-0.89322424,465
1747532584620,0.5452239,1.8955926,-0.40000984,0.5885586,-1.0791129,-1.3891048,466
1747532584630,0.97403246,1.9034024,-0.54083085,-0.3834952,-1.0844392,-2.3531692,467
1747532584640,0.97403246,1.9034024,-0.54083085,-0.3834952,-1.0844392,-2.3531692,468
1747532584650,1.2527459,1.8146877,-0.5643824,-1.3954965,-0.7669904000000001,-3.08553855,469
1747532584660,1.61151,1.6954657,-0.29774985,-2.2088258,-0.4958806,-3.8786278,470
1747532584670,1.9631965,1.5634308,0.36242503,-2.2594259,-0.8671253,-4.8117995,471
1747532584680,2.2450826,1.5429299,0.68409246,-1.8370485,-1.1451592,-5.160141,472
1747532584690,2.591644,1.560502,0.87274873,-1.0913634,-1.2623384,-5.5127435,473
1747532584700,3.0172799,1.564407,0.81197846,-0.5800365,-1.026915,-5.7534933,474
1747532584710,4.020111,1.6132184,0.34119204,-0.24501082,0.05273059,-6.61689,475
1747532584720,4.3749704,1.5910091,0.15570852,-0.32650355,0.582167,-7.187872,476
1747532584730,4.7217755,1.4992436,0.09298581,-0.4495416,0.85753787,-7.770039,477
1747532584740,4.846977,1.3757507,0.13081467,-0.57790595,0.7600662,-8.243016,478
1747532584750,4.9172654,1.253478,0.24503349,-0.7142598,0.43888897,-8.481103,479
1747532584760,5.0529613,1.1373067,0.47273886,-0.7781757,0.105993815,-8.516789,480
1747532584770,5.562553,1.0748281,1.1475571,-0.10546118,0.1949434,-8.246745,481
1747532584780,5.955973,1.0645777,1.3777032,0.5496765,0.43249738,-8.252071,482
1747532584790,6.09752625,1.0470056,1.43224995,0.9294433,0.56725332,-8.325840750000001,483
1747532584800,6.3589115,0.9405966,1.4482356,2.0399814,0.9321064,-8.660068,484
1747532584810,5.8761663,0.5440036,1.0040516,2.9236183,1.202151,-9.157013,485
1747532584820,5.4925084,0.25992095,0.84858704,3.1222901,1.2756542,-9.288573,486
1747532584830,4.843316,0.20085911,0.65846646,3.1350732,1.3363743,-9.158611,487
1747532584840,4.3171287,0.029774986,0.37291947,2.8309402,1.6154735,-8.861935,488
1747532584850,3.8497589,-0.25723633,0.24820623,2.5092304,1.8855181,-8.684568,489
1747532584860,3.44791865,-0.377678585,0.26126328,2.3081617,2.1033647,-8.440090000000001,490
1747532584870,2.7056186,-0.66969305,0.2689511,2.0357203,2.4138892,-7.9761677,491
1747532584880,2.53697515,-0.7435204049999999,0.2689511,2.03598665,2.42613975,-7.87576655,492
1747532584890,2.024211,-0.9479183,0.30629185,2.118811,2.3600934,-7.5330176,493
1747532584900,1.6019918,-1.2229708,0.40635532,2.5321336,1.9659456,-7.0264845,494
1747532584910,1.4296874,-1.3550059,0.51544887,2.9113677,1.6655409,-6.8507156,495
1747532584920,1.4296874,-1.3550059,0.51544887,2.9113677,1.6655409,-6.8507156,496
1747532584930,1.1956364,-1.7589207,0.57377857,3.9819586,0.89162636,-6.3937173,497
1747532584940,1.17489155,-1.90547695,0.507395015,4.1342913,0.69002506,-6.30583285,498
1747532584950,1.0135698,-2.4827945,-0.08078295,4.3095274,0.17789917,-6.0432453,499
1747532584960,0.5349735,-2.5716312,-0.30946457,3.2900693,-0.36591834,-5.2672,500
1747532584970,0.40903994,-2.643384,-0.4729829,2.3334618,-0.50600064,-4.7500143,501
1747532584980,0.39317623,-2.7680972,-0.50544256,1.25861,-0.5022722,-4.3052664,502
1747532584990,0.3487578,-2.8962274,-0.44882128,0.22690132,-0.4000068,-3.9489353,503
1747532585000,-0.03099527,-3.222776,-0.1701079,-0.8490158,-0.20985709,-3.534015,504
1747532585010,-0.34387666,-3.3221073,0.0046370877,-1.7443706,-0.118776985,-2.454902,505
1747532585020,-0.6901939,-3.3399231,0.15570852,-1.8082864,-0.27643612,-1.4940335,506
1747532585030,-0.93278676,-3.3174703,0.2877435,-1.73691365,-0.41864891,-0.8799085,507
1747532585040,-1.0379754,-3.2513306,0.3746279,-1.3811153,-0.87351686,1.1206582,508
1747532585050,-0.6972716,-3.0067854,0.39342028,-0.6396913,-1.1504856,3.798733,509
1747532585060,-0.35315084,-2.8498566,0.302631,-0.33449304,-1.113734,4.8410945,510
1747532585070,0.033435844,-2.6831653,0.16815543,-0.12783173,-1.0253171,5.780125,511
1747532585080,0.44027928,-2.5052476,-0.029286869,-0.14594123,-0.98110855,6.2515044,512
1747532585090,0.7226535,-2.3436816,-0.22794947,-0.35952675,-0.9896307,6.5556374,513
1747532585100,1.0562798,-2.0500808,-0.47444725,-0.74035877,-1.0546118,6.7654943,514
1747532585110,1.1646413,-1.9065753,-0.5193538,-1.6532904,-1.009338,7.1479244,515
1747532585120,1.2525018,-1.7945529,-0.53350914,-2.1145499,-0.98377174,7.396131,516
1747532585130,1.3830724,-1.713526,-0.50934744,-2.5438516,-1.055677,7.6571207,517
1747532585140,1.5609902,-1.6334751,-0.4554108,-2.8889973,-1.2463595,7.907458,518
1747532585150,2.1252506,-1.4726415,-0.375116,-3.588876,-1.9148128,8.493354,519
1747532585160,2.4359353,-1.3132721,-0.255772,-3.8013961,-2.1257353,8.779377,520
1747532585170,2.7768834,-1.1285207,-0.12324891,-3.9702406,-2.1928468,9.131447,521
1747532585180,3.7804468,-0.9000831,0.02391761,-4.206197,-2.0474384,9.470201,522
1747532585190,4.1362824,-0.78610843,0.18475133,-4.213121,-1.7092168,9.782856,523
1747532585200,4.2736864,-0.62600684,0.41807005,-4.068245,-1.1350393,10.656373,524
1747532585210,4.7266564,-0.48616204,0.6455314,-3.724697,-0.5225122,11.919244,525
1747532585220,5.658223,-0.45736328,0.72338563,-3.1989892,0.056991648,12.765064,526
1747532585230,7.580418,-0.3053156,1.0323621,-1.1824435,0.22956449,12.286227,527
1747532585240,7.68633885,-0.21940746,1.0667742,-0.55207328,0.029028455,11.974904,528
1747532585250,7.7266088,0.11251039,1.0086887,1.3491575,-0.67218184,11.162907,529
1747532585260,7.435204,0.40147418,0.8324793,2.4133565,-1.2303804,10.92482,530
1747532585270,7.153562,0.70190865,0.5852493,3.1995218,-1.5941683,10.800183,531
1747532585280,6.978817,1.1758678,0.058817793,3.7300234,-1.0418286,9.875534,532
1747532585290,6.619321,1.3669646,-0.08151512,3.5963328,-0.47830373,9.04303,533
1747532585300,5.994046,1.5253577,-0.16937573,3.2202945,0.16245283,8.059791,534
1747532585310,5.169132,1.6366479,-0.3743838,2.6477149,0.46871635,7.39187,535
1747532585320,4.6275693,1.6753309,-0.508981375,1.7478327,0.5611280249999999,6.7034428,536
1747532585330,4.0860066,1.7140139,-0.64357895,0.8479505,0.6535397,6.0150156,537
1747532585340,3.2235081,1.6322548,-0.4795725,-1.0205233,0.8064052,4.321245,538
1747532585350,2.7461321,1.5363404,-0.302631,-1.7379789,0.97738016,3.5766253,539
1747532585360,2.2999957,1.4184607,-0.08517598,-2.2093585,1.1685951,2.9230857,540
1747532585370,1.8357986,1.2978964,0.18597162,-2.3622239,1.242631,2.3675501,541
1747532585380,0.50544256,1.3623276,0.89666635,-1.133974,0.89375687,1.6389093,542
1747532585390,-0.013667206,1.4316398,0.93620354,-0.23595607,0.50813115,1.6575515,543
1747532585400,-0.294089,1.415288,0.81246656,0.55553544,0.18482338,1.8354506,544
1747532585410,-0.37658033,1.4570218,0.6057501,1.1669972,0.14168017,1.9824572,545
1747532585420,-0.2328306,1.667399,0.1164153,1.617604,0.45486793,1.9137475,546
1747532585430,-0.15155955,1.7335385,-0.057109397,1.5483619,0.7669904,1.7198695,547
1747532585440,0.003172744,1.7586764,-0.20842488,1.3443637,1.0247844,1.4183996,548
1747532585450,0.12056428,1.7982138,-0.30043447,1.0897655,1.1685951,0.8905611,549
1747532585460,0.18987654,1.9024262,-0.3128814,0.964597,0.82344943,-0.055926383,550
1747532585470,0.082491346,1.9275641,-0.2945771,1.0423613,0.38935417,-0.39521313,551
1747532585480,-0.020988923,1.9341537,-0.28676724,1.09802135,0.130228585,-0.506266965,552
1747532585490,-0.018792408,1.9473327,-0.33997175,1.2181299,-0.59122175,-0.7978831,553
1747532585500,0.10128376,1.9324453,-0.4761557,1.1025487,-0.86020106,-1.0125339,554
1747532585510,0.2660224,1.9158493,-0.61892915,0.7552725,-0.9076053,-1.2868395,555
1747532585520,0.458827625,1.89388425,-0.67262176,0.10359698,-0.7115966499999999,-1.71374415,556
1747532585530,0.9723241,1.8521506,-0.6723777,-1.1893678,-0.37603834,-2.6514432,557
1747532585540,1.1878266,1.8255482,-0.5256993,-1.7299895,-0.28868666,-3.196326,558
1747532585550,1.3615954,1.7618494,-0.33069757,-2.1022995,-0.27164245,-3.7310886,559
1747532585560,1.7642899,1.6251773,0.20622836,-2.1917815,-0.38935417,-4.675978,560
1747532585570,1.9407433,1.5949141,0.38609856,-1.9158782,-0.41172472,-4.932707,561
1747532585580,2.2977989,1.5114466,0.43808278,-1.5883093,-0.34674358,-5.1276503,562
1747532585590,2.6895108,1.4511645,0.42905265,-1.2799152,-0.2231729,-5.361476,563
1747532585600,3.0409532,1.380876,0.33509058,-1.0562097,-0.10972224,-5.694371,564
1747532585610,3.7650712,1.1458488,0.294089,-1.1574098,-0.2775014,-6.4544373,565
1747532585620,4.041588,1.0653099,0.44418418,-1.2218584,-0.31158987,-6.8592377,566
1747532585630,4.3747263,0.9776934,0.65993077,-1.149953,-0.19014971,-7.196394,567
1747532585640,4.799874,0.8305268,0.94962674,-0.8426242,0.05752428,-7.5473986,568
1747532585650,5.1564417,0.7224094,1.295944,0.48842376,0.5342301,-8.007593,569
1747532585660,5.3272815,0.6530972,1.3137602,1.3310479,0.56885123,-8.018778,570
1747532585670,5.471031,0.56011134,1.2127205,2.2407837,0.4415521,-7.9170456,571
1747532585680,5.562553,0.46541715,1.0594525,2.7201529,0.2146508,-7.8360853,572
1747532585690,5.620394,0.42929673,0.9205839,2.9332056,-0.082558,-7.792942,573
1747532585700,5.4937286,0.31605414,0.7214332,2.9438584,-0.23755397,-7.808388,574
1747532585710,5.225998,0.21745501,0.65919864,2.5555694,-0.082558,-7.9255676,575
1747532585720,4.748622,0.09884319,0.63625723,2.290851,0.16618125,-7.90586,576
1747532585730,4.3127356,-0.030507157,0.6645679,2.0863204,0.4644553,-7.81478,577
1747532585740,3.8595212,-0.16791138,0.6994681,2.0048277,0.78296936,-7.696003,578
1747532585750,2.9140437,-0.4702983,0.70239675,2.0948424,1.1259845,-7.5404744,579
1747532585760,2.6998833500000003,-0.54961695,0.6552937050000001,2.2668827,1.24556045,-7.315969949999999,580
1747532585770,2.0944993,-0.7721971,0.5730464,2.62854,1.2506205,-6.8192906,581
1747532585780,1.7613611,-0.8295506,0.528628,2.8325381,0.9832391,-6.474145,582
1747532585790,1.5216969,-0.9098454,0.47273886,3.0024478,0.6109292,-6.105563,583
1747532585800,1.2412751,-1.048714,0.43295756,3.2043154,-0.2231729,-5.4477625,584
1747532585810,1.1944162,-1.095573,0.37828872,3.1904671,-0.4495416,-5.2059474,585
1747532585820,1.1453607,-1.1609803,0.3360668,3.077549,-0.4809669,-5.0738544,586
1747532585830,1.1323036,-1.2051547,0.300678515,2.93506995,-0.40053943,-5.06799555,587
1747532585840,1.0831261,-1.3730661,0.1969542,2.4714136,-0.11930962,-5.1255198,588
1747532585850,0.6760386,-1.5736811,0.14887492,1.6804547,0.32437304,-5.013667,589
1747532585860,0.47664383,-1.6229807,0.15790504,1.2665994,0.4676511,-4.738829,590
1747532585870,0.3402158,-1.6739886,0.1952458,0.9033443,0.53476274,-4.3979445,591
1747532585880,0.30287504,-1.7515988,0.26992732,0.9033443,0.53476274,-4.3979445,592
1747532585890,0.25089085,-1.824816,0.34241232,0.65460503,0.53529537,-4.1284323,593
1747532585900,0.008297946,-1.9773518,0.30458343,0.5629923,0.08575379,-3.6218991,594
1747532585910,-0.12837411,-2.0444674,0.2511349,0.5550028,-0.12463594,-3.3641052,595
1747532585920,-0.2779812,-2.0835168,0.18963248,0.531567,-0.3270362,-2.9939258,596
1747532585930,-0.4148973,-2.1037736,0.1164153,0.46924898,-0.5118596,-2.509763,597
1747532585940,-0.52496713,-2.1174407,0.0319715,0.34408042,-0.6780408,-1.9190739,598
1747532585950,-0.60941094,-2.1511204,-0.136428,-0.17470337,-0.9720538,-0.5022722,599
1747532585960,-0.59013045,-2.1596625,-0.16278619,-0.49694586,-0.98377174,0.20293288,600
1747532585970,-0.5876899,-2.1169527,-0.15424417,-0.8181231,-0.9331717,0.9108011,601
1747532585980,-0.5122762,-2.0678971,-0.135451765,-1.15048565,-0.84155895,1.65249155,602
1747532585990,-0.28261828,-1.9822329,-0.07150877,-1.5915051,-0.72358088,2.6575686,603
1747532586000,-0.15595257,-1.9370824,-0.03172744,-1.8514296,-0.64075655,3.367301,604
1747532586010,-0.034168016,-1.8841219,0.0021965152,-1.9222697,-0.59122175,3.742274,605
1747532586020,0.07297312,-1.7987018,0.031239327,-1.8993665,-0.56672066,4.059723,606
1747532586030,0.19036464,-1.705228,-0.036120474,-1.7550232,-0.7653925,4.7441554,607
1747532586040,0.22904772,-1.7068143999999998,-0.087982637,-1.76461055,-0.8364989,4.9313755,608
1747532586050,0.44808912,-1.74745,-0.20769271,-1.9089539,-1.0253171,5.5926385,609
1747532586060,0.59794026,-1.7701471999999998,-0.2106214049999999,-1.95262975,-1.0375676500000002,5.775863899999999,610
1747532586070,1.040172,-1.7801535,-0.20085911,-2.0463731,-1.1291803,6.370814,611
1747532586080,1.5700202,-1.4306636,-0.20500809,-2.0671456,-1.2751216,6.9465895,612
1747532586090,2.1672285,-0.99355704,-0.14082102,-2.2301311,-1.5611451,8.627044,613
1747532586100,3.1400404,-0.3743838,0.058085624,-2.2381206,-1.3337111,9.216135,614
1747532586110,4.027433,-0.016839951,0.14863087,-2.1299963,-0.65247446,9.377523,615
1747532586120,4.6439214,0.0026846298,0.06467517,-2.092712,0.28176245,9.294433,616
1747532586130,4.82305955,0.1073851849,0.325328335,-1.6365125,1.057274975,9.43265075,617
1747532586140,5.307757,0.5252112,0.9030118,-0.04527374,1.8024274,10.13173,618
1747532586150,5.7207017,0.87616557,1.0650659,1.347027,1.3672669,10.689929,619
1747532586160,6.322303,1.1294969,1.01479,2.7217507,0.8277105,10.907775,620
1747532586170,6.892177,1.2258996,0.34704942,4.572115,0.65673554,9.93945,621
1747532586180,6.701202,1.2090596,0.126299635,4.65360765,0.83250417,9.5943045,622
1747532586190,6.037488,1.2017379,-0.44271985,4.449077,1.4626081,8.666459,623
1747532586200,5.6970286,1.2681215,-0.7067898,3.827495,1.8439728,8.107195,624
1747532586210,5.3909807,1.3862451,-0.8664033,2.783536,2.149171,7.286409,625
1747532586220,4.885416,1.49314225,-0.87116235,1.8495654,2.2322616,6.6701535,626
1747532586230,3.8460982,1.6315227,-0.77195305,0.4974785,2.2959112,5.81447965,627
1747532586240,3.371163,1.6298143,-0.6128277,-0.60933125,2.1630194,5.1633368,628
1747532586250,2.9303954,1.6088253,-0.41587353,-1.117995,2.0224047,4.7627974,629
1747532586260,2.5645535,1.5975988,-0.24088451,-1.4370418,1.9153455,4.3516054,630
1747532586270,2.1939526000000003,1.5879585,-0.080416865,-1.4708639,1.8245317,3.9470712,631
1747532586280,1.8233517,1.5783182,0.08005078,-1.504686,1.7337179,3.542537,632
1747532586290,1.3507348499999998,1.54573665,0.186215675,-1.1496867000000002,1.38511015,2.88180665,633
1747532586300,1.0326062,1.4853324,0.15692882,-0.829841,1.1126688,2.3137543,634
1747532586310,0.55108124,1.5053451,0.049299564,-0.49481535,1.0215886,1.6026903,635
1747532586320,0.3338703,1.5461026,-0.003172744,-0.28442562,1.1142666,1.3369069,636
1747532586330,0.21891935,1.560258,-0.099087246,-0.051665325,1.1723236,1.0945592,637
1747532586340,0.09200958,1.547811,-0.24308102,0.11558119,1.1323761,0.8490158,638
1747532586350,-0.029530926,1.5458585,-0.37121108,0.20186761,1.0018812,0.60773337,639
1747532586360,-0.0957924729999999,1.53011685,-0.47103049,0.16831178,0.72651035,0.3568635925,640
1747532586370,-0.19793043,1.5033927,-0.64235866,-0.015978966,0.22370553,-0.090014845,641
1747532586380,-0.22819352,1.500464,-0.71313524,-0.26418558,0.06551377,-0.25885928,642
1747532586390,-0.20915705,1.5202327,-0.7602383,-0.5789712,0.015978966,-0.41864893,643
1747532586400,-0.16547081,1.5382929,-0.76463133,-0.9262474,0.036218993,-0.5901565,644
1747532586410,0.011714748,1.5897889,-0.56426036,-1.4514228,0.17470337,-0.9896307,645
1747532586420,0.12056428,1.6078491,-0.41074833,-1.5094798,0.22530343,-1.2447615,646
1747532586430,0.26577836,1.6227367,-0.25284332,-1.4221281,0.14434333,-1.555286,647
1747532586440,0.4229512,1.6425053,-0.14545812,-1.1531488,-0.090014845,-1.9973708,648
1747532586450,0.67799103,1.6515354,-0.14716652,-0.7526093,-0.5587312,-2.7744813,649
1747532586460,0.7914777,1.6229807,-0.22184804,-0.7286409,-0.71106404,-3.0961912,650
1747532586470,1.0133257,1.599063,-0.26968327,-0.8223842,-0.7861652,-3.43388,651
1747532586480,1.2395668,1.5936939,-0.26968327,-0.99282646,-0.8032094,-3.7976677,652
1747532586490,1.3994243,1.6019918,-0.22697324,-1.2202604,-0.72917354,-4.1183124,653
1747532586500,1.9468447,1.6098017,0.08932495,-1.5094798,-0.43089947,-4.685033,654
1747532586510,2.220677,1.6366479,0.31263736,-1.3278521,-0.2796319,-5.007808,655
1747532586520,2.5821257,1.6771613,0.4685899,-1.0349044,-0.2759035,-5.2187304,656
1747532586530,2.84338905,1.72377625,0.520940185,-0.8431568,-0.34381411,-5.3713295,657
1747532586540,3.41289665,1.8115149,0.645287365,-0.415985765,-0.58349861,-5.79503845,658
1747532586550,4.1667895,1.9424516,0.8551766,0.32650355,-1.2703278,-6.7250147,659
1747532586560,4.6251287,1.7806417,0.7577977,0.7547399,-1.8977686,-7.738081,660
1747532586570,4.784254,1.6805782,0.7285109,0.65513766,-1.7747306,-7.9761677,661
1747532586580,4.85381025,1.65568435,0.7285109,0.53582803,-1.6106799,-8.03315935,662
1747532586590,5.03209425,1.62298065,0.746205025,0.233825547,-1.1731225,-8.11678275,663
1747532586600,5.7155766,1.551472,1.0372432,-0.1949434,-0.10439592,-8.354337,664
1747532586610,5.924001,1.4760582,1.1844097,-0.027164243,0.15073492,-8.646219,665
1747532586620,5.8925185,1.3657444,1.3013133,0.29987195,0.27803403,-8.952482,666
1747532586630,5.8023390500000005,1.26275225,1.34048445,0.5049353750000001,0.272175075,-9.0725905,667
1747532586640,5.54449245,1.027237,1.3802658,0.9382317,0.250869785,-9.251821499999998,668
1747532586650,4.953386,0.59086263,1.2822767,1.5797871,0.28016454,-9.286443,669
1747532586660,4.036951,0.019036464,0.98477095,2.2280006,0.6556703,-8.854478,670
1747532586670,3.4839175,-0.26504618,0.8319912,2.4256072,0.8644621,-8.541823,671
1747532586680,3.247792,-0.375116005,0.75791982,2.4964473,0.97311905,-8.3490105,672
1747532586690,2.8083669,-0.5989164849999999,0.6091669200000001,2.6037726,1.1696603,-7.9631185,673
1747532586700,1.8955926,-0.99184865,0.36462155,2.711098,1.3118732,-6.978015,674
1747532586710,1.6122422,-1.0462735,0.3482697,2.753176,1.2074772,-6.5353975,675
1747532586720,1.4414021,-1.0845904,0.31995904,2.7915256,1.1105382,-6.1274014,676
1747532586730,1.3479282,-1.1448725,0.29774985,2.8245487,1.0498182,-5.8067565,677
1747532586740,1.2566508,-1.223459,0.27920148,2.8272119,1.0476876,-5.568137,678
1747532586750,1.001855,-1.4479916,0.25650415,2.8064392,1.2096078,-5.324724,679
1747532586760,0.9269294,-1.6063848,0.22184804,2.8048413,1.1435614,-5.2576127,680
1747532586770,0.74169,-1.7362232,0.13081467,2.7451866,1.0434265,-5.1915665,681
1747532586780,0.18792409,-1.940255,-0.16083373,2.5268073,0.9150622,-5.0019493,682
1747532586790,-0.06199054,-1.9492851,-0.2638259,1.6266588,0.6295713,-4.1976748,683
1747532586800,-0.23429495,-1.9153614,-0.30897647,1.0743192,0.35313517,-3.6309538,684
1747532586810,-0.26895109,-1.9059651,-0.297505785,0.74861459,0.164050728,-3.24825765,685
1747532586820,-0.27651685,-1.8777765,-0.22209209,-0.034088463,-0.27324033,-2.2929816,686
1747532586830,-0.19280522,-1.8621569,-0.13203497,-0.39468047,-0.42557314,-1.8136127,687
1747532586840,-0.05832968,-1.9024262,0.033679903,-0.83889574,-0.57364494,-1.0977551,688
1747532586850,-0.059794027,-1.9258556,0.09542638,-0.9353022,-0.5704491,-0.80107886,689
1747532586860,-0.16254212,-1.9358622,0.12861817,-0.98803276,-0.56885123,-0.46552056,690
1747532586870,-0.29652956,-1.9158493,0.12764193,-1.0301107,-0.6295713,-0.044208474,691
1747532586880,-0.4702983,-1.8480015,0.13203497,-1.0796455,-0.8591358,1.0407634,692
1747532586890,-0.48445365,-1.7950411,0.11983211,-1.1052119,-0.9901633,1.8104169,693
1747532586900,-0.465661245,-1.76551015,0.118367765,-1.1595404,-1.0396981,2.428803,694
1747532586910,-0.34924594,-1.667155,0.122760795,-1.2287825,-1.0418286,3.005111,695
1747532586920,-0.283350475,-1.64201715,0.1276419425,-1.262072,-1.02425175,3.2567798,696
1747532586930,0.08127106,-1.4894813,0.14252943,-1.4221281,-0.82824314,4.204599,697
1747532586940,0.17450093,-1.4348125,0.12471326,-1.4945661,-0.6956177,4.4267063,698
1747532586950,0.22233616,-1.3901501,0.10640897,-1.5899072,-0.5795039,4.6248455,699
1747532586960,0.2967736,-1.372578,0.09811102,-1.7102821,-0.50600064,4.8496165,700
1747532586970,0.4527262,-1.3486603,0.11226633,-1.8152106,-0.350472,5.319398,701
1747532586980,0.45321432,-1.2900866,0.13911264,-1.7534252,-0.4788364,5.583051,702
1747532586990,0.4915313,-1.2837411,0.15473229,-1.6261262,-0.67324716,5.956426,703
1747532587000,0.5130083,-1.2298045,0.2208718,-1.4013554,-0.74302197,6.540724,704
1747532587010,0.75047606,-1.1651293,0.2865232,-1.0929613,-0.6812366,7.284811,705
1747532587020,1.8404356,-0.9454777,0.21891935,-0.5006743,-0.21092236,8.517322,706
1747532587030,2.630449,-0.8471227,0.13398743,-0.30200246,0.21198763,8.889632,707
1747532587040,3.4722025,-0.6816519,0.006833603,-0.07829694,0.9422264,8.971657,708
1747532587050,4.0035152,-0.3236199,-0.08664032,0.11345066,1.4546186,9.061139,709
1747532587060,4.258555,-0.01513155,-0.16278619,0.3158509,1.7720674,9.388708,710
1747532587070,4.7420325,0.56670094,-0.19036464,0.84581995,1.4359765,10.710169,711
1747532587080,5.286036,0.74632704,-0.29189247,1.0546118,0.9890981,11.202853,712
1747532587090,5.7233863,0.737541,-0.44882128,1.0844392,0.7350325,11.237474,713
1747532587100,5.7902584,0.7226535,-0.57451075,0.8708537,0.7824367,11.108578,714
1747532587110,5.639675,0.66017485,-0.67677075,0.4314321,1.1259845,11.094196,715
1747532587120,5.5967207,0.73729694,-0.6823841,-1.0764498,1.7060211,10.7634325,716
1747532587130,5.5620646,0.8671354,-0.67799103,-1.8695391,1.6666062,10.380469,717
1747532587140,5.536683,0.87958235,-0.5012936,-2.5976474,1.5041534,9.881926,718
1747532587150,5.2818866,1.0186949,-0.14204131,-3.0376017,1.2234563,9.363142,719
1747532587160,4.9389863,1.0948408,0.266510525,-3.06636385,1.0373013,9.076586,720
1747532587170,4.168254,1.2756872,0.8891005,-2.3094933,0.31265512,7.701329,721
1747532587180,3.9854548,1.3022895,0.9830626,-1.7331853,0.05273059,7.044061,722
1747532587190,3.722605,1.3908823,1.0138137,-0.98803276,-0.29507825,5.9361863,723
1747532587200,3.2283893,1.4941185,0.9679311,-0.44741106,-0.5448828,5.019526,724
1747532587210,2.3090258,1.6461661,0.7648754,0.41172472,-0.58696073,3.3784862,725
1747532587220,1.8728954,1.6935132,0.5610876,0.61838603,-0.4181163,2.6956518,726
1747532587230,1.4362769,1.7364672,0.3355787,0.65034395,-0.2066613,2.1177456,727
1747532587240,1.0838583,1.7401282,0.17230442,0.5539375,0.011717909,1.619202,728
1747532587250,0.78684056,1.7428128,0.06296677,0.3920173,0.22370553,1.206412,729
1747532587260,0.41416514,1.7362232,-0.013179091,0.072970614,0.6332997,0.49960902,730
1747532587270,0.35241866,1.7147462,-0.053692598,-0.0031957934,0.7568704,0.1965413,731
1747532587280,0.34460884,1.6893643,-0.122272685,-0.076166406,0.8229168,-0.13741912,732
1747532587290,0.340948,1.6361598,-0.20232345,-0.1917476,0.7797736,-0.5022722,733
1747532587300,0.28554696,1.5927176,-0.2604091,-0.32384038,0.64714813,-0.8633968,734
1747532587310,0.013911263,1.530727,-0.14301755,-0.4383563,0.30040458,-1.2911005,735
1747532587320,-0.028798755,1.5404893,-0.042221904,-0.34834146,0.18855181,-1.3528858,736
1747532587330,-0.0026846298,1.5844196,0.039781332,-0.15765914,0.12250541,-1.3992249,737
1747532587340,0.079562664,1.6520236,0.051740136,0.09374327,0.010120012,-1.4881744,738
1747532587350,0.4915313,1.7359792,-0.12568948,0.15233281,-0.12250541,-1.9148128,739
1747532587360,0.77146494,1.7537954,-0.23600335,-0.022370555,-0.105993815,-2.3148196,740
1747532587370,1.0296775,1.790648,-0.32215557,-0.31691617,-0.04261058,-2.8202877,741
1747532587380,1.2146729,1.8182266,-0.35485923,-0.6737798,0.07563378,-3.3577135,742
1747532587390,1.4189488,1.768683,-0.32557237,-1.0301107,0.23222765,-3.880226,743
1747532587400,1.7479379,1.581979,-0.048323333,-1.4253238,0.48522797,-4.805408,744
1747532587410,1.9343977,1.5143752,0.22526483,-1.1984226,0.48629323,-5.1915665,745
1747532587420,2.0765611,1.49106775,0.33399234,-0.7590009,0.49161956,-5.376922,746
1747532587430,2.47120175,1.4489678499999998,0.47896235,-0.500407965,0.45912899,-5.51141185,747
1747532587440,3.1871436,1.4814276,0.5227706,0.30626354,0.30306774,-6.050702,748
1747532587450,4.0227957,1.6715481,0.24991462,0.88896316,-0.2860235,-6.952981,749
1747532587460,4.4672236,1.6468983,0.13545178,0.80800307,-0.6673882,-7.5319524,750
1747532587470,4.7378836,1.6417731,0.1683995,0.5816344,-1.0247844,-8.032627,751
1747532587480,5.032705,1.462391,0.2255089,0.27217507,-1.160073,-8.44595,752
1747532587490,5.051985,1.3842927,0.35046622,0.013848438,-0.96140116,-8.657404,753
1747532587500,5.4188027,1.0958171,0.4217309,-0.30040458,0.4245079,-8.956743,754
1747532587510,5.3023877,1.001367,0.6289356,-0.23542345,0.8772453,-8.982842,755
1747532587520,5.1749897,1.0272369,0.7987994,0.028229509,1.0530139,-8.835303,756
1747532587530,5.125446,0.9408407,0.9471862,0.46552056,1.0274476,-8.707472,757
1747532587540,5.0380735,0.88275504,1.056768,0.94542223,0.7978831,-8.629707,758
1747532587550,4.6734524,0.74169,0.9725681,1.6314526,0.5091964,-8.594021,759
1747532587560,4.4232936,0.5879339,0.9488945,1.8226675,0.44208476,-8.624381,760
1747532587570,4.053547,0.3248402,0.9220483,2.0341225,0.5294364,-8.681373,761
1747532587580,3.597892,0.058817793,0.9183875,2.233327,0.68869346,-8.657937,762
1747532587590,3.081467,-0.18401916,0.9066727,2.4847293,0.8612663,-8.505072,763
1747532587600,2.2116468,-0.67799103,0.78513217,3.0876691,1.1153319,-7.981494,764
1747532587610,1.8106607,-0.9364477,0.681896,3.3747578,1.1270498,-7.6784263,765
1747532587620,1.4963149,-1.1019185,0.6108753,3.635215,1.0439591,-7.315704,766
1747532587630,1.0770246,-1.3313323,0.46614933,3.9979374,0.6993461,-6.5353975,767
1747532587640,1.0770246,-1.3313323,0.46614933,3.9979374,0.6993461,-6.5353975,768
1747532587650,0.96109743,-1.3739202499999998,0.39732519,3.9995354,0.6199839,-6.29810975,769
1747532587660,0.55962324,-1.4907017,0.21013328,3.641074,0.15925704,-5.1734567,770
1747532587670,0.48909074,-1.5302389,0.17376876,3.3870084,-0.044208474,-4.7974186,771
1747532587680,0.37072295,-1.6061407,0.013911263,2.6104305,-0.35260254,-4.2402854,772
1747532587690,0.34192422,-1.6732564,-0.0690682,2.0341225,-0.3797668,-4.03895,773
1747532587700,0.29164842,-1.7328066,-0.1210524,1.3805827,-0.3057309,-3.86691,774
1747532587710,0.21037734,-1.7957731,-0.15375607,0.67963874,-0.17576863,-3.6895435,775
1747532587720,0.13105874,-1.8968128,-0.13862452,-0.19068234,-0.0005326322,-3.4210968,776
1747532587730,0.0336799,-1.9890664,-0.0566212835,-0.70387347,0.1155811989,-3.1750207,777
1747532587740,-0.139234665,-2.12476225,0.0772441164999999,-1.36300585,0.257261365,-2.7441212,778
1747532587750,-0.37316352,-2.2245817,0.25162303,-1.6335831,0.2695119,-2.0373182,779
1747532587760,-0.5298483,-2.2594821,0.37804466,-1.5760587,0.21837921,-1.3667343,780
1747532587770,-0.65065664,-2.272173,0.42075467,-1.4136059,0.15606125,-0.56618804,781
1747532587780,-0.6879974,-2.1591744,0.41123646,-0.9869675,-0.008522116,1.2250541,782
1747532587790,-0.56987363,-2.0903504,0.33704305,-0.7861652,-0.008522116,2.3073628,783
1747532587800,-0.36730617,-2.0044422,0.26065314,-0.7036072,-0.010120012,3.0637007,784
1747532587810,-0.1701079,-1.9265879,0.21599068,-0.66206187,-0.0031957934,3.7278929,785
1747532587820,0.302631,-1.79016,0.091033354,-0.6828345,0.087884314,4.639227,786
1747532587830,0.442597825,-1.74842615,0.0461268201,-0.7225155999999999,0.112918032,4.76333025,787
1747532587840,0.6903159249999999,-1.6736226,-0.0391711889,-0.8333031,0.146473865,4.94708825,788
1747532587850,0.9242448,-1.5673357,-0.14204131,-1.0753845,0.11771172,5.0584083,789
1747532587860,0.933885025,-1.5204767,-0.17755165,-1.1768509,0.0761664065,5.07545265,790
1747532587870,0.83077085,-1.3357253,-0.2962855,-1.8423749,-0.3387541,5.3460298,791
1747532587880,0.8038025499999999,-1.33340675,-0.291648415,-1.95822245,-0.42104577,5.4826499,792
1747532587890,0.7826916,-1.3689171,-0.23258655,-2.2253375,-0.58429754,6.0166135,793
1747532587900,0.8947139,-1.39796,-0.14765464,-2.2594259,-0.6380934,6.4571004,794
1747532587910,1.2171135,-1.3142483,0.041977845,-1.8807244,-0.7286409,7.5244956,795
1747532587920,1.543174,-1.275199,0.09493827,-1.520665,-0.8000136,8.223842,796
1747532587930,1.7868651,-1.24225135,0.074925577,-1.34729325,-0.8269115499999999,8.5732485,797
1747532587940,2.7656567,-1.019183,-0.0741934,-0.92464954,-0.902279,9.534117,798
1747532587950,3.5039299,-0.59916055,-0.23405088,-0.94595486,-0.9076053,9.93146,799
1747532587960,4.641481,-0.040513504,-0.25162303,-1.2175972,-0.29614353,10.501909,800
1747532587970,5.0075665,0.08688438,-0.18060236,-1.2149341,0.3153183,10.679276,801
1747532587980,5.02733525,0.13484163,-0.116415305,-1.1297129,0.7259777,11.152786,802
1747532587990,5.3612056,0.17547716,0.08346757,-0.9353022,0.85753787,11.850001,803
1747532588000,5.7739067,0.13667206,0.20940112,-0.59601545,0.90707266,12.472649,804
1747532588010,6.7730765,0.20793676,0.36413342,0.25246766,1.1110709,13.13258,805
1747532588020,7.6870713,0.53131264,0.49446,0.6199839,1.3741912,12.647352,806
1747532588030,7.9967794,0.81466305,0.6289356,1.1057445,1.7465011,11.460115,807
1747532588040,7.9967794,1.1983211,0.5891542,1.5281218,2.016013,9.86861,808
1747532588050,7.450824,1.5932057,0.3607166,1.7544906,2.2205439,8.299476,809
1747532588060,5.209402,1.7823502,0.028798755,1.6447684,2.133192,6.3005066,810
1747532588070,4.4538007,1.7840585,-0.08395569,1.3954965,2.0165455,5.875466,811
1747532588080,4.0015626,1.7464737,-0.17962612,1.0434265,1.911617,5.4184675,812
1747532588090,3.807171,1.7442771499999998,-0.175599185,0.8133294,1.85435905,5.03151025,813
1747532588100,2.5899355,1.7125497,0.008786061,0.314253,1.8008295,4.013384,814
1747532588110,2.0595992,1.6849711,0.049543623,0.40053943,1.984055,3.0450585,815
1747532588120,1.4865527,1.6813104,-0.08419975,0.551807,2.0341225,2.6871295,816
1747532588130,1.0179628,1.7171869,-0.3277689,0.5933523,2.0074909,2.3158848,817
1747532588140,0.8346757,1.6634941,-0.5769514,0.48469532,1.75236,1.8897791,818
1747532588150,0.37877685,1.6119982,-0.74364245,0.3568636,1.417867,1.3837786,819
1747532588160,0.07541369,1.5968665,-0.8117344,0.042077947,0.78776306,0.46552056,820
1747532588170,-0.24283697,1.5597699,-0.87250465,-0.2615224,0.60293967,0.18322548,821
1747532588180,-0.332650015,1.5451264500000002,-0.891175025,-0.393082585,0.58722702,0.141946485,822
1747532588190,-0.53009236,1.4946066,-0.9386441,-0.81066626,0.5384912,0.077231675,823
1747532588200,-0.6020892,1.4540931,-0.75096416,-1.2293152,0.34940675,0.058056913,824
1747532588210,-0.5998927000000001,1.46666205,-0.64797198,-1.2170646,0.1949434,0.0628506,825
1747532588220,-0.5120321,1.5036367,-0.34387666,-1.0402308,-0.013848438,0.050600063,826
1747532588230,-0.43332364,1.52340535,-0.2737102,-0.89136007,-0.140348589,0.015446335,827
1747532588240,-0.1615659,1.6251773,-0.16278619,-0.41918156,-0.5044027,-0.16777915,828
1747532588250,0.30800024,1.7923565,-0.30751213,-0.113983296,-0.9438243,-0.7888283,829
1747532588260,0.5527897,1.8663057,-0.39488465,-0.2247708,-1.1233214,-1.1723236,830
1747532588270,0.80441266,1.9073074,-0.4368625,-0.46339005,-1.2564794,-1.593103,831
1747532588280,1.0513986,1.9361062,-0.4195344,-0.7590009,-1.2804478,-2.0325246,832
1747532588290,1.5812469,1.9190221,-0.23185438,-1.0530139,-1.1547467,-2.4580977,833
1747532588300,1.8404356,1.8838779,-0.12520137,-1.4141386,-0.7350325,-3.4333472,834
1747532588310,2.0315325,1.8414118,-0.044418417,-1.4828482,-0.63223445,-3.9372175,835
1747532588320,2.2782743,1.7706354,0.026114125,-1.5536882,-0.65726817,-4.4469466,836
1747532588330,2.4810859,1.7291455999999998,0.0918875575,-1.55342185,-0.6969492850000001,-4.668521650000001,837
1747532588340,2.6838975,1.6876558,0.15766099,-1.5531555,-0.7366304,-4.8900967,838
1747532588350,3.7433503,1.5275543,0.54253924,-1.2112057,-1.2644689,-6.296778,839
1747532588360,4.1584916,1.4389615,0.7067898,-1.0199907,-1.3598101,-6.658968,840
1747532588370,4.5201845,1.3291358,0.8336995,-0.81066626,-1.2857742,-7.038735,841
1747532588380,4.7481337,1.1929518,0.9276616,-0.62584287,-1.0727214,-7.383348,842
1747532588390,4.9558268,1.0123495,1.0294335,-0.47137952,-0.7813715,-7.6342177,843
1747532588400,5.274321,0.6042857,1.6076051,-0.16192019,-0.43196473,-7.8850875,844
1747532588410,5.4571204,0.40611124,2.1342807,1.3177321,-0.28708878,-8.001734,845
1747532588420,5.658223,0.32410803,1.4885051,1.923335,0.17097494,-8.035823,846
1747532588430,5.33802,0.15888128,1.517304,2.6402578,-0.026631612,-8.0720415,847
1747532588440,4.916289,0.19085276,1.3323085,2.9119003,-0.072970614,-7.950601,848
1747532588450,4.574365,0.2042759,1.0504224,2.9364014,0.120907515,-7.584683,849
1747532588460,4.3293314,-0.0924977,1.0601847,2.9635658,0.29241508,-7.4925375,850
1747532588470,3.896374,-0.0976229,1.0348027,3.0450585,0.330232,-7.264571,851
1747532588480,3.7113785,-0.194757685,0.9382781,3.0376016000000003,0.4316984299999999,-7.1841435,852
1747532588490,3.29489475,-0.354859235,0.76694993,2.9776804500000003,0.63250078,-7.033941,853
1747532588500,2.289013,-0.6152683,0.3951287,2.7435887,0.9267801,-6.82728,854
1747532588510,1.9612441,-0.733148,0.3104408,2.3254724,1.190433,-6.568953,855
1747532588520,1.6290822,-0.8449261,0.25674823,2.1411815,1.1030813,-6.429404,856
1747532588530,1.4002785,-0.95841275,0.30543764,2.1028320000000003,1.008272775,-6.28026685,857
1747532588540,0.9545079,-1.1521943,0.32679266,2.1283984,0.8676579,-5.904228,858
1747532588550,0.9545079,-1.1521943,0.32679266,2.1283984,0.8676579,-5.904228,859
1747532588560,0.66896087,-1.3205938,0.25723633,2.065015,0.61838603,-5.4072824,860
1747532588570,0.6133158,-1.4167523,0.26284966,2.0314593,0.54807854,-5.2203283,861
1747532588580,0.48103684,-1.5766098,0.2277054,1.9265307,0.43303,-4.8757153,862
1747532588590,0.39708114,-1.6483628,0.15448824,1.7763284,0.43036684,-4.6525426,863
1747532588600,0.35046622,-1.7096211,0.10470056,1.5558188,0.4495416,-4.4117928,864
1747532588610,0.3355787249999999,-1.73292855,0.097134785,1.4357102,0.45992793,-4.2970104,865
1747532588620,0.25796852,-1.9480649,0.093473926,1.1132014,0.46658584,-3.994209,866
1747532588630,0.22599702,-2.01481465,0.096890728,0.97524963,0.353401485,-3.75665505,867
1747532588640,0.065407336,-2.1738179,0.07590181,0.7749799,0.060720075,-3.2112398,868
1747532588650,-0.09274176,-2.217016,0.033435844,0.6982809,-0.14061491,-2.789395,869
1747532588660,-0.17828383,-2.23556435,0.009396205,0.6476808000000001,-0.2159823699999999,-2.51508935,870
1747532588670,-0.5930591,-2.2748578,-0.21525851,0.17949706,-0.3616573,-0.8628642,871
1747532588680,-0.6962953,-2.2399576,-0.32337585,-0.2263687,-0.38029942,-0.08735169,872
1747532588690,-0.7390053,-2.169913,-0.3653537,-0.71106404,-0.41172472,0.7281082,873
1747532588700,-0.66822875,-2.0822964,-0.34753752,-1.3401027,-0.4415521,1.700162,874
1747532588710,-0.48201308,-2.0105436,-0.28115395,-1.7741979,-0.42184472,2.356365,875
1747532588720,-0.281275985,-1.9303708,-0.173036588,-2.02480145,-0.397876275,2.83386985,876
1747532588730,0.0037828874999999,-1.80480335,-0.0241616664999999,-2.3031018000000003,-0.347276215,3.46237585,877
1747532588740,0.24137263,-1.6822866,0.09567044,-2.2530344,-0.27803403,3.829093,878
1747532588750,0.31873876,-1.6395767,0.1342315,-2.0527647,-0.25033715,4.0309606,879
1747532588760,0.3487578,-1.6139506,0.12154051,-1.7859159,-0.25832662,4.2759714,880
1747532588770,0.49397188,-1.6251773,-0.09518232,-1.4476944,-0.48629323,5.0173955,881
1747532588780,0.76219076,-1.628594,-0.19353738,-1.4269217,-0.7004114,5.3188653,882
1747532588790,0.94669807,-1.569044,-0.22282428,-1.4045511,-0.9901633,5.6501627,883
1747532588800,1.0601847,-1.5395131,-0.26504618,-1.4104102,-1.293231,6.169479,884
1747532588810,1.6229807,-1.4650756,-0.16205402,-1.427987,-1.5414376,6.9226213,885
1747532588820,2.0832727,-1.3806318,-0.0707766,-1.4066817,-1.7235979,8.7815075,886
1747532588830,2.690487,-1.2395668,-0.03807293,-1.5073493,-1.4647386,9.798835,887
1747532588840,3.7062535,-1.0538392,-0.04075756,-1.7704695,-0.85700524,10.699516,888
1747532588850,4.983649,-0.73339206,0.030751213,-2.1619542,0.32650355,11.202853,889
1747532588860,5.6677415,-0.151315495,0.3602285065,-2.2165491,0.996288575,11.0438625,890
1747532588870,6.470202,0.58183247,1.0182068,-1.8370485,1.8647454,10.519486,891
1747532588880,6.329381,0.57756147,1.1446285,-1.4530207000000002,1.83917905,10.4750115,892
1747532588890,5.819057,0.55645055,1.2956998,-0.14221281,1.7465011,10.755975,893
1747532588900,5.6787243,0.6760386,1.1114367,0.6487461,1.7667412,11.367437,894
1747532588910,6.4985123,1.168058,0.32996538,0.88896316,2.0953753,11.826034,895
1747532588920,6.798459,1.4252943,0.007565775,0.20293288,2.1784658,10.765563,896
1747532588930,6.69717525,1.5531803,-0.1000634675,-0.20639498,2.1513016,10.1948475,897
1747532588940,6.3125405,1.8275007,-0.21062139,-1.4402375,2.0170782,8.385229,898
1747532588950,4.7332463,2.0090792,0.31507793,-2.1928468,1.4125407,6.1737404,899
1747532588960,4.7332463,2.0090792,0.31507793,-2.1928468,1.4125407,6.1737404,900
1747532588970,3.2501104,1.9993169,0.6770148,-1.8839202,0.6641924,4.9135323,901
1747532588980,2.7649245,1.9922394,0.69556314,-1.5962988,0.4708469,4.4107275,902
1747532588990,2.352712,2.0154247,0.6496804,-1.325189,0.47830373,3.8967373,903
1747532589000,1.5168158,2.0683851,0.5108118,-0.76059884,0.79894835,2.7158918,904
1747532589010,1.1160738,2.0513012,0.4502856,-0.52411014,0.80374205,2.294047,905
1747532589020,0.77854264,2.0351934,0.34192422,-0.32437304,0.7547399,1.9627497,906
1747532589030,0.77854264,2.0351934,0.34192422,-0.32437304,0.7547399,1.9627497,907
1747532589040,0.40318257,2.0561824,0.17620933,0.018109497,0.68389976,1.3635385,908
1747532589050,0.25943285,2.0222585,-0.031239327,0.31638354,0.49854377,0.58749336,909
1747532589060,0.12398108,1.9807687,-0.19426957,0.33662358,0.4079963,0.20453078,910
1747532589070,-0.010738519,1.9195102,-0.35071027,0.18002969,0.2796319,-0.18695392,911
1747532589080,-0.0615024245,1.8763121,-0.4122126849999999,0.05379585,0.1965412799999999,-0.31664986,912
1747532589090,-0.14423785,1.7642899,-0.5122762,-0.36751625,-0.0644485,-0.67484504,913
1747532589100,-0.070532545,1.7047399,-0.4756676,-0.6556703,-0.21145499,-0.87831056,914
1747532589110,0.073217176,1.6940014,-0.3743838,-1.1819109,-0.29614353,-1.3315805,915
1747532589120,0.3243521,1.6952217,-0.18963248,-1.3145363,-0.25406557,-1.6458336,916
1747532589130,0.4255138499999999,1.6954657000000002,-0.0960365262499999,-1.298291,-0.23595608,-1.8370486,917
1747532589140,0.6801876,1.7074246,0.15473229,-1.1014835,-0.23489082,-2.4304008,918
1747532589150,0.9952655,1.6529999,0.25015867,-0.5613944,-0.43888897,-3.3039176,919
1747532589160,1.1402354,1.6305465,0.23722363,-0.41758367,-0.509729,-3.695935,920
1747532589170,1.3066825,1.5761217,0.19353738,-0.36485308,-0.45220476,-4.098605,921
1747532589180,1.39722775,1.53536415,0.156196633,-0.39654469,-0.3840278299999999,-4.306331500000001,922
1747532589190,1.5707524,1.4545812,0.0867623555,-0.5065332300000001,-0.23835292,-4.7183225,923
1747532589200,2.059355,1.2710502,0.091033354,-0.7584683,-0.013315806,-5.2954297,924
1747532589210,2.4027436,1.2371262,0.20183535,-0.92731273,0.18535602,-5.9170113,925
1747532589220,2.762728,1.2227268,0.38609856,-0.773382,0.2412824,-6.1673484,926
1747532589230,3.1498027,1.2564068,0.61673266,-0.3153183,0.2231729,-6.4091635,927
1747532589240,3.5739741,1.3276714,0.7878168,0.21038973,0.12197278,-6.6669574,928
1747532589250,4.306878,1.462391,0.94913864,1.1835088,-0.32011196,-7.390805,929
1747532589260,4.5411735,1.427979,0.86152214,1.3619406,-0.39894155,-7.7572556,930
1747532589270,4.7469134,1.3762388,0.83809257,1.3321131,-0.34461305,-8.012919,931
1747532589280,5.26944,1.2295604,0.967443,1.1169298,0.1768339,-8.351673,932
1747532589290,5.432226,1.0692148,1.0596966,1.113734,0.5438175,-8.527442,933
1747532589300,5.363158,0.9174112,1.1377949,1.2048141,0.9044095,-8.646219,934
1747532589310,5.1776743,0.79513854,1.2329772,1.3539511,0.9890981,-8.62012,935
1747532589320,4.892616,0.67530644,1.3284036,1.6144083,1.0024139,-8.453406,936
1747532589330,4.6229325,0.58232062,1.3910043,1.99683825,0.950482235,-8.1000045,937
1747532589340,4.111144,0.3653537,1.441158,2.8554413,0.80800307,-7.407849,938
1747532589350,3.8338954,0.24991462,1.3535415,3.3119073,0.6743124,-7.091998,939
1747532589360,3.5666528,0.11031388,1.2144289,3.6836846,0.50333744,-6.7990503,940
1747532589370,3.3184462,-0.077122085,1.0357789,3.9590554,0.3888215,-6.6073027,941
1747532589380,2.6997612,-0.52911615,0.5696296,4.1747713,0.33129725,-6.6089005,942
1747532589390,2.5380733500000003,-0.623810325,0.4446723,4.0922134,0.345678315,-6.67547965,943
1747532589400,2.18113965,-0.7937961499999999,0.2340509,3.7188382,0.3898868,-6.8118334,944
1747532589410,1.6224926,-1.0133257,0.082247294,3.396063,0.37337518,-6.7527113,945
1747532589420,0.95646036,-1.2036903,0.053936653,3.1249533,0.2892193,-6.353237,946
1747532589430,0.8426076499999999,-1.24054295,0.032337586,2.8812740000000003,0.25433189,-6.197176,947
1747532589440,0.53863436,-1.338654,-0.011470691,2.3499734,0.12463594,-5.657087,948
1747532589450,0.3653537,-1.3686731,0.0078098318,2.0106866,-0.0037284256,-5.112204,949
1747532589460,0.2208718,-1.376971,0.033923957,2.0106866,-0.0037284256,-5.112204,950
1747532589470,0.117147475,-1.3969837,0.026358182,1.4908376,-0.22690132,-4.247742,951
1747532589480,0.12080834,-1.5182801,-0.048323333,0.80587256,-0.18588865,-3.5217643,952
1747532589490,0.15912533,-1.6122422,-0.09152147,0.4133226,-0.053263225,-3.309244,953
1747532589500,0.16473864,-1.7401282,-0.123004854,0.013315806,0.087884314,-3.1664987,954
1747532589510,0.08395569,-1.824816,-0.1483868,-0.37710363,0.20453078,-3.0104373,955
1747532589520,-0.17450093,-1.9976085,-0.1683995,-1.2261194,0.2711098,-2.3457124,956
1747532589530,-0.33240595,-2.0735104,-0.10860548,-1.4998924,0.18642128,-1.8556907,957
1747532589540,-0.44467232,-2.1157322,-0.031483386,-1.6442357,0.09161274,-1.2511531,958
1747532589550,-0.5210622,-2.160395,0.040269446,-1.663943,0.030360037,-0.57364494,959
1747532589560,-0.56474847,-2.1970034,0.09664667,-1.5877767,-0.033023197,0.13582122,960
1747532589570,-0.64211464,-2.1594186,0.09542638,-1.3118732,-0.17097494,1.6740631,961
1747532589580,-0.6286915,-2.0920587,0.049543623,-1.2026836,-0.27696875,2.5023062,962
1747532589590,-0.5095915,-2.01152,-0.01415532,-1.1685951,-0.40533313,3.294863,963
1747532589600,-0.3231318,-1.9085277,-0.056377225,-1.2016183,-0.535828,4.0112534,964
1747532589610,0.24796216,-1.7823502,-0.070532545,-1.3331785,-0.82557994,5.195295,965
1747532589620,0.55767083,-1.7384197,-0.08932495,-1.3954965,-0.90707266,5.441371,966
1747532589630,0.8007518,-1.6688635,-0.10055158,-1.4658039,-0.9997507,5.553756,967
1747532589640,0.95426387,-1.5751455,-0.0976229,-1.555286,-1.1158645,5.59903,968
1747532589650,1.0706791,-1.5097381,-0.09152147,-1.6543556,-1.2128036,5.620335,969
1747532589660,1.104237,-1.4755701,-0.097988985,-1.7278589,-1.15101825,5.68904465,970
1747532589670,1.1185144,-1.3947871,-0.082247294,-1.7544906,-0.96299905,5.904228,971
1747532589680,1.07434,-1.3762388,-0.063943,-1.5446335,-0.93636745,6.1950455,972
1747532589690,1.0782449,-1.3857571,-0.06589546,-1.293231,-1.160073,6.599846,973
1747532589700,1.2329772,-1.3869774,-0.130936715,-1.1691277,-1.3464942999999998,6.86882525,974
1747532589710,1.786255,-1.3144923,-0.22477673,-0.76912093,-2.2727418,8.370316,975
1747532589720,2.4949973,-1.1824573,-0.23771177,-0.700944,-2.5044367,8.853946,976
1747532589730,3.2471817,-0.9274175,-0.26748675,-0.72278196,-2.5486453,9.136773,977
1747532589740,3.9486022,-0.60062486,-0.34216827,-0.89801794,-2.376605,9.302422,978
1747532589750,5.1571736,0.022453265,-0.53009236,-1.8924423,-1.262871,9.438776,979
1747532589760,5.26590105,0.1485088425,-0.492385505,-2.12014265,-0.97391805,9.4949685,980
1747532589770,5.379998,0.4058672,-0.24674188,-2.6269422,-0.25406557,9.879795,981
1747532589780,5.4305177,0.4195344,0.0021965152,-2.6402578,0.02609898,10.388459,982
1747532589790,5.619174,0.35119838,0.22502078,-2.427205,0.15446335,10.938135,983
1747532589800,6.318398,0.45077375,0.45052966,-1.7539579,0.30360037,11.690744,984
1747532589810,6.8384843,0.7597502,0.4915313,-1.3789848,0.46392268,11.437744,985
1747532589820,7.136478,1.0780008,0.49690056,-1.0173275,0.6695187,10.658504,986
1747532589830,7.0334857,1.19405,0.56218588,-0.76699037,0.6500776500000001,9.9692775,987
1747532589840,6.3594,1.5487872,0.9081371,0.1587244,0.4841627,8.20946,988
1747532589850,4.8613763,1.6202961,0.9864794,1.8780613,0.022370555,6.686665,989
1747532589860,4.200469,1.5895448,0.77024466,2.4847293,-0.25193503,6.175871,990
1747532589870,4.200469,1.5895448,0.77024466,2.4847293,-0.25193503,6.175871,991
1747532589880,3.65866205,1.5862501,0.4421096975,2.5355956500000003,-0.344080415,5.7178070000000005,992
1747532589890,2.6736472,1.6266416,-0.1598575,2.0660803,-0.2647182,4.808604,993
1747532589900,1.973935,1.8350664,-0.48787045,0.16458336,0.7728494,3.639476,994
1747532589910,1.6468983,1.8531268,-0.5618198,-0.783502,1.1004182,3.0658312,995
1747532589920,1.3474401,1.8294531,-0.5171573,-1.653823,1.2948289,2.4980452,996
1747532589930,1.2130866,1.8196908,-0.45199401,-1.9904466,1.3355753,2.20509745,997
1747532589940,0.7494998,1.8082201,-0.17669745,-2.7222834,1.3219932,1.3624732,998
1747532589950,0.14692247,1.7503786,0.34241232,-2.6684875,0.7930894,0.54914385,999
1747532589960,-0.053936653,1.7284133,0.52374685,-2.2722092,0.4394216,0.2972088,1000
