timestamp,acc_x,acc_y,acc_z,gyro_x,gyro_y,gyro_z,id
1747532928700,0.007321717,0.3533949,0.9283937,0.3717773,-0.3121225,0.23861924,1
1747532928710,0.23356278,-0.0156196635,1.0518868,0.6380934,0.0974717,1.1259845,2
1747532928720,0.30507156,0.9767171,-0.17157225,-0.029294772,0.28122982,0.8404937,3
1747532928730,0.30067852,1.0513986,0.008053889,-0.24181503,0.3898868,0.5933523,4
1747532928740,0.29787187,1.0980135,0.1042124445,-0.253266615,0.45699847,0.494282715,5
1747532928750,0.26406994,1.1575636,0.3533949,-0.15020229,0.5406217,0.22956449,6
1747532928760,0.20134723,1.1309613,0.4339338,0.091080114,0.4889564,0.15073492,7
1747532928770,0.09884319,1.0457853,0.3321619,0.6130597,0.4878911,0.28176245,8
1747532928780,0.082491346,1.0040516,0.17084008,0.69135666,0.42770368,0.41438788,9
1747532928790,0.07443746,0.98428285,0.04368625,0.59601545,0.2908172,0.561927,10
1747532928800,0.10006347,0.99233675,-0.049543623,0.37390783,0.18801917,0.71798825,11
1747532928810,0.24405725,1.0077124,-0.011958805,-0.14327806,0.02876214,0.9331717,12
1747532928820,0.3648656,0.9684192,0.09615856,-0.2146508,0.034621093,0.8708537,13
1747532928830,0.44516042,0.93522733,0.18768002,-0.19867182,0.033023197,0.71106404,14
1747532928840,0.46688151,0.93266475,0.209889225,-0.172572845,0.0386158355,0.60986392,15
1747532928850,0.47103047,0.93156654,0.22599702,-0.09374327,0.09054748,0.31691617,16
1747532928860,0.33875147,0.95621634,0.18743597,-0.03834952,0.13315806,0.096939065,17
1747532928870,0.28505886,0.989164,0.19768637,-0.03355583,0.12996227,0.10546118,18
1747532928880,0.2796896,1.0306537,0.24356914,-0.0026631611,0.112918034,0.15606125,19
1747532928890,0.29945824,1.0247964,0.3104408,0.13262543,0.0063915867,0.21092236,20
1747532928900,0.33777523,0.97793734,0.38170552,0.3110572,-0.12197278,0.23648871,21
1747532928910,0.29652956,0.86371857,0.31727442,0.6327671,-0.24341293,0.25885928,22
1747532928920,0.24064046,0.8390688,0.234539,0.6450176,-0.2743056,0.23382555,23
1747532928930,0.19280522,0.8251576,0.13789235,0.51984906,-0.29614353,0.20932446,24
1747532928940,0.18523945,0.81197846,0.0156196635,0.26365295,-0.221575,0.17896444,25
1747532928950,0.19402552,0.8407772,0.02318544,-0.39095205,-0.0958738,0.025033714,26
1747532928960,0.17303659,0.89154106,0.153512,-0.61838603,-0.08735169,-0.03781689,27
1747532928970,0.171938335,0.9077709,0.22062775,-0.65913239,-0.080161152,-0.0442084764999999,28
1747532928980,0.17742962,0.92229235,0.39317623,-0.6114618,-0.12516858,-0.02130529,29
1747532928990,0.22331238,0.83443177,0.5086153,-0.17470337,-0.23276028,0.027164243,30
1747532929000,0.19890666,0.79660285,0.49690056,0.043675844,-0.19813919,0.0058589545,31
1747532929010,0.16205402,0.7883049,0.41611758,0.16937704,-0.10013486,-0.04261058,32
1747532929020,0.14497001,0.79269797,0.3109289,0.15978967,0.019707393,-0.10226539,33
1747532929030,0.16571487,0.77805454,0.22062775,0.013315806,0.06498113,-0.16405073,34
1747532929040,0.2277054,0.7604824,0.14472595,-0.5651228,0.00479369,-0.2625877,35
1747532929050,0.2020794,0.81734776,0.23258655,-0.74728304,-0.060720075,-0.24501082,36
1747532929060,0.20354374,0.8649389,0.35925224,-0.79255676,-0.105993815,-0.20879184,37
1747532929070,0.20988922,0.8844635,0.47176263,-0.70147663,-0.12942964,-0.18908444,38
1747532929080,0.20354374,0.8849516,0.55840296,-0.51452273,-0.10333065,-0.19973709,39
1747532929090,0.20281157,0.84614646,0.5352176,-0.13156016,-0.036218993,-0.32011196,40
1747532929100,0.17816179,0.8339436,0.4356422,-0.06018744,-0.013848438,-0.38242993,41
1747532929110,0.11519502,0.82027644,0.34119204,-0.10066749,-0.033023197,-0.39095205,42
1747532929120,0.0388051,0.8300387,0.26651052,-0.23808661,-0.03195793,-0.29454562,43
1747532929130,0.011958805,0.86225426,0.22892569,-0.48363006,-0.05006743,-0.07137272,44
1747532929140,0.1330112,0.93205464,0.34119204,-0.7089335,-0.15339808,0.24501082,45
1747532929150,0.22624107,0.90423214,0.4322254,-0.6625945,-0.24607609,0.32597092,46
1747532929160,0.30873242,0.8432178,0.49470404,-0.5496765,-0.34887412,0.34674358,47
1747532929170,0.3682824,0.7873287,0.4978768,-0.42983422,-0.43303,0.30253512,48
1747532929180,0.3431445,0.77366143,0.36096066,-0.37603834,-0.48203218,0.123038046,49
1747532929190,0.30238694,0.78488815,0.3065359,-0.45167214,-0.40266997,0.054328486,50
1747532929200,0.2774931,0.792942,0.31751847,-0.5885586,-0.29294774,-0.018109497,51
1747532929210,0.26675457,0.8075854,0.37877685,-0.6812366,-0.25885928,-0.047404267,52
1747532929220,0.269317165,0.8092938000000001,0.411968635,-0.6964166350000001,-0.25779401,-0.0487358485,53
1747532929230,0.311173,0.80368054,0.5103237,-0.66845345,-0.2514024,-0.051665325,54
1747532929240,0.3572998,0.7382732,0.61209553,-0.36804888,-0.25832662,-0.07989483,55
1747532929250,0.36340126,0.6972716,0.6145361,-0.18322548,-0.23595607,-0.10972224,56
1747532929260,0.447601,0.6213697,0.5532778,-0.1257012,-0.32969934,-0.165116,57
1747532929270,0.40684342,0.5784157,0.456143,-0.2444782,-0.4111921,-0.267914,58
1747532929280,0.30873242,0.605506,0.4898229,-0.8644621,-0.45380265,-0.479369,59
1747532929290,0.25259924,0.61844105,0.5945235,-1.0823087,-0.39041942,-0.545948,60
1747532929300,0.23051206,0.6228340750000001,0.6638357500000001,-1.1217235,-0.33502566,-0.5688512,61
1747532929310,0.17889395,0.61502427,0.8715284,-1.1249193,-0.15765914,-0.6194513,62
1747532929320,0.21891935,0.56987363,1.0775127,-0.89642006,-0.10333065,-0.7105314,63
1747532929330,0.2877435,0.5684093,1.1429201,-0.8111989,-0.25672874,-0.8149273,64
1747532929340,0.2848148,0.59135073,1.1924638,-0.76272935,-0.49321744,-0.928378,65
1747532929350,0.23222046,0.611729515,1.20735125,-0.7193198249999999,-0.5603290949999999,-0.959536975,66
1747532929360,0.0014643435,0.6872652,1.2139407,-0.4857606,-0.6348976,-1.0354371,67
1747532929370,-0.10201593,0.70190865,1.1702545,-0.29507825,-0.53263223,-1.0807108,68
1747532929380,-0.20256752,0.72338563,1.1024066,0.0777643,-0.009054748,-1.1329087,69
1747532929390,-0.2604091,0.7394935,1.0035634,0.1949434,0.2561961,-1.1456919,70
1747532929400,-0.29555333,0.74413055,0.9056965,0.22849922,0.48469532,-1.1291803,71
1747532929410,-0.34778157,0.7563334,0.8437059,0.20293288,0.66152924,-1.0396981,72
1747532929420,-0.39024755,0.78708464,0.8500514,0.15180019,0.783502,-0.84688526,73
1747532929430,-0.36169282,0.8788501,0.93181056,0.05965481,0.6945524,-0.15126756,74
1747532929440,-0.27822527,0.8876362,0.97598493,0.036751624,0.42397526,0.41172472,75
1747532929450,-0.23978625,0.883853325,0.995631515,0.065247447,0.31238881,0.634631295,76
1747532929460,-0.12568948,0.8551766,1.052863,0.22210763,-0.0063915867,1.2458268,77
1747532929470,0.024893839,0.76389915,1.0838583,0.5400891,-0.22370553,1.7204021,78
1747532929480,0.14570218,0.7292431,1.0755602,0.63436496,-0.12516858,1.7491642,79
1747532929490,0.26992732,0.70215267,1.0501783,0.680704,0.008522116,1.6160061,80
1747532929500,0.3956168,0.6645679,1.0167425,0.69774824,0.165116,1.3049489,81
1747532929510,0.48494175,0.58305275,0.95621634,0.71106404,0.61891866,0.25992453,82
1747532929520,0.3956168,0.6228341,0.9113098,0.76272935,0.8404937,-0.17204021,83
1747532929530,0.2806658,0.67042524,0.8861718,0.8378305,1.0157297,-0.4841627,84
1747532929540,0.19671014,0.68409246,0.8463905,0.892159,1.1329087,-0.6695187,85
1747532929550,0.10958171,0.6794554,0.8175918,0.91612744,1.160073,-0.7302388,86
1747532929560,0.029286869,0.690682,0.8007518,0.89375687,1.0641992,-0.6530071,87
1747532929570,-0.024893839,0.70020026,0.7580418,0.7126619,0.6040049,-0.18748654,88
1747532929580,-0.004881145,0.70459324,0.759018,0.60560286,0.44048685,0.06498113,89
1747532929590,0.0302631,0.71093875,0.79269797,0.5363607,0.35420042,0.23489082,90
1747532929600,0.06382097,0.724239875,0.796480835,0.52091435,0.35127094,0.24367924,91
1747532929610,0.124591225,0.757553715,0.79757908,0.5219796,0.41598576,0.11984225,92
1747532929620,0.12886222,0.81466305,0.77781045,0.6679208,0.5629923,-0.25086978,93
1747532929630,0.06199054,0.78513217,0.7560893,0.82344943,0.65513766,-0.3616573,94
1747532929640,-0.024893839,0.72216535,0.70093244,0.99708754,0.753142,-0.36911413,95
1747532929650,-0.0469810195,0.6939767750000001,0.65749022,1.04875287,0.7880294,-0.32623723,96
1747532929660,-0.099575356,0.6543175,0.3829258,1.0892329,0.8149273,-0.1257012,97
1747532929670,-0.035632357,0.6621273,0.32606047,0.6593987,0.62903863,0.40852892,98
1747532929680,0.07468152,0.6711574,0.31556603,0.41971418,0.51771855,0.6002765,99
1747532929690,0.18109047,0.6640798,0.34607318,0.2615224,0.3930826,0.7078682,100
1747532929700,0.33362624,0.65285313,0.39073566,0.2615224,0.3930826,0.7078682,101
1747532929710,0.30385128,0.6919023,0.39244407,0.33289513,0.12037488,0.4910869,102
1747532929720,0.27822527,0.76267886,0.38805103,0.44474792,0.12463594,0.36591834,103
1747532929730,0.25528386,0.79538256,0.3214234,0.55979645,0.1438107,0.23169503,104
1747532929740,0.21525851,0.7426662,0.16254212,0.6535397,0.15286545,0.111852765,105
1747532929750,0.21293995,0.7255822000000001,0.1018938965,0.584031215,0.090813795,0.0199737075,106
1747532929760,0.19573392,0.70093244,-0.09225364,0.2796319,-0.11771172,-0.08468852,107
1747532929770,0.167301245,0.71179297,-0.12922831,0.1416801627999999,-0.15020229,-0.06631271,108
1747532929780,0.07224095,0.77317333,-0.15375607,-0.26205507,-0.2247708,0.029827405,109
1747532929790,0.034168016,0.8820229,-0.053692598,-0.6791061,-0.18748654,0.18642128,110
1747532929800,0.11592719,0.96768695,-0.006833603,-0.81705785,-0.14168017,0.1933455,111
1747532929810,0.19353738,1.0245523,0.011470691,-0.87032104,-0.10972224,0.14327806,112
1747532929820,0.27090356,1.0455412,0.025870068,-0.84848315,-0.01438107,0.021837922,113
1747532929830,0.42661208,1.0770246,0.025137896,-0.7866978,0.19973709,-0.25246766,114
1747532929840,0.43368974,1.1675699,-0.020256752,-0.7568703999999999,0.30919301,-0.5853628049999999,115
1747532929850,0.422707155,1.19746695,-0.057963596,-0.72278195,0.494282715,-1.059938125,116
1747532929860,0.37926495,1.2525018,-0.10128376,-0.71319455,0.7749799,-1.4418354,117
1747532929870,0.3704789,1.2678773,-0.09835507,-0.69774824,0.8942895,-1.6687368,118
1747532929880,0.334724515,1.29801845,-0.1858496,-0.67138292,0.91000215,-1.76407795,119
1747532929890,0.30092257,1.3420708,-0.39464056,-0.4644553,1.1883025,-1.9707392,120
1747532929900,0.3612047,1.3398743,-0.5198419,-0.4426174,1.2900352,-1.9217371,121
1747532929910,0.45711923,1.3501247,-0.6384538,-0.50600064,1.2958943,-1.8263959,122
1747532929920,0.524845115,1.3612293000000002,-0.6937327499999999,-0.56778597,1.23650575,-1.7824537500000002,123
1747532929930,0.81271064,1.3489044,-0.76170266,-0.968858,0.63223445,-1.5233282,124
1747532929940,0.83833665,1.3537855,-0.6823841,-1.091896,0.22796659,-1.3118732,125
1747532929950,0.8576172,1.3706255,-0.55108124,-1.091896,-0.13848437,-1.0349044,126
1747532929960,0.8756774,1.3264512,-0.38219365,-0.96299905,-0.4495416,-0.7621967,127
1747532929970,0.93522733,1.261532,-0.20500809,-0.72491246,-0.7094661,-0.6013418,128
1747532929980,0.92156017,1.223459,-0.025381953,-0.13582122,-1.0540792,-0.6945524,129
1747532929990,0.7883049,1.2734908,0.0014643435,0.042077947,-1.0418286,-0.85753787,130
1747532930000,0.68994983,1.3018014,0.00475911625,0.1091896085,-1.00614227,-0.938497935,131
1747532930010,0.37365165,1.3867333,0.022453265,0.28868666,-0.902279,-1.1488878,132
1747532930020,-0.102992155,1.4118712,0.043930303,0.48842376,-0.9054748,-1.077515,133
1747532930030,-0.34119204,1.4023529,0.03929322,0.5928197,-0.9736517,-0.8357,134
1747532930040,-0.50641876,1.3921026,0.0051252022,0.7073356,-1.031176,-0.49215218,135
1747532930050,-0.6016011,1.3747745,-0.04368625,0.81705785,-1.0487529,-0.08628642,136
1747532930060,-0.5862255,1.3457316,-0.102748096,0.89375687,-0.9869675,0.31052458,137
1747532930070,-0.34851375,1.2434716,-0.2169669,0.86179894,-0.7669904,0.84155893,138
1747532930080,-0.24478942,1.1829455,-0.2323425,0.7584683,-0.66152924,0.91186637,139
1747532930090,-0.18011424,1.1453607,-0.21257387,0.624245,-0.5384912,0.90174633,140
1747532930100,-0.14130914,1.1334019,-0.19402552,0.4878911,-0.35633096,0.8293084,141
1747532930110,-0.12739788,1.1314493,-0.15180361,0.376571,-0.13422333,0.7238472,142
1747532930120,-0.15473229,1.1656175,0.014887493,0.28655612,0.2647182,0.52357745,143
1747532930130,-0.19329333,1.189535,0.090789296,0.31851408,0.37017938,0.50653327,144
1747532930140,-0.23429495,1.1985651,0.13886857,0.39254996,0.38296258,0.5992113,145
1747532930150,-0.239786245,1.1929518,0.15290186,0.46205848,0.351270955,0.710531425,146
1747532930160,-0.2403964,1.159272,0.15863721,0.6460829,0.23062976,1.0306433,147
1747532930170,-0.16473864,1.1126571,0.05418071,0.74248934,0.11611383,1.381648,148
1747532930180,-0.11519502,1.0897156,-0.004148973,0.6844324,0.077231675,1.4871092,149
1747532930190,-0.051252022,1.0604287,-0.041001618,0.58269966,0.0777643,1.5387745,150
1747532930200,-0.002928687,1.044321,-0.05418071,0.45540056,0.08948222,1.5462314,151
1747532930210,0.09469421,1.0174747,-0.03465613,0.31851408,0.11771172,1.5243934,152
1747532930220,0.15863721,1.0204034,0.028554698,0.054328486,0.23329292,1.3267869,153
1747532930230,0.20696054,1.0423685,0.09689073,0.02396844965,0.230629755,1.25834365,154
1747532930240,0.20232345,1.0621371,0.16791138,-0.0053263223,0.23915187,1.0924287,155
1747532930250,0.19329333,1.0731196,0.24503349,0.06231797,0.25246766,1.0253171,156
1747532930260,0.14374973,1.0457853,0.2853029,0.32863408,0.2247708,0.9715212,157
1747532930270,0.14374973,1.0269929,0.234539,0.4314321,0.24074976,0.9912286,158
1747532930280,0.15253578,0.9947773,0.15155955,0.4745753,0.25885928,1.0104034,159
1747532930290,0.17108414,0.9669548,0.07980672,0.42876893,0.28016454,1.019458,160
1747532930300,0.188290165,0.951091065,0.0551569385,0.3685815,0.285757185,1.0170612,161
1747532930310,0.27505252,0.9010593,-0.018304294,0.072970614,0.25353295,0.9784454,162
1747532930320,0.3956168,0.84907514,-0.036120474,-0.36964676,0.17150758,0.77125144,163
1747532930330,0.38536638,0.8705522,0.065407336,-0.53529537,0.16138756,0.60720074,164
1747532930340,0.37145513,0.93303084,0.20305562,-0.6034723,0.19813919,0.44315,165
1747532930350,0.369258625,0.95743657,0.26553428,-0.5819007,0.2380866099999999,0.3568635799999999,166
1747532930360,0.36645198,0.99489935,0.38097337,-0.482298475,0.3206446,0.179497055,167
1747532930370,0.31019676,0.9530435,0.54083085,0.123038046,0.34301516,-0.21784659,168
1747532930380,0.24405725,0.916435,0.47981656,0.42770368,0.24820662,-0.23276028,169
1747532930390,0.18645974,0.89007676,0.32996538,0.53955644,0.19281286,-0.14807177,170
1747532930400,0.14716652,0.873725,0.191829,0.4889564,0.0644485,-0.0058589545,171
1747532930410,0.13886857,0.8571291,0.0039049159,0.07669904,-0.2082592,0.29134983,172
1747532930420,0.14960709,0.8664032500000001,0.01330111995,-0.04713795,-0.222906585,0.32543829,173
1747532930430,0.18694785,0.8988628,0.11226633,-0.35473305,-0.21624869,0.34993938,174
1747532930440,0.27383223,0.90520835,0.30604777,-0.44101948,-0.18269286,0.27217507,175
1747532930450,0.27383223,0.90520835,0.30604777,-0.44101948,-0.18269286,0.27217507,176
1747532930460,0.3648656,0.8917852,0.47005424,-0.13741912,0.20026971,-0.4607269,177
1747532930470,0.32532832,0.88958865,0.4837215,-0.03834952,0.19920446,-0.71798825,178
1747532930480,0.17889395,0.9061846,0.44149956,0.015446335,0.18375812,-0.8362326,179
1747532930490,-0.06467517,0.9454777,0.31898284,-0.023435818,0.17789917,-0.62104917,180
1747532930500,-0.0656514,0.9169231,0.2677308,-0.11717909,0.13688648,-0.40959418,181
1747532930510,-0.050153765,0.9059405,0.2710255649999999,-0.22849922,0.0314253,-0.20612867,182
1747532930520,-0.0056133163,0.89007676,0.2801777,-0.33076462,-0.10918961,-0.013848438,183
1747532930530,0.030507157,0.8983747,0.29530928,-0.3930826,-0.22423817,0.16831179,184
1747532930540,0.15668476,0.86982006,0.37682438,-0.34301516,-0.32277513,0.3930826,185
1747532930550,0.18475135,0.85456648,0.39134579,-0.30786143,-0.30040458,0.3683152,186
1747532930560,0.24259292,0.82149667,0.4253918,-0.2146508,-0.20985709,0.21092236,187
1747532930570,0.24771811,0.82027644,0.4195344,-0.18162759,-0.10013486,0.03834952,188
1747532930580,0.22990192,0.82149667,0.41343296,-0.18269286,0.034088463,-0.14221281,189
1747532930590,0.183287,0.8254016,0.41562948,-0.28495824,0.16085494,-0.406931,190
1747532930600,0.15009521,0.8639627,0.44442827,-0.33981937,0.123038046,-0.4261058,191
1747532930610,0.111046046,0.89764255,0.47688788,-0.34141725,0.06231797,-0.35952675,192
1747532930620,0.100673613,0.900449245,0.49714461,-0.28655614,-0.0071905349999999,-0.286289825,193
1747532930630,0.0933518949999999,0.87701977,0.50617472,-0.1579254625,-0.115581195,-0.14141386,194
1747532930640,0.1300825,0.81832397,0.43198135,0.14061491,-0.13848437,0.072970614,195
1747532930650,0.14692247,0.79562664,0.3585201,0.12037488,-0.123038046,0.046339005,196
1747532930660,0.14374973,0.77292925,0.29262465,0.0010652645,-0.11132014,0.013315806,197
1747532930670,0.141187125,0.772197095,0.272733985,-0.10546118275,-0.112119087,0.0063915868999999,198
1747532930680,0.09811102,0.8471227,0.31751847,-0.46339005,-0.12783173,0.010652645,199
1747532930690,0.09664667,0.8991069,0.40684342,-0.7845673,-0.24181503,0.14434333,200
1747532930700,0.13447554,0.9203399,0.49738866,-0.71319455,-0.29134983,0.21624869,201
1747532930710,0.18816814,0.9130182,0.5435155,-0.5454154,-0.32810146,0.26631612,202
1747532930720,0.24247087,0.87262668,0.53680393,-0.44075316,-0.33023198,0.2681803299999999,203
1747532930730,0.3270367,0.7934301,0.46078008,-0.04580637,-0.31372038,0.111852765,204
1747532930740,0.3321619,0.7665838,0.37975308,-0.044208474,-0.27643612,-0.011185277,205
1747532930750,0.31141704,0.7490117,0.31825066,-0.11664646,-0.21411815,-0.128897,206
1747532930760,0.26626647,0.74486274,0.29530928,-0.2444782,-0.16085494,-0.22796659,207
1747532930770,0.21843125,0.7883049,0.3321619,-0.39414784,-0.08894958,-0.29294774,208
1747532930780,0.25821257,0.8866599,0.5520575,-0.567786,-0.06018744,-0.39041942,209
1747532930790,0.27383223,0.89617825,0.6545615,-0.49321744,-0.17097494,-0.43249738,210
1747532930800,0.26284966,0.87982637,0.7158199,-0.3387541,-0.3121225,-0.4346279,211
1747532930810,0.21208574,0.8529801,0.716308,-0.16245283,-0.45060685,-0.38722363,212
1747532930820,0.131058738,0.8603018,0.6379656199999999,-0.0689758739999999,-0.534230125,-0.228765543,213
1747532930830,0.027822526,0.88324314,0.5210622,0.004261058,-0.6412892,0.15339808,214
1747532930840,0.0358764144999999,0.8773857700000001,0.535339565,-0.0189084445,-0.65806712,0.2657834799999999,215
1747532930850,0.10958171,0.8293065,0.6203935,-0.054328486,-0.727043,0.5901565,216
1747532930860,0.2042759,0.77146494,0.68994987,-0.010120012,-0.8213189,0.69508505,217
1747532930870,0.44149956,0.5764632,0.66969305,-0.048469532,-1.2282499,0.6332997,218
1747532930880,0.4230732299999999,0.57707335,0.643700955,-0.112119081,-1.24289725,0.56139436,219
1747532930890,0.32166746,0.643823,0.58939826,-0.37710363,-1.1930962,0.33609092,220
1747532930900,0.2596769,0.72216535,0.6465077,-0.608266,-1.0913634,0.17789917,221
1747532930910,0.20574026,0.72729063,0.90472025,-0.7765778,-0.99708754,0.04474111,222
1747532930920,0.18548352,0.70459324,0.9723241,-0.8127968,-0.7520767,-0.15446335,223
1747532930930,0.23161033,0.72094506,1.0213796,-0.75101143,-0.5161206,-0.36645097,224
1747532930940,0.27993366,0.75169635,1.0457853,-0.6988135,-0.34514567,-0.6087986,225
1747532930950,0.2939669499999999,0.758651975,1.0537172,-0.6724482,-0.271109795,-0.74861457,226
1747532930960,0.20403185,0.728999,1.1172941,-0.561927,-0.066046394,-1.1616709,227
1747532930970,0.04075756,0.7106947,1.1519502,-0.17044231,0.23116238,-1.506284,228
1747532930980,-0.102504045,0.7038611,1.1487775,0.09374327,0.36485308,-1.5217303,229
1747532930990,-0.21672285,0.70361704,1.0850785,0.32437304,0.4346279,-1.4205302,230
1747532931000,-0.29433304,0.7185045,0.96353805,0.48043427,0.48309743,-1.2080098,231
1747532931010,-0.34192422,0.7180164,0.844194,0.5187838,0.5139901,-0.8266452,232
1747532931020,-0.3162982,0.7106947,0.74510676,0.314253,0.52624065,-0.1486044,233
1747532931030,-0.23990828,0.7133793,0.79513854,0.18695392,0.47990164,0.15073492,234
1747532931040,-0.15961345,0.7268025,0.8778739,0.1107875,0.4048005,0.4111921,235
1747532931050,-0.1159272,0.7276567,0.9363256,0.125701205,0.3643204399999999,0.507065885,236
1747532931060,0.088104665,0.68140787,1.1634209,0.28708878,0.24714136,0.7025419,237
1747532931070,0.12837411,0.67530644,1.1702545,0.8175905,0.2790993,0.66206187,238
1747532931080,0.12715383,0.67628264,1.0941086,1.0780476,0.33768883,0.55766594,239
1747532931090,0.09713479,0.69348867,1.0155222,1.1906993,0.395479425,0.50014167,240
1747532931100,0.0021965152,0.7294871,0.74169,1.3651364,0.535828,0.41438788,241
1747532931110,-0.014887493,0.6936107,0.5259434,1.1893678,0.6306366,0.5342301,242
1747532931120,0.065163285,0.68994987,0.44930938,0.98803276,0.598146,0.628506,243
1747532931130,0.1252013675,0.695197085,0.431127115,0.8743158,0.58696072,0.652740775,244
1747532931140,0.31312546,0.70239675,0.4229512,0.51984906,0.5832323,0.63862604,245
1747532931150,0.44149956,0.69336665,0.49226347,0.28549087,0.5390238,0.48948902,246
1747532931160,0.51691324,0.70923036,0.59867245,0.13741912,0.4958806,0.23329292,247
1747532931170,0.41465324,0.839801,0.7551131,0.29454562,0.55127436,-0.42290998,248
1747532931180,0.25137895,0.89349353,0.7980672,0.5390238,0.60293967,-0.5603291,249
1747532931190,0.1899985599999999,0.903011795,0.8184459749999999,0.8149273,0.6375608,-0.5566007,250
1747532931200,0.025381953,0.81930023,0.75999427,1.3049489,0.5273059,-0.27856666,251
1747532931210,0.04612682,0.7231416,0.6257628,1.4034859,0.4181163,-0.077231675,252
1747532931220,0.06760386,0.6643238,0.4886026,1.3640711,0.32969934,0.098004326,253
1747532931230,0.12935033,0.6374775,0.3648656,1.194694,0.2545982,0.19920446,254
1747532931240,0.28237423,0.6577343,0.23551524,0.54435015,0.2514024,0.035153728,255
1747532931250,0.26809688,0.68543477,0.2567482199999999,0.42876895,0.28628982,-0.052197956,256
1747532931260,0.21367212,0.74132387,0.32776888,0.22423817,0.4149205,-0.29614353,257
1747532931270,0.08151512,0.7934301,0.4253918,0.27217507,0.5118596,-0.376571,258
1747532931280,0.0501537639999999,0.79269795,0.436862485,0.336623565,0.54754595,-0.37417415,259
1747532931290,-0.0034168015,0.7775664,0.4156294849999999,0.51159323,0.5302353900000001,-0.27537087,260
1747532931300,-0.047347106,0.76219076,0.28920785,0.61838603,0.34621096,0.039414786,261
1747532931310,-0.027090356,0.7482795,0.19451363,0.5305017,0.20453078,0.30999196,262
1747532931320,0.04271002,0.7150877,0.11324256,0.37017938,-0.018642128,0.545948,263
1747532931330,0.09664667,0.7080101,0.05515694,0.13315806,-0.26365295,0.7307714,264
1747532931340,0.139844805,0.73888333,0.036852645,-0.0790958849999999,-0.251668725,0.71665665,265
1747532931350,0.20500809,0.83174706,0.031483386,-0.391751005,-0.2031992,0.6314355,266
1747532931360,0.21501444,0.90398806,0.056133166,-0.6317018,-0.0958738,0.41705105,267
1747532931370,0.2037878,0.9374239,0.09811102,-0.6828345,-0.0314253,0.30945933,268
1747532931380,0.24332508,0.9613415,0.19378147,-0.5486112,0.022903185,0.14168017,269
1747532931390,0.26651052,0.9440134,0.20159128,-0.41172472,0.023435818,0.03834952,270
1747532931400,0.27456442,0.93254274,0.21379416,-0.23382555,0.03355583,-0.12942964,271
1747532931410,0.25259924,0.9459658,0.17084008,-0.12942964,0.006924219,-0.26312032,272
1747532931420,0.17206036,0.9623177,0.08127106,-0.08681905,-0.054328486,-0.3355583,273
1747532931430,0.01586372,1.018939,-0.035876416,-0.16192019,-0.030360037,-0.2876214,274
1747532931440,0.021110951,1.02455235,-0.073217176,-0.19893813,-0.0282295085,-0.273772965,275
1747532931450,0.08956901,1.048714,-0.17498904,-0.31372038,-0.06657903,-0.2593919,276
1747532931460,0.1901206,1.0618931,-0.2443013,-0.42024684,-0.18908444,-0.267914,277
1747532931470,0.27432033,1.0936205,-0.32508424,-0.51931643,-0.32810146,-0.27696875,278
1747532931480,0.50934744,1.1709867,-0.469078,-0.64555025,-0.4708469,-0.330232,279
1747532931490,0.66017485,1.180993,-0.5188657,-0.64821345,-0.47830373,-0.44315,280
1747532931500,0.8005078,1.1631769,-0.5847612,-0.64395237,-0.46658584,-0.6199839,281
1747532931510,0.9230245,1.1685461,-0.6289356,-0.644485,-0.43569317,-0.8633968,282
1747532931520,0.94023053,1.1731832,-0.6546836,-0.65194185,-0.427970005,-0.9957559,283
1747532931530,0.8105141,1.3030217,-0.6794554,-0.73130405,-0.30786142,-1.5755261,284
1747532931540,0.6631035,1.3552499,-0.60892284,-0.71106404,-0.23222765,-1.6692694,285
1747532931550,0.54937285,1.3542737,-0.5281399,-0.6146576,-0.15126756,-1.6431705,286
1747532931560,0.49348375,1.3315763,-0.44320798,-0.6146576,-0.15126756,-1.6431705,287
1747532931570,0.5195979,1.270562,-0.4041588,-0.2876214,-0.5566007,-1.2367721,288
1747532931580,0.45516676,1.2954559,-0.42051062,-0.33449304,-0.7840346,-1.0961571,289
1747532931590,0.42026657,1.31180775,-0.43173726,-0.3701794,-0.84715155,-1.01546335,290
1747532931600,0.32850105,1.3369455,-0.4253918,-0.44741106,-0.9054748,-0.7984157,291
1747532931610,0.26504618,1.325475,-0.36779428,-0.44048685,-0.83250415,-0.71106404,292
1747532931620,0.1444819,1.3960074,-0.27261195,-0.350472,-0.59122175,-0.61625546,293
1747532931630,0.04271002,1.4423783,-0.23722363,-0.29827404,-0.41971418,-0.56459016,294
1747532931640,-0.07614586,1.4872849,-0.16766733,-0.2444782,-0.23329292,-0.4607269,295
1747532931650,-0.17328064,1.5170598,-0.09737884,-0.18109496,-0.11558119,-0.32756883,296
1747532931660,-0.22868164,1.50925,0.03807293,-0.075101145,-0.020240024,-0.15446335,297
1747532931670,-0.18548352,1.4531169,0.07004443,0.31957933,0.07350325,0.21571605,298
1747532931680,-0.11202228,1.3615954,0.07834238,0.56672066,0.056459017,0.376571,299
1747532931690,-0.06809197,1.2798362,0.033679903,0.78936094,0.053795855,0.5091964,300
1747532931700,-0.060770255,1.24749865,-0.0030507145,0.86099997,0.036751624,0.56485647,301
1747532931710,-0.06858008,1.1707426,-0.136428,0.9672601,-0.0063915867,0.7387609,302
1747532931720,-0.050031736,1.091424,-0.28676724,0.6982809,0.09960223,0.968858,303
1747532931730,-0.018792408,1.0819057,-0.27554062,0.51292485,0.20240025,0.98803276,304
1747532931740,0.01513155,1.0965492,-0.22453266,0.33129725,0.33502567,0.96299905,305
1747532931750,0.051984192,1.1070437,-0.187802045,0.2676477,0.404267865,0.920654805,306
1747532931760,0.1598575,1.1377949,-0.04075756,0.17257284,0.56618804,0.72437984,307
1747532931770,0.15107143,1.1844097,0.14570218,0.36432046,0.64555025,0.4245079,308
1747532931780,0.09640261,1.1800168,0.17791773,0.5267733,0.5747102,0.39254996,309
1747532931790,0.0699224,1.1650073,0.17389079,0.61439128,0.51106063,0.4245078799999999,310
1747532931800,0.0036608586,1.1187584,0.1164153,0.87351686,0.30253512,0.6295713,311
1747532931810,0.0056133163,1.0521308,-0.047103047,0.84848315,0.12516858,0.93636745,312
1747532931820,0.030019043,1.0116173,-0.08956901,0.7099988,0.017576864,1.0290455,313
1747532931830,0.06296677,0.989164,-0.15009521,0.52411014,-0.03781689,1.0881677,314
1747532931840,0.09786696,0.9876996,-0.19548985,0.2796319,-0.021837922,1.1142666,315
1747532931850,0.11824574,1.0033193,-0.1795041,0.144343324,0.0071905354999999,1.1009508,316
1747532931860,0.21037734,1.0706791,-0.055645052,-0.21624869,0.07563378,0.98803276,317
1747532931870,0.29555333,1.1460928,0.1969542,-0.25566345,0.19547603,0.6423545,318
1747532931880,0.3333822,1.154879,0.31654227,-0.094808534,0.25300032,0.46978164,319
1747532931890,0.33484653,1.1412117,0.345341015,0.009853698,0.239151875,0.38802259,320
1747532931900,0.32764685,1.1177822,0.366818045,0.21624869,0.203199195,0.247940305,321
1747532931910,0.23893206,1.0082005,0.11031388,0.50173956,0.06178534,0.16618125,322
1747532931920,0.1969542,0.9474302,0.011470691,0.4282363,-0.060720075,0.25033715,323
1747532931930,0.19060871,0.9054524,-0.078830495,0.27803403,-0.1917476,0.38402784,324
1747532931940,0.208913,0.8793382,-0.14057697,0.08894958,-0.31957933,0.5299691,325
1747532931950,0.33948365,0.8283303,-0.10006347,-0.30360037,-0.36432046,0.61678815,326
1747532931960,0.43173727,0.835408,-0.010738519,-0.43569317,-0.29134983,0.4314321,327
1747532931970,0.5176454,0.84883106,0.08127106,-0.5044027,-0.165116,0.09640643,328
1747532931980,0.56670094,0.8871481,0.20940112,-0.4878911,0.07084008,-0.36804888,329
1747532931990,0.56670094,0.8871481,0.20940112,-0.4878911,0.07084008,-0.36804888,330
1747532932000,0.306657915,0.92717348,0.4306390249999999,-0.25672874,0.40533313,-1.2921658,331
1747532932010,0.04612682,0.9354714,0.39537275,0.0063915867,0.26525086,-1.3507553,332
1747532932020,-0.002562601,0.93595955,0.36852646,0.03462109335,0.1403485974999999,-1.1827098500000002,333
1747532932030,-0.08542004,0.91570276,0.2860351,0.043675844,-0.44208476,-0.42876893,334
1747532932040,0.025137896,0.8959341,0.26455808,-0.015978966,-0.9832391,0.29827404,335
1747532932050,0.111290105,0.8578612,0.277005,-0.030360037,-1.0285128,0.36964676,336
1747532932060,0.16913168,0.8263778,0.29213652,-0.056459017,-0.8591358,0.23915187,337
1747532932070,0.17120616,0.8212526,0.30372925,-0.0764327235,-0.7198524749999999,0.107059078,338
1747532932080,0.16498269,0.83223516,0.3214234,-0.18002969,-0.29294774,-0.34194988,339
1747532932090,0.10348027,0.8664033,0.3236199,-0.45220476,0.12623383,-0.8383631,340
1747532932100,0.044174362,0.8912971,0.37218732,-0.56618804,0.20240025,-0.9257148,341
1747532932110,-0.022209208,0.94938266,0.4595598,-0.5816344,0.21038973,-0.87298423,342
1747532932120,-0.06321083,0.9828185,0.5427833,-0.4857606,0.13156016,-0.7307714,343
1747532932130,-0.0691902299999999,0.96158553,0.58268665,-0.395213115,0.061519022,-0.6396913,344
1747532932140,-0.069312255,0.91777728,0.60721442,-0.0644485,-0.091346423,-0.3619236,345
1747532932150,-0.043930303,0.85444444,0.5232587,0.34567833,-0.16085494,-0.07403588,346
1747532932160,-0.047103047,0.82442534,0.45516676,0.40373522,-0.15393071,-0.035153728,347
1747532932170,-0.0051252022,0.78537625,0.36755022,0.33662358,-0.0974717,-0.048469532,348
1747532932180,0.036608588,0.77659017,0.22404456,-0.21678132,-0.015446335,-0.18961707,349
1747532932190,0.016595893,0.8371163,0.24454537,-0.4857606,0.05965481,-0.24181503,350
1747532932200,0.0039049159,0.87982637,0.35876414,-0.62903863,0.11025487,-0.27057716,351
1747532932210,0.0047591161,0.882755035,0.410870355,-0.61625546,0.12836437,-0.25193503,352
1747532932220,0.04515059,0.86347455,0.5520575,-0.34194988,0.09427591,-0.09267801,353
1747532932230,0.059794027,0.85566473,0.5357057,-0.17630127,0.041545313,0.008522116,354
1747532932240,0.0564992555,0.850905595,0.4989750599999999,-0.123836995,0.0207726565,0.054062173,355
1747532932250,0.020744866,0.85322416,0.42051062,-0.02130529,0.056459017,0.15446335,356
1747532932260,0.0078098318,0.8573731,0.42807645,-0.019707393,0.14434333,0.1667139,357
1747532932270,0.10543273,0.82442534,0.45931572,-0.12676647,0.25033715,0.08894958,358
1747532932280,0.19622204,0.8412653,0.44491637,-0.17949706,0.2790993,-0.018109497,359
1747532932290,0.23649146,0.88739216,0.42905265,-0.22050974,0.3153183,-0.14061491,360
1747532932300,0.24015234,0.94035256,0.43100512,-0.25513083,0.3472762,-0.24234766,361
1747532932310,0.20866893,0.9794017,0.4566311,-0.2743056,0.29561087,-0.27483824,362
1747532932320,0.093473926,0.96768695,0.5191097,-0.21038973,0.14913702,-0.05912218,363
1747532932330,0.06443111,0.9396204,0.5518134,-0.11717909,0.09960223,0.13209279,364
1747532932340,0.062478654,0.9178993,0.5706058,0.019707393,0.040480047,0.36112466,365
1747532932350,0.08029483,0.916435,0.56987363,0.12836437,0.02609898,0.50813115,366
1747532932360,0.0929858074999999,0.91460455,0.565114515,0.23169503,0.027696876,0.6215818,367
1747532932370,0.20012695,0.83784854,0.56767714,0.4016047,0.04580637,0.700944,368
1747532932380,0.26577836,0.7490117,0.59672,0.46339005,0.007456851,0.6514092,369
1747532932390,0.291160315,0.71045065,0.6002588,0.47191215,-0.011185277,0.5363607,370
1747532932400,0.32459614,0.64016217,0.58842206,0.41971418,-0.030360037,0.38296258,371
1747532932410,0.28115395,0.62600684,0.5274077,0.13422333,-0.0479369,-0.029827405,372
1747532932420,0.2323425,0.6452874,0.53131264,-0.11025487,0.027696876,-0.29667616,373
1747532932430,0.1637624,0.6662763,0.5762192,-0.2828277,0.082558,-0.49375007,374
1747532932440,0.099087246,0.6816519,0.6489482,-0.38722363,0.13954964,-0.6556703,375
1747532932450,0.08542004,0.6804316,0.70239675,-0.46552056,0.13156016,-0.7909589,376
1747532932460,0.0156196635,0.7475473,0.7809832,-0.6103965,0.018109497,-1.0173275,377
1747532932470,-0.08127106,0.79831123,0.8334555,-0.6514092,-0.041012682,-1.0263823,378
1747532932480,-0.183287,0.8288184,0.88983274,-0.62531024,-0.07403588,-0.94116116,379
1747532932490,-0.26529023,0.8327233,0.94865054,-0.5075985,-0.087884314,-0.77604514,380
1747532932500,-0.31776255,0.81978834,0.9928249,-0.25885928,-0.090014845,-0.50600064,381
1747532932510,-0.31898284,0.7826916,0.8978866,0.23276028,-0.05219796,-0.06231797,382
1747532932520,-0.29774985,0.7856203,0.7734174,0.39840892,0.036751624,0.14966966,383
1747532932530,-0.23722363,0.7797629,0.6518769,0.43356264,0.06551377,0.3291667,384
1747532932540,-0.202323445,0.7752478300000001,0.6005028649999999,0.3837615199999999,0.06391587,0.39547942,385
1747532932550,-0.13349932,0.78806084,0.49104318,0.14913702,0.06870956,0.5773733,386
1747532932560,-0.05515694,0.80636513,0.5186216,-0.25300032,0.14221281,0.79735047,387
1747532932570,0.019036464,0.7968469,0.5615757,-0.39787626,0.19867182,0.84422207,388
1747532932580,0.08322352,0.79611474,0.65675807,-0.479369,0.20133498,0.8021441,389
1747532932590,0.093717985,0.79660285,0.7507201,-0.45380265,0.24501082,0.7105314,390
1747532932600,0.12715383,0.8588374,0.93010217,-0.3653857,0.3121225,0.59388494,391
1747532932610,0.12544543,0.8891005,0.9696394,-0.044208474,0.42184472,0.33662358,392
1747532932620,0.12154051,0.899595,1.0050278,0.17204021,0.48682585,0.24234766,393
1747532932630,0.13838045,0.8859278,0.98111016,0.3882889,0.46978164,0.1736381,394
1747532932640,0.130692652,0.8803145,0.93290883,0.4841626999999999,0.42823632,0.155794925,395
1747532932650,0.0056133163,0.85322416,0.6772589,0.7163904,0.31265512,0.16990969,396
1747532932660,-0.008786061,0.8258897,0.5867136,0.7803062,0.16724652,0.4063984,397
1747532932670,-0.029286869,0.8090498,0.5217944,0.7552725,0.082558,0.49321744,398
1747532932680,-0.050763905,0.8075854,0.46078008,0.69774824,0.06657903,0.58429754,399
1747532932690,0.019768637,0.78757274,0.4036707,0.4958806,0.27643612,0.67537767,400
1747532932700,0.117391534,0.7585299,0.41977844,0.34141725,0.32597092,0.60720074,401
1747532932710,0.17669745,0.74242216,0.4842096,0.18109496,0.31478566,0.46179214,402
1747532932720,0.20305562,0.7597502,0.56767714,0.072970614,0.304133,0.2860235,403
1747532932730,0.20256752,0.78415596,0.63308454,0.0479369,0.33129725,0.11717909,404
1747532932740,0.18523945,0.8351639,0.6828722,0.27483824,0.360592,-0.19707392,405
1747532932750,0.1403329,0.8300387,0.65797836,0.4394216,0.37603834,-0.30146983,406
1747532932760,0.106408955,0.82942855,0.6297897299999999,0.59601545,0.45699844,-0.35739622,407
1747532932770,0.00097622897,0.83736044,0.5222825,0.7041398,0.5864281,-0.3536678,408
1747532932780,-0.05906185,0.8346757,0.41099238,0.7419567,0.71319455,-0.28655612,409
1747532932790,-0.08859278,0.8031924,0.26114124,0.61891866,0.7946873,-0.047404267,410
1747532932800,-0.06955632,0.77805454,0.25528386,0.4612595,0.7664578,0.09534117,411
1747532932810,-0.04002539,0.7743936,0.28042176,0.23276028,0.6785734,0.27696875,412
1747532932820,-0.00048811449,0.7809832,0.33460248,0.07669904,0.58483016,0.4048005,413
1747532932830,0.08371163,0.76853627,0.3956168,-0.030360037,0.44741106,0.48629323,414
1747532932840,0.1901206,0.7573096,0.48396555,-0.076166406,0.22423817,0.47031426,415
1747532932850,0.21721096,0.76194674,0.49934113,-0.0053263223,0.12836437,0.4101268,416
1747532932860,0.20793676,0.74339837,0.4886026,0.101200126,0.082558,0.33449304,417
1747532932870,0.16986385,0.73680884,0.47859627,0.21731395,0.1123854,0.25246766,418
1747532932880,0.048323333,0.74413055,0.353883,0.4079963,0.31798145,0.14966966,419
1747532932890,-0.021477038,0.7492558,0.29652956,0.40959418,0.59122175,0.18801917,420
1747532932900,-0.026358182,0.7487676,0.2779812,0.33662358,0.7957525,0.23062976,421
1747532932910,0.042954076,0.7512082,0.2523552,0.20080236,0.8527442,0.25246766,422
1747532932920,0.11690342,0.7643873,0.24137263,0.03568636,0.7957525,0.26365295,423
1747532932930,0.24064046,0.8300387,0.32069123,-0.23595607,0.48682585,0.3121225,424
1747532932940,0.27334413,0.8434618,0.32386398,-0.2860235,0.24234766,0.35952675,425
1747532932950,0.25430766,0.8268659,0.3321619,-0.2625877,-0.0058589545,0.4346279,426
1747532932960,0.23087814,0.79538256,0.3121492,-0.18961707,-0.20559604,0.51452273,427
1747532932970,0.23990828,0.7980672,0.0741934,-0.13741912,-0.20719394,0.5523396,428
1747532932980,0.25870067,0.9054524,-0.041977845,-0.4612595,-0.15020229,0.2977414,429
1747532932990,0.24845028,1.0367552,-0.13789235,-0.76965356,-0.05912218,0.09640643,430
1747532933000,0.25796852,1.1319375,-0.17230442,-1.055677,0.17044231,-0.11504856,431
1747532933010,0.3219115,1.1668377,-0.10421244,-1.2458268,0.43249738,-0.35792887,432
1747532933020,0.47273886,1.1768441,0.033191785,-1.267132,0.5267733,-0.9171927,433
1747532933030,0.473227,1.1868503,0.013667206,-1.123854,0.44687843,-1.1217234,434
1747532933040,0.4275883,1.206619,-0.03441207,-0.9491506,0.34993938,-1.2080098,435
1747532933050,0.37877685,1.244448,-0.10714114,-0.7520767,0.25885928,-1.1595404,436
1747532933060,0.31581008,1.3376778,-0.38683072,-0.63649553,0.18695392,-1.0375676,437
1747532933070,0.35046622,1.3474401,-0.49250755,-0.47404268,-0.011717909,-0.68816084,438
1747532933080,0.46370876,1.2981404,-0.5603554,-0.43995422,-0.13688648,-0.55553544,439
1747532933090,0.60038084,1.2185779,-0.6286915,-0.44208476,-0.28708878,-0.505468,440
1747532933100,0.6577343,1.1827015,-0.68091977,-0.5086638,-0.39840892,-0.48948902,441
1747532933110,0.69117016,1.2476206,-0.6811638,-0.6759103,-0.46818373,-0.46552056,442
1747532933120,0.6804316,1.3010693,-0.6152683,-1.1755193,-0.44581318,-0.48735848,443
1747532933130,0.67750293,1.3486603,-0.48445365,-1.397627,-0.41225734,-0.5544701,444
1747532933140,0.6635916,1.3613514,-0.36510965,-1.4460965,-0.304133,-0.6013418,445
1747532933150,0.6460195,1.3657444,-0.26748675,-1.3843112,-0.13209279,-0.6428871,446
1747532933160,0.59867245,1.3508569,-0.12739788,-0.9981528,0.10439592,-0.7755125,447
1747532933170,0.55864704,1.3369455,-0.102259986,-0.7526093,0.27537087,-0.86392945,448
1747532933180,0.49885303,1.3528093,-0.08712844,-0.5225122,0.4362258,-0.94329166,449
1747532933190,0.41636166,1.3806318,-0.08859278,-0.340352,0.51292485,-0.964597,450
1747532933200,0.20915705,1.4382293,-0.07980672,-0.2146508,0.48309743,-0.8724516,451
1747532933210,0.10372432,1.4604386,-0.05515694,-0.066046394,0.1949434,-0.23915187,452
1747532933220,0.04637088,1.4816716,-0.009030119,-0.017044231,0.06391586,0.1107875,453
1747532933230,0.015375607,1.5026605,0.041001618,0.046871636,-0.080960095,0.43303,454
1747532933240,0.004148973,1.5138872,0.07834238,0.14061491,-0.18482338,0.7190535,455
1747532933250,0.03807293,1.5036367,0.117391534,0.26525086,-0.20772657,0.92997587,456
1747532933260,0.14374973,1.4147999,0.15473229,0.62317973,-0.15393071,1.0679276,457
1747532933270,0.19548985,1.3542737,0.13691612,0.82344943,-0.08468852,1.0205233,458
1747532933280,0.209767205,1.3214480000000002,0.12764194,0.915062165,-0.0692421875,0.9805759,459
1747532933290,0.21452633,1.2266316,0.064919226,1.1845741,-0.054328486,0.8948221,460
1747532933300,0.21599068,1.159516,-0.020988923,1.2777847,-0.0015978967,0.8969527,461
1747532933310,0.21574661,1.0423685,-0.102259986,1.3124058,0.090014845,0.8905611,462
1747532933320,0.21891935,1.0069802,-0.14423785,1.2676647,0.12516858,0.850081,463
1747532933330,0.21403822,0.98428285,-0.18231077,1.1765846,0.19973709,0.8042747,464
1747532933340,0.21281794,0.9679311,-0.18865626,1.11186975,0.246342415,0.7797736,465
1747532933350,0.22477673,0.9691513,-0.16425052,0.89162636,0.38722363,0.6759103,466
1747532933360,0.2111095,0.99550945,-0.0707766,0.5475459,0.45220476,0.44474792,467
1747532933370,0.19329333,1.0140579,-0.0043930304,0.43995422,0.43409526,0.3787015,468
1747532933380,0.17376876,1.0225998,0.050763905,0.37923414,0.36112466,0.33768883,469
1747532933390,0.10006347,1.0506665,0.14789869,0.34567833,0.054328486,0.4415521,470
1747532933400,0.08322352,1.0809295,0.16229807,0.34248254,-0.08522116,0.58909124,471
1747532933410,0.11348662,1.0970373,0.1986626,0.34834146,-0.16618125,0.7174556,472
1747532933420,0.16034561,1.069947,0.23136626,0.35100463,-0.18162759,0.77231675,473
1747532933430,0.21525851,1.0462735,0.25040275,0.3387541,-0.17044231,0.74675035,474
1747532933440,0.28408262,1.0225998,0.22428861,0.30679616,-0.14647387,0.6583334,475
1747532933450,0.2818861,1.010397,0.21037734,0.1587244,-0.053795855,0.37124467,476
1747532933460,0.2608972,0.99160457,0.19280522,0.07882957,-0.017044231,0.2860235,477
1747532933470,0.24723,0.96622264,0.1786499,0.0010652645,-0.02130529,0.26045716,478
1747532933480,0.26406994,0.9523114,0.1849954,-0.068176925,-0.07190535,0.2711098,479
1747532933490,0.30555966,0.9344952,0.27456442,-0.10759171,-0.17949706,0.2428803,480
1747532933500,0.307024,0.9298581,0.30385128,-0.08575379,-0.22743396,0.2034655,481
1747532933510,0.31605414,0.9247329,0.32508424,-0.055926383,-0.23489082,0.165116,482
1747532933520,0.34387666,0.91619086,0.35632357,-0.0015978967,-0.16245283,0.051132694,483
1747532933530,0.35168648,0.8712844,0.39805737,0.087884314,-0.06924219,-0.27483824,484
1747532933540,0.31703037,0.8820229,0.41074833,0.11451593,-0.050600063,-0.40426785,485
1747532933550,0.2706595,0.8991069,0.40269446,0.13795175,-0.056459017,-0.45220476,486
1747532933560,0.2294138,0.9000831,0.38439015,0.18269286,-0.06870956,-0.42663842,487
1747532933570,0.21477039,0.8788501,0.40171823,0.2593919,-0.066046394,-0.39148468,488
1747532933580,0.20500809,0.83736044,0.4234393,0.34088463,-0.15073492,-0.37124467,489
1747532933590,0.1901206,0.8241814,0.37828872,0.4282363,-0.29454562,-0.31798145,490
1747532933600,0.21428227,0.7822035,0.33020946,0.4111921,-0.31372038,-0.3270362,491
1747532933610,0.23331872,0.72216535,0.30238694,0.3371562,-0.32597092,-0.4165184,492
1747532933620,0.22331238,0.7060576,0.268463,0.19973709,-0.30466563,-0.5635249,493
1747532933630,0.07175283,0.78513217,0.21550256,-0.24021713,-0.16990969,-0.80747044,494
1747532933640,-0.027090356,0.8437059,0.272856,-0.44528055,-0.0793622,-0.8607337,495
1747532933650,-0.082003236,0.88055855,0.37975308,-0.5656554,0.018109497,-0.86659265,496
1747532933660,-0.12324891,0.90520835,0.46663743,-0.5965481,0.07882957,-0.79894835,497
1747532933670,-0.12324891,0.91814333,0.54107493,-0.5454154,0.018642128,-0.6396913,498
1747532933680,-0.033923957,0.8927614,0.57524294,-0.21624869,-0.2972088,-0.1587244,499
1747532933690,0.012446919,0.86103404,0.54766446,-0.05539375,-0.36591834,-0.0037284256,500
1747532933700,0.044174362,0.83491987,0.50690687,0.040480047,-0.4181163,0.0479369,501
1747532933710,0.06199054,0.80465674,0.44052333,0.030360037,-0.46871635,0.021837922,502
1747532933720,0.0414897315,0.7936741700000001,0.367794275,-0.0247673965,-0.45220476,-0.006924219,503
1747532933730,0.020988923,0.7826916,0.29506522,-0.165648615,-0.396278385,-0.064981135,504
1747532933740,0.010982576,0.8102701,0.27651685,-0.660464,-0.15020229,-0.19760656,505
1747532933750,0.0134231495,0.8293065,0.34460884,-0.81918836,-0.10918961,-0.22050974,506
1747532933760,0.051252022,0.8607899,0.447601,-0.8969527,-0.11930962,-0.20080236,507
1747532933770,0.1147069,0.88007045,0.5954997,-0.8479505,-0.15765914,-0.17630127,508
1747532933780,0.117635585,0.8717725,0.6369894,-0.5390238,-0.22050974,-0.19600865,509
1747532933790,0.102259986,0.86518294,0.6289356,-0.34194988,-0.19014971,-0.24234766,510
1747532933800,0.093717985,0.85224795,0.55108124,-0.1933455,-0.14061491,-0.2972088,511
1747532933810,-0.021477038,0.82393724,0.40049794,-0.19441076,-0.13422333,-0.29454562,512
1747532933820,-0.06613952,0.8371163,0.34802565,-0.30999196,-0.1587244,-0.15499598,513
1747532933830,-0.07150877,0.85444444,0.3236199,-0.48203218,-0.22264028,0.08841695,514
1747532933840,-0.033191785,0.8744571,0.3338703,-0.5795039,-0.26844665,0.27377295,515
1747532933850,0.025137896,0.87909424,0.38975942,-0.60560286,-0.2790993,0.40107206,516
1747532933860,0.14985114,0.8502955,0.50641876,-0.54807854,-0.2561961,0.43729106,517
1747532933870,0.18621568,0.8251576,0.53985465,-0.31957933,-0.020240024,0.19387813,518
1747532933880,0.20696054,0.8117344,0.5527897,-0.2082592,0.1486044,-0.046339005,519
1747532933890,0.19451363,0.80416864,0.54107493,-0.13954964,0.30040458,-0.32437304,520
1747532933900,0.13691612,0.80172807,0.503002,-0.13688648,0.37444046,-0.5566007,521
1747532933910,0.082247294,0.8329674,0.4407674,-0.21678132,0.4048005,-0.6924219,522
1747532933920,0.011958805,0.94865054,0.4949481,-0.4314321,0.33449304,-0.6466155,523
1747532933930,0.020744866,0.98208636,0.5872018,-0.39041942,0.27057716,-0.5320996,524
1747532933940,0.049787678,0.96256185,0.66090703,-0.2428803,0.2050634,-0.42024684,525
1747532933950,0.07370529,0.91399443,0.6970275,-0.0314253,0.14594123,-0.34088463,526
1747532933960,0.06931226,0.84858704,0.6164886,0.3323625,0.13741912,-0.28176245,527
1747532933970,0.042465962,0.8332114,0.52203846,0.40906155,0.14168017,-0.25726137,528
1747532933980,0.01415532,0.81441903,0.4283205,0.3898868,0.16245283,-0.21038973,529
1747532933990,-0.005857374,0.7941623,0.37658033,0.23329292,0.16085494,-0.12623383,530
1747532934000,-0.004881145,0.7946504,0.35827604,0.00479369,0.09161274,-0.050600063,531
1747532934010,0.071020655,0.8278422,0.46590528,-0.535828,-0.19281286,0.07829694,532
1747532934020,0.117147475,0.82759815,0.5757311,-0.7206514,-0.38029942,0.1304949,533
1747532934030,0.14765464,0.8222289,0.6889736,-0.77924097,-0.53476274,0.1603223,534
1747532934040,0.17767367,0.8080735,0.80123997,-0.72651035,-0.6844324,0.14327806,535
1747532934050,0.16400647,0.76267886,0.8644508,-0.4708469,-0.77444726,-0.030360037,536
1747532934060,0.13471961,0.76267886,0.84858704,-0.31957933,-0.6854977,-0.21784659,537
1747532934070,0.07687803,0.7682922,0.79709095,-0.1438107,-0.49481535,-0.52624065,538
1747532934080,0.0019524579,0.77317333,0.74461865,-0.04527374,-0.29241508,-0.7584683,539
1747532934090,-0.07028849,0.77244115,0.71191496,-0.0026631611,-0.07882957,-0.9491506,540
1747532934100,-0.14057697,0.7909895,0.690682,-0.020772656,0.094808534,-1.0945592,541
1747532934110,-0.19451363,0.83174706,0.716064,-0.12144015,0.21252026,-1.1680624,542
1747532934120,-0.26553428,0.8766537,0.7402256,-0.13102753,0.17789917,-1.0162623,543
1747532934130,-0.3133695,0.9030118,0.7604824,-0.091080114,0.105993815,-0.73609775,544
1747532934140,-0.31361356,0.8922733,0.76341105,0.0015978967,0.039414786,-0.39148468,545
1747532934150,-0.22282428,0.85127175,0.70410514,0.14966966,-0.05965481,0.04261058,546
1747532934160,-0.15400012,0.8642067,0.6384538,0.27856666,-0.16405073,0.5411543,547
1747532934170,-0.1292283099999999,0.868233665,0.614536175,0.26977823,-0.153930715,0.60427125,548
1747532934180,-0.05832968,0.8671354,0.56670094,0.21944448,-0.08149273,0.721184,549
1747532934190,-0.02879875412,0.85639688,0.56279602,0.19947077,-0.03808320385,0.7169229500000001,550
1747532934200,0.050763905,0.82393724,0.5474204,0.15339808,0.098004326,0.6583334,551
1747532934210,0.12739788,0.7919658,0.51496077,0.11558119,0.18429075,0.49694586,552
1747532934220,0.1342315,0.7817154,0.5086153,0.06178534,0.19813919,0.4032026,553
1747532934230,0.13057062,0.7968469,0.5274077,0.0063915867,0.18535602,0.3435478,554
1747532934240,0.10933765,0.8683557,0.59037447,-0.0628506,0.13369069,0.29507825,555
1747532934250,0.097134784,0.8859278,0.65163285,-0.024501082,0.13901702,0.30519825,556
1747532934260,0.10933765,0.8844635,0.6965394,0.05006743,0.15180019,0.30519825,557
1747532934270,0.14350566,0.86249834,0.72655845,0.14434333,0.112918034,0.2727077,558
1747532934280,0.14741058,0.83919087,0.725582175,0.1957423449999999,0.105727497,0.246342405,559
1747532934290,0.1385024899999999,0.8089277500000001,0.720701,0.31345408,0.11025487,0.14327807,560
1747532934300,0.10714114,0.7922098,0.70093244,0.39095205,0.17576863,-0.050600063,561
1747532934310,0.08053889,0.78659654,0.69287854,0.36964676,0.098004326,-0.11824436,562
1747532934320,0.0353883,0.78708464,0.6518769,0.3206446,-0.018109497,-0.103863284,563
1747532934330,-0.001342315,0.79391822,0.6439450499999999,0.30759511,-0.0612527085,-0.05459480315,564
1747532934340,-0.15229172,0.77756643,0.6626154,0.33129725,-0.22050974,0.31957933,565
1747532934350,-0.1483868,0.7551131,0.66920495,0.3584615,-0.27057716,0.4660532,566
1747532934360,-0.1432616,0.7614586,0.7065457,0.36911413,-0.29241508,0.57311225,567
1747532934370,-0.130570622,0.77524785,0.724972035,0.368048865,-0.28336034,0.61066285,568
1747532934380,-0.077000059,0.79404025,0.756577465,0.37657099,-0.2609897949999999,0.63862604,569
1747532934390,0.05906185,0.78415596,0.8188121,0.5853628,-0.087884314,0.3355583,570
1747532934400,0.06186851,0.77390553,0.81405295,0.66525765,-0.0450074215,0.237820285,571
1747532934410,0.01952458,0.75316066,0.7648754,0.9177253,0.11558119,-0.025033714,572
1747532934420,-0.06931226,0.73632073,0.69409883,1.0375676,0.19920446,-0.1107875,573
1747532934430,-0.21232979,0.70215267,0.55620646,1.0072075,0.2860235,-0.022903185,574
1747532934440,-0.27358818,0.70923036,0.50788313,0.8825716,0.29454562,0.12942964,575
1747532934450,-0.3104408,0.73607665,0.5017817,0.6876282,0.34940675,0.3930826,576
1747532934460,-0.27261195,0.754625,0.52399087,0.53316486,0.36911413,0.598146,577
1747532934470,-0.1516815815,0.7476693999999999,0.5718261,0.4751079549999999,0.362722545,0.6708502999999999,578
1747532934480,0.055400997,0.7148437,0.6474839,0.38083205,0.13102753,0.7813715,579
1747532934490,0.066017486,0.7056915500000001,0.6505346000000001,0.423708945,0.089748531,0.7544735499999999,580
1747532934500,0.06345488,0.690682,0.6130718,0.5885586,0.022903185,0.6599313,581
1747532934510,0.05051985,0.6970275,0.5427833,0.7052051,0.08681905,0.5816344,582
1747532934520,0.036120474,0.69458693,0.38756293,0.7861652,0.20240025,0.4857606,583
1747532934530,0.051740136,0.6772589,0.3226437,0.7286409,0.54275227,0.26045716,584
1747532934540,0.09493827,0.65993077,0.27773714,0.588026,0.64768076,0.17044231,585
1747532934550,0.14082102,0.6653,0.24918245,0.40959418,0.7099988,0.07137272,586
1747532934560,0.1552204,0.69507504,0.23722363,0.21571605,0.71532506,-0.009054748,587
1747532934570,0.12642166,0.7687803,0.3236199,-0.023435818,0.64555025,-0.046339005,588
1747532934580,0.13374338,0.78415596,0.35876414,-0.046339005,0.5640575,-0.020240024,589
1747532934590,0.136550035,0.79721303,0.36425544,-0.0319579345,0.50839745,0.004261058,590
1747532934600,0.15668476,0.8278422,0.36340126,0.05273059,0.3520699,0.08735169,591
1747532934610,0.2608972,0.8300387,0.2362474,0.15978967,0.19228023,0.15499598,592
1747532934620,0.3145898,0.7890371,0.13716017,0.28229508,0.098004326,0.12836437,593
1747532934630,0.34192422,0.7609705,0.061258372,0.27696875,0.10865697,0.023435818,594
1747532934640,0.35144243,0.76243484,-0.021721095,0.22370553,0.13528858,-0.11930962,595
1747532934650,0.32630453,0.7975791,-0.10592084,0.118776985,0.1555286,-0.2615224,596
1747532934660,0.27261195,0.916679,-0.22624107,-0.2050634,0.28549087,-0.44101948,597
1747532934670,0.24234885,0.97476465,-0.20769271,-0.3882889,0.330232,-0.46924898,598
1747532934680,0.26870704,1.0533512,-0.16278619,-0.6125271,0.33609092,-0.5118596,599
1747532934690,0.2706594949999999,1.09386465,-0.161077785,-0.68123665,0.279099275,-0.52304485,600
1747532934700,0.2884757,1.2049106,-0.14228538,-0.7864315,0.175768635,-0.53689327,601
1747532934710,0.36242503,1.2476206,-0.1403329,-0.7701862,-0.018109497,-0.5933523,602
1747532934720,0.3961049,1.2559186,-0.19573392,-0.67324716,-0.034621093,-0.64768076,603
1747532934730,0.42612398,1.2690977,-0.2801777,-0.5773733,-0.041545313,-0.6844324,604
1747532934740,0.4557769299999999,1.2687316000000002,-0.31227125,-0.540621685,-0.0631169165,-0.68816085,605
1747532934750,0.56694496,1.2825208,-0.4131889,-0.4415521,-0.113983296,-0.70147663,606
1747532934760,0.801484,1.2983845,-0.54107493,-0.42663842,-0.34674358,-0.68389976,607
1747532934770,0.9096014,1.2686096,-0.59867245,-0.47191215,-0.51292485,-0.6892261,608
1747532934780,0.96671075,1.2520137,-0.60599416,-0.5118596,-0.67537767,-0.716923,609
1747532934790,0.9178993,1.2527459,-0.5930591,-0.5368933,-0.8479505,-0.6897587,610
1747532934800,0.84907514,1.261776,-0.5801241,-0.5406217,-0.9518138,-0.5640575,611
1747532934810,0.84785485,1.1807489,-0.51520485,-0.49055427,-1.0801781,-0.26365295,612
1747532934820,0.88739216,1.1568314,-0.49250755,-0.4644553,-1.1531488,-0.23009712,613
1747532934830,0.856885,1.1560992,-0.4737151,-0.46552056,-1.176052,-0.29667616,614
1747532934840,0.8108801999999999,1.17989475,-0.4532142999999999,-0.48043427,-1.1608719500000002,-0.345944645,615
1747532934850,0.6638357,1.249085,-0.41343296,-0.5273059,-1.0226538,-0.5075985,616
1747532934860,0.45809543,1.3035098,-0.37413976,-0.5629923,-0.6087986,-0.737163,617
1747532934870,0.35534734,1.3547617,-0.31873876,-0.5768407,-0.3797668,-0.8697884,618
1747532934880,0.2604091,1.4143118,-0.24283697,-0.58429754,-0.18961707,-0.9890981,619
1747532934890,0.13789235,1.4670281,-0.16766733,-0.5581986,-0.03781689,-1.0476876,620
1747532934900,0.008297946,1.521941,0.006833603,-0.4644553,0.05965481,-1.0263823,621
1747532934910,-0.25015867,1.4999758,0.065163285,0.06764429,-0.051132694,-0.5075985,622
1747532934920,-0.30214286,1.4379853,0.0707766,0.41385525,-0.13848437,-0.10279802,623
1747532934930,-0.31019676,1.3247427,0.018304294,0.74781567,-0.23489082,0.33129725,624
1747532934940,-0.31654227,1.2210184,-0.05832968,0.958738,-0.34834146,0.7366304,625
1747532934950,-0.29140437,1.1909994,-0.1564407,0.984837,-0.40373522,1.0705907,626
1747532934960,-0.13545178,1.2002735,-0.30970863,0.61199445,-0.32756883,1.3630059,627
1747532934970,-0.060038086,1.2156491,-0.2779812,0.35633096,-0.2231729,1.3113406,628
1747532934980,-0.0046370877,1.2156491,-0.1615659,0.13954964,-0.082025364,1.158475,629
1747532934990,0.01989066465,1.2116221500000002,-0.0848098945,0.139815955,-0.004793687,1.0905644,630
1747532935000,0.073461235,1.194172,0.09664667,0.2972088,0.19014971,0.9060074,631
1747532935010,0.12373702,1.0943527,0.21550256,0.87777793,0.20879184,0.7669904,632
1747532935020,0.1398448,1.0169866,0.17596528,1.1680624,0.19121496,0.73290193,633
1747532935030,0.14692247,0.9518233,0.059305906,1.3592775,0.20879184,0.7094661,634
1747532935040,0.12373702,0.87348086,-0.15326795,1.2905679,0.26365295,0.60240704,635
1747532935050,0.11153416,0.8808026,-0.25650415,1.0610034,0.33502567,0.52464277,636
1747532935060,0.10421244,0.9191196,-0.31532198,0.64555025,0.5028048,0.41278997,637
1747532935070,0.122760795,0.9576807,-0.2928687,0.25885928,0.64714813,0.30200246,638
1747532935080,0.22624107,1.0196712,-0.048323333,-0.12037488,0.7520767,0.16298546,639
1747532935090,0.255772,1.0638455,0.12202863,-0.51771855,0.79894835,-0.17736652,640
1747532935100,0.23575929,1.1094842,0.26480213,-0.5006743,0.7707188,-0.28708878,641
1747532935110,0.19280522,1.1138773,0.38536638,-0.37444046,0.6791061,-0.3110572,642
1747532935120,0.15595257,1.0965492,0.4458926,-0.19441076,0.5028048,-0.25300032,643
1747532935130,0.099087246,1.0648217,0.34851375,0.14487597,0.0793622,0.11664646,644
1747532935140,0.088836834,1.048714,0.24723,0.14327806,-0.042077947,0.30200246,645
1747532935150,0.105676785,1.0372432,0.1683995,0.02609898,-0.118776985,0.42184472,646
1747532935160,0.123004854,1.0387076,0.15448824,-0.14327806,-0.14966966,0.46871635,647
1747532935170,0.14814276,1.0562798,0.20110317,-0.3089267,-0.13954964,0.4415521,648
1747532935180,0.20451997,1.0945967,0.39537275,-0.43303,-0.022370555,0.28549087,649
1747532935190,0.21965152,1.0939866,0.429540755,-0.402936275,0.0106526444999999,0.216248685,650
1747532935200,0.23161033,1.0792211,0.5037342,-0.26045716,0.060720075,-0.004261058,651
1747532935210,0.21891935,1.0584763,0.51544887,-0.09427591,0.027696876,-0.14168017,652
1747532935220,0.18475133,1.0409042,0.48835856,0.01438107,-0.06018744,-0.1768339,653
1747532935230,0.1147069,1.0038075,0.34924594,0.11717909,-0.23009712,-0.036218993,654
1747532935240,0.11299851,0.96817505,0.29994637,0.0958738,-0.3110572,0.06924219,655
1747532935250,0.117391534,0.93522733,0.25723633,0.034088463,-0.33609092,0.15180019,656
1747532935260,0.117147475,0.933519,0.25381953,-0.05539375,-0.350472,0.19600865,657
1747532935270,0.18060236,0.9374239,0.3082443,-0.17310548,-0.2625877,0.12463594,658
1747532935280,0.20696054,0.9288819,0.3499781,-0.15978967,-0.15659387,0.010652645,659
1747532935290,0.22624107,0.9200958,0.38805103,-0.10066749,-0.029827405,-0.19920446,660
1747532935300,0.20866893,0.91253006,0.40171823,-0.047404267,0.02876214,-0.36645097,661
1747532935310,0.15717287,0.9061846,0.40049794,-0.016511599,0.05273059,-0.48149952,662
1747532935320,0.059549972,0.8937377,0.33411437,-0.02609898,0.036751624,-0.509729,663
1747532935330,0.032459613,0.8925173,0.31947094,-0.14647387,-0.12250541,-0.32810146,664
1747532935340,0.017328065,0.8922733,0.35193056,-0.19387813,-0.2428803,-0.18269286,665
1747532935350,0.017084008,0.8788501,0.38341394,-0.20133498,-0.33076462,-0.034088463,666
1747532935360,0.051007964,0.8529801,0.39586085,-0.17736652,-0.33289513,0.06977482,667
1747532935370,0.15570852,0.79660285,0.37243137,-0.11611383,-0.20985709,-0.07350325,668
1747532935380,0.17450093,0.7695125,0.3397277,-0.14807177,-0.0793622,-0.25566345,669
1747532935390,0.14277348,0.7512082,0.31605414,-0.23648871,0.011185277,-0.44687843,670
1747532935400,0.08590815,0.75340474,0.2889638,-0.37603834,0.072970614,-0.5811018,671
1747532935410,0.007565775,0.7787867,0.29262465,-0.5411543,0.12197278,-0.62104917,672
1747532935420,-0.07272906,0.8363842,0.40147418,-0.7771104,0.022903185,-0.3888215,673
1747532935430,-0.057841565,0.86371857,0.48274526,-0.7882957,-0.09640643,-0.18908444,674
1747532935440,-0.029286869,0.8771418,0.55401,-0.7057377,-0.2796319,0.06711166,675
1747532935450,0.008786061,0.87250465,0.6157564,-0.57364494,-0.41864893,0.24767399,676
1747532935460,0.0993313,0.82149667,0.6203935,-0.41065946,-0.51665324,0.36432046,677
1747532935470,0.0993313,0.82149667,0.6203935,-0.337156205,-0.54115432,0.381631005,678
1747532935480,0.1147069,0.7987994,0.46785772,-0.17044231,-0.5267733,0.31638354,679
1747532935490,0.10348027,0.78635246,0.38219365,-0.22690132,-0.4282363,0.23489082,680
1747532935500,0.10323621,0.7826916,0.32239962,-0.32756883,-0.32277513,0.13315806,681
1747532935510,0.14423785,0.8151512,0.31556603,-0.5928197,-0.046871636,-0.08735169,682
1747532935520,0.1718163,0.83101493,0.3995217,-0.6897587,0.06338324,-0.2231729,683
1747532935530,0.18597162,0.8449261,0.50666285,-0.67484504,0.12250541,-0.32011196,684
1747532935540,0.19890666,0.861278,0.59232694,-0.5789712,0.1603223,-0.3930826,685
1747532935550,0.21159762,0.8605459,0.63332856,-0.43782368,0.1587244,-0.44474792,686
1747532935560,0.10518867,0.83687234,0.6347929,-0.1603223,0.040480047,-0.39254996,687
1747532935570,0.029530926,0.83858067,0.5774395,-0.09321064,-0.02130529,-0.25193503,688
1747532935580,-0.016107777,0.84150934,0.5095915,-0.07829694,-0.06391586,-0.06551377,689
1747532935590,-0.023307467,0.8315030050000001,0.4865281,-0.0876180025,-0.075633775,0.028229505,690
1747532935600,-0.0207448665,0.7951384850000001,0.460291965,-0.1171790925,-0.085487475,0.210389725,691
1747532935610,0.113974735,0.6653,0.49201941,-0.1603223,0.0063915867,0.32437304,692
1747532935620,0.17913802,0.622346,0.48274526,-0.15020229,0.04580637,0.21198763,693
1747532935630,0.21721096,0.58134437,0.45077375,-0.19014971,0.050600063,0.06018744,694
1747532935640,0.219895585,0.571093935,0.43076104,-0.252467685,0.0561927015,-0.013848437,695
1747532935650,0.1769415,0.5776835,0.40635532,-0.5113269,0.05752428,-0.19973709,696
1747532935660,0.04881145,0.6665203,0.56596875,-0.93157375,-0.13262543,-0.21731395,697
1747532935670,-0.021477038,0.707522,0.70288485,-1.0503508,-0.2892193,-0.09960223,698
1747532935680,-0.084687866,0.77170897,0.83687234,-1.0423613,-0.33981937,0.05219796,699
1747532935690,-0.13740423,0.8327233,0.93620354,-0.9502159,-0.35899413,0.22264028,700
1747532935700,-0.09493827,0.8998391,1.0255286,-0.799481,-0.40053943,0.37017938,701
1747532935710,-0.04807928,0.9025237,1.0299215,-0.4676511,-0.49534798,0.48629323,702
1747532935720,-0.018060237,0.89813066,1.0204034,-0.30040458,-0.4809669,0.44421527,703
1747532935730,-0.0101283761,0.891175005,1.01332575,-0.216248685,-0.4551342499999999,0.396544695,704
1747532935740,0.009030119,0.84663457,0.97452056,-0.0490021634999999,-0.382163635,0.28282772,705
1747532935750,0.034900185,0.7941623,0.9386441,0.21092236,-0.15020229,0.012250541,706
1747532935760,0.08859278,0.7404697,0.8859278,0.30999196,-0.025566347,-0.1965413,707
1747532935770,0.08639627,0.7238738,0.7797629,0.4032026,0.24074976,-0.6013418,708
1747532935780,0.0622346,0.7482795,0.73485637,0.39840892,0.37923414,-0.7254451,709
1747532935790,-0.023673553,0.8027043,0.7048373,0.3920173,0.49960902,-0.78296936,710
1747532935800,-0.023673553,0.8027043,0.7048373,0.4016047,0.5933523,-0.7520767,711
1747532935810,-0.03099527,0.83443177,0.70288485,0.4463458,0.63383234,-0.4495416,712
1747532935820,-0.012202863,0.8449261,0.690682,0.45912898,0.531567,-0.19441076,713
1747532935830,0.025626011,0.84565836,0.67628264,0.4676511,0.39361522,0.015446335,714
1747532935840,0.08908089,0.82027644,0.6289356,0.46019423,0.050600063,0.4016047,715
1747532935850,0.11519502,0.8078295,0.58842206,0.45540056,-0.08681905,0.55340487,716
1747532935860,0.14911897,0.7834238,0.5474204,0.44794372,-0.1486044,0.63915867,717
1747532935870,0.1889003,0.76267886,0.51349646,0.4293016,-0.15446335,0.624245,718
1747532935880,0.22428861,0.76121455,0.47713193,0.38775626,-0.076166406,0.51984906,719
1747532935890,0.26651052,0.77170897,0.4510178,0.26525086,0.18269286,0.11025487,720
1747532935900,0.23087814,0.7682922,0.45077375,0.19813919,0.30999196,-0.13795175,721
1747532935910,0.17596528,0.77756643,0.46248847,0.16085494,0.39947417,-0.26045716,722
1747532935920,0.10323621,0.8080735,0.4966565,0.1470065,0.45220476,-0.30200246,723
1747532935930,0.04344219,0.84834296,0.5459561,0.14434333,0.4809669,-0.27324033,724
1747532935940,-0.010738519,0.8983747,0.630888,0.15286545,0.44048685,-0.092145376,725
1747532935950,-0.0036608586,0.91106576,0.6828722,0.16458336,0.39041942,0.02609898,726
1747532935960,0.004148973,0.91155386,0.73485637,0.19387813,0.32756883,0.14594123,727
1747532935970,0.02831064,0.89154106,0.7839119,0.212253945,0.257527685,0.19973709,728
1747532935980,0.06931226,0.8649389,0.8288184,0.2668487499999999,0.103863282,0.310258275,729
1747532935990,0.06894617,0.86737948,0.8112463,0.399740485,-0.133158048,0.415985765,730
1747532936000,0.037584815,0.86371857,0.737541,0.62317973,-0.34621096,0.50600064,731
1747532936010,0.0172060355,0.846512535,0.71520977,0.678573465,-0.3336941,0.53130067,732
1747532936020,-0.0061014313,0.78928113,0.6313761,0.7957525,-0.24980451,0.5917544,733
1747532936030,0.017572122,0.74315435,0.49885303,0.7637946,-0.1123854,0.5363607,734
1747532936040,0.0224532675,0.73265985,0.48774843,0.6785734,-0.015978966,0.4825648,735
1747532936050,0.05344854,0.699224,0.4698102,0.5400891,0.13209279,0.38562572,736
1747532936060,0.0959145,0.68214005,0.5012936,0.44101948,0.24767399,0.2609898,737
1747532936070,0.15229172,0.68140787,0.5632841,0.37710363,0.2908172,0.09640643,738
1747532936080,0.20988922,0.73339206,0.6772589,0.41598576,0.22903186,-0.23648871,739
1747532936090,0.13593988,0.76194674,0.6884855,0.5406217,0.1123854,-0.31318775,740
1747532936100,0.03734076,0.76292294,0.66090703,0.7036072,0.017044231,-0.30146983,741
1747532936110,-0.064919226,0.7485236,0.5976962,0.86499476,-0.036218993,-0.21411815,742
1747532936120,-0.20134723,0.71313524,0.41416514,1.0157297,0.12463594,0.15765914,743
1747532936130,-0.19060871,0.6884855,0.31995904,0.9331717,0.24341293,0.31851408,744
1747532936140,-0.12886222,0.6804316,0.2630937,0.76272935,0.3536678,0.42344263,745
1747532936150,-0.04148973,0.67506236,0.2489384,0.53263223,0.43356264,0.4612595,746
1747532936160,0.0096402625,0.671645555,0.26236155,0.413322615,0.443682645,0.44448159,747
1747532936170,0.208913,0.7143555,0.40293851,0.018642128,0.31318775,0.19121496,748
1747532936180,0.19256116,0.75999427,0.47273886,0.039414786,0.24660872,0.09374327,749
1747532936190,0.18621568,0.8083176,0.49543622,0.13795175,0.19441076,0.025033714,750
1747532936200,0.14204131,0.84883106,0.45004156,0.28549087,0.08149273,-0.03195793,751
1747532936210,0.022697324,0.86982006,0.35754386,0.47990164,-0.020240024,-0.015446335,752
1747532936220,-0.13057062,0.87079626,0.18963248,0.5837649,0.19600865,0.2625877,753
1747532936230,-0.12568948,0.8537123,0.09225364,0.50653327,0.31798145,0.43356264,754
1747532936240,-0.08566409,0.8258897,0.024161667,0.36112466,0.37763625,0.56938386,755
1747532936250,0.0,0.7997756,-0.0019524579,0.16138756,0.40852892,0.644485,756
1747532936260,0.1632743,0.82393724,0.03904916,-0.3110572,0.35260254,0.5992113,757
1747532936270,0.18450728,0.88690406,0.09005712,-0.50387007,0.20399815,0.5832323,758
1747532936280,0.21477039,0.9459658,0.1415532,-0.6317018,0.044208474,0.62104917,759
1747532936290,0.21477039,0.9459658,0.1415532,-0.6317018,0.044208474,0.62104917,760
1747532936300,0.25223317,0.976351,0.204886065,-0.58616175,-0.071639033,0.6838997600000001,761
1747532936310,0.41611758,1.0094208,0.30409533,-0.14913702,-0.2615224,0.8159926,762
1747532936320,0.4761557,0.989164,0.25381953,0.084155895,-0.23915187,0.7568704,763
1747532936330,0.5252112,0.96622264,0.20403185,0.27803403,-0.14221281,0.608266,764
1747532936340,0.54473578,0.95865687,0.168399495,0.331563565,-0.098270648,0.4876247999999999,765
1747532936350,0.5523015,0.9901402,0.010006348,0.39468047,0.018642128,0.07137272,766
1747532936360,0.36266908,1.0440769,-0.021721095,0.2066613,0.18269286,-0.4079963,767
1747532936370,0.2608972,1.0753163,-0.027822526,0.11664646,0.304133,-0.4676511,768
1747532936380,0.20696054,1.1146095,-0.019036464,0.040480047,0.3920173,-0.4314321,769
1747532936390,0.24186075,1.1407236,-0.038316987,-0.048469532,0.41385525,-0.34834146,770
1747532936400,0.3231318,1.1541467,-0.07516963,-0.14487597,0.33822146,-0.2625877,771
1747532936410,0.39671505,1.142554,-0.1182457399999999,-0.239418185,0.2173139449999999,-0.2146507999999999,772
1747532936420,0.5105677,1.1353543,-0.18060236,-0.4261058,-0.039947417,-0.18269286,773
1747532936430,0.5452239,1.1761118,-0.18914436,-0.5267733,-0.15180019,-0.24714136,774
1747532936440,0.57524295,1.2011276999999998,-0.19695419,-0.5898901999999999,-0.19787287,-0.33023198,775
1747532936450,0.6440671,1.2412751,-0.21281794,-0.7137272,-0.25726137,-0.6178534,776
1747532936460,0.6047739,1.2659249,-0.15912533,-0.6945524,-0.21784659,-1.1068097,777
1747532936470,0.5527897,1.2725145,-0.16742326,-0.6450176,-0.15499598,-1.3076121,778
1747532936480,0.49079913,1.2861817,-0.19939478,-0.59388494,-0.09853696,-1.4455639,779
1747532936490,0.47420323,1.2956999,-0.22746136,-0.58696072,-0.08149273,-1.4756576,780
1747532936500,0.42392743,1.3059504,-0.3321619,-0.59814598,-0.05486112,-1.48977235,781
1747532936510,0.456143,1.3100992,-0.40903994,-0.76485986,-0.09853696,-1.2112057,782
1747532936520,0.48640612,1.3315763,-0.3912238,-0.799481,-0.17204021,-1.0828413,783
1747532936530,0.51520485,1.3484163,-0.366574,-0.79255676,-0.25566345,-0.948618,784
1747532936540,0.517889475,1.3493925,-0.3560795399999999,-0.765126195,-0.2844256,-0.8796421299999999,785
1747532936550,0.51727933,1.35708035,-0.328745115,-0.68496504,-0.309991955,-0.750478805,786
1747532936560,0.50446635,1.3618395,-0.31581008,-0.31265512,-0.13848437,-0.49055427,787
1747532936570,0.528628,1.3445114,-0.31873876,-0.1470065,0.011717909,-0.43356264,788
1747532936580,0.5474204,1.3166889,-0.30873242,0.0031957934,0.12996227,-0.42077947,789
1747532936590,0.53875638,1.3008251,-0.3033631599999999,0.0604537567,0.136620165,-0.4205131549999999,790
1747532936600,0.47505744,1.28008015,-0.2934788499999999,0.170974945,0.119043297,-0.37923415,791
1747532936610,0.21599068,1.2839851,-0.24308102,0.39787626,0.0010652645,-0.007989483,792
1747532936620,0.119588055,1.2612879,-0.2238005,0.5123922,-0.03568636,0.22264028,793
1747532936630,0.051740136,1.23615,-0.2072046,0.6151902,-0.068176925,0.479369,794
1747532936640,0.0220871804999999,1.23773635,-0.19719825,0.6479471,-0.0948085375,0.614391275,795
1747532936650,-0.013667206,1.2559186,-0.19036464,0.7488809,-0.23062976,1.2815131,796
1747532936660,0.058085624,1.2219946,-0.18060236,0.7861652,-0.2657835,1.4753913,797
1747532936670,0.15009521,1.1607363,-0.16010156,0.8745821,-0.29294774,1.5856462,798
1747532936680,0.23600335,1.0836142,-0.16205402,0.9683254,-0.26525086,1.5904398,799
1747532936690,0.23600335,1.0836142,-0.16205402,0.9683254,-0.26525086,1.5904398,800
1747532936700,0.3917119,0.9274175,-0.24454537,1.1222562,-0.017576864,1.274589,801
1747532936710,0.3961049,0.8949579,-0.26553428,1.0727214,0.07243799,1.1233214,802
1747532936720,0.39878955,0.9015475,-0.2438132,0.9763149,0.16245283,0.95927066,803
1747532936730,0.40293851,0.95426387,-0.15326795,0.75633776,0.2892193,0.57151437,804
1747532936740,0.400131855,0.962317765,-0.1216625349999999,0.68816084,0.38775626,0.30679616,805
1747532936750,0.40635532,0.9693954,-0.034168016,0.67537767,0.49854377,0.07563378,806
1747532936760,0.41514137,0.96329397,0.0017084008,0.6844324,0.628506,-0.1917476,807
1747532936770,0.41026023,0.9530435,0.018792408,0.69774824,0.75101143,-0.47990164,808
1747532936780,0.35424909,0.94059663,0.01208083375,0.64714817,0.772583035,-0.70866717,809
1747532936790,0.245399555,0.935105355,-0.0054912872499999,0.52624064,0.74621777,-0.97125485,810
1747532936800,0.097134784,0.9637821,-0.022941383,0.29348037,0.60773337,-0.9598033,811
1747532936810,0.011958805,0.97744924,0.00976229,0.13741912,0.5006743,-0.8341021,812
1747532936820,-0.09567044,0.9930689,0.088836834,-0.009054748,0.23542345,-0.5566007,813
1747532936830,-0.2757847,1.0679946,0.22062775,-0.10173275,-0.20612867,0.26738137,814
1747532936840,-0.2072046,1.0618931,0.2672427,-0.053263225,-0.36591834,0.66525763,815
1747532936850,-0.09030118,1.0113733,0.28701133,0.03888215,-0.51984906,0.93157375,816
1747532936860,0.026358182,0.96817505,0.2757847,0.11558119,-0.6178534,1.0737866,817
1747532936870,0.15912533,0.93888825,0.21745501,0.15286545,-0.62584287,1.0940266,818
1747532936880,0.353883,0.86982006,0.13862452,0.08149273,-0.45593318,0.75101143,819
1747532936890,0.37584817,0.8327233,0.11690342,-0.011185277,-0.36751625,0.48469532,820
1747532936900,0.36388937,0.80441266,0.06638357,-0.15606125,-0.24181503,0.19441076,821
1747532936910,0.37291947,0.7826916,0.05051985,-0.2892193,-0.09640643,-0.03888215,822
1747532936920,0.31873876,0.82711005,0.15204766,-0.58483016,0.050600063,-0.5294364,823
1747532936930,0.23746772,0.89154106,0.24356914,-0.6711166,0.10918961,-0.6737798,824
1747532936940,0.17498904,0.9471862,0.353883,-0.6641924,0.15978967,-0.7004114,825
1747532936950,0.15619664,0.976229,0.43246946,-0.5566007,0.16777915,-0.6460829,826
1747532936960,0.14789869,0.969883525,0.468467905,-0.4633900399999999,0.10333065,-0.59042282,827
1747532936970,0.11153416,0.90520835,0.43637437,0.0958738,-0.30040458,-0.10333065,828
1747532936980,0.12178457,0.87030816,0.30458343,0.20772657,-0.3797668,0.06924219,829
1747532936990,0.15180361,0.8283303,0.18450728,0.18482338,-0.4250405,0.16085494,830
1747532937000,0.18768002,0.78586435,0.1010397,0.04314321,-0.4111921,0.1571265,831
1747532937010,0.2063504,0.7813493,0.064797199,-0.075101145,-0.344613065,0.111053815,832
1747532937020,0.21501444,0.8297946,0.09493827,-0.8314389,-0.049534798,-0.28336033,833
1747532937030,0.17913802,0.8793382,0.24356914,-1.073254,0.023435818,-0.43675843,834
1747532937040,0.13569583,0.9276616,0.41172457,-1.1669972,0.10013486,-0.5289038,835
1747532937050,0.08517598,0.9974619,0.5374141,-1.0711234,0.18216023,-0.5454154,836
1747532937060,0.053570566,0.99721785,0.61148545,-0.94941695,0.17923075,-0.51345746,837
1747532937070,0.037584815,0.94303715,0.6577343,-0.2034655,0.21358553,-0.26631612,838
1747532937080,0.065407336,0.90130347,0.5776835,-0.0026631611,0.22903186,-0.20399815,839
1747532937090,0.093717985,0.87348086,0.47859627,0.04314321,0.20772657,-0.19441076,840
1747532937100,0.19500175,0.82344913,0.32606047,-0.068176925,0.20559604,-0.22796659,841
1747532937110,0.23575929,0.8070973,0.32215557,-0.5592638,0.032490566,-0.48522797,842
1747532937120,0.18060236,0.82296103,0.37267542,-0.81439465,-0.11771172,-0.62744075,843
1747532937130,0.053692598,0.86201024,0.46956614,-0.99069595,-0.2657835,-0.6593987,844
1747532937140,0.008542005,0.8723826400000001,0.505564585,-0.987766475,-0.28788773,-0.6154565350000001,845
1747532937150,-0.09127741,0.89080894,0.5852493,-0.8831042,-0.30839407,-0.4213121,846
1747532937160,-0.044662476,0.8886124,0.6242984,-0.6593987,-0.29933932,-0.13262543,847
1747532937170,0.037584815,0.8964222,0.6211257,-0.58429754,-0.32490566,-0.07084008,848
1747532937180,0.12056428,0.8993509,0.5874458,-0.51505536,-0.3392867,-0.08894958,849
1747532937190,0.14472595,0.8928834299999999,0.57146005,-0.47857006,-0.33635725,-0.1379517499999999,850
1747532937200,0.17218239,0.877629905,0.5415630499999999,-0.405599445,-0.30626355,-0.2628540099999999,851
1747532937210,0.007565775,0.82125264,0.46419686,-0.33076462,-0.03355583,-0.51026165,852
1747532937220,-0.05662128,0.81441903,0.44369608,-0.39947417,0.02609898,-0.43516052,853
1747532937230,-0.076633975,0.8090498,0.42368335,-0.5230448,-0.010652645,-0.2977414,854
1747532937240,-0.07443746,0.8095379,0.41758195,-0.6854977,-0.07084008,-0.11771172,855
1747532937250,0.04148973,0.8603018,0.53985465,-0.84209156,-0.16884442,0.0479369,856
1747532937260,0.0959145,0.85859346,0.6157564,-0.9006811,-0.37017938,0.23542345,857
1747532937270,0.15058333,0.8332114,0.67140144,-0.8005462,-0.45060685,0.2428803,858
1747532937280,0.18133454,0.8110022,0.69214636,-0.64395237,-0.5049353,0.165116,859
1747532937290,0.16449459,0.8005078,0.6794554,-0.5581986,-0.5134575,0.056991648,860
1747532937300,0.12349297,0.80172807,0.6472398,-0.5400891,-0.48469532,-0.04314321,861
1747532937310,0.035876416,0.81441903,0.58378494,-0.6625945,-0.3749731,-0.17097494,862
1747532937320,-0.0021965152,0.8358961,0.5703618,-0.76113147,-0.3206446,-0.18695392,863
1747532937330,-0.03734076,0.86469483,0.5942794,-0.8319715,-0.25513083,-0.16564862,864
1747532937340,-0.059305906,0.865427,0.66139513,-0.8309063,-0.21624869,-0.10705908,865
1747532937350,-0.054668825,0.8097819,0.81783587,-0.6199839,-0.29454562,0.101200126,866
1747532937360,-0.061502427,0.7900133,0.8412653,-0.5049353,-0.39787626,0.19707392,867
1747532937370,-0.07590181,0.7804951,0.8293065,-0.4213121,-0.49002165,0.2977414,868
1747532937380,-0.08419975,0.7700006,0.8097819,-0.38083205,-0.5438175,0.386691,869
1747532937390,-0.0833455479999999,0.7659736699999999,0.797579075,-0.372309925,-0.5504754000000001,0.4165184,870
1747532937400,-0.05027579,0.7568215,0.775858,-0.3552657,-0.54807854,0.44528055,871
1747532937410,-0.0291648395,0.75279455,0.79013533,-0.32597093,-0.47777109,0.362189925,872
1747532937420,-0.008297946,0.7407138,0.81832397,-0.20985709,-0.28815404,0.16138756,873
1747532937430,-0.028554698,0.73558855,0.83223516,-0.082025364,-0.15180019,0.05752428,874
1747532937440,-0.05344854,0.7226535,0.84248555,0.27377295,0.2066613,-0.020772656,875
1747532937450,-0.021721095,0.71874857,0.7902574,0.4048005,0.3254383,-0.015446335,876
1747532937460,0.0053692595,0.7150877,0.7185045,0.49055427,0.37710363,0.00479369,877
1747532937470,0.022453265,0.70923036,0.6621273,0.51931643,0.39947417,0.049534798,878
1747532937480,0.063943,0.6982478,0.6199054,0.4910869,0.39468047,0.113983296,879
1747532937490,0.063943,0.6982478,0.6199054,0.4910869,0.39468047,0.113983296,880
1747532937500,0.18011424,0.7080101,0.56865335,0.25406557,0.1107875,0.22690132,881
1747532937510,0.16034561,0.7228975,0.59281504,0.19600865,-0.01438107,0.28122982,882
1747532937520,0.14911898,0.7327818500000001,0.60404167,0.191481285,-0.037816888,0.30360037,883
1747532937530,0.11251039,0.75999427,0.63284045,0.20453078,-0.048469532,0.36218992,884
1747532937540,0.114218794,0.7856203,0.6662763,0.25885928,0.16564862,0.3797668,885
1747532937550,0.17767367,0.78635246,0.6677406,0.2727077,0.27537087,0.314253,886
1747532937560,0.22306833,0.7797629,0.67042524,0.28442562,0.37763625,0.20932446,887
1747532937570,0.25089085,0.77195305,0.68702114,0.2977414,0.47137952,0.08362326,888
1747532937580,0.29164842,0.76243484,0.7394935,0.31691617,0.5028048,-0.044208474,889
1747532937590,0.27749311,0.77659017,0.7430323000000001,0.33795515,0.407197335,-0.1379517519999999,890
1747532937600,0.244301315,0.80526692,0.72973115,0.383228885,0.25486453,-0.2255697549999999,891
1747532937610,0.17425688,0.8332114,0.6653,0.46871635,0.08042747,-0.15180019,892
1747532937620,0.093717985,0.83858067,0.62478656,0.5203817,-0.010120012,-0.02396845,893
1747532937630,-0.014399378,0.8395569,0.5256993,0.5400891,-0.09853696,0.3888215,894
1747532937640,0.009274175,0.8217408,0.49690056,0.49215218,-0.091080114,0.57364494,895
1747532937650,0.06809197,0.8027043,0.49690056,0.39894155,-0.054328486,0.6940198,896
1747532937660,0.15888128,0.79831123,0.5271637,0.27004454,-0.010652645,0.72278196,897
1747532937670,0.2762728,0.81197846,0.56767714,0.11824436,0.0005326322,0.6125271,898
1747532937680,0.3917119,0.8507836,0.6765267,0.077231675,-0.10226539,0.18322548,899
1747532937690,0.34192422,0.8771418,0.7246059,0.19920446,-0.16937704,-0.018109497,900
1747532937700,0.25894472,0.89861876,0.70410514,0.39734364,-0.21198763,-0.14221281,901
1747532937710,0.1581491,0.9030118,0.6360132,0.6199839,-0.19014971,-0.1949434,902
1747532937720,-0.00073217176,0.82491344,0.5103237,0.7621967000000001,-0.0865527395,-0.1603223,903
1747532937730,-0.02318544,0.7987994,0.43173727,0.871919,0.17470337,-0.036751624,904
1747532937740,0.0061014313,0.7844,0.36901456,0.6673882,0.34461305,0.06338324,905
1747532937750,0.08444381,0.77170897,0.36047253,0.43196473,0.4394216,0.098004326,906
1747532937760,0.16180995,0.7636551,0.4253918,0.21944448,0.47404268,0.060720075,907
1747532937770,0.24747404,0.79440635,0.6282034,0.13422333,0.3536678,-0.15233281,908
1747532937780,0.2638259,0.8236932,0.6389419,0.2609898,0.2514024,-0.27537087,909
1747532937790,0.21989559,0.8402891,0.6062382,0.4463458,0.15819177,-0.37390783,910
1747532937800,0.13325526,0.8366282,0.5618198,0.6498113,0.17150758,-0.41598576,911
1747532937810,0.047103047,0.8190561,0.50617474,0.80587256,0.23222765,-0.39148468,912
1747532937820,-0.005857374,0.7807391,0.3243521,0.8250473,0.4016047,-0.23116238,913
1747532937830,-0.010982576,0.7477914,0.2801777,0.7094661,0.4607269,-0.13901702,914
1747532937840,0.0056133163,0.7304634,0.26236153,0.55127436,0.48203218,-0.06870956,915
1747532937850,0.021477038,0.7336361,0.25381953,0.40533313,0.46818373,-0.025566347,916
1747532937860,0.019036464,0.74193406,0.3109289,0.22583607,0.44101948,0.055926383,917
1747532937870,0.06443111,0.74339837,0.3219115,0.18908444,0.38775626,0.080960095,918
1747532937880,0.08322352,0.75047606,0.30946457,0.18056233,0.29880667,0.08628642,919
1747532937890,0.048567392,0.7560893,0.298482,0.17097494,0.16564862,0.13156016,920
1747532937900,0.022697324,0.7470592,0.28115395,0.14061491,0.111852765,0.2034655,921
1747532937910,0.014887493,0.73461235,0.23551524,0.025566347,0.11345066,0.3334278,922
1747532937920,0.018304294,0.733148,0.23600335,-0.056459017,0.13848437,0.3898868,923
1747532937930,0.02391761,0.729731185,0.239908275,-0.1041296035,0.158990715,0.4082626099999999,924
1747532937940,0.0436862455,0.723751755,0.2626056,-0.195209715,0.20532972,0.425040525,925
1747532937950,0.08053889,0.7321718,0.30848834,-0.29561087,0.25726137,0.3717773,926
1747532937960,0.09786696,0.7609705,0.35095432,-0.33502567,0.29561087,0.21252026,927
1747532937970,0.09445015,0.7792748,0.3912238,-0.32330775,0.28815404,0.10546118,928
1747532937980,0.071020655,0.8049008,0.42051062,-0.28549087,0.2545982,0.036218993,929
1747532937990,0.064065026,0.81710365,0.42526976,-0.25486452,0.255130825,0.0066579039999999,930
1747532938000,0.049543623,0.83784854,0.42026657,-0.15393071,0.25033715,-0.06870956,931
1747532938010,0.046614934,0.7873287,0.26187342,-0.09321064,0.25086978,-0.06977482,932
1747532938020,0.048323333,0.7485236,0.18841219,-0.16192019,0.24714136,-0.03195793,933
1747532938030,0.05832968,0.73290396,0.09859913,-0.32011196,0.21837921,0.0015978967,934
1747532938040,0.082003236,0.7492558,0.041977845,-0.5550028,0.17310548,0.010652645,935
1747532938050,0.117879644,0.8236932,0.04637088,-0.9171927,0.12037488,-0.042077947,936
1747532938060,0.13593988,1.0233321,0.14863087,-1.3805827,0.05273059,-0.17044231,937
1747532938070,0.15692882,1.1165619,0.19915071,-1.4407701,0.054328486,-0.221575,938
1747532938080,0.19304928,1.1709867,0.21843125,-1.3885722,0.06657903,-0.26844665,939
1747532938090,0.2296578749999999,1.19087735,0.2081808399999999,-1.3230584,0.10359697,-0.303334055,940
1747532938100,0.3236199,1.2381024,0.17572121,-1.0934939,0.22849922,-0.45220476,941
1747532938110,0.40318257,1.3103434,0.050763905,-0.80107886,0.4032026,-0.7302388,942
1747532938120,0.44735694,1.3542737,-0.028066583,-0.7030745,0.5219796,-0.91612744,943
1747532938130,0.5130083,1.4008886,-0.11275445,-0.67963874,0.57098174,-1.0641992,944
1747532938140,0.5742667,1.432372,-0.19256116,-0.69135666,0.5970807,-1.2154667,945
1747532938150,0.6501685,1.4592183,-0.23380683,-0.72917354,0.5544701,-1.3752564,946
1747532938160,0.7353445,1.4970472,-0.26480213,-0.7882957,0.30146983,-1.685781,947
1747532938170,0.67579454,1.5024164,-0.25089085,-0.7621967,0.17097494,-1.7454358,948
1747532938180,0.59989274,1.5112025,-0.23112221,-0.7025419,0.09321064,-1.6644757,949
1747532938190,0.58781192,1.52303925,-0.221359915,-0.66339345,0.097471695,-1.57605875,950
1747532938200,0.5957437,1.5487872,-0.19475769,-0.49161956,0.049534798,-1.2362394,951
1747532938210,0.6299118,1.530483,-0.15253578,-0.22903186,-0.14434333,-0.87564737,952
1747532938220,0.605506,1.4977793,-0.13691612,-0.082025364,-0.23435818,-0.71798825,953
1747532938230,0.5824426,1.4760582,-0.1374042349999999,0.055926383,-0.30200246,-0.57098174,954
1747532938240,0.42075467,1.3918585,-0.16010156,0.22743396,-0.30679616,-0.2860235,955
1747532938250,0.37487194,1.3818521,-0.183287,0.24234766,-0.27483824,-0.13582122,956
1747532938260,0.3431445,1.3718457,-0.18304294,0.23169503,-0.23861924,-0.007989483,957
1747532938270,0.3192269,1.3740423,-0.15009521,0.21624869,-0.21518342,0.072970614,958
1747532938280,0.25870067,1.3877095,-0.09689073,0.23382555,-0.19973709,0.15180019,959
1747532938290,0.079318605,1.4169964,-0.012202863,0.29134983,-0.18588865,0.25566345,960
1747532938300,0.014399378,1.415532,0.028554698,0.50120693,-0.12197278,0.62104917,961
1747532938310,-0.027090356,1.394299,0.061258372,0.644485,-0.1304949,0.8479505,962
1747532938320,-0.03929322,1.3625716,0.06418706,0.78936094,-0.14966966,1.1004182,963
1747532938330,0.046858992,1.27886,0.019280521,1.010936,-0.17310548,1.5574167,964
1747532938340,0.086030181,1.25530845,0.0042710009999999,1.037035,-0.17896443,1.6202673,965
1747532938350,0.21452633,1.1909994,-0.038561042,1.0892329,-0.2146508,1.726261,966
1747532938360,0.249792595,1.1704986,-0.052716366,1.0871024,-0.216248695,1.7076189,967
1747532938370,0.34607318,1.1146095,-0.093717985,1.0711234,-0.21145499,1.6074841,968
1747532938380,0.45589894,1.0626253,-0.11592719,1.0516823,-0.153131762,1.4538197,969
1747532938390,0.4615122499999999,1.0604288,-0.090911325,1.00587593,-0.079362197,1.17791615,970
1747532938400,0.46712556,1.0582323,-0.06589546,0.97951066,-0.06391586,1.055677,971
1747532938410,0.3180066,1.121443,0.012446919,0.81013364,-0.12250541,0.680704,972
1747532938420,0.2222141299999999,1.1337679,0.0639429945,0.7387609,-0.20133498,0.6194513,973
1747532938430,0.06443111,1.1304731,0.12666571,0.70840085,-0.2790993,0.7254451,974
1747532938440,0.07065457,1.12119895,0.1142187899999999,0.703074545,-0.2641855899999999,0.7398261749999999,975
1747532938450,0.08078295,1.103871,0.082735404,0.6599313,-0.18801917,0.7233146,976
1747532938460,0.10055158,1.1026506,0.055645052,0.58483016,-0.051132694,0.64555025,977
1747532938470,0.121296445,1.0893495,0.0500317345,0.53662696,0.062317968,0.572313325,978
1747532938480,0.153512,1.0304097,0.076633975,0.23435818,0.52624065,0.10546118,979
1747532938490,0.1321569975,1.0296775,0.0788304924999999,0.154463345,0.564323845,0.0567253315,980
1747532938500,0.08712844,1.0213796,0.093473926,-0.07669904,0.6332997,0.019707393,981
1747532938510,0.084931925,1.0245523,0.15790504,-0.24767399,0.48735848,0.15659387,982
1747532938520,0.19475769,1.0777569,0.35412705,-0.3057309,0.06338324,0.46019423,983
1747532938530,0.2238005,1.0736078,0.43979117,-0.19441076,-0.20453078,0.61412495,984
1747532938540,0.2626056,1.0299215,0.4932397,0.027696876,-0.42290998,0.7499462,985
1747532938550,0.34729347,0.94352525,0.485918,0.30040458,-0.48469532,0.79894835,986
1747532938560,0.41929033,0.85444444,0.45638704,0.53316486,-0.48043427,0.6956177,987
1747532938570,0.4075756,0.7905014,0.2613853,0.56725335,-0.45167214,0.2247708,988
1747532938580,0.37706846,0.7917217,0.15082738,0.34194988,-0.30839407,-0.041012682,989
1747532938590,0.36437747,0.7807391,0.11031388,0.098004326,-0.13741912,-0.28176245,990
1747532938600,0.32215557,0.7582859,0.12910628,-0.1587244,-0.023435818,-0.53742594,991
1747532938610,0.16229807,0.80392456,0.3121492,-0.38615838,0.04580637,-0.75101143,992
1747532938620,0.10201593,0.84883106,0.4046469,-0.56618804,0.20612867,-0.8841695,993
1747532938630,0.07834238,0.87274873,0.47347105,-0.49481535,0.17949706,-0.7978831,994
1747532938640,0.071264714,0.88739216,0.5400987,-0.35153726,0.023435818,-0.6348976,995
1747532938650,0.07590181,0.878362,0.5786598,-0.15233281,-0.21624869,-0.42077947,996
1747532938660,0.07028849,0.810026,0.5366819,0.27803403,-0.5363607,-0.03888215,997
1747532938670,0.063943,0.7936742,0.44955346,0.30786142,-0.49534798,0.013315806,998
1747532938680,0.073461235,0.78464407,0.3785328,0.24021713,-0.37284255,-0.03195793,999
1747532938690,0.11519502,0.754625,0.34973404,0.1257012,-0.22956449,-0.20293288,1000
1747532938700,0.09567044,0.7551131,0.3431445,-0.049534798,-0.12836437,-0.4314321,1001
