timestamp,acc_x,acc_y,acc_z,gyro_x,gyro_y,gyro_z,id
1747533395530,-0.73485635,0.09859913,0.63759957,-1.09242868,0.58616175,0.41199101,1
1747533395540,1.1790406,0.14204131,1.1050912,-3.2027175,-2.3718114,0.5502091,2
1747533395550,0.76511943,0.13374338,1.2976524,-1.6628778,-0.8431568,-0.1784318,3
1747533395560,0.46712556,0.0370967,1.3420708,-1.200286715,-0.42104576775,-0.27004455,4
1747533395570,0.23405088,-0.057841565,1.2173575,0.1438107,0.8655274,-0.43729106,5
1747533395580,0.16473863,-0.0894469825,1.1329137,0.53822485,1.24742465,-0.40107207,6
1747533395590,0.09640261,-0.22575295,0.592571,1.8988339,2.2972429,0.041012682,7
1747533395600,0.1466784,-0.3048275,0.34851375,1.9100192,2.1385183,0.35792887,8
1747533395610,0.14911897,-0.38731885,0.13691612,1.6761936,1.9936424,0.6508766,9
1747533395620,0.14374973,-0.4888467,-0.017084008,1.3374395,1.9361181,0.9406285,10
1747533395630,0.181944685,-0.58085625,-0.120564284,1.005077015,2.02054035,1.13930035,11
1747533395640,0.3487578,-0.7687803,-0.3521746,0.34940675,2.3196135,1.4168017,12
1747533395650,0.424049465,-0.79831125,-0.37413975,0.1568601949999999,2.3462450500000003,1.47911965,13
1747533395660,0.69385475,-0.8236932,-0.40123013,-0.47564057,2.0154803,1.6953684,14
1747533395670,0.8371163,-0.7365648,-0.33313814,-0.88470215,1.3720607,1.9062908,15
1747533395680,0.9222923,-0.5725583000000001,-0.20574026,-1.068992875,0.59734709,2.1603563,16
1747533395690,1.0074683,-0.4085518,-0.07834238,-1.2532836,-0.17736652,2.4144218,17
1747533395700,1.2001515,-0.3485137499999999,0.176331355,-1.0969561,-0.57950385,2.63679575,18
1747533395710,1.4221216,-0.36852646,0.38756293,-0.8364989,-0.75607145,2.66662325,19
1747533395720,1.49997585,-0.34924592,0.417703985,-0.4799016149999999,-0.792024125,2.5664884,20
1747533395730,1.5778301,-0.32996538,0.44784504,-0.28336033,-0.7621967,2.4825988,21
1747533395740,2.0826625,-0.204397945,0.3932982499999999,0.51292483,-0.228499225,1.7070862999999998,22
1747533395750,2.26241065,-0.16290822,0.36852644,0.7717841,-0.20133498,1.1664646,23
1747533395760,2.3970082,-0.118245745,0.346927375,0.841825235,-0.30493195,0.95953695,24
1747533395770,2.6755996,-0.08371163,0.30287504,0.99495703,-0.77604514,0.31372038,25
1747533395780,2.874018,-0.14545812,0.27920148,0.99921805,-0.8767126,0.04474111,26
1747533395790,3.0336316,-0.19500175,0.2767609,0.9890981,-1.0343717,-0.35313517,27
1747533395800,3.1022117,-0.22209209,0.28335047,0.964597,-1.2351742,-0.8431568,28
1747533395810,3.0768297,-0.23161033,0.27432033,0.9139969,-1.3779196,-1.371528,29
1747533395820,2.835457,-0.23185438,0.30458343,0.71958613,-1.3720607,-2.4319987,30
1747533395830,2.79823835,-0.231488295,0.32630454,0.674046065,-1.28710585,-2.7824707,31
1747533395840,2.702934,-0.2289256949999999,0.387562925,0.6205165500000001,-1.1166635,-3.42775465,32
1747533395850,2.56089265,-0.235637275,0.46956615,0.62211445,-0.960335925,-3.9758332,33
1747533395860,2.1433108,-0.26699865,0.6016011,0.6791061,-0.753142,-4.5801044,34
1747533395870,2.0791237,-0.28286234,0.58891016,0.72943985,-0.596015485,-4.7548077,35
1747533395880,2.0962077,-0.29787187,0.57865973,0.7906925499999999,-0.392549965,-4.994225999999999,36
1747533395890,2.1264708,-0.3256944,0.55803688,0.8032094000000001,-0.364320445,-5.1383030000000005,37
1747533395900,2.1289114500000004,-0.352906785,0.5347294300000001,0.810932575,-0.46658583,-5.302087500000001,38
1747533395910,2.037512,-0.377556575,0.49055506,0.830906275,-0.649545015,-5.4594805,39
1747533395920,1.8560555,-0.36291313,0.41074833,0.84422207,-1.0221212,-5.7151437,40
1747533395930,1.7871093,-0.350222155,0.397447215,0.8407599649999999,-1.0266486,-5.7572217,41
1747533395940,1.6531218,-0.3376532049999999,0.37523802,0.84661893,-1.0157297,-5.84404085,42
1747533395950,1.52316125,-0.3486357799999999,0.365109655,0.87618003,-0.8367652800000001,-5.9404473,43
1747533395960,1.3583006,-0.365597755,0.3513204199999999,0.93769905,-0.5842975699999999,-5.9827913,44
1747533395970,1.2582371,-0.353272855,0.3216674499999999,0.97631487,-0.39068574,-5.968143850000001,45
1747533395980,1.28679175,-0.310440815,0.300190405,0.9552759,-0.213319205,-5.97480205,46
1747533395990,1.36574435,-0.267608775,0.305437655,0.91745902,-0.099868545,-6.0384517,47
1747533396000,1.4479917,-0.246375795,0.309952715,0.90174637,-0.068975875,-6.15935925,48
1747533396010,1.3906382,-0.2672427,0.2757847,0.9547433,-0.28682246,-6.327671049999999,49
1747533396020,1.2517697,-0.2801777,0.22233616,1.031176,-0.71106404,-6.415555,50
1747533396030,1.1927078,-0.28042175,0.18877828,1.02371915,-0.74461987,-6.39717935,51
1747533396040,1.07836695,-0.26907309,0.13179091,0.98723385,-0.74142408,-6.36175935,52
1747533396050,0.97610698,-0.226973235,0.086518295,0.914795875,-0.62957128,-6.3383235,53
1747533396060,0.91911963,-0.17852788,0.0641870549999999,0.784567295,-0.38456045,-6.3476445,54
1747533396070,0.8605459,-0.117879644,0.06980037,0.62744075,-0.06551377,-6.356433,55
1747533396080,0.84419405,-0.115683132,0.0683360299999999,0.6122607250000001,-0.0250337175,-6.3452478,56
1747533396090,0.816859615,-0.1189779099999999,0.054302738,0.58269965,0.0351537275,-6.3002403000000005,57
1747533396100,0.8011179150000001,-0.1333772899999999,-0.0169619819999999,0.4873585,-0.001864212,-6.1958445,58
1747533396110,0.84785485,-0.117391534,-0.08419975,0.24501082,-0.10333065,-6.1332603,59
1747533396120,0.8100259750000001,-0.103480272,-0.083711635,0.15339808,-0.13475595,-6.158027649999999,60
1747533396130,0.69043793,-0.100307528,-0.062844741,-0.02130529,-0.207193935,-6.1681475,61
1747533396140,0.532898995,-0.106042873,-0.007321718,-0.159257035,-0.2809635,-6.081861,62
1747533396150,0.343632605,-0.097988985,0.058451708,-0.239418175,-0.29800773,-5.87040615,63
1747533396160,0.169131672,-0.12227268,0.1070191,-0.251402405,-0.260190845,-5.7026269,64
1747533396170,-0.03929322,-0.21916342,0.11665936,-0.21092236,-0.14221281,-5.6315207,65
1747533396180,-0.08273541,-0.242226825,0.101527815,-0.21092236,-0.14221281,-5.6315207,66
1747533396190,-0.1261776,-0.26529023,0.08639627,-0.22530343,-0.007989483,-5.541506,67
1747533396200,-0.16522676,-0.24967057,0.042954076,-0.29933932,0.20932446,-5.4520235,68
1747533396210,-0.18572757,-0.26187342,0.09567044,-0.459395275,0.3981425899999999,-5.53777725,69
1747533396220,-0.5891542,-0.4041588,0.23697957,-0.41225734,-0.09321064,-5.4408383,70
1747533396230,-0.701908625,-0.4147752999999999,0.233928855,-0.35499937,-0.23276028,-5.3031528,71
1747533396240,-0.930590225,-0.4528482499999999,0.22050571,-0.2364887,-0.52517536,-4.9923618,72
1747533396250,-1.5971106,-0.5891542,0.14692247,-0.007456851,-1.1408982,-3.8024614,73
1747533396260,-1.9209745,-0.5874458,0.107385196,0.019707393,-1.0402308,-3.1132355,74
1747533396270,-2.1376975,-0.56011134,0.09152147,0.0010652645,-0.8309063,-2.4074976,75
1747533396280,-2.17430605,-0.5608435199999999,0.1049446149999999,-0.01997370875,-0.7451525,-2.0762004000000003,76
1747533396290,-2.2182363,-0.5752429299999999,0.14899694,-0.052197961,-0.6205165500000001,-1.43704175,77
1747533396300,-2.2356864,-0.6007469299999999,0.210987485,0.019973705,-0.572047025,-0.495347965,78
1747533396310,-2.200664,-0.5703618,0.18621568,0.14168017,-0.48815745,0.38535941,79
1747533396320,-2.145019,-0.5051985,0.09176553,0.16911073,-0.3089267,0.8578041750000001,80
1747533396330,-2.09938035,-0.47090846,0.0384390185,0.0868190525,-0.088683269,1.30042155,81
1747533396340,-1.9673454,-0.401962295,-0.0554009965,-0.1075917124999999,0.137419116,1.72652735,82
1747533396350,-1.3759948,-0.24259292,-0.06028214,-0.7717841,0.5454154,2.5784726,83
1747533396360,-1.2649488,-0.20732664,-0.0280665835,-0.9400959,0.66525763,2.7505128,84
1747533396370,-1.0040516,-0.09469421,0.0605262,-1.0098706,0.7850999,2.8437235,85
1747533396380,-0.905208365,0.0057353424999999,0.1219066,-0.9824401,0.9440906,2.92574875,86
1747533396390,-0.798433265,0.1520476624999999,0.200371005,-0.91799165,1.1337076499999998,3.0634342,87
1747533396400,-0.7905014,0.19793043,0.21745501,-0.8809737,1.164334,3.1190944,88
1747533396410,-0.74425255,0.234539015,0.24112857,-0.7669904,1.128115,3.31510305,89
1747533396420,-0.5784157,0.2660224,0.2884757,-0.585096485,1.04049705,3.6139097,90
1747533396430,-0.33826336,0.27920148,0.29652956,-0.2396845,0.74461985,3.9526637,91
1747533396440,-0.28725538,0.29482114,0.29262465,-0.17603495,0.713727175,3.98142585,92
1747533396450,-0.20256751,0.329233225,0.269439205,-0.0647148155,0.69668295,4.0080575,93
1747533396460,-0.15192564,0.360594585,0.240518405,0.0165115995,0.71772193,3.9939428,94
1747533396470,-0.08700641,0.39317621,0.223312375,0.080427465,0.60373863,3.99420915,95
1747533396480,-0.022453267,0.4258799,0.216478785,0.1249022599999999,0.3669836,4.01844385,96
1747533396490,-0.011714748,0.44638071,0.213428065,0.15899073,0.1267664645,4.055728,97
1747533396500,-0.0420998759999999,0.44833316,0.194391595,0.2074602549999999,-0.0889495805,4.1284323,98
1747533396510,-0.08053889,0.41807005,0.13789235,0.29188246,-0.23542345,4.295679,99
1747533396520,0.15546446,0.41977844,0.08395569,0.27217507,0.053263225,4.4496098,100
1747533396530,0.227949465,0.43222538,0.06101431,0.211454995,0.1747033774999999,4.4104612,101
1747533396540,0.352540685,0.45663111,0.0336798995,0.0322242499999999,0.405599445,4.2725093,102
1747533396550,0.41050428,0.47737597,0.0412456765,-0.17204021,0.56112805,4.1023333,103
1747533396560,0.39939968,0.48286727,0.069312262,-0.308394065,0.59548282,3.9915458,104
1747533396570,0.45016357,0.47432525,0.127886005,-0.35739623,0.54674695,3.98888265,105
1747533396580,0.57255827,0.49482605,0.16266416,-0.3685815,0.45380265,4.048005,106
1747533396590,0.652243,0.539366515,0.134353515,-0.40586575,0.3768373,4.02137335,107
1747533396600,0.6611511,0.550959215,0.10311419,-0.4932174499999999,0.22690133,3.9638491,108
1747533396610,0.64370098,0.50507644,0.082247295,-0.5965480999999999,0.128896997,3.93668485,109
1747533396620,0.75950617,0.49543622,0.12910628,-0.9177253,0.54914385,3.8344195,110
1747533396630,0.8069753049999999,0.518499625,0.174012815,-0.958738,0.662594495,3.7332194,111
1747533396640,0.8771417699999999,0.5493728499999999,0.2540636,-1.00028335,0.838895735,3.5547875500000004,112
1747533396650,0.8856837,0.5474204,0.3443648,-0.89535475,0.8090684,3.4376085,113
1747533396660,0.8161274,0.49421594,0.36755022,-0.696150305,0.4173173735,3.58568025,114
1747533396670,0.85224795,0.4751795,0.32581642,-0.30999196,-0.28442562,3.8978026,115
1747533396680,0.87677571,0.466393415,0.3082443,-0.25033715,-0.343547795,3.9342879,116
1747533396690,0.981110185,0.452482135,0.2876214649999999,-0.165648625,-0.343281485,3.9614521,117
1747533396700,1.18367765,0.462732555,0.280421775,-0.14727281,-0.0814927425,3.8413435,118
1747533396710,1.372578,0.52252656,0.27212384,-0.162719145,0.2300971075,3.4554515,119
1747533396720,1.31070945,0.51154398,0.27224587,-0.1491370249999999,0.289219285,3.13960065,120
1747533396730,1.1823353,0.489944925,0.2766389,-0.09614012,0.1587244049999999,3.1276164,121
1747533396740,1.0917901,0.468589915,0.2945771,-0.0015978967,-0.15393071,3.277286,122
1747533396750,1.1075318,0.43942505,0.29335681,0.02609897915,-0.280963505,3.34226715,123
1747533396760,1.1917315,0.39708114,0.23722363,0.12942964,-0.70627034,3.5089812,124
1747533396770,1.2007617,0.36730617,0.17962612,0.12783173,-0.63010395,3.4349453,125
1747533396780,1.19893125,0.355225335,0.15729489,0.10333065,-0.4711132249999999,3.36943145,126
1747533396790,1.20832745,0.33838537,0.120198195,0.025566347,-0.066046405,3.2133702,127
1747533396800,1.29155095,0.31544399,0.069434287,-0.254598198,0.640490245,2.8977857,128
1747533396810,1.38319445,0.30494955,0.050885937,-0.61705441,1.13077825,2.57927155,129
1747533396820,1.4028411,0.31263736,0.06833603,-0.7526093,1.1606057,2.4857945,130
1747533396830,1.3581786,0.34241232,0.11031388,-0.9683254,1.0349044,2.390986,131
1747533396840,1.2572608500000002,0.400253865,0.201347225,-1.1185277,0.676176635,2.48765885,132
1747533396850,1.2100358,0.415629475,0.2441792749999999,-1.10547825,0.402137335,2.65384005,133
1747533396860,1.2366380499999998,0.398911565,0.23697959,-0.949150665,0.1275654145,2.84265815,134
1747533396870,1.2991167,0.34949,0.174745,-0.7526093,0.03834952,2.8533108,135
1747533396880,1.308757,0.3414361,0.16632502,-0.7438209,0.143011755,2.76782335,136
1747533396890,1.30704855,0.32252165,0.15412215,-0.7515441,0.331030935,2.5819347,137
1747533396900,1.219066,0.20793676,0.16815543,-0.9235843,0.3850931,2.3094933,138
1747533396910,1.232001,0.17840585,0.1952458,-1.0088054,0.24767399,2.3238745,139
1747533396920,1.22614365,0.16900965,0.203299685,-1.0452907,0.171241262,2.33213025,140
1747533396930,1.2132086,0.15277984,0.226973245,-1.107875,0.0391484675,2.3369239,141
1747533396940,1.19282975,0.136427995,0.26114126,-1.1355719,-0.029028456,2.3204123,142
1747533396950,1.1446284,0.07516963,0.345341,-1.0615361,0.051132694,2.2413163,143
1747533396960,1.1316935,0.05222825,0.38756293,-0.9901633,0.09267801,2.194445,144
1747533396970,1.11912455,0.034045985,0.41233474,-0.93929692,0.0780306249999999,2.1819281,145
1747533396980,1.0733638,-0.003782888,0.4505296749999999,-0.82824312,0.0231695044999999,2.18006375,146
1747533396990,1.00283125,-0.041855818,0.466027285,-0.7052051,-0.0452737405,2.2229406000000003,147
1747533397000,0.9884319,-0.11226633,0.4527261849999999,-0.5336975,-0.108124346,2.336125,148
1747533397010,1.04493115,-0.18560553,0.41880225,-0.48629323,-0.29987195,2.433064,149
1747533397020,1.121443,-0.2255089,0.35437113,-0.514789065,-0.357129915,2.40749765,150
1747533397030,1.121443,-0.2255089,0.35437113,-0.5432849,-0.41438788,2.3819313,151
1747533397040,1.1064335,-0.25211113,0.30531562,-0.66898607,-0.421578405,2.2783344,152
1747533397050,1.0988677,-0.268951075,0.31385762,-0.78430097,-0.33955304,2.18965115,153
1747533397060,1.07568235,-0.297139705,0.35010013,-0.8551410349999999,-0.29134982,2.11321845,154
1747533397070,1.04163635,-0.32898918,0.3870748,-0.843689435,-0.32224249,2.1025658,155
1747533397080,1.0230879,-0.348757805,0.413555,-0.8034757,-0.38988679,2.1217405,156
1747533397090,1.00966475,-0.36035054,0.41501935,-0.7478156499999999,-0.4577974,2.1536985,157
1747533397100,1.027603,-0.37328557,0.3870748,-0.7089335,-0.406931025,2.1766017,158
1747533397110,1.08190575,-0.3731635399999999,0.3623029749999999,-0.71212928,-0.276436125,2.1486384000000003,159
1747533397120,1.14169975,-0.3580319899999999,0.366696,-0.73423353,-0.18029601,2.0676782,160
1747533397130,1.1986871,-0.32337585,0.397935335,-0.71292825,-0.09214538,1.9089538,161
1747533397140,1.2354177,-0.26870704,0.43661842,-0.6109292,-0.06924219,1.7283915,162
1747533397150,1.258115,-0.24820623,0.43491003,-0.5619270249999999,-0.1014664399999999,1.7065536,163
1747533397160,1.27153815,-0.24125059,0.42673409,-0.444481595,-0.1893507549999999,1.66900305,164
1747533397170,1.30509605,-0.23002395,0.409528045,-0.32623723,-0.30599721,1.63917565,165
1747533397180,1.372822,-0.1786499,0.30800024,-0.14966966,-0.37124467,1.490305,166
1747533397190,1.39734975,-0.159003295,0.29177043,-0.148870715,-0.323840395,1.42479125,167
1747533397200,1.4528728,-0.12410311,0.26919514,-0.18695392,-0.19760656,1.1952267,168
1747533397210,1.5702643,-0.07614586,0.27432033,-0.214384475,-0.181893905,1.02238755,169
1747533397220,1.7030314,0.012690976,0.36681804,-0.2876214,-0.16618125,0.8495484,170
1747533397230,1.7030314,0.012690976,0.36681804,-0.2876214,-0.16618125,0.8495484,171
1747533397240,1.7686828499999998,0.087250465,0.436984495,-0.21438447,-0.34541199,0.420513135,172
1747533397250,1.8072438,0.12398108,0.5010495,-0.027696876,-0.33981937,0.04580637,173
1747533397260,1.80541345,0.11543908,0.51068975,0.061785342,-0.292148785,-0.10093381,174
1747533397270,1.7584325,0.01854835,0.53009236,0.5422196,-0.101200126,-0.783502,175
1747533397280,1.7393959,-0.028798755,0.49641246,0.61305968,-0.109189608,-0.8966863,176
1747533397290,1.7145022,-0.06296677,0.47176263,0.79202414,-0.22050974,-1.2074772,177
1747533397300,1.6691074,-0.09469421,0.45931572,0.88470215,-0.35739622,-1.3693974,178
1747533397310,1.6417731,-0.1066530099999999,0.45199402,0.88470215,-0.35739622,-1.3693974,179
1747533397320,1.56611545,-0.1383804549999999,0.40867387,1.0596718,-0.5384911800000001,-1.5813850500000002,180
1747533397330,1.5225512,-0.168033415,0.3465612999999999,1.1518172,-0.550741725,-1.74090845,181
1747533397340,1.5426859,-0.19463565,0.29994637,1.1448930000000002,-0.469248995,-1.8905781,182
1747533397350,1.5958903,-0.25259924,0.2438132,1.0610034,-0.34780884,-2.1715417,183
1747533397360,1.6176114,-0.28359452,0.22258021,0.9651296,-0.2593919,-2.3845944,184
1747533397370,1.6117541,-0.32044718,0.23307467,0.73822826,0.051132694,-2.834136,185
1747533397380,1.6098017,-0.32288775,0.24918245,0.62584287,0.21784659,-3.0589068,186
1747533397390,1.60431035,-0.3274028,0.2576024249999999,0.578172285,0.274838235,-3.16223755,187
1747533397400,1.5739251,-0.35510328,0.28408262,0.4676511,0.39521313,-3.43388,188
1747533397410,1.5805148,-0.33240595,0.31727442,0.4511395,0.36218992,-3.5345476,189
1747533397420,1.5795386,-0.3192269,0.3265486,0.43089947,0.0314253,-3.522297,190
1747533397430,1.5641629,-0.31190515,0.32606047,0.41545314,-0.1272991,-3.4706316,191
1747533397440,1.5573293,-0.28359452,0.328257,0.39574575,-0.22210763,-3.43388,192
1747533397450,1.5668476,-0.25406358,0.3338703,0.38136467,-0.22956449,-3.4722295,193
1747533397460,1.5458585,-0.24845028,0.33509058,0.37444046,-0.0015978967,-3.7140446,194
1747533397470,1.55196,-0.2362474,0.32288775,0.36911413,0.1470065,-3.8706384,195
1747533397480,1.5414655,-0.20574026,0.3121492,0.363255175,0.18375812,-3.91777635,196
1747533397490,1.53499805,-0.19134088,0.31019675,0.355265695,0.2282329049999999,-3.99900265,197
1747533397500,1.5046129,-0.127886,0.3338703,0.40426785,0.120907515,-4.171043,198
1747533397510,1.4555575,-0.12861817,0.34265637,0.47830373,0.053795855,-4.1966095,199
1747533397520,1.4190709,-0.126177595,0.334846535,0.516120615,0.0279631919999999,-4.18435875,200
1747533397530,1.3825843,-0.12373702,0.3270367,0.5539375,0.002130529,-4.172108,201
1747533397540,1.3082688999999998,-0.0618685125,0.2999463599999999,0.5997439,-0.154197027,-4.081560850000001,202
1747533397550,1.2808125,0.011714748,0.27920148,0.6295713,-0.3009372,-3.99847,203
1747533397560,1.3210819,0.040269446,0.28554696,0.7488809,-0.09853696,-4.0671797,204
1747533397570,1.3210819,0.041733786,0.27456442,0.7811051499999999,-0.0231695,-4.1135187,205
1747533397580,1.32083785,0.047957248,0.2633377799999999,0.839961025,0.09800433,-4.2112567,206
1747533397590,1.31144165,0.06467517,0.24247087,0.887365325,0.14647386,-4.3042011,207
1747533397600,1.2537221,0.111046046,0.19915071,0.9659286,0.1025317015,-4.39581395,208
1747533397610,1.2036903,0.09054524,0.19158493,1.0998856,-0.077231675,-4.4613276,209
1747533397620,1.1741594,0.0707766,0.17132819,1.1334414,-0.1683117875,-4.4352286,210
1747533397630,1.1902672,0.07468152,0.13484163,1.17711725,-0.338221475,-4.3593285,211
1747533397640,1.2317569,0.10396838,0.028066583,1.1393003,-0.48043427,-4.3020706,212
1747533397650,1.2600676,0.13789235,-0.004881145,1.045557,-0.4644553,-4.3425508,213
1747533397660,1.3757507,0.19744232,-0.03904916,0.7909589,-0.14274544,-4.5470815,214
1747533397670,1.3415827,0.20012695,-0.0156196635,0.6668556,-0.13102753,-4.7217846,215
1747533397680,1.2863037,0.187069885,0.00500317375,0.6285060499999999,-0.186953915,-4.8038101,216
1747533397690,1.0823939,0.14643435,0.05344854,0.5603291,-0.36645097,-4.9811764,217
1747533397700,0.954996,0.15448824,0.058573738,0.56459016,-0.18429075,-5.1734567,218
1747533397710,0.92180425,0.14594623,0.051007964,0.5219796,-0.11717909,-5.294897,219
1747533397720,0.87226063,0.136428,0.057841565,0.45912898,-0.07882957,-5.376922,220
1747533397730,0.7844,0.13154685,0.0741934,0.40266997,-0.0958738,-5.4243264,221
1747533397740,0.66749656,0.11836776,0.10592084,0.3717773,-0.1784318,-5.4392405,222
1747533397750,0.32850105,0.13252309,0.15936938,0.38029942,-0.47351006,-5.1766524,223
1747533397760,0.27554062,0.16717921,0.15033926,0.4149205,-0.5411543,-4.958806,224
1747533397770,0.2945771,0.17620933,0.12764193,0.42850263,-0.5472795850000001,-4.8884985,225
1747533397780,0.29116032,0.14570218,0.09835507,0.44581318,-0.5928197,-4.789962,226
1747533397790,0.16400647,0.08932495,0.017084008,0.38029942,-0.45593318,-4.844823,227
1747533397800,0.14863087,0.087616555,-0.016351834,0.31691617,-0.21784659,-4.903945,228
1747533397810,0.09737884,0.102504045,-0.042954076,0.20879184,-0.03355583,-5.0099387,229
1747533397820,-0.029286869,0.09567044,-0.05515694,0.0793622,0.07243799,-5.0626693,230
1747533397830,-0.21135357,0.099087246,-0.06418706,0.0087884299999999,0.13821807,-5.01979235,231
1747533397840,-0.259188785,0.108727503,-0.0619905435,-0.20612867,0.32117724,-4.8059406,232
1747533397850,-0.45126185,0.102504045,0.025137896,-0.45540056,0.26897928,-4.4741106,233
1747533397860,-0.5095915,0.07687803,0.07980672,-0.49321744,0.21198763,-4.2472095,234
1747533397870,-0.56560265,0.065285314,0.106164905,-0.4727111,0.19600866,-4.1617219,235
1747533397880,-0.73778505,0.0373407605,0.139844805,-0.4159857799999999,0.18295917,-3.9617184,236
1747533397890,-1.1707426,0.009518232,0.14814276,-0.24501082,0.3153183,-3.278884,237
1747533397900,-1.3022895,-0.020256752,0.1398448,-0.18216023,0.34940675,-2.9758162,238
1747533397910,-1.3977158,-0.08297946,0.14399378,-0.09374327,0.34141725,-2.6578348,239
1747533397920,-1.4277349,-0.13545178,0.15155955,0.017044231,0.3057309,-2.3393207,240
1747533397930,-1.4732516,-0.17962614,0.1333772849999999,0.2247708,0.07350325,-1.7619474,241
1747533397940,-1.6439695,-0.26455808,0.073217176,0.2647182,-0.21358553,-1.3576796,242
1747533397950,-1.6439695,-0.26455808,0.073217176,0.2647182,-0.21358553,-1.3576796,243
1747533397960,-1.8520285,-0.293478845,-0.0244057255,0.2016012999999999,-0.58083546,-0.633566035,244
1747533397970,-1.9052329,-0.28615713,-0.1011617285,0.029294772,-0.7520767,0.20186761,245
1747533397980,-1.7852788,-0.2403964,-0.13032657,-0.32863408,-0.3270362,0.9901633,246
1747533397990,-1.667399,-0.20988922,-0.11006982,-0.48629323,0.03089267,1.2138689,247
1747533398000,-1.5500076,-0.1867038,-0.0707766,-0.61199445,0.40213734,1.3688648,248
1747533398010,-1.50156225,-0.1709621,-0.040269445,-0.664192425,0.65646922,1.54836185,249
1747533398020,-1.3279155,-0.09176553,0.10470056,-0.689226135,0.91160005,1.85755485,250
1747533398030,-1.2998489,-0.0763899215,0.11946603,-0.5640575,0.7882957,2.3094933,251
1747533398040,-1.2032022,-0.026602242,0.14106509,-0.44847634,0.59867865,2.6599653,252
1747533398050,-1.1070436,0.0046370877,0.12642166,-0.32650355,0.4149205,3.0141659,253
1747533398060,-1.0400499,0.01720603685,0.10848345,-0.2727076949999999,0.3387541,3.17422175,254
1747533398070,-0.6389419,0.067359805,0.0065895454,-0.11611383,0.19920446,3.748133,255
1747533398080,-0.56047749,0.0887148124999999,-0.0018304295499999,-0.13528859,0.2237055399999999,3.77955835,256
1747533398090,-0.36730617,0.15717287,-0.012202863,-0.24341293,0.36432046,3.8088531,257
1747533398100,-0.24942651,0.21525851,0.014887493,-0.31638354,0.54435015,3.7705035,258
1747533398110,-0.04905551,0.33875147,0.08859278,-0.47617322,0.92464954,3.6645098,259
1747533398120,-0.0106164919999999,0.361326755,0.108605475,-0.50387011,0.91852427,3.6352149,260
1747533398130,0.05296042,0.4097721,0.16913168,-0.54275227,0.78296936,3.5910065,261
1747533398140,0.051740136,0.43759465,0.19915071,-0.51931643,0.5949502,3.6682382,262
1747533398150,0.046858992,0.4720067,0.19817449,-0.49215218,0.3435478,3.8179078,263
1747533398160,0.15961345,0.5261874,0.20915705,-0.46871635,0.05219796,4.005927,264
1747533398170,0.24942651,0.53985465,0.21916342,-0.38615838,-0.23116238,4.2658515,265
1747533398180,0.27126963,0.54461375,0.21196372,-0.36458677,-0.22929817,4.26478625,266
1747533398190,0.3355787,0.55962324,0.18768002,-0.31798145,-0.06391586,4.2514706,267
1747533398200,0.41904628,0.584029,0.1552204,-0.3273025149999999,0.14301176,4.2133873,268
1747533398210,0.5706058,0.6294237,0.18694785,-0.5539375,1.1408982,3.7385457,269
1747533398220,0.5213063,0.6025773,0.26870704,-0.5933523,1.196292,3.564375,270
1747533398230,0.4583395249999999,0.5747548,0.294943185,-0.5086638,1.0546118,3.5436022,271
1747533398240,0.25821257,0.47664383,0.31995904,-0.3568636,0.7771104,3.6820867,272
1747533398250,0.29604146,0.35168648,0.1867038,-0.27989824,0.46232476,4.03042805,273
1747533398260,0.5835409,0.35412705,0.16254212,-0.2908172,0.04314321,4.5960836,274
1747533398270,0.9308343,0.42807645,0.15375607,-0.3619236,0.124369625,4.5723815000000005,275
1747533398280,1.1458488,0.5020258,0.1552204,-0.5193164299999999,0.36059202,4.3955477,276
1747533398290,1.1692783,0.55401,0.21647878,-0.7238472,0.8111989,3.829093,277
1747533398300,1.08617675,0.55632852,0.25296534,-0.7209177250000001,0.91532845,3.6594497,278
1747533398310,0.5806122,0.4544346,0.39854547,-0.39254996,0.84581995,3.3832798,279
1747533398320,0.519841935,0.41148053,0.400009825,-0.254065575,0.62557654,3.519101,280
1747533398330,0.45980385,0.2923806,0.39659303,0.07669904,0.04474111,3.904727,281
1747533398340,0.514594675,0.265290245,0.39464058,0.143544385,-0.061252705,4.00859025,282
1747533398350,1.0047837,0.21623473,0.4148973,0.3153183,-0.05219796,4.285026,283
1747533398360,1.1279106,0.22880368,0.41550744,0.299073,0.0308926679999999,4.27330825,284
1747533398370,1.4482356,0.32386398,0.38268176,0.2828277,0.113983296,4.2615905,285
1747533398380,1.4743498000000002,0.371333105,0.35913023,0.20799288,0.133957003,4.1433461,286
1747533398390,1.2271198,0.37682438,0.24674188,0.0958738,0.025566347,3.8530614,287
1747533398400,0.95719254,0.24527754,0.19036464,0.15020229,-0.37124467,3.8434741,288
1747533398410,0.84248555,0.16351835,0.12861817,0.10972224,-0.36911413,4.027232,289
1747533398420,0.871162325,0.14558014,0.0984771,0.031957935,-0.2649845349999999,4.1169807,290
1747533398430,1.04676155,0.13325525,0.0766339775,-0.167512835,0.03408846,4.226170550000001,291
1747533398440,1.193684,0.13886857,0.084931925,-0.2892193,0.22903186,4.2456117,292
1747533398450,1.193684,0.13886857,0.084931925,-0.5773733,0.6492787,4.07943,293
1747533398460,1.39088225,0.16290821,0.1087275075,-0.8098673000000001,0.82744415,3.7388118,294
1747533398470,1.9944358,0.302142875,0.28029974,-1.0423613,1.0056096,3.3981936,295
1747533398480,1.9597796,0.32532832,0.30433938,-1.135572,0.8633968,3.0466564,296
1747533398490,1.756724,0.33631086,0.33362624,-1.135572,0.8633968,3.0466564,297
1747533398500,1.756724,0.33631086,0.33362624,-1.0815097,0.4644552799999999,2.713761,298
1747533398510,1.41541,0.272489895,0.32728076,-1.1323761,0.6221144,2.713761,299
1747533398520,1.0720215,0.18414119,0.32496223,-1.02584965,0.3717772749999999,2.760899,300
1747533398530,1.05847625,0.1406990099999999,0.341680155,-0.75473985,0.455134225,2.920955,301
1747533398540,1.1199788,0.006833603,0.37169918,-0.510527985,0.86872315,3.01629625,302
1747533398550,1.2029582,-0.035876416,0.35095432,-0.38775626,0.81918836,2.954511,303
1747533398560,1.2351737,-0.0776102,0.31361356,-0.37284255,0.6332997,2.9289446,304
1747533398570,1.2559186,-0.11861181,0.30458343,-0.3520699,0.44208476,2.9364014,305
1747533398580,1.2627522,-0.14911897,0.2923806,-0.3291667,0.28708878,2.9640985,306
1747533398590,1.2354177,-0.19548985,0.2779812,-0.2657835,0.041012682,3.0999196,307
1747533398600,1.2312689,-0.21281794,0.27334413,-0.24021713,0.002130529,3.2032502,308
1747533398610,1.2727585,-0.20769271,0.2757847,-0.24181503,0.0063915867,3.2836776,309
1747533398620,1.3027776,-0.20281157,0.289940015,-0.253799265,0.01198422535,3.2876724,310
1747533398630,1.3542737,-0.2032996799999999,0.314955875,-0.27616981,0.04394216,3.25970925,311
1747533398640,1.4782547,-0.21647878,0.3121492,-0.47830373,0.2977414,2.9177594,312
1747533398650,1.5131549,-0.18523945,0.28676724,-0.62104917,0.40959418,2.7031085,313
1747533398660,1.4999758,-0.17352471,0.2660224,-0.7637946,0.5486112,2.4714136,314
1747533398670,1.47544805,-0.178161795,0.2626056,-0.8343683749999999,0.6383597,2.372344,315
1747533398680,1.4446968,-0.188778285,0.266510515,-0.979776975,0.8135957,2.1880532,316
1747533398690,1.4440868,-0.21013328,0.33631086,-1.391768,0.99548966,1.7502295,317
1747533398700,1.3659884,-0.20915705,0.3660859,-1.5281218,0.9193232,1.5675366,318
1747533398710,1.2036903,-0.23795582,0.39366436,-1.6468989,0.7526093,1.4572818,319
1747533398720,1.1395033,-0.25870069,0.40818575,-1.6831179,0.66712185,1.474326,320
1747533398730,1.0515207,-0.2867672799999999,0.44394012,-1.75209375,0.47164585,1.5323829,321
1747533398740,0.991482615,-0.288963785,0.5010495500000001,-1.8263959,-0.025033714,1.7406421,322
1747533398750,0.959145,-0.28798756,0.58085626,-1.7550232,-0.112918034,1.8109496,323
1747533398760,1.0143019,-0.30092257,0.6374775,-1.6245283,-0.10705908,1.8594191,324
1747533398770,1.1237616,-0.286279135,0.682628115,-1.4373081,-0.058589546,1.80855275,325
1747533398780,1.2956998,-0.22599702,0.72070104,-1.0279802,0.15073492,1.5563514,326
1747533398790,1.312784,-0.19036464,0.69312257,-0.7451525,0.49960902,1.2351742,327
1747533398800,1.3193735,-0.183042925,0.678601185,-0.647148175,0.64714816,1.11107085,328
1747533398810,1.3716017,-0.15741692,0.6299118,-0.40213734,0.92944324,0.7568704,329
1747533398820,1.457998,-0.12520137,0.55693865,-0.18908444,0.66632295,0.42397526,330
1747533398830,1.4608046,-0.1154390775,0.548518675,-0.140881225,0.529702775,0.37257625,331
1747533398840,1.4360328,-0.093717985,0.54815257,0.021837922,0.13954964,0.24873926,332
1747533398850,1.4160202,-0.088104665,0.5432714,0.15020229,-0.032490566,0.18482338,333
1747533398860,1.4872849,-0.102504045,0.53717,0.4394216,-0.13954964,-0.035153728,334
1747533398870,1.5849078,-0.09811102,0.54888475,0.55606806,-0.17044231,-0.19920446,335
1747533398880,1.61492685,-0.0866403249999999,0.550349075,0.6135923299999999,-0.202400245,-0.30013826,336
1747533398890,1.64811865,-0.0707766,0.5492508300000001,0.7435546,-0.24953819,-0.508930105,337
1747533398900,1.61077785,-0.09786695,0.537292065,0.97258645,-0.21891184,-0.808269425,338
1747533398910,1.5683118500000002,-0.14606826,0.507639095,1.1813783,-0.159789675,-1.0841729,339
1747533398920,1.5885686,-0.19622204,0.44613665,1.2692626,-0.1933455,-1.3464943,340
1747533398930,1.58295525,-0.2126959,0.424293525,1.2681973,-0.23888556,-1.44210175,341
1747533398940,1.5578174,-0.249426515,0.3862206,1.24582675,-0.351537275,-1.6471651500000002,342
1747533398950,1.5153515,-0.2909162349999999,0.36083864,1.19575935,-0.4814995399999999,-1.82266745,343
1747533398960,1.4560456,-0.3109289,0.34119204,1.0002834,-0.68816084,-2.0991037,344
1747533398970,1.4711771,-0.2933568,0.36803833,0.9006811,-0.6828345,-2.2253375,345
1747533398980,1.47727855,-0.28969595,0.388539135,0.8628642,-0.65353975,-2.30736275,346
1747533398990,1.4694687,-0.30629185,0.45467865,0.7882957,-0.51026165,-2.5758095,347
1747533399000,1.3989362,-0.35437113,0.47639978,0.7819041,-0.35633096,-2.7308054,348
1747533399010,1.3445114,-0.364865585,0.4735931,0.71798825,-0.15126756,-2.8698225,349
1747533399020,1.2776396,-0.34290043,0.45589894,0.6040049,-0.13262543,-2.9017804,350
1747533399030,1.2837410500000002,-0.324962215,0.469078035,0.5667206499999999,-0.14141386,-2.9095036,351
1747533399040,1.312784,-0.28432667,0.52301466,0.5001417,-0.17097494,-2.9555762,352
1747533399050,1.3703815,-0.25259924,0.6238103,0.6002765,-0.32330775,-3.0509174,353
1747533399060,1.4160202,-0.22990192,0.63503695,0.70147663,-0.44528055,-3.1057785,354
1747533399070,1.4763023,-0.21623473,0.626739,0.757136715,-0.524642725,-3.15238385,355
1747533399080,1.5221851,-0.22135992,0.59745216,0.9321064,-0.74035877,-3.325223,356
1747533399090,1.5512279,-0.23722363,0.5530337,1.0242518,-0.8612663,-3.4631748,357
1747533399100,1.5365844,-0.22892569,0.4458926,1.0263823,-0.96939063,-3.7912762,358
1747533399110,1.4804512,-0.20818083,0.4166057,0.9353022,-0.9491506,-3.8935416,359
1747533399120,1.4089426,-0.18011424,0.40123013,0.8277105,-0.8788432,-3.9484026,360
1747533399130,1.38160815,-0.16791138,0.403182585,0.7832357000000001,-0.81972102,-3.9555932,361
1747533399140,1.3359693,-0.14301755,0.42075467,0.6828345,-0.6194513,-3.9430764,362
1747533399150,1.3709915499999998,-0.11714748,0.411602535,0.6109292,-0.525708,-3.9665122,363
1747533399160,1.4206573,-0.06589546,0.39830142,0.57151437,-0.57790595,-4.011786,364
1747533399170,1.4177285,-0.03099527,0.39293218,0.5523396,-0.63649553,-4.048005,365
1747533399180,1.4000344,-0.0101283754999999,0.390979725,0.5576659500000001,-0.670583995,-4.073305,366
1747533399190,1.3093672,0.04344219,0.38609856,0.59388494,-0.7286409,-4.1380196,367
1747533399200,1.26031165,0.073095143,0.4015961799999999,0.63383237,-0.75633775,-4.1132523,368
1747533399210,1.19490425,0.118123708,0.41660569,0.69987875,-0.8098673000000001,-4.0450755,369
1747533399220,1.1836777,0.1564407,0.40830776,0.7957525,-0.87831056,-3.8988678,370
1747533399230,1.2207743,0.1637624,0.39317623,0.8740495,-0.9337043,-3.8285604,371
1747533399240,1.2442038,0.17132819,0.35510328,0.9337043,-0.9981528,-3.8131142,372
1747533399250,1.2998489,0.20256752,0.2884757,0.96566224,-1.0391655,-3.8376153,373
1747533399260,1.3352373,0.23942018,0.26480213,0.9598033,-1.0391655,-3.9468048,374
1747533399270,1.32230225,0.24845028,0.255649975,0.9664612,-1.0375676,-4.036819599999999,375
1747533399280,1.26165395,0.24845028,0.240640445,0.98856545,-1.03383915,-4.21951245,376
1747533399290,1.1366966,0.217943135,0.23161033,1.0229202000000002,-1.04422545,-4.35906225,377
1747533399300,0.963538,0.186947855,0.182554825,1.05541075,-1.0591392000000002,-4.3295012,378
1747533399310,0.85871545,0.18816814,0.0977449265,1.0357034,-1.05993815,-4.2152514,379
1747533399320,0.8531021249999999,0.20769272,0.0373407565,0.94249275,-1.0591392,-4.152400699999999,380
1747533399330,0.8812907249999999,0.224288605,0.0096402608,0.812796785,-1.0351708,-4.115116499999999,381
1747533399340,0.90947935,0.239298125,0.0065895458,0.677241885,-0.9297096,-4.1420145,382
1747533399350,0.852492,0.20964517,0.021721095,0.5289038,-0.4990764,-4.4442835,383
1747533399360,0.82906246,0.20622836,-0.006833603,0.50813114,-0.4298342,-4.46452325,384
1747533399370,0.83406563,0.218919345,-0.0420998715,0.44208474,-0.30972564,-4.4836978,385
1747533399380,0.8266219,0.2716357,-0.1483868,0.317182485,-0.256462425,-4.48130105,386
1747533399390,0.75535715,0.38316986,-0.107385196,-0.16724652,-0.6040049,-4.2908854,387
1747533399400,0.7570656,0.4339338,-0.039537273,-0.28442562,-0.6599313,-4.142281,388
1747533399410,0.81417495,0.47469133,0.022697324,-0.3009372,-0.6199839,-3.9883502,389
1747533399420,0.8671353749999999,0.494459965,0.043442192,-0.279099285,-0.6277071000000001,-3.9641154,390
1747533399430,0.92436683,0.514960775,0.066261545,-0.22264027,-0.6580671499999999,-3.9670448,391
1747533399440,0.91130975,0.499463155,0.040513503,-0.15819177,-0.65300712,-4.03495535,392
1747533399450,1.0138137,0.45589894,-0.13447554,-0.14647387,-0.44900897,-4.186489,393
1747533399460,0.9523114,0.4139211,-0.08859278,-0.42876893,-0.28975195,-4.776113,394
1747533399470,0.8816568,0.3764583099999999,-0.039293216,-0.477771115,-0.337422525,-4.930044,395
1747533399480,0.7178943799999999,0.29823795,0.066993714,-0.513990115,-0.42930158,-5.190501299999999,396
1747533399490,0.016351834,0.03099527,0.27920148,-0.13582122,-0.8479505,-5.407815,397
1747533399500,-0.23161033,-0.053692598,0.28798756,0.046871636,-1.0492855,-5.2725263,398
1747533399510,-0.32984339,-0.082613379,0.27151368,0.15606125,-1.1989552,-5.0243196,399
1747533399520,-0.71826047,-0.1986626,0.18645974,0.105993815,-1.1973573,-4.495949,400
1747533399530,-0.8222289,-0.23990828,0.18768002,0.020772656,-1.0077401,-4.3095274,401
1747533399540,-0.8756774300000001,-0.26724269,0.197076225,-0.015712652,-0.893490535,-4.2544,402
1747533399550,-0.92912596,-0.2945771,0.20647243,-0.05219796,-0.77924097,-4.1992726,403
1747533399560,-1.29472375,-0.45358041,0.25650417,-0.028495825,-0.570449135,-4.01151965,404
1747533399570,-1.5053451,-0.5067848850000001,0.274442375,0.048469532,-0.46658584,-3.5505264,405
1747533399580,-1.8550792,-0.5662128,0.268463,0.11132014,-0.6199839,-3.1771512,406
1747533399590,-1.9661251,-0.5764632,0.25015869,0.127831735,-0.7022756,-2.9409288,407
1747533399600,-2.272173,-0.5876899,0.17523311,0.14168017,-0.9155948,-2.1337247,408
1747533399610,-2.4249527,-0.5696296,0.084687866,0.09267801,-0.94116116,-1.504686,409
1747533399620,-2.42422065,-0.5288720499999999,0.0115927195,-0.0466053199999999,-0.7597998800000001,-0.87777789,410
1747533399630,-2.4234886,-0.4881145,-0.061502427,-0.18588865,-0.5784386,-0.25086978,411
1747533399640,-2.2034708,-0.36694007,-0.099697385,-0.535828025,0.12197278,0.53076802,412
1747533399650,-1.8702106,-0.25259924,-0.03294773,-0.7438209,0.66073028,0.9281117,413
1747533399660,-1.5060773,-0.1415532,0.09127741,-0.89162636,1.190433,1.3198626,414
1747533399670,-1.3869773,-0.09200958,0.12593354,-0.82877576,1.3060142,1.8487664,415
1747533399680,-1.33804385,-0.068702114,0.133255255,-0.777643055,1.2431636,2.00509395,416
1747533399690,-1.2316349,-0.02391761025,0.135817855,-0.5997439,1.0061423,2.4831314,417
1747533399700,-1.11802625,0.00780983225,0.121784565,-0.537692235,0.9219864,2.63439895,418
1747533399710,-0.83736044,0.041977845,0.057109397,-0.4215784099999999,0.7741809500000001,2.9172267,419
1747533399720,-0.7321718,0.051740136,0.009274175,-0.21518342,0.5470133,3.4850128,420
1747533399730,-0.65334123,0.050031736,-0.030751213,-0.20559604,0.505468,3.6346824,421
1747533399740,-0.5620638,0.0388051,-0.061258372,-0.23702134,0.47830373,3.762514,422
1747533399750,-0.47273886,0.03465613,-0.088104665,-0.3057309,0.45007423,3.8621163,423
1747533399760,-0.2762728,0.04515059,-0.076389916,-0.5187838,0.3882889,3.9824913,424
1747533399770,-0.231000185,0.05674331,-0.057719538,-0.5688512299999999,0.40799629,4.00273115,425
1747533399780,-0.09469421,0.11177822,0.012446919,-0.69987875,0.5107943,4.033091,426
1747533399790,-0.055645052,0.17596528,0.07809832,-0.7552725,0.56885123,4.01871,427
1747533399800,-0.060648226,0.21867529,0.1267877399999999,-0.75766935,0.5651228150000001,4.020574249999999,428
1747533399810,-0.08371163,0.2518671,0.21037734,-0.58429754,0.39521313,4.1923485,429
1747533399820,-0.08322352,0.2238005,0.20866893,-0.44315,0.20719394,4.318582,430
1747533399830,-0.0752916625,0.21342806,0.186947845,-0.392017315,0.1217064665,4.3966125,431
1747533399840,-0.0418558194999999,0.191462905,0.1356958275,-0.31984565,0.010386329,4.5556035,432
1747533399850,0.29384494,0.19036464,0.10152781,-0.41278997,0.2545982,4.7627974,433
1747533399860,0.43979117,0.2255089,0.13740423,-0.5230448,0.47617322,4.708469,434
1747533399870,0.49982923,0.26919514,0.17913802,-0.577107,0.56592176,4.6634615,435
1747533399880,0.532776965,0.284082635,0.21281792,-0.6745787249999999,0.74967987,4.579572,436
1747533399890,0.6967834,0.29774985,0.30409533,-0.73769563,0.93903065,4.4789042,437
1747533399900,0.7812273,0.32630453,0.307024,-0.73290193,0.7483483,4.2727757,438
1747533399910,0.7423001300000001,0.331795815,0.28408262,-0.7616641,0.57151437,4.2924833,439
1747533399920,0.70117646,0.31898284,0.21623473,-0.8378305,0.44208476,4.4613276,440
1747533399930,0.7822035,0.30629185,0.20012695,-0.9470201,0.35952675,4.621117,441
1747533399940,1.044321,0.36413342,0.3521746,-1.0594054,0.37337518,4.629639,442
1747533399950,1.0553036,0.3961049,0.4417436,-1.0759171,0.7824367,4.2125883,443
1747533399960,0.9637821,0.3939084,0.5264315,-0.9235843,0.93157375,4.0938115,444
1747533399970,0.950603,0.37755655,0.554131985,-0.82584625,0.919056895,4.11245345,445
1747533399980,0.97903565,0.3441207,0.587811885,-0.64421865,0.822117835,4.212322,446
1747533399990,1.1470691,0.3418021599999999,0.53472945,-0.488956385,0.410393128,4.420847650000001,447
1747533400000,1.3520772,0.34631723,0.39586085,-0.4111921,-0.267914,4.5769086,448
1747533400010,1.3905162,0.33521263,0.3751159899999999,-0.41785,-0.4063984,4.5771748,449
1747533400020,1.4289552,0.32410803,0.35437113,-0.4245079,-0.5448828,4.577441,450
1747533400030,1.49314225,0.392932165,0.3574218449999999,-0.46046056,-0.627174435,4.4591967,451
1747533400040,1.4908237,0.44564854,0.39769131,-0.427437365,-0.46898267,4.2378882,452
1747533400050,1.3451215,0.403304605,0.45370245,-0.308127745,-0.137419115,3.9361522,453
1747533400060,1.1304731,0.24845028,0.45345837,0.21145499,0.13156016,3.7891457,454
1747533400070,1.1304731,0.24845028,0.45345837,0.21145499,0.13156016,3.7891457,455
1747533400080,1.1168059,0.1624201,0.351686505,0.311589855,0.04287689585,3.87356775,456
1747533400090,1.2886223,0.08151512,0.24942651,0.186421285,0.03595267635,3.85199615,457
1747533400100,1.3835605,0.061014313,0.27554062,-0.012783173,0.155262293,3.72096875,458
1747533400110,1.402597,0.0588177965,0.29274666,-0.174170738,0.3480751549999999,3.50578535,459
1747533400120,1.42456215,0.054424765,0.32935525,-0.294545615,0.52064799,3.28660715,460
1747533400130,1.4195589,0.051740136,0.37706845,-0.34780884,0.6066681,3.15265015,461
1747533400140,1.40040045,0.0566212809999999,0.4087958849999999,-0.377103615,0.63037025,3.07355425,462
1747533400150,1.385513,0.058817793,0.383658,-0.43995422,0.664725,3.0141659,463
1747533400160,1.3945432,0.04344219,0.32898918,-0.52837116,0.72278196,2.9619677,464
1747533400170,1.3957634,0.026846299,0.29384494,-0.59228703,0.74728303,2.9174930000000003,465
1747533400180,1.3769710000000002,0.0205008095,0.285180895,-0.72784195,0.7827030500000001,2.8277445,466
1747533400190,1.33670155,0.00512520205,0.279201475,-0.88816425,0.818922035,2.746518,467
1747533400200,1.3152245,-0.0039049159,0.2818861,-0.9768475,0.84422207,2.7105653,468
1747533400210,1.24029895,-0.0192805235,0.392444045,-1.2120046,0.885767365,2.66555795,469
1747533400220,1.1844097,-0.04783522,0.45907167,-1.2189288,0.8396947,2.69911385,470
1747533400230,1.211134,-0.071142685,0.481280885,-1.16140455,0.7456851250000001,2.7840687,471
1747533400240,1.2966762,-0.106164895,0.4978768,-1.0812434,0.6306366,2.876214,472
1747533400250,1.33499315,-0.1117782145,0.49055508,-1.06419915,0.62797342,2.861034,473
1747533400260,1.4492118,-0.13276714,0.48128092,-1.0082728,0.644485,2.735599,474
1747533400270,1.41052875,-0.160589665,0.45187199,-0.972320125,0.6695187,2.53772615,475
1747533400280,1.35317535,-0.210865455,0.40672138,-0.962466445,0.727043,2.2865901500000003,476
1747533400290,1.3227903,-0.23844393,0.376946415,-1.05407917,0.781637825,2.19284695,477
1747533400300,1.2927713,-0.2462537699999999,0.355225325,-1.2926984,0.8580705,2.0863204,478
1747533400310,1.2664130999999998,-0.252477225,0.35876416,-1.3811154,0.88869685,2.0594225,479
1747533400320,1.28984255,-0.26150735,0.431005105,-1.598163,0.93343797,1.9779298,480
1747533400330,1.3285256,-0.2565041799999999,0.526553505,-1.73877785,0.932905345,1.887116,481
1747533400340,1.3379217,-0.20769271,0.6230781,-1.6969663,0.908138,1.748099,482
1747533400350,1.3457316,-0.17718557,0.6794554,-1.5654061,0.8825716,1.5856462,483
1747533400360,1.33352875,-0.1709621049999999,0.69849185,-1.5009576,0.85061365,1.5230619,484
1747533400370,1.2381024,-0.13935669,0.759018,-1.1632688,0.5954828,1.2895026,485
1747533400380,1.2324891,-0.1415532,0.7660957,-1.1046792,0.52437641,1.2642026,486
1747533400390,1.223459,-0.14118711,0.76792613,-0.995755915,0.371510985,1.2218583500000002,487
1747533400400,1.1992973,-0.12886222,0.76341105,-0.83996105,0.13315806,1.1776499,488
1747533400410,1.2083274,-0.12568948,0.7485236,-0.779240975,0.068709559,1.160073,489
1747533400420,1.21955405,-0.1355738,0.7455949,-0.561927015,-0.104928546,1.07538445,490
1747533400430,1.22785205,-0.14558015,0.73412422,-0.33688989,-0.23089607,0.95927065,491
1747533400440,1.2265097,-0.14802072,0.71655212,-0.21012342,-0.23489081,0.85673895,492
1747533400450,1.2372482,-0.147776665,0.7008104150000001,-0.105194867,-0.200802345,0.746750375,493
1747533400460,1.2498171,-0.1300825,0.65944266,0.087884314,-0.12996227,0.46658584,494
1747533400470,1.24859685,-0.127519905,0.645531415,0.128098052,-0.11611383,0.42131209,495
1747533400480,1.2473766,-0.12495731,0.63162017,0.16831179,-0.10226539,0.37603834,496
1747533400490,1.2410310999999998,-0.12593354,0.5875678,0.275370865,-0.045007423,0.24074976,497
1747533400500,1.2550644,-0.13972277,0.5486407,0.32650356,-0.0042610575,0.138218065,498
1747533400510,1.2922831,-0.166325015,0.518621665,0.34141725,-0.023435818,-0.04527374,499
1747533400520,1.3186413,-0.17816179,0.53106856,0.331297245,-0.141147549,-0.120374885,500
1747533400530,1.31510245,-0.169009645,0.55608445,0.33928673,-0.3470099,-0.225037115,501
1747533400540,1.3203497,-0.14911897,0.6218578,0.45007423,-0.59122175,-0.2892193,502
1747533400550,1.3530535,-0.15302388,0.62551874,0.517452195,-0.6170544250000001,-0.30679617,503
1747533400560,1.4123594,-0.159003285,0.58134437,0.70653665,-0.55047541,-0.44980792,504
1747533400570,1.49131185,-0.177185555,0.51007965,0.841558935,-0.38589205,-0.6844324,505
1747533400580,1.5465908,-0.20915705,0.44857723,0.79735047,-0.17310548,-1.0897655,506
1747533400590,1.57294895,-0.21196372,0.455166765,0.7597998850000001,-0.1241033125,-1.2261193499999998,507
1747533400600,1.5800266,-0.22233616,0.5100796,0.69481875,-0.0506000625,-1.5060175999999998,508
1747533400610,1.4545813,-0.25650415,0.58964235,0.73982614,-0.0015978967,-2.1076257,509
1747533400620,1.42431815,-0.258822695,0.598794475,0.78589882,-0.0247673983499999,-2.17526995,510
1747533400630,1.3698933,-0.26675457,0.6068483499999999,0.87325053,-0.083889575,-2.2857911,511
1747533400640,1.3354811999999998,-0.2762728,0.601845185,0.96140116,-0.19867182,-2.3835292,512
1747533400650,1.3341389,-0.2854249399999999,0.603065465,0.9901633,-0.3787015,-2.4639566,513
1747533400660,1.3456096,-0.291648415,0.61429208,1.0013486,-0.505468,-2.5268073,514
1747533400670,1.3613513,-0.291404365,0.6288135,1.0098707,-0.537159615,-2.56196105,515
1747533400680,1.3950312,-0.2843267,0.649314315,1.0317086,-0.580302815,-2.6490464,516
1747533400690,1.4648316,-0.26651052,0.6936107,1.0812434,-0.5795039,-2.83893,517
1747533400700,1.4598284499999998,-0.258700685,0.71948077,1.2218584,-0.42663842,-3.1707597,518
1747533400710,1.4238299,-0.25406358,0.7402256,1.3118732,-0.32597092,-3.3172336,519
1747533400720,1.4138237,-0.25674823,0.71045065,1.3475596,-0.285757185,-3.37981785,520
1747533400730,1.4028411,-0.25479576,0.6782351,1.4168017,-0.23435818,-3.5452,521
1747533400740,1.4311516,-0.24064046,0.6469958,1.4157364499999998,-0.27510454,-3.5806201,522
1747533400750,1.44091395,-0.2247767299999999,0.6458975149999999,1.3385048,-0.62051654,-3.613377,523
1747533400760,1.4534829,-0.191829,0.64455518,1.3235911,-0.71665667,-3.61497495,524
1747533400770,1.4562895,-0.174745,0.64431113,1.3086774,-0.8127968,-3.6165729,525
1747533400780,1.4379853,-0.1342314849999999,0.642480715,1.34782585,-0.998419125,-3.66530865,526
1747533400790,1.4132135,-0.117635595,0.6168547,1.4064154000000002,-1.0591392000000002,-3.71111505,527
1747533400800,1.36220555,-0.089080895,0.5276517599999999,1.42772065,-1.061536,-3.78941205,528
1747533400810,1.3097332499999998,-0.0575975085,0.43674044,1.3811152999999998,-1.02451805,-3.8733015,529
1747533400820,1.291551,-0.047103047,0.41123646,1.28550785,-0.9571401,-3.94813625,530
1747533400830,1.21394075,-0.019890666,0.382315665,1.1869709,-0.8775116000000001,-4.02883025,531
1747533400840,1.14950965,0.000122028,0.385244375,1.11613085,-0.8181231,-4.095143,532
1747533400850,1.0850785,0.04515059,0.43368974,1.05807395,-0.74009248,-4.118046,533
1747533400860,1.0939866500000002,0.067969943,0.44076739,1.0263822500000002,-0.69588403,-4.10686075,534
1747533400870,1.0932545,0.118489798,0.4600479,1.030377,-0.7515441,-4.097273550000001,535
1747533400880,1.0179628,0.16107778,0.46712556,1.109473,-0.87618,-4.0139165,536
1747533400890,1.0072243,0.19280522,0.3824377,1.2362394,-0.9603359,-3.8051245,537
1747533400900,1.0626253,0.22013964,0.33118567,1.2000204,-1.0487529,-3.7635794,538
1747533400910,1.0789771,0.24015234,0.29774985,1.1472899,-1.1084076,-3.7918088,539
1747533400920,1.0723876,0.24869433,0.27529657,1.1158645,-1.1190603,-3.8615837,540
1747533400930,1.0352908,0.23649146,0.24234885,1.1142666,-1.0902982,-3.9659796,541
1747533400940,0.8859278,0.18548352,0.12593354,1.0333065,-1.0210559,-4.108725,542
1747533400950,0.84517026,0.20134723,0.079562664,0.9006811,-0.9374327,-4.130563,543
1747533400960,0.82052046,0.23868799,0.06199054,0.72651035,-0.8021441,-4.146542,544
1747533400970,0.8113683300000001,0.256626205,0.0617464835,0.638892355,-0.7046724200000001,-4.15692825,545
1747533400980,0.7551131,0.311173,0.0993313,0.2977414,-0.26365295,-4.2573295,546
1747533400990,0.73485637,0.33460248,0.12349297,0.2396845,-0.25300032,-4.1966095,547
1747533401000,0.7353445,0.38512233,0.12056428,0.18748654,-0.30679616,-4.0575924,548
1747533401010,0.78488815,0.4458926,0.10128376,0.13209279,-0.3616573,-3.921771,549
1747533401020,0.894347825,0.48787045,0.102015928,0.09933591,-0.31292144,-3.9292279,550
1747533401030,1.0416363,0.52203846,0.09030118,-0.02130529,-0.15978967,-4.121508,551
1747533401040,1.0301657,0.5091034,0.059549972,-0.05912218,-0.03195793,-4.294614,552
1747533401050,1.0099089,0.5186216,0.0156196635,-0.14274544,0.1123854,-4.41126,553
1747533401060,0.9545079,0.55108124,0.01952458,-0.28815404,0.18482338,-4.54069,554
1747533401070,0.77048874,0.51398456,0.09664667,-0.36325517,0.082558,-4.6829023,555
1747533401080,0.6723777,0.48128092,0.14130914,-0.31158987,-0.0031957934,-4.6946206,556
1747533401090,0.5662128,0.45760733,0.18060236,-0.22423817,-0.13795175,-4.6860986,557
1747533401100,0.46297657,0.42587993,0.20549619,-0.1107875,-0.27537087,-4.670652,558
1747533401110,0.3704789,0.38805103,0.21940747,0.029827405,-0.3616573,-4.6653256,559
1747533401120,0.18645974,0.30922052,0.20964517,0.31691617,-0.45806372,-4.5630603,560
1747533401130,0.14765464,0.28920785,0.19304928,0.3901531099999999,-0.396544695,-4.53216765,561
1747533401140,0.1300825,0.23844394,0.16766733,0.55074173,-0.2412824,-4.5715823,562
1747533401150,0.08444381,0.1564407,0.14570218,0.6279734,-0.19813919,-4.7116647,563
1747533401160,-0.05588911,-0.018060237,0.10665302,0.68816085,-0.161653885,-4.82804485,564
1747533401170,-0.0867623475,-0.0583296834999999,0.100063473,0.79202414,-0.12197278,-5.08504,565
1747533401180,-0.17913802,-0.19329333,0.122516744,0.8335694,-0.1768339,-5.2682652,566
1747533401190,-0.29506522,-0.30458343,0.16425052,0.9038769,-0.3568636,-5.4403057,567
1747533401200,-0.48494175,-0.42734426,0.17547716,0.95261275,-0.491353235,-5.470399349999999,568
1747533401210,-1.1546348,-0.58891016,0.04368625,1.04688865,-0.928910585,-5.27998325,569
1747533401220,-1.6220044,-0.54864067,-0.056133166,0.98377174,-1.3342438,-4.524178,570
1747533401230,-1.6220044,-0.54864067,-0.056133166,0.98377174,-1.3342438,-4.524178,571
1747533401240,-2.0483723,-0.45419052,-0.1444819,0.89535477,-1.341168,-4.1542650000000005,572
1747533401250,-2.2376387500000003,-0.429540735,-0.193415375,0.339286737,-0.9281117,-1.9659456,573
1747533401260,-2.1274471,-0.45345837,-0.17913802,-0.13475595,-0.30679616,-0.5044027,574
1747533401270,-1.8416561,-0.50666285,-0.10030753,-0.3222425,-0.009054748,-0.20026971,575
1747533401280,-1.6461661,-0.5208182,-0.022209208,-0.45806372,0.2514024,-0.06870956,576
1747533401290,-1.586128,-0.48128092,0.024405725,-0.5486112,0.48309743,0.01438107,577
1747533401300,-1.794797,-0.30507156,0.021232981,-0.5368933,0.63383234,0.5502091,578
1747533401310,-1.8506861,-0.2403964,-0.0034168016,-0.5305017,0.63436496,1.045557,579
1747533401320,-1.83714095,-0.22258021,-0.0179382072999999,-0.5334312,0.61758706,1.32412365,580
1747533401330,-1.7619713,-0.19463565,-0.0429540765,-0.5464807,0.5789712300000001,1.86554435,581
1747533401340,-1.4897255,-0.17035197,-0.055400997,-0.5837649,0.5432849,2.5630262,582
1747533401350,-1.3032657,-0.151803615,-0.045150591,-0.591221775,0.5699164999999999,2.8320055,583
1747533401360,-0.96036524,-0.107873306,-0.027334413,-0.59122175,0.66152924,3.2410672,584
1747533401370,-0.8864159,-0.089324953,-0.021110953,-0.585629125,0.69348717,3.2844766,585
1747533401380,-0.72631437,-0.043198135,-0.0017084008,-0.57417756,0.72491246,3.3811493,586
1747533401390,-0.695075035,-0.03465613,0.0034168016,-0.56858493,0.71372718,3.41230835,587
1747533401400,-0.631132035,-0.0228193525,0.0126909774999999,-0.54727965,0.64714815,3.53454745,588
1747533401410,-0.5706058,-0.031239327,0.0043930304,-0.535828,0.5336975,3.7364151,589
1747533401420,-0.5706058,-0.031239327,0.0043930304,-0.535828,0.5336975,3.7364151,590
1747533401430,-0.529726275,-0.0550349095,-0.019646608,-0.597347015,0.44022054,3.9398807,591
1747533401440,-0.510079635,-0.0585737415,-0.0226973239999999,-0.67191553,0.3901531099999999,4.131361849999999,592
1747533401450,-0.40659937,-0.0169619795,0.0026846294999999,-0.832504165,0.40533313,4.479703199999999,593
1747533401460,-0.259066765,0.042343934,0.0505198475,-0.9928265,0.44900897,4.79395635,594
1747533401470,-0.1261775935,0.082735408,0.11495096,-1.05434555,0.470580575,4.9060755,595
1747533401480,0.0241616684999999,0.123614998,0.201225195,-1.0588729,0.49667954,4.94202825,596
1747533401490,0.23405088,0.26455808,0.3380193,-0.9965549,0.509729025,4.90847225,597
1747533401500,0.22367846,0.2745644149999999,0.323986,-0.8186557299999999,0.53156695,4.852812,598
1747533401510,0.209157065,0.285424945,0.27139165,-0.67591028,0.585362825,4.918858500000001,599
1747533401520,0.20500809,0.28627914,0.2328306,-0.72810825,0.614124975,5.1667988000000005,600
1747533401530,0.30848837,0.32020313,0.088104665,-0.96086855,0.474575315,5.5425708,601
1747533401540,0.37816672,0.343266535,0.029164841,-1.27432265,0.127565415,5.95323035,602
1747533401550,0.48359947,0.276150775,0.0239176095,-1.61174515,-0.2000034,6.4847975,603
1747533401560,0.607702585,0.195855935,0.0501537635,-1.88365385,-0.2101234099999999,6.85764015,604
1747533401570,0.63967407,0.18157859,0.06199054,-2.026133,0.10386328,6.85258,605
1747533401580,0.652365,0.12910628,0.106164895,-2.1387847,0.59228704,6.744722,606
1747533401590,0.726680485,0.0469810205,0.21818718,-2.2383869,1.13583825,6.6078355,607
1747533401600,0.981232165,-0.0364865595,0.451261865,-2.33266285,1.4106765,6.5465825,608
1747533401610,1.3783133,-0.098843185,0.7536487999999999,-2.31615125,1.09216242,6.6065035000000005,609
1747533401620,1.735003,-0.059549968,0.93486127,-2.1254689,0.2673813849999999,6.660299500000001,610
1747533401630,2.02140415,0.052106219,0.96121942,-1.81680855,-0.688959785,6.5449850000000005,611
1747533401640,2.191634,0.172304412,0.8542003499999999,-1.43597655,-1.4559502,6.20303525,612
1747533401650,1.9695419,0.29018408,0.46297657,-0.67484504,-2.1513016,4.7931576,613
1747533401660,1.7386639,0.26211748,0.33313814,-0.60507023,-1.9558256,4.2504053,614
1747533401670,1.4804512,0.25381953,0.3116611,-0.6593987,-1.4093449,3.8136468,615
1747533401680,1.34487745,0.2534534499999999,0.336066815,-0.714259815,-1.058872875,3.66237925,616
1747533401690,1.09801355,0.21574661,0.40220633,-0.8103999150000001,-0.31478564,3.42083045,617
1747533401700,0.97525275,0.07541369,0.495314195,-0.80933465,0.579237535,3.31803235,618
1747533401710,1.0162543,-0.058085624,0.55523026,-0.727043,1.3438311,3.299124,619
1747533401720,1.05444925,-0.046370877,0.5353395649999999,-0.733700885,1.38244695,3.2674325,620
1747533401730,1.0926442,-0.03465613,0.51544887,-0.74035877,1.4210628,3.235741,621
1747533401740,1.2435937,0.0061014311,0.39195594,-0.83383575,1.33451005,2.928412,622
1747533401750,1.128398675,-0.0322155591,0.37060094,-0.92012218,0.9640643,2.6138926,623
1747533401760,0.902889775,-0.0942061,0.40159619,-0.94595483,0.51026165,2.4887241,624
1747533401770,0.7571876,-0.14570218,0.46602729,-0.8884305299999999,0.29481193,2.67248225,625
1747533401780,0.716064,-0.21696689,0.546444175,-0.802943075,0.1984055049999999,2.9654299,626
1747533401790,0.89446985,-0.288719715,0.6066043,-0.67591029,0.16511599,3.33028295,627
1747533401800,1.2271198,-0.294089,0.61160743,-0.572047,0.12357068,3.4679685,628
1747533401810,1.3518331,-0.27724904,0.5791479,-0.5795039,0.11345066,3.2490566,629
1747533401820,1.30119125,-0.266998635,0.54998305,-0.62637553,0.16005598,2.9862026,630
1747533401830,1.1966127,-0.25809054,0.50617475,-0.69588403,0.2314287,2.64025795,631
1747533401840,1.09044775,-0.274442375,0.4855519,-0.73822827,0.287887715,2.515622,632
1747533401850,1.0014889,-0.32069123,0.5004394,-0.7608651200000001,0.316117225,2.494583,633
1747533401860,0.95560615,-0.379631045,0.5425392499999999,-0.7555388199999999,0.2727077,2.57714095,634
1747533401870,0.9717139,-0.424537565,0.58354085,-0.723580895,0.1454085965,2.8162929,635
1747533401880,1.0245523,-0.43588625,0.6045298,-0.67724189,0.0732369314999999,3.0647658,636
1747533401890,1.095695,-0.418314135,0.594035365,-0.631435515,0.171507575,3.1664985000000003,637
1747533401900,1.1914874,-0.401718235,0.573290495,-0.59281965,0.37284255,3.1779501000000003,638
1747533401910,1.3129059,-0.424659615,0.55779283,-0.5605954,0.67804083,2.98993095,639
1747533401920,1.3890518,-0.466027315,0.550471115,-0.5403553999999999,0.87671265,2.74678445,640
1747533401930,1.3960074,-0.4795725,0.54961693,-0.5368933,0.88843054,2.6727486,641
1747533401940,1.3692832,-0.484331625,0.5400986999999999,-0.551807,0.6609966,2.4410534,642
1747533401950,1.34878245,-0.483233365,0.510323705,-0.56379122,0.6085323300000001,2.40909555,643
1747533401960,1.3114417,-0.487504365,0.468345865,-0.64555025,0.49721218,2.34225025,644
1747533401970,1.2943577,-0.496290415,0.43918103,-0.7637946,0.43675841,2.26661645,645
1747533401980,1.3019234,-0.49250753,0.4380827699999999,-0.86179894,0.453802645,2.1606227,646
1747533401990,1.2935034,-0.48738232,0.46200037,-0.9965549,0.531567,1.9489013,647
1747533402000,1.2815446,-0.49214144,0.478108155,-1.051416,0.58349865,1.86048435,648
1747533402010,1.23517375,-0.48274523,0.53533957,-1.1653993,0.686562965,1.639442,649
1747533402020,1.1846538999999998,-0.46248847,0.587811875,-1.2290489,0.747815635,1.4447649500000002,650
1747533402030,1.16049225,-0.458095445,0.60343155,-1.22798365,0.7507451199999999,1.3140037,651
1747533402040,1.1396253500000002,-0.473104985,0.611729475,-1.2175973,0.71639035,1.1709919,652
1747533402050,1.1119248000000002,-0.48726031,0.6472397999999999,-1.21067305,0.65567025,1.032241225,653
1747533402060,1.0225998,-0.46614933,0.73583263,-1.128115,0.36804888,0.84688526,654
1747533402070,1.01039698,-0.456631115,0.7646313650000001,-1.0415623,0.2444781975,0.8639294799999999,655
1747533402080,0.987333595,-0.43881496,0.812222515,-0.85780422,0.0098536944999999,0.913197965,656
1747533402090,0.984770965,-0.42575787,0.828086265,-0.6676545199999999,-0.193611813,0.985902265,657
1747533402100,1.1309613,-0.39708114,0.77732235,-0.49295115,-0.35606465,1.05674235,658
1747533402110,1.1725731,-0.3870748,0.761458625,-0.21092236,-0.49375007,1.0205233,659
1747533402120,1.2495731,-0.369746745,0.731927685,-0.18881813,-0.46046056,0.9574064,660
1747533402130,1.3369455,-0.35827604,0.7145996,-0.14061491,-0.30786142,0.7206514,661
1747533402140,1.3840486,-0.35363895,0.7307074,-0.11930962,-0.18801917,0.5161206,662
1747533402150,1.4841121,-0.31434575,0.7304634,-0.033023197,0.032490566,-0.025566347,663
1747533402160,1.4924101,-0.29384494,0.7165521,0.032490566,0.10066749,-0.26684874,664
1747533402170,1.4853324,-0.293478845,0.7122811,0.076432723,0.119043305,-0.3768372949999999,665
1747533402180,1.4511645,-0.30287504,0.6970275,0.21837921,0.13848437,-0.67963874,666
1747533402190,1.4018649,-0.3236199,0.69336665,0.32650355,0.080960095,-0.8319715,667
1747533402200,1.3263291,-0.367672235,0.705203425,0.458330025,-0.0660464024999999,-0.89056105,668
1747533402210,1.2085714,-0.40781966,0.71093875,0.6450176249999999,-0.30040458,-0.9257148,669
1747533402220,1.1377949,-0.36022848,0.68604493,0.77604514,-0.5587312,-0.8404937,670
1747533402230,1.1514622,-0.3402158,0.6816519,0.8511463,-0.6849651,-0.82185155,671
1747533402240,1.19014525,-0.37035687,0.6816519,0.94568855,-0.741956725,-0.916393775,672
1747533402250,1.2661691,-0.42783237,0.64821607,1.0940266,-0.773382,-1.1872373,673
1747533402260,1.2703179,-0.44418418,0.61624455,1.1084076,-0.7105314,-1.3752564,674
1747533402270,1.2398108,-0.4549227,0.5862255,1.0689929,-0.6061355,-1.5456988,675
1747533402280,1.1831895,-0.46932206,0.55962324,0.9938917,-0.4777711,-1.6868463,676
1747533402290,1.1048472,-0.5142286,0.5332651,0.8127968,-0.1123854,-1.8748654,677
1747533402300,1.1224194,-0.5210622,0.5112999,0.76725672,-0.02077266,-1.9201392,678
1747533402310,1.151218,-0.5137405,0.5008055,0.6013418,0.23861924,-2.1065605,679
1747533402320,1.1462148,-0.5089814,0.50226985,0.55367122,0.271109805,-2.1528995,680
1747533402330,1.1219311,-0.5012936,0.5176454500000001,0.4791027,0.308127745,-2.22267435,681
1747533402340,1.0770246,-0.4944599899999999,0.552423585,0.4503405499999999,0.283892975,-2.23599015,682
1747533402350,1.0290674,-0.47749801,0.615878465,0.4985437699999999,0.151533865,-2.15849205,683
1747533402360,0.9942892,-0.447601,0.6799435,0.624245,-0.033023197,-2.005893,684
1747533402370,1.00197705,-0.44003523,0.6927565,0.6689861,-0.0647148135,-1.96860875,685
1747533402380,1.02967755,-0.42490366,0.71325728,0.7669904000000001,-0.1174454,-1.9116171,686
1747533402390,1.0704351,-0.41758193,0.71813843,0.8844358,-0.148071755,-1.89297495,687
1747533402400,1.1159518,-0.41733788,0.6876312849999999,1.2245215,-0.14753912,-2.0224047,688
1747533402410,1.1692783,-0.42270714,0.60038084,1.29909,-0.12676647,-2.100169,689
1747533402420,1.18831475,-0.426978155,0.58000204,1.3054816,-0.118244355,-2.136388,690
1747533402430,1.2379804,-0.42746626,0.54412562,1.29003525,-0.115581195,-2.2136196000000004,691
1747533402440,1.3071706,-0.408917905,0.506296775,1.2183962,-0.1438107,-2.3118902500000003,692
1747533402450,1.34365715,-0.3930542,0.488846675,0.9491506,-0.21891184,-2.666357,693
1747533402460,1.3210819,-0.39586085,0.500439375,0.9142632,-0.1952097099999999,-2.7382623,694
1747533402470,1.3005811,-0.39976576,0.50715095,0.8468852250000001,-0.121706465,-2.87834455,695
1747533402480,1.24566815,-0.406843425,0.5424172300000001,0.792024105,-0.0210389725,-2.97954475,696
1747533402490,1.201982,-0.3402158,0.622346,0.75687038,0.0695085075,-3.03041115,697
1747533402500,1.19685675,-0.31995905,0.63833175,0.7669903849999999,0.12703279,-3.06902695,698
1747533402510,1.1492655,-0.260165,0.68531275,0.88203895,0.12250541,-3.0919302,699
1747533402520,1.125714,-0.24234883,0.6883634750000001,0.950215875,0.118244353,-3.08580485,700
1747533402530,1.1440183,-0.22709526,0.67811305,1.15927405,0.138484378,-3.0775490000000003,701
1747533402540,1.2476206,-0.21281794,0.63015586,1.3859091,0.15233281,-3.1473238,702
1747533402550,1.26446055,-0.199272755,0.61307183,1.42292705,0.14514228,-3.2269523,703
1747533402560,1.27910405,-0.179748165,0.57780552,1.4900387,0.140881225,-3.3816819,704
1747533402570,1.2309027499999998,-0.1558305549999999,0.56462642,1.59683145,0.144343335,-3.582218,705
1747533402580,1.13144935,-0.12910629,0.5789038,1.7164074,0.1400822749999999,-3.738812,706
1747533402590,1.010030875,-0.1132425625,0.57341252,1.79017695,0.13049489,-3.747334,707
1747533402600,0.8992289,-0.0890808925,0.5198419400000001,1.8186728,0.10759171,-3.6570528,708
1747533402610,0.874213025,-0.0280665849999999,0.455410835,1.7776601,0.10652645,-3.5310853,709
1747533402620,0.9054524,0.029652955,0.416239645,1.5800535,0.13235911,-3.48607785,710
1747533402630,0.897520585,0.0562551949999999,0.3998878,1.3486248,0.097738013,-3.53081905,711
1747533402640,0.8502955,0.11031388,0.43539813,1.1616709,-0.14114754,-3.5595813,712
1747533402650,0.8470006999999999,0.137160175,0.46163429,1.13716985,-0.26764769,-3.53348215,713
1747533402660,0.82125264,0.20574026,0.55742675,1.1712582,-0.64714813,-3.415238,714
1747533402670,0.8866599,0.20476402,0.6252747,1.33930375,-0.825579965,-3.3473273,715
1747533402680,0.904110035,0.2017133099999999,0.61758687,1.59416835,-1.0460897500000002,-3.294863,716
1747533402690,0.94462356,0.1986626,0.57780552,1.74756635,-1.07804765,-3.34546305,717
1747533402700,1.0128375,0.1969542,0.4554108,1.8631475,-0.93636745,-3.4887412,718
1747533402710,1.01637635,0.21281792,0.3891492749999999,1.7598169,-0.845553675,-3.6551887,719
1747533402720,1.0199152,0.22868164,0.32288775,1.6564863,-0.7547399,-3.8216362,720
1747533402730,0.9856252,0.2731000449999999,0.3192268849999999,1.4482270499999998,-0.7126619,-3.99074685,721
1747533402740,0.96121948,0.293722895,0.336921035,1.34249955,-0.658599725,-4.08795215,722
1747533402750,0.94974881,0.304827495,0.3579099599999999,1.2721920999999998,-0.6056028250000001,-4.19314715,723
1747533402760,0.91545873,0.31410167,0.3501001099999999,1.20774355,-0.5488775,-4.32843585,724
1747533402770,0.8701861,0.340093765,0.316298185,1.1443603,-0.4916195399999999,-4.4301686,725
1747533402780,0.8385806849999999,0.384634215,0.277859185,1.087635,-0.42876894,-4.4868939,726
1747533402790,0.798311235,0.4262459899999999,0.25076883,1.03090965,-0.34621095,-4.5422876500000005,727
1747533402800,0.7397374999999999,0.45467864,0.24344711,0.9667275,-0.2066613,-4.5950184,728
1747533402810,0.66700846,0.45248213,0.24137263,0.9337043,-0.04474111,-4.6248455,729
1747533402820,0.6565139799999999,0.449797515,0.254307665,0.927312725,-0.033289516,-4.60140975,730
1747533402830,0.65212095,0.46309865,0.27651687,0.913996905,-0.0093210643,-4.58356675,731
1747533402840,0.66749656,0.4915313,0.2806658,0.90174633,-0.0015978967,-4.6829023,732
1747533402850,0.545468,0.43417785,0.25650415,0.88843054,-0.06977482,-4.9438925,733
1747533402860,0.50873735,0.4289306,0.2654122399999999,0.87458212,-0.0969390649999999,-4.98250825,734
1747533402870,0.4408894,0.4252697549999999,0.288597685,0.857804215,-0.182692855,-5.0448260000000005,735
1747533402880,0.35559142,0.41001618,0.32947728,0.8761800150000001,-0.33289515,-5.106344999999999,736
1747533402890,0.310196775,0.38378002,0.34204623,1.00321275,-0.5933522999999999,-5.159342,737
1747533402900,0.13349932,0.24405725,0.379509,1.2559468,-0.90281165,-5.2112737,738
1747533402910,-0.01513155,0.15717287,0.3275248,1.4365091,-1.026915,-5.334312,739
1747533402920,-0.1991507049999999,0.0904232114999999,0.27566265,1.53158395,-1.041296,-5.3657372,740
1747533402930,-0.59952663,-0.0433201635,0.17413485,1.71161365,-1.03596965,-5.3249907,741
1747533402940,-0.8158834,-0.11031388,0.1244692,1.7965685,-1.0162623,-5.252819,742
1747533402950,-0.99355705,-0.166202985,0.069068203,1.6841831,-0.90014845,-4.4970139,743
1747533402960,-1.50266045,-0.287621465,-0.160711687,1.4098775,-0.712395575,-3.4746263,744
1747533402970,-1.8462931,-0.35278475,-0.35571343,1.0692592,-0.537958535,-2.97075615,745
1747533402980,-1.84067975,-0.36462152,-0.370478915,0.7225155999999999,-0.33129724,-2.53346515,746
1747533402990,-1.81737225,-0.4095280599999999,-0.334846555,0.4266383849999999,-0.1696433625,-2.16861215,747
1747533403000,-1.84629305,-0.44040132,-0.3164202299999999,0.12650015,-0.115314875,-1.66447575,748
1747533403010,-1.9370824,-0.39708114,-0.36096066,-0.129163315,-0.1225054075,-1.114000325,749
1747533403020,-1.9511157,-0.3662079,-0.37755656,-0.328900405,-0.093210635,-0.61891866,750
1747533403030,-1.95319015,-0.302875045,-0.40574516,-0.545948025,-0.004527373,-0.10120012,751
1747533403040,-1.888759,-0.2272172949999999,-0.39110173,-0.7456851,0.139017007,0.357928865,752
1747533403050,-1.5531803,-0.13593988,-0.30458343,-0.99096225,0.4383563099999999,0.92891065,753
1747533403060,-1.4780107,-0.1062869275,-0.2635818199999999,-1.1619372,0.7584683,1.40481755,754
1747533403070,-1.4028411,-0.076633975,-0.22258021,-1.1867046,0.8671253,1.5350461,755
1747533403080,-1.23151285,-0.01549763495,-0.1348416275,-1.14063195,1.03197495,1.89563805,756
1747533403090,-0.92278045,0.0370967,-0.049787678,-1.0205233,0.97258645,2.2503712,757
1747533403100,-0.8293065,0.07004443,-0.029530926,-0.7621967,0.5448828,2.702576,758
1747533403110,-0.81234453,0.083589607,-0.0291648404999999,-0.69668295,0.4327637,2.79978135,759
1747533403120,-0.7868405599999999,0.098477099,-0.0374627875,-0.6311692,0.3206446,2.8969867,760
1747533403130,-0.76450933,0.088958867,-0.06382097,-0.481499515,0.083356945,3.24825765,761
1747533403140,-0.68201795,0.0694342875,-0.11141213,-0.474308995,0.008788432,3.6080507,762
1747533403150,-0.5555962999999999,0.0738273175,-0.14826477,-0.5566006800000001,0.043675842,3.898069,763
1747533403160,-0.37804466,0.117879644,-0.15326795,-0.67830715,0.1818939,3.9633164,764
1747533403170,-0.32203353,0.131546857,-0.14082103,-0.8199873,0.34780884,3.94334265,765
1747533403180,-0.22758338,0.1532679599999999,-0.102382013,-0.98590225,0.4812332099999999,3.87037205,766
1747533403190,-0.177307585,0.16900965,-0.0203787795,-1.1201256,0.54701327,3.7947383,767
1747533403200,-0.12813005,0.16254212,0.04148973,-1.1920309,0.3749731,3.8328216,768
1747533403210,-0.082247294,0.15839316,0.019036464,-1.2879047,0.21997711,3.9824913,769
1747533403220,-0.0368526449999999,0.17596527,0.0108605469,-1.38324585,0.14327807,4.06984295,770
1747533403230,0.070654572,0.217455005,0.0071996889,-1.59496715,-0.0053263225,4.2189798,771
1747533403240,0.35144243,0.3180066,0.14472595,-2.086853,-0.056459017,4.267982,772
1747533403250,0.393542315,0.3365549399999999,0.193171315,-2.14863835,0.0665790265,4.220311499999999,773
1747533403260,0.5098356,0.38585448,0.340948,-2.3089607,0.51505536,4.0256343,774
1747533403270,0.5662128,0.4318593,0.4373506,-2.31987965,0.68310083,3.90712365,775
1747533403280,0.65114475,0.48359946,0.5681652500000001,-2.2921828,0.85807053,3.7478667,776
1747533403290,0.691414215,0.48945682,0.6177088749999999,-2.19151535,0.78936098,3.6826193,777
1747533403300,0.700200265,0.48286727,0.614658175,-2.0599552,0.554736475,3.6631782,778
1747533403310,0.799043485,0.45174998,0.55449805,-1.9528961,0.253266625,3.7478666,779
1747533403320,0.997950085,0.47090846,0.52533323,-2.02346985,-0.020772655,4.0048615000000005,780
1747533403330,1.1951483,0.57011773,0.56291808,-2.227468,-0.0814927275,4.1124535,781
1747533403340,1.389784,0.6485821199999999,0.638819885,-2.3667513,0.0942759075,3.92496715,782
1747533403350,1.5609902,0.6914142,0.7897693,-2.4138892,0.35952675,3.5132422,783
1747533403360,1.2339534,0.8495633,0.85224795,-2.3547671,0.369913085,3.3356093,784
1747533403370,1.06884872,0.856885,0.830892925,-2.295645,0.38029942,3.1579764,785
1747533403380,0.69556318,0.8074634,0.79257593,-1.2756542,-0.0388821515,2.494583,786
1747533403390,0.343510575,0.6584664499999999,0.7520624300000001,-0.6910903,-0.1946770725,2.4961809,787
1747533403400,0.127031798,0.456753135,0.6868991499999999,-0.13209278,-0.33156356,2.6714169,788
1747533403410,0.40000984,0.003172744,0.3961049,0.25539716,-0.370978355,3.08260905,789
1747533403420,0.56291805,0.0168399505,0.34570709,0.06657903,-0.2282329149999999,3.78621615,790
1747533403430,0.8891005299999999,0.0865182935,0.27822526,-0.525974335,-0.148338075,4.2373556,791
1747533403440,1.1471911,0.202079385,0.27444237,-1.041562325,-0.255397155,4.1542651,792
1747533403450,1.15072995,0.3159320949999999,0.37450585,-1.40854595,-0.37284257,3.61843715,793
1747533403460,0.85127175,0.27724904,0.5662128,-1.293231,-0.2657835,2.9017804,794
1747533403470,0.7443746250000001,0.211841695,0.6024552999999999,-1.1422298,-0.1464738715,2.8597025,795
1747533403480,0.6374775,0.14643435,0.6386978,-0.9912286,-0.027164243,2.8176246,796
1747533403490,0.41221267,0.0134231495,0.59964865,-0.6783071350000001,0.30040457,3.03387315,797
1747533403500,0.52350277,-0.08127106,0.55767083,-0.6791061,0.61199445,3.4977958,798
1747533403510,0.7997755849999999,-0.13935669,0.563894265,-0.9816412,0.747283025,3.7593182,799
1747533403520,1.0760484,-0.19744232,0.5701177,-1.2841763,0.8825716,4.0208406,800
1747533403530,1.5277984,-0.10982576,0.642968805,-1.84157585,0.8002799199999999,3.8176415,801
1747533403540,1.6798461,-0.010128377,0.717040175,-2.0743361,0.62557655,3.42908635,802
1747533403550,1.49558285,0.083711638,0.79452833,-1.94916755,0.30173615,2.7478497,803
1747533403560,1.14877745,0.083955695,0.8377264799999999,-1.55315555,0.0471379545,2.2181469,804
1747533403570,0.91008945,-0.017816175,0.837238375,-1.125451885,0.0002663159999999,2.1499700500000003,805
1747533403580,0.78976923,-0.14985115,0.8155172749999999,-0.810932585,-0.01198422525,2.2692797,806
1747533403590,0.78867098,-0.258822715,0.7750038,-0.75633777,0.00585895425,2.515622,807
1747533403600,0.92583115,-0.227827435,0.72668047,-1.3587449,0.15819177,3.0999196,808
1747533403610,1.1858741,-0.041977845,0.7241178,-1.6149409,0.2790993,3.0972564,809
1747533403620,1.1858741,-0.041977845,0.7241178,-1.6149409,0.2790993,3.0972564,810
1747533403630,1.2659249,-0.014643434,0.77097684,-1.7374463,0.4495416,2.9710226,811
1747533403640,1.29936075,-0.084077718,0.84602448,-1.6330504,0.66046395,2.66502535,812
1747533403650,1.1968567,-0.19671014,0.8139309,-1.128115,0.7344999,2.1656826,813
1747533403660,1.1755017,-0.1964660899999999,0.7865965,-1.0796455,0.7299724999999999,2.11960995,814
1747533403670,1.134012,-0.197076235,0.72997523,-1.0293118,0.71372718,2.04717205,815
1747533403680,1.0809295,-0.21025532,0.68409246,-1.0514160499999998,0.67111658,2.026932,816
1747533403690,1.009664785,-0.24649782,0.66273746,-1.11985925,0.5970807,2.0732709,817
1747533403700,0.9193637,-0.33655494,0.699224,-1.3566142,0.3882889,2.3798008,818
1747533403710,0.95865685,-0.34412071,0.70666775,-1.4455639,0.3291667,2.4778051,819
1747533403720,1.07287565,-0.345341,0.7432763250000001,-1.50974605,0.249804505,2.48286505,820
1747533403730,1.20918165,-0.31739645,0.80136195,-1.607484,0.0593884925,2.44478185,821
1747533403740,1.37294405,-0.24625376,0.9054524,-1.5819177,-0.2860235124999999,2.2434469,822
1747533403750,1.51217875,-0.16717921,1.024186275,-1.4239923,-0.6330334,1.96674445,823
1747533403760,1.56196635,-0.10055158,1.0909359,-1.17978035,-0.84422207,1.70495575,824
1747533403770,1.5503736,-0.0417337875,1.11961255,-0.85114625,-0.99815277,1.4176007,825
1747533403780,1.47532605,-0.0305071565,1.1158297,-0.47643952,-1.04236125,1.1693941,826
1747533403790,1.3840486,-0.052228249,1.08337015,-0.1315601589999999,-0.97418435,1.00640862,827
1747533403800,1.33902005,-0.0492995615,0.97208005,0.117978036,-0.6969492749999999,0.845287355,828
1747533403810,1.3696493,0.0134231495,0.7936742,0.083090626,-0.26045716,0.6247776,829
1747533403820,1.39149245,0.0356323572499999,0.7758579999999999,-0.0093210619999999,-0.173904425,0.55473646,830
1747533403830,1.43005345,0.0750476025,0.76511945,-0.17683389,-0.029028459,0.40426785,831
1747533403840,1.5197445,0.107873306,0.8844635,-0.286023495,0.044208476,0.232760275,832
1747533403850,1.5529363,0.107873306,0.94206095,-0.24554345,-0.10279802,-0.2908172,833
1747533403860,1.5653832,0.103968388,0.974642625,-0.1821602175,-0.15313176,-0.42317632,834
1747533403870,1.49570485,0.112998505,1.02247785,-0.0266316075,-0.24767398,-0.67457872,835
1747533403880,1.34085055,0.118489793,1.0036854,0.181893905,-0.246076085,-0.8977516,836
1747533403890,1.0867869,-0.025137896,0.9684192,0.5651228,-0.101200126,-1.1334413,837
1747533403900,1.0474937,-0.04002539,0.92448884,0.65567025,-0.090813798,-1.11053815,838
1747533403910,1.044565,-0.013911263,0.8978866,0.7552725,-0.075101145,-1.026915,839
1747533403920,1.06323535,0.0009762285,0.89044285,0.752343025,-0.0687095574999999,-1.00667495,840
1747533403930,1.12022275,0.019280522,0.8938596750000001,0.754473575,-0.07749799,-0.983771725,841
1747533403940,1.2324891,0.0089080895,0.933396975,0.8439558,-0.183491805,-1.025317025,842
1747533403950,1.3464638,-0.01415532,0.967443,1.0064086,-0.34807516,-1.11479925,843
1747533403960,1.3742863,-0.030751213,0.9581688,1.3124058,-0.5970807,-1.29909,844
1747533403970,1.39137035,-0.043076105,0.94315928,1.3978933,-0.6466155,-1.36460375,845
1747533403980,1.41345755,-0.067115746,0.904354155,1.55182405,-0.7179882200000001,-1.50655025,846
1747533403990,1.4194369,-0.12544543,0.78415596,1.716141,-0.6423545,-1.9419771,847
1747533404000,1.4036952,-0.136916115,0.7601163049999999,1.6985642,-0.5896239000000001,-2.02746455,848
1747533404010,1.3648901,-0.15973547,0.716063975,1.64663255,-0.476972175,-2.18033,849
1747533404020,1.3152245,-0.182188735,0.67786902,1.571265,-0.355532025,-2.294047,850
1747533404030,1.2767855,-0.19378145,0.637355505,1.42345955,-0.23382555,-2.4021713,851
1747533404040,1.287646,-0.17645338,0.61673266,1.230913,-0.19121496,-2.5241442,852
1747533404050,1.29423555,-0.167789355,0.6272271300000001,1.1949603999999998,-0.218645525,-2.55583575,853
1747533404060,1.3024114999999998,-0.149363035,0.6584664499999999,1.139833,-0.278034025,-2.62401265,854
1747533404070,1.2922831499999998,-0.125323393,0.7137454,1.1470235,-0.3520699,-2.7395939,855
1747533404080,1.2632403,-0.09737884,0.77610207,1.2293152,-0.4415521,-2.880475,856
1747533404090,1.2476206,-0.079562664,0.8002637,1.29909,-0.51931643,-2.926814,857
1747533404100,1.2466444,-0.06638357,0.8117344,1.3366406,-0.5648564650000001,-2.9489183,858
1747533404110,1.2793481,-0.033923957,0.80685323,1.490305,-0.57417756,-3.1212249,859
1747533404120,1.2850834,-0.0250158669999999,0.809659895,1.50761555,-0.54062173,-3.17928185,860
1747533404130,1.29252715,-0.0112266325,0.81027003,1.54037245,-0.4737763749999999,-3.29912415,861
1747533404140,1.2837411,-0.0042710016,0.80172803,1.5773904,-0.4069310149999999,-3.414439,862
1747533404150,1.244692,-0.00097622897,0.780251,1.6271915,-0.3528688399999999,-3.50578535,863
1747533404160,1.20600895,0.004026945015,0.751818315,1.71241265,-0.3573962149999999,-3.56677175,864
1747533404170,1.1470691,0.018914437,0.70276284,1.7827201,-0.42903525,-3.58035385,865
1747533404180,1.0931324,0.056133166,0.643823,1.8008296,-0.53343116,-3.5486622,866
1747533404190,1.0628693,0.09005712,0.6164886,1.7949706,-0.7440872,-3.4562504,867
1747533404200,1.0431007,0.1048225875,0.6031874850000001,1.7901769,-0.8013452,-3.427222,868
1747533404210,1.0116173,0.13593988,0.5662128,1.7678064,-1.0231866,-3.2756882,869
1747533404220,1.0162544,0.14631232,0.5660907749999999,1.7600832,-1.0391655000000002,-3.2589103,870
1747533404230,1.0255286,0.17742962,0.55571836,1.7449032,-1.0487529,-3.2549155,871
1747533404240,1.0273590499999998,0.18035831,0.5449798299999999,1.74783265,-1.01386547,-3.27515555,872
1747533404250,1.0434668,0.17620934,0.48896869,1.75182735,-0.91639377,-3.32868515,873
1747533404260,1.0506665,0.1701079,0.3807293,1.71587465,-0.7318367,-3.48501275,874
1747533404270,1.0240642,0.17913802,0.348147665,1.6120114,-0.5946838999999999,-3.68688035,875
1747533404280,0.96329393,0.199516795,0.29604144,1.4674018000000002,-0.60160813,-3.7816888,876
1747533404290,0.90520833,0.22770541,0.27907945,1.3086774,-0.67644295,-3.7739656,877
1747533404300,0.7924539,0.29994637,0.33533466,1.1105382,-0.8522116,-3.685815,878
1747533404310,0.7750038,0.298359985,0.35473721,1.1073423999999998,-0.91266535,-3.61577385,879
1747533404320,0.7563333999999999,0.29225855,0.37035688,1.13983295,-0.954743275,-3.5148401,880
1747533404330,0.76133655,0.29518725,0.34241233,1.19629195,-0.901213725,-3.47542535,881
1747533404340,0.7674380000000001,0.3176405,0.282130185,1.2146678,-0.825846275,-3.4914043,882
1747533404350,0.7592620999999999,0.3469273499999999,0.205374175,1.124653,-0.699079825,-3.5404065,883
1747533404360,0.77414954,0.38975942,0.15375607,0.9108011,-0.60933125,-3.5894086,884
1747533404370,0.77183102,0.40318256,0.14387175,0.850347335,-0.6226470749999999,-3.6216328,885
1747533404380,0.7686583,0.421486865,0.136428,0.721450335,-0.6277071000000001,-3.65811815,886
1747533404390,0.7914777,0.45638704,0.15668476,0.51931643,-0.56245965,-3.6970003,887
1747533404400,0.7084982,0.4898229,0.1552204,0.35153726,-0.40107206,-3.9713058,888
1747533404410,0.7084982,0.4898229,0.1552204,0.35153726,-0.40107206,-3.9713058,889
1747533404420,0.638331735,0.46419686,0.1209303749999999,0.2335592349999999,-0.03914847,-4.1081925,890
1747533404430,0.58610345,0.45089575,0.091277415,0.14620755,0.202133925,-4.2589275,891
1747533404440,0.513130325,0.40830777,0.061136341,0.03914847,0.485494255,-4.4743772,892
1747533404450,0.24918245,0.375116,0.04807928,-0.078296935,0.72784192,-4.587028699999999,893
1747533404460,0.18865626,0.41343296,0.05906185,-0.182426535,0.80134518,-4.519384349999999,894
1747533404470,0.15253578,0.4639528,0.087616555,-0.33822146,0.7749799,-4.3787694,895
1747533404480,0.088836834,0.47762007,0.14570218,-0.36645097,0.65726817,-4.3036685,896
1747533404490,0.0482013045,0.4566311349999999,0.21574661,-0.27057717,0.518783795,-4.21045775,897
1747533404500,-0.0143993775,0.4317372849999999,0.30897647,-0.03648531,0.268446645,-4.104464,898
1747533404510,-0.082125265,0.413555015,0.34570707,0.2420813399999999,0.041278995,-4.088485,899
1747533404520,-0.17572122,0.37572613,0.36449949,0.533431165,-0.19467709,-4.062652,900
1747533404530,-0.261751405,0.32581642,0.3703568849999999,0.8346347000000001,-0.4311658,-4.000866800000001,901
1747533404540,-0.378654825,0.24674188,0.335822775,1.12625085,-0.66365975,-3.9215049,902
1747533404550,-0.50104954,0.1657148749999999,0.26223951,1.47219545,-0.96086855,-3.7864826,903
1747533404560,-0.57878175,0.11617125,0.187680025,1.7222663,-1.1938952,-3.6304213,904
1747533404570,-0.6510227,0.077244121,0.1151950225,1.7747306,-1.28763845,-3.5145738,905
1747533404580,-0.7349784,0.043320164,0.04807928,1.7616811,-1.36593535,-3.4045852,906
1747533404590,-0.9517012,-0.002928687,-0.0429540724999999,1.6008262,-1.4378407000000002,-3.1473238500000003,907
1747533404600,-1.1947822,-0.0341680149999999,-0.127885995,1.36060905,-1.4152038500000002,-2.80164555,908
1747533404610,-1.4008886,-0.016839951,-0.19671014,1.1456919,-1.2399679,-2.49671355,909
1747533404620,-1.4008886,-0.016839951,-0.19671014,0.90361055,-0.96859175,-2.16861215,910
1747533404630,-1.6133404,0.01134866195,-0.258700675,0.6479471,-0.63569655,-1.82453175,911
1747533404640,-1.7049839,0.00976228988,-0.2637038499999999,0.3006709,-0.1491370149999999,-1.232244675,912
1747533404650,-1.6742327499999998,-0.01220286212,-0.23283062,-0.0010652599999999,0.228765545,-0.63196814,913
1747533404660,-1.6234688,-0.025137896,-0.21257387,-0.08468852,0.29933932,-0.44687843,914
1747533404670,-1.5041249,-0.043198135,-0.16254212,-0.23435818,0.34088463,-0.07456851,915
1747533404680,-1.3303561,-0.0053692595,-0.08175918,-0.32437304,0.23595607,0.5448828,916
1747533404690,-1.3137602,0.020012695,-0.08078295,-0.3057309,0.20772657,0.74248934,917
1747533404700,-1.3054622,0.0340459875,-0.085542065,-0.28442562,0.19600865,0.9534117,918
1747533404710,-1.2859375,0.064919226,-0.102992155,-0.27963193,0.186687585,1.0679276,919
1747533404720,-1.27446685,0.070410518,-0.1104358995,-0.27723507,0.17150757,1.30388365,920
1747533404730,-1.24017685,0.078708465,-0.123126877,-0.291616135,0.170708625,1.5456987,921
1747533404740,-1.1094842,0.08029483,-0.14472595,-0.35633096,0.259391895,1.90229595,922
1747533404750,-1.07128925,0.0818812,-0.140332915,-0.4479437,0.39627838,2.22453845,923
1747533404760,-0.998194135,0.089324945,-0.12861817,-0.532632225,0.50360377,2.3835292,924
1747533404770,-0.928881885,0.10116173,-0.1075072225,-0.62664182,0.59947757,2.5196167000000003,925
1747533404780,-0.85371223,0.1132425679999999,-0.0702884885,-0.71053137,0.66632293,2.6415895000000003,926
1747533404790,-0.749743845,0.125689483,-0.005247231,-0.78083885,0.7238472,2.9630332,927
1747533404800,-0.64187056,0.15229172,0.051252022,-0.77870834,0.6823019,3.1212249,928
1747533404810,-0.58891016,0.18084641,0.04881145,-0.78296936,0.6311692,3.270362,929
1747533404820,-0.55852503,0.19365942,0.0524723079999999,-0.78696413,0.5954828249999999,3.350523,930
1747533404830,-0.510201685,0.20952315,0.067969943,-0.790692575,0.55526909,3.4980621,931
1747533404840,-0.37804466,0.20281157,0.13569583,-0.7701862,0.49428272,3.840811,932
1747533404850,-0.3419241899999999,0.206472425,0.142041315,-0.765658835,0.47111322,3.9167111,933
1747533404860,-0.2063504,0.229657865,0.13105874,-0.781105165,0.43409528,4.0674461,934
1747533404870,-0.034168019,0.267364705,0.117879655,-0.92198638,0.455134245,4.21898,935
1747533404880,0.107995331,0.30202083,0.138258435,-1.12119085,0.516120625,4.28076525,936
1747533404890,0.22868164,0.33362625,0.16864356,-1.28630685,0.5528722500000001,4.20060395,937
1747533404900,0.3234978899999999,0.369502675,0.21086547,-1.42053015,0.5789712499999999,4.0677122,938
1747533404910,0.40733156,0.423805415,0.2877435,-1.5001587,0.6138586500000001,3.91005315,939
1747533404920,0.46431892,0.46895601,0.34631723,-1.54889455,0.60267335,3.819772,940
1747533404930,0.5062967700000001,0.49763274,0.35632357,-1.5970977,0.53183328,3.83441935,941
1747533404940,0.575853065,0.5359497049999999,0.3518085199999999,-1.67725885,0.46205847,3.86344775,942
1747533404950,0.675672465,0.575120885,0.35449316,-1.78618215,0.40906155,3.87356775,943
1747533404960,0.79843327,0.62905755,0.41135849,-1.94810245,0.34008567,3.74760025,944
1747533404970,0.85017337,0.679455375,0.4939718899999999,-2.0186762,0.30999196,3.51537265,945
1747533404980,0.7858643000000001,0.694953025,0.55803693,-1.8908444,0.37417414,3.2831451,946
1747533404990,0.65663605,0.67201165,0.6041637049999999,-1.6386431,0.45273739,3.06476595,947
1747533405000,0.5520575350000001,0.5533998,0.60477385,-1.22185835,0.507598515,3.06583125,948
1747533405010,0.6134379350000001,0.46700355,0.55742675,-0.9672601,0.51718587,3.365703,949
1747533405020,0.77463775,0.5170353,0.494581995,-1.04742125,0.418116285,3.42349355,950
1747533405030,0.89581215,0.588910125,0.449675485,-1.2199941,0.189350755,3.49886105,951
1747533405040,0.96488035,0.6191732000000001,0.444306225,-1.36753325,-0.0545948049999999,3.53028645,952
1747533405050,1.02992165,0.585615325,0.52033006,-1.4160028,-0.3006708999999999,3.53774325,953
1747533405060,1.0328503,0.554254,0.6240544,-1.2130699,-0.54861119,3.3593115,954
1747533405070,0.9693954,0.54412565,0.6118515250000001,-0.8745821,-0.66019765,3.0794133,955
1747533405080,0.84944125,0.497998835,0.568409325,-0.60853231,-0.574710185,2.92654775,956
1747533405090,0.8005078,0.37365165,0.45687518,-0.396811,-0.23808661,2.9337382,957
1747533405100,0.93242075,0.389393345,0.39000349,-0.8026768,0.083090626,3.08181,958
1747533405110,1.1152196,0.43173727,0.31861675,-0.974717,0.0596548095,3.0799458,959
1747533405120,1.1661055,0.4583395,0.3141017,-1.1467572,0.036218993,3.0780816,960
1747533405130,1.21992015,0.4849417649999999,0.38048525,-1.55129135,-0.1557949274999999,2.9744847,961
1747533405140,1.1913655,0.4785962649999999,0.45955979,-1.58351565,-0.29987194,2.85251185,962
1747533405150,1.04273467,0.432347415,0.549616925,-1.31480265,-0.45939529,2.6423884500000003,963
1747533405160,0.8319912,0.32239962,0.6050179,-0.931041085,-0.50466903,2.5073662,964
1747533405170,0.8354079750000001,0.285546975,0.5851272350000001,-0.712129265,-0.3888215299999999,2.57208095,965
1747533405180,0.898130655,0.24393522,0.5382682350000001,-0.65673553,-0.25992453,2.73266955,966
1747533405190,1.04322268,0.3088544549999999,0.494215915,-0.7819041250000001,-0.179763375,2.91056885,967
1747533405200,1.2692197,0.41416515,0.490433065,-1.181644575,-0.15632756,2.9822079500000003,968
1747533405210,1.4183387,0.45882761,0.52752975,-1.5209313,-0.15313177,2.88180675,969
1747533405220,1.4272468,0.46785772,0.5513253,-1.5632756,-0.14807177,2.7915256,970
1747533405230,1.3476840499999998,0.42356135,0.6325963800000001,-1.3771206,-0.170442315,2.46155975,971
1747533405240,1.1528043499999998,0.3715771599999999,0.61404803,-1.01599598,-0.234358175,2.2572954000000003,972
1747533405250,0.93815603,0.33679901,0.5359497,-0.65966503,-0.30013825,2.17207425,973
1747533405260,0.82052043,0.319592975,0.456997185,-0.5629923,-0.3174488,2.1875205,974
1747533405270,0.76756,0.3077562,0.42026657,-0.434627895,-0.30812775,2.3465112,975
1747533405280,0.663225575,0.179748165,0.33826335,-0.42504052,-0.30519827,2.5212146,976
1747533405290,0.643823,0.09664667,0.3099527,-0.46339004,-0.2942793099999999,2.7193538,977
1747533405300,0.7995315,-0.05759751,0.29262465,-0.721184,-0.28016454,3.0866039,978
1747533405310,0.8573730799999999,-0.08322352,0.298482015,-0.79761675,-0.29028456,3.11083855,979
1747533405320,0.96292788,-0.128862225,0.3122712549999999,-0.94808535,-0.317715125,3.1276164,980
1747533405330,1.04505315,-0.167911385,0.335944805,-1.0860371,-0.34008567,3.09432695,981
1747533405340,1.1275445,-0.208546915,0.40306054,-1.2277173,-0.30626352,2.97022365,982
1747533405350,1.17391535,-0.23685756,0.4778641,-1.31640055,-0.231961335,2.8051076,983
1747533405360,1.14938755,-0.2550398299999999,0.520818175,-1.32199315,-0.1587244075,2.68020535,984
1747533405370,1.1070436,-0.2788354199999999,0.554009945,-1.30201945,-0.0910801104999999,2.60936535,985
1747533405380,1.0736078,-0.30470549,0.57719537,-1.2689963,-0.037284256,2.61149585,986
1747533405390,1.0493242,-0.32923323,0.59342518,-1.23863625,-0.0055926385,2.66688955,987
1747533405400,1.06738445,-0.35571344,0.6106312300000001,-1.20028675,0.0053263224999999,2.78619925,988
1747533405410,1.1453607,-0.37438382,0.6279593,-1.1741878,0.009054748,2.86822465,989
1747533405420,1.25274585,-0.370234845,0.6361352,-1.18723725,0.0029294772,2.8336035,990
1747533405430,1.35842265,-0.350100115,0.6390639,-1.2178636,-0.0162452828,2.72388125,991
1747533405440,1.45860815,-0.302386925,0.6568801,-1.2333099,-0.0822916799999999,2.42800405,992
1747533405450,1.5229172,-0.22892569,0.68433654,-1.176052,-0.16458336,1.9851203,993
1747533405460,1.52181895,-0.2113535799999999,0.6836043700000001,-1.1422298,-0.16405073,1.87380015,994
1747533405470,1.5159616,-0.17938208,0.68311627,-1.0769823,-0.1568601949999999,1.6498283,995
1747533405480,1.4975353,-0.153145915,0.6847026350000001,-1.0234528,-0.14620755,1.4261228,996
1747533405490,1.3532975,-0.09737884,0.6999562,-0.9901633,-0.14327806,0.9832391,997
1747533405500,1.3229123500000002,-0.086152205,0.7093523850000001,-0.99069595,-0.11451593,0.8852348,998
1747533405510,1.2315128,-0.05588911,0.7470592,-0.96619487,-0.06657903,0.819721,999
1747533405520,1.20942565,-0.049177536,0.766461775,-0.923051655,-0.019441077,0.7941546500000001,1000
