id,timestamp,acc_x,acc_y,acc_z,gyro_x,gyro_y,gyro_z
1,1747532913730,0.277004985,0.2123298049999999,0.035388285,0.3709783499999999,0.3246393429999999,0.168311785
2,1747532913740,0.71423355,0.072729065,-0.76670585,0.63649552,-0.040746365,0.34168358
3,1747532913750,0.7136234,0.07834238,-0.7826916,0.64341974,-0.008522116,0.3089267
4,1747532913760,0.69263446,0.088104665,-0.8327233,0.624245,0.030360037,0.25513083
5,1747532913770,0.6517548799999999,0.102870129,-0.8927614500000001,0.45113948,-0.0061252699999999,0.132625425
6,1747532913780,0.6263729,0.118733852,-0.906550685,0.29987195,-0.0806937799999999,0.02876214
7,1747532913790,0.62100363,0.105066645,-0.90935731,0.214384475,-0.137951745,-0.0279631919999999
8,1747532913800,0.61770886,0.09005712,-0.91423845,0.17204021,-0.16245283,-0.051132694
9,1747532913810,0.6133158,0.059794027,-0.9271735,0.0793622,-0.18375812,-0.07669904
10,1747532913820,0.5747548,0.042954076,-0.92961407,-0.0063915867,-0.15446335,-0.054328486
11,1747532913830,0.5778055200000001,0.040269445,-0.87152848,-0.138750695,-0.059654808,0.0506000645
12,1747532913840,0.59842837,0.04612682,-0.856641,-0.18801917,-0.01438107,0.09427591
13,1747532913850,0.6313761,0.067847915,-0.8395569,-0.19228023,0.05219796,0.084155895
14,1747532913860,0.63674535,0.1077512774999999,-0.8371163699999999,-0.18961707,0.11664646,0.03195793
15,1747532913870,0.63430478,0.1222726875,-0.850417495,-0.18375812,0.151001235,-0.0751011425
16,1747532913880,0.62832538,0.1238590575,-0.8745791249999999,-0.17869812,0.14753913,-0.1422128
17,1747532913890,0.61331585,0.1254454275,-0.8920292,-0.17896444,0.114782248,-0.16618125
18,1747532913900,0.6033095,0.12861817,-0.8978866,-0.17896444,0.092145376,-0.175236
19,1747532913910,0.5876899,0.13276714,-0.8932495,-0.15499598,0.029827405,-0.18269286
20,1747532913920,0.56218585,0.133987435,-0.8850735999999999,-0.094542222,-0.0580569135,-0.179763375
21,1747532913930,0.5520575,0.13471961,-0.8849516,-0.072970614,-0.082025364,-0.17576863
22,1747532913940,0.545589985,0.13569583,-0.921682215,-0.0194410755,-0.0780306225,-0.138484385
23,1747532913950,0.53643787,0.13886857,-0.93522733,-0.0314253,-0.053263225,-0.12836437
24,1747532913960,0.5186216,0.14960709,-0.9408407,-0.07669904,0.007456851,-0.099069595
25,1747532913970,0.54583403,0.1590033,-0.90813699,-0.12996227,0.133158058,-0.0506000635
26,1747532913980,0.5535218,0.1564407,-0.90789294,-0.12996227,0.15819177,-0.04474111
27,1747532913990,0.56901945,0.171084125,-0.907404875,-0.11504856,0.17390442,-0.0572579649999999
28,1747532914000,0.5696296,0.17840585,-0.9100895,-0.10439592,0.17204021,-0.06657903
29,1747532914010,0.5585249999999999,0.19060871,-0.925099,-0.095873805,0.139549645,-0.09134643
30,1747532914020,0.540098695,0.20183534,-0.95243343,-0.102265385,0.0402137295,-0.14114754
31,1747532914030,0.539976665,0.200126945,-0.9487725,-0.1102548675,-0.009853697,-0.156593875
32,1747532914040,0.5363158,0.2020794,-0.94132875,-0.1086569725,-0.0673779765,-0.168578105
33,1747532914050,0.5392445,0.20952315,-0.92656335,-0.09454222,-0.176034955,-0.190416025
34,1747532914060,0.5542540300000001,0.2172109549999999,-0.91069965,-0.07323693,-0.2793656,-0.22770028
35,1747532914070,0.57036178,0.2172109549999999,-0.903133885,-0.0545948025,-0.316117225,-0.27057718
36,1747532914080,0.5764632,0.21574661,-0.90081537,-0.046339005,-0.3270362,-0.29348037
37,1747532914090,0.56987363,0.2135501,-0.91106576,-0.049002163,-0.31851408,-0.3387541
38,1747532914100,0.51386252,0.2147703899999999,-0.930712325,-0.15100124,-0.1984055049999999,-0.4082626099999999
39,1747532914110,0.49177536,0.219651525,-0.911919935,-0.22663502,-0.136353852,-0.4271710549999999
40,1747532914120,0.463220655,0.23417293,-0.88678205,-0.249804515,-0.086286422,-0.44821002
41,1747532914130,0.44906533,0.24332508,-0.87226063,-0.25513083,-0.06870956,-0.45912898
42,1747532914140,0.44003522,0.2443013,-0.8288184,-0.22370553,-0.06870956,-0.4857606
43,1747532914150,0.42734426,0.19915071,-0.8083176,-0.15020229,-0.08468852,-0.5107943
44,1747532914160,0.408795875,0.17913802,-0.8321131749999999,0.034621094,-0.229298165,-0.49348374
45,1747532914170,0.4080637099999999,0.17254847,-0.8451702249999999,0.079894832,-0.30067089,-0.46498794
46,1747532914180,0.413677025,0.17291456,-0.8594476,0.099335909,-0.3451456899999999,-0.44315002
47,1747532914190,0.41807005,0.17401282,-0.8673795,0.103863284,-0.36272255,-0.43356264
48,1747532914200,0.39854547,0.19768637,-0.89617825,0.07190535,-0.35952675,-0.40852892
49,1747532914210,0.39756927,0.20622836,-0.9003272,0.036751624,-0.35952675,-0.4149205
50,1747532914220,0.37523802,0.2178211,-0.89227328,-0.01651159725,-0.34248252,-0.4205131549999999
51,1747532914230,0.35925226,0.22453267,-0.872748735,-0.0396810985,-0.321976185,-0.415453135
52,1747532914240,0.366818025,0.22160398,-0.830160735,-0.02450108185,-0.304133015,-0.41731735
53,1747532914250,0.38194957,0.21647878,-0.8007518,-0.0015978967,-0.29667616,-0.4245079
54,1747532914260,0.38097335,0.19573391,-0.80209413,0.067111659,-0.278034035,-0.456465825
55,1747532914270,0.37536004,0.166080955,-0.812954695,0.09161274,-0.26578349,-0.466585845
56,1747532914280,0.36218095,0.1524137549999999,-0.8284523500000001,0.097471695,-0.258060315,-0.468450055
57,1747532914290,0.35363895,0.14765464,-0.83443177,0.09640643,-0.2561961,-0.46711847
58,1747532914300,0.32728076,0.17328064,-0.8251576,0.091080114,-0.26844665,-0.44474792
59,1747532914310,0.349856085,0.18951045,-0.816859615,0.1222390949999999,-0.296143515,-0.46339004
60,1747532914320,0.358032,0.1901206,-0.82296103,0.13369069,-0.30146983,-0.47351006
61,1747532914330,0.338751465,0.190486675,-0.87189454,0.0529969045,-0.23116239,-0.5235775
62,1747532914340,0.320813255,0.195245795,-0.87323682,-0.0335558305,-0.164050725,-0.5483449
63,1747532914350,0.31483385,0.19793043,-0.8642067,-0.05965481,-0.14061491,-0.5566007
64,1747532914360,0.3059257549999999,0.20635039,-0.8202764,-0.07829694,-0.099069595,-0.5747102
65,1747532914370,0.30787821,0.19939477,-0.800141685,-0.059921125,-0.03142530125,-0.58749333
66,1747532914380,0.31129502,0.198174485,-0.796114735,0.0002663154999999,0.04181163275,-0.5938849150000001
67,1747532914390,0.30311911,0.204031855,-0.8158833299999999,0.0689758735,0.092411695,-0.60134178
68,1747532914400,0.29506522,0.20647243,-0.83223516,0.09054748,0.09534117,-0.60507023
69,1747532914410,0.277005,0.19939478,-0.86664724,0.084688525,0.044208473,-0.590422825
70,1747532914420,0.248206205,0.192805225,-0.8613999999999999,0.0727043,-0.047137952,-0.565122825
71,1747532914430,0.2380778399999999,0.193171305,-0.8224729,0.06657903,-0.11504856,-0.5496765
72,1747532914440,0.246497825,0.188046105,-0.79025737,0.122505415,-0.156593875,-0.53689327
73,1747532914450,0.25211114,0.18523945,-0.77903074,0.15180019,-0.15286545,-0.53476274
74,1747532914460,0.25089085,0.17840585,-0.78488815,0.21411815,-0.09427591,-0.53103435
75,1747532914470,0.219529485,0.18768002,-0.82845233,0.24660872,0.04660532,-0.497212165
76,1747532914480,0.195001735,0.20635041,-0.84651253,0.237287655,0.19334551,-0.428768935
77,1747532914490,0.18243279,0.22514281,-0.84980733,0.23062976,0.314785665,-0.35766253
78,1747532914500,0.17791773,0.23649146,-0.85273606,0.23169503,0.34567833,-0.33609092
79,1747532914510,0.20476402,0.25601605,-0.844438,0.2444782,0.34887412,-0.30360037
80,1747532914520,0.2212379,0.30433938,-0.9171671,0.218645515,0.2364886949999999,-0.34461305
81,1747532914530,0.17803976,0.33155176,-0.9836727,0.116380139,0.1259675175,-0.388022575
82,1747532914540,0.14716652,0.32288772,-0.98977413,-0.0149137009999999,0.0982706475,-0.36751624
83,1747532914550,0.1381364,0.3121492,-0.98525906,-0.08681905,0.10652645,-0.3435478
84,1747532914560,0.12080834,0.30677995,-0.95792466,-0.21465079,0.22796659,-0.26551716
85,1747532914570,0.11067996,0.33826335,-0.861033975,-0.2197107999999999,0.378967835,-0.172572842
86,1747532914580,0.11617125,0.35778794,-0.816615555,-0.149935973,0.533431185,-0.1014664395
87,1747532914590,0.077610207,0.37804468,-0.84126535,-0.0703074529999999,0.61465758,-0.0617853374999999
88,1747532914600,0.046614934,0.38487828,-0.86249834,-0.03568636,0.64768076,-0.03355583
89,1747532914610,0.024649782,0.38170552,-0.90642864,0.0,0.6823019,0.039414786
90,1747532914620,-0.0246497825,0.40159621,-0.97879163,0.0154463339999999,0.69295453,0.16085493
91,1747532914630,-0.047347107,0.42722221,-1.01198335,-0.0194410764999999,0.62051653,0.316383545
92,1747532914640,-0.0339239585,0.457241235,-1.0267488,-0.0812264125,0.5342301,0.4455468649999999
93,1747532914650,-0.027334413,0.47444725,-1.0343146,-0.10865697,0.5139901,0.4676511
94,1747532914660,-0.022697324,0.5037342,-1.0638455,-0.20719394,0.49481535,0.505468
95,1747532914670,0.021965152,0.51996398,-1.08715295,-0.4428836849999999,0.664725,0.502804825
96,1747532914680,0.0092741753,0.5354616050000001,-1.0920341,-0.5840312249999999,0.88017475,0.498011145
97,1747532914690,-0.0065895454,0.54083085,-1.0926442,-0.657268175,1.01706125,0.5219796
98,1747532914700,-0.022453265,0.54717636,-1.0884954,-0.6870956,1.0823087,0.53795856
99,1747532914710,-0.02318544,0.5449798,-1.074096,-0.6812366,1.216532,0.5747102
100,1747532914720,-0.0246497825,0.59281508,-1.0793432,-0.52144695,1.31240575,0.576041765
101,1747532914730,-0.0234294955,0.64797198,-1.1424319500000002,-0.40027311,1.3448964,0.506000615
102,1747532914740,-0.043564218,0.67884522,-1.23810235,-0.387489945,1.33983645,0.40559944
103,1747532914750,-0.06199054,0.69239044,-1.2947236,-0.39947417,1.3326459,0.34993938
104,1747532914760,-0.2418607199999999,0.7093523749999999,-1.41516595,-0.65061028,1.1472898,0.179763375
105,1747532914770,-0.288109575,0.70422718,-1.3934448,-0.7310377299999999,0.9752496,0.1613875699999999
106,1747532914780,-0.3031191,0.70068836,-1.3691611,-0.757403,0.8633968,0.15446335
107,1747532914790,-0.3133695,0.69434285,-1.2773956,-0.6993461,0.6199839,0.14008227
108,1747532914800,-0.31959297,0.67957741,-1.15866175,-0.3752394,0.14008228,0.103863285
109,1747532914810,-0.32093528,0.67506236,-1.1182703,-0.19760656,-0.08468852,0.08575379
110,1747532914820,-0.29982433,0.678235115,-1.09362055,-0.0492684824999999,-0.245010825,0.070041138
111,1747532914830,-0.27871338,0.68140787,-1.0689708,0.099069595,-0.40533313,0.054328486
112,1747532914840,-0.25821257,0.7098405050000001,-1.0489581,0.27457191,-0.5768407,0.020240024
113,1747532914850,-0.25015867,0.71899265,-1.0418804,0.32330775,-0.6311692,0.007456851
114,1747532914860,-0.21599066,0.7426661999999999,-1.00173303,0.452737375,-0.7057377,-0.0364853095
115,1747532914870,-0.20842488,0.737541,-0.99770606,0.582167,-0.7803062,-0.08042747
116,1747532914880,-0.19854057,0.72802275,-0.99136058,0.6066681,-0.7811051499999999,-0.09827065
117,1747532914890,-0.16913168,0.70068836,-0.97476465,0.6689861,-0.7621967,-0.15925704
118,1747532914900,-0.15253578,0.68702114,-0.9693954,0.6844324,-0.7222493,-0.20559604
119,1747532914910,-0.16364038,0.659564705,-0.98965215,0.65833342,-0.576574375,-0.34354779
120,1747532914920,-0.1969542,0.63662332,-0.99453325,0.612793385,-0.517452225,-0.364853085
121,1747532914930,-0.23636944,0.609777,-0.99001818,0.557665945,-0.4431500149999999,-0.343281475
122,1747532914940,-0.2562601,0.596964,-0.98525906,0.52837116,-0.40053943,-0.3190467
123,1747532914950,-0.26284966,0.5227706,-0.92912596,0.50387007,-0.24394555,-0.13848437
124,1747532914960,-0.22453266,0.5020258,-0.9076489,0.5342301,-0.15765914,-0.039414786
125,1747532914970,-0.0737052855,0.54022071,-0.917167155,0.5688512,-0.1190433049999999,0.037816888
126,1747532914980,0.0899350944999999,0.58207655,-0.979523735,0.55606802,-0.101732755,0.0359526745
127,1747532914990,0.20866895,0.595621725,-1.04993425,0.437291055,-0.033822145,-0.056725334
128,1747532915000,0.22599702,0.592571,-1.0709232,0.33502567,0.01917476,-0.13795175
129,1747532915010,0.2023234549999999,0.54449172,-1.0917901,0.1302285825,0.0759000924999999,-0.25646241
130,1747532915020,0.141797255,0.493971865,-1.0994779,0.0479369019999999,0.0753674625,-0.28362665
131,1747532915030,0.036486555,0.43210335,-1.1313274,-0.0308926705,0.0388821535,-0.261788735
132,1747532915040,-0.016717922,0.37719047,-1.1534146,-0.199470775,-0.0412789965,-0.0761664049999999
133,1747532915050,-0.003172744,0.35632357,-1.1499978,-0.3254383,-0.09374327,0.08362326
134,1747532915060,0.185727575,0.325084255,-1.1036269,-0.51558799,-0.023169503,0.349140425
135,1747532915070,0.335456685,0.33997175,-1.05530355,-0.6111954749999999,0.067377977,0.456732125
136,1747532915080,0.47444727,0.35156447,-0.96854118,-0.65034395,0.11451593,0.4910869
137,1747532915090,0.5521795,0.335944805,-0.89215128,-0.6295713,0.21411815,0.49481535
138,1747532915100,0.5615757,0.32069123,-0.8717725,-0.5470133,0.14753912,0.43995422
139,1747532915110,0.5357057,0.30336314,-0.8468786,-0.42237735,-0.0010652645,0.3584615
140,1747532915120,0.472860925,0.28652321,-0.8417534,-0.1880191729999999,-0.36352151,0.20879184
141,1747532915130,0.43027293,0.2263631,-0.888978515,-0.0074568529999999,-0.74808197,0.080693786
142,1747532915140,0.3886611599999999,0.131180772,-0.950358915,0.093743275,-1.03117595,0.0391484685
143,1747532915150,0.37804466,0.088348724,-0.9701275,0.09427591,-1.0721886,0.068176925
144,1747532915160,0.35559141,-0.0223312395,-1.0121054,-0.079894831,-0.94755273,0.458596375
145,1747532915170,0.46029195,-0.0475911645,-0.96866318,-0.343547775,-0.60347232,0.92358435
146,1747532915180,0.5518134,-0.035632357,-0.91472656,-0.50387007,-0.34674358,1.1984226
147,1747532915190,0.6954411,0.0093962044999999,-0.82271698,-0.51159325,-0.20426446,1.24103315
148,1747532915200,0.8390688,0.054424766,-0.7307074,-0.51931643,-0.06178534,1.2836437
149,1747532915210,0.968907225,0.061502425,-0.6490702500000001,-0.309459325,-0.0687095564999999,1.07458553
150,1747532915220,0.99233675,0.057841565,-0.6462636,-0.0953411685,-0.209590785,0.79095885
151,1747532915230,0.92229235,0.039537273,-0.73412424,0.034621093,-0.33076462,0.59388494
152,1747532915240,0.837482465,-0.006101429,-0.7579198,0.11930962,-0.5635249,0.39574575
153,1747532915250,0.8027043,-0.0388051,-0.7678041,0.17044231,-0.6918893,0.33182988
154,1747532915260,0.7185045,-0.13667206,-0.7975791,0.1635181,-0.7185209,0.38029942
155,1747532915270,0.6369893799999999,-0.19134087,-0.73131755,0.0756337775,-0.62131548,0.6546050000000001
156,1747532915280,0.6749403,-0.15485432,-0.6257628,0.045007425,-0.40666471,0.9832391
157,1747532915290,0.80587705,-0.1133645929999999,-0.562674,0.08735169,-0.185622335,1.20028675
158,1747532915300,0.8849516,-0.093473926,-0.5400987,0.12996227,-0.12250541,1.2090752
159,1747532915310,0.96353805,-0.058573738,-0.52472305,0.25832662,0.0015978967,1.1158645
160,1747532915320,0.989164,-0.029774986,-0.5232587,0.3920173,0.053795855,0.9784454
161,1747532915330,1.01540015,-0.0130570625,-0.5408308500000001,0.76565883,-0.10173276,0.55233964
162,1747532915340,1.0102749,-0.035510331,-0.56670093,0.93450323,-0.099069595,0.4231763
163,1747532915350,0.9896521,-0.04905551,-0.58891016,1.0221212,-0.07989483,0.37230992
164,1747532915360,0.91570276,-0.07980672,-0.71020657,1.1142666,-0.02396845,0.3520699
165,1747532915370,0.765363525,-0.0283106399999999,-0.943403275,0.9962886,0.04527374,0.434627905
166,1747532915380,0.74169,0.0314833855,-1.02247785,0.6713829,0.02263687,0.482032165
167,1747532915390,0.790745475,0.056255198,-0.959267035,0.3241066999999999,-0.0713727175,0.411192075
168,1747532915400,0.81417495,0.06955632,-0.90496427,0.2231729,-0.1272991,0.3323625
169,1747532915410,0.8332114,0.09518232,-0.7990434,0.18056233,-0.19867182,0.1635181
170,1747532915420,0.8551765499999999,0.087982635,-0.7451067849999999,0.23568976,-0.21358552,-0.13768543
171,1747532915430,0.78659645,0.079074545,-0.826988015,0.254331885,-0.17763285,-0.413588915
172,1747532915440,0.660662935,0.072485,-0.949626745,0.174703367,-0.13022858,-0.6157228299999999
173,1747532915450,0.60697037,0.06809197,-0.98818773,0.103863284,-0.1107875,-0.64768076
174,1747532915460,0.4759116399999999,0.0501537635,-1.0154002,-0.091080114,-0.042077947,-0.63862604
175,1747532915470,0.41770399,0.051618105,-0.92363467,-0.402936295,0.0996022235,-0.51026167
176,1747532915480,0.398301425,0.0662615415,-0.79879937,-0.48895639,0.166447565,-0.41598576
177,1747532915490,0.412456735,0.07638992,-0.729487125,-0.406664695,0.172572835,-0.38109836
178,1747532915500,0.42392744,0.08273541,-0.6993460250000001,-0.27297401,0.14354438,-0.36112465
179,1747532915510,0.42734426,0.08639627,-0.6967834,-0.19760656,0.11771172,-0.35420042
180,1747532915520,0.4001318299999999,0.0888368375,-0.7835458,0.029561088,-0.0370179425,-0.299605625
181,1747532915530,0.385488415,0.0840777249999999,-0.84297375,0.137152795,-0.123836995,-0.224238165
182,1747532915540,0.395738825,0.07565775,-0.86323053,0.176833895,-0.127299105,-0.147272805
183,1747532915550,0.40342662,0.07272906,-0.86933196,0.19707392,-0.11824436,-0.10333065
184,1747532915560,0.43100512,0.07980672,-0.878118,0.22370553,-0.080960095,-0.04580637
185,1747532915570,0.47371512,0.11006982,-0.92461088,0.28202876,0.00133158055,0.016245283
186,1747532915580,0.4724948399999999,0.111900248,-0.95694845,0.288952985,0.00053263225,0.037284256
187,1747532915590,0.47347106,0.1083614155,-0.9911165,0.27510455,-0.00559263855,0.065247447
188,1747532915600,0.47737598,0.106164895,-1.0050278,0.2625877,-0.008522116,0.0793622
189,1747532915610,0.52594337,0.107019105,-1.03968385,0.118510675,0.0657800815,0.144609645
190,1747532915620,0.545712,0.10421244,-1.0411482,0.082558,0.0974717,0.15073492
191,1747532915630,0.5609656000000001,0.10177187,-1.05701195,0.017044234,0.158724405,0.1496696599999999
192,1747532915640,0.58891015,0.09603653,-1.05627975,-0.048469532,0.21997711,0.1486044
193,1747532915650,0.6016011,0.09274176,-1.0396838,-0.11611383,0.22849922,0.13315806
194,1747532915660,0.5957437,0.09786696,-1.0135698,-0.14807177,0.13528858,0.09321064
195,1747532915670,0.58183247,0.10128376,-0.99209267,-0.14966966,0.06498113,0.07829694
196,1747532915680,0.5607215249999999,0.097988985,-0.968053105,-0.148071765,-0.01358212185,0.047670584
197,1747532915690,0.55693865,0.09469421,-0.96256185,-0.14966966,-0.032490566,0.035153728
198,1747532915700,0.56548065,0.09322987,-0.95328766,-0.1635181,-0.058056913,-0.009054748
199,1747532915710,0.5388784200000001,0.0990872429999999,-0.948284485,-0.209058145,-0.071372718,-0.15632756
200,1747532915720,0.51886575,0.099209273,-0.940596635,-0.23382554,-0.087085366,-0.201068665
201,1747532915730,0.49677855,0.095548415,-0.932054635,-0.252733975,-0.112119078,-0.229298175
202,1747532915740,0.4783522,0.096280585,-0.907404835,-0.2620550499999999,-0.17496968,-0.23489082
203,1747532915750,0.48054871,0.097988985,-0.874457085,-0.2524676799999999,-0.242347665,-0.22450449
204,1747532915760,0.49140927,0.1004295575,-0.858471365,-0.23169502,-0.27057717,-0.2066613
205,1747532915770,0.49653446,0.1128764775,-0.852247955,-0.21784659,-0.27643612,-0.191747595
206,1747532915780,0.506418775,0.133011195,-0.846756675,-0.215982375,-0.268180325,-0.19627497
207,1747532915790,0.534607375,0.153878085,-0.8283303150000001,-0.21784658,-0.250337145,-0.26525085
208,1747532915800,0.5535218,0.16498269,-0.81441903,-0.21837921,-0.23702134,-0.3254383
209,1747532915810,0.48799245,0.188046115,-0.8033144000000001,-0.217580265,-0.1605886249999999,-0.415453135
210,1747532915820,0.4588276,0.19622204,-0.7968469,-0.21624869,-0.13901702,-0.43888897
211,1747532915830,0.43173727,0.20403185,-0.77683425,-0.21038973,-0.13954964,-0.4777711
212,1747532915840,0.42343931,0.184507275,-0.75950615,-0.1510012399999999,-0.1989381399999999,-0.556334375
213,1747532915850,0.42417148,0.16595893,-0.754625,-0.11504856,-0.23861924,-0.5949502
214,1747532915860,0.431249175,0.132889175,-0.76023833,-0.0591221765,-0.28122982,-0.608266
215,1747532915870,0.444672315,0.10836142,-0.78513218,-0.03355583,-0.29188247,-0.59468385
216,1747532915880,0.45467865,0.09567044,-0.8005078,-0.025566347,-0.29348037,-0.5853628
217,1747532915890,0.41074833,0.15522041,-0.852858075,-0.096939065,-0.247141355,-0.5246427300000001
218,1747532915900,0.40049794,0.1769415,-0.8502955,-0.12037488,-0.24607609,-0.5161206
219,1747532915910,0.37706844,0.23331873,-0.814174975,-0.16325178,-0.23622239,-0.52970275
220,1747532915920,0.3713330999999999,0.24893839,-0.7853762,-0.151800185,-0.239418185,-0.56778595
221,1747532915930,0.3743838,0.25015867,-0.7700006,-0.13475595,-0.24767399,-0.5965481
222,1747532915940,0.37755656,0.24356914,-0.70020026,0.082558,-0.31265512,-0.7440872
223,1747532915950,0.34168017,0.20451997,-0.7180164,0.22583607,-0.3536678,-0.7584683
224,1747532915960,0.304949525,0.1475326149999999,-0.80526685,0.3555319999999999,-0.39574574,-0.71479247
225,1747532915970,0.2865232,0.13545178,-0.8371163,0.3888215,-0.40586576,-0.69295454
226,1747532915980,0.23600335,0.13667206,-0.88739216,0.41545314,-0.4346279,-0.6263755
227,1747532915990,0.18389713,0.15033927,-0.91057765,0.36565203,-0.5283712,-0.42770367
228,1747532916000,0.17572121,0.16205402,-0.91057765,0.34301516,-0.531567,-0.3888215
229,1747532916010,0.18609365,0.1769415,-0.88739212,0.2924150949999999,-0.485227955,-0.330498315
230,1747532916020,0.179260055,0.19182899,-0.889710695,0.2330266,-0.380565715,-0.29800775
231,1747532916030,0.1633963299999999,0.218431225,-0.891785205,0.163518095,-0.2793656,-0.2764361349999999
232,1747532916040,0.15570852,0.2294138,-0.88641596,0.13901702,-0.25353295,-0.27217507
233,1747532916050,0.15839316,0.24137263,-0.87274873,0.11025487,-0.2050634,-0.267914
234,1747532916060,0.144847975,0.22843758,-0.8682337,0.086020105,-0.0953411669999999,-0.261256095
235,1747532916070,0.13496366,0.22477673,-0.8668914,0.07563378,-0.058589544,-0.25566345
236,1747532916080,0.1025040399999999,0.209279085,-0.84736675,0.01091896085,0.147539125,-0.20106866
237,1747532916090,0.0783423749999999,0.206106335,-0.84529224,0.0005326322,0.174703375,-0.166447565
238,1747532916100,0.06638357,0.20305562,-0.84907514,-0.0053263223,0.17896444,-0.14168017
239,1747532916110,0.061014314,0.184995395,-0.8706742249999999,-0.061785335,0.171507575,-0.03994741835
240,1747532916120,0.090911325,0.182676855,-0.854688475,-0.124369625,0.193079185,0.05566006665
241,1747532916130,0.1215405099999999,0.19304928,-0.8279642,-0.178698115,0.240217135,0.13262542
242,1747532916140,0.1342314849999999,0.22526483,-0.8124665499999999,-0.20719394,0.27403928,0.149669655
243,1747532916150,0.13886857,0.24747404,-0.8053889,-0.22104238,0.28495824,0.15180019
244,1747532916160,0.166935155,0.2646800849999999,-0.760482375,-0.187486545,0.3755057149999999,0.161653885
245,1747532916170,0.16937573,0.2651681999999999,-0.74779141,-0.059122177,0.47004795,0.16538231
246,1747532916180,0.1592473549999999,0.27932353,-0.757431655,0.093476953,0.50626695,0.16724652
247,1747532916190,0.158393155,0.28542495,-0.81100222,0.186421275,0.48655954,0.168844415
248,1747532916200,0.15863721,0.28286234,-0.8505395,0.22530343,0.47830373,0.17044231
249,1747532916210,0.123370935,0.27590671,-0.9844049,0.222373955,0.45859635,0.217313945
250,1747532916220,0.09567044,0.27993366,-1.0482259,0.20399815,0.4543353,0.24234766
251,1747532916230,0.08908089,0.26577836,-1.0821499,-0.05273059,0.5075985,0.5028048
252,1747532916240,0.1099477949999999,0.28835363,-1.0456633000000002,-0.22423816,0.5448827700000001,0.7060040350000001
253,1747532916250,0.12129646,0.3053156,-1.0169866,-0.2615224,0.55553544,0.7680557
254,1747532916260,0.1683995,0.34265637,-0.93522733,-0.2444782,0.56672066,0.84581995
255,1747532916270,0.178283815,0.409039955,-0.93107845,-0.0809601005,0.69455242,0.805606235
256,1747532916280,0.150339265,0.43039498,-1.00392955,-0.0162452825,0.83729787,0.7520767150000001
257,1747532916290,0.121540515,0.42685615,-1.06909285,-0.0551274344999999,0.97418435,0.73583141
258,1747532916300,0.10640897,0.4288086,-1.0982577,-0.090014845,1.0476876,0.73343456
259,1747532916310,0.08322352,0.43198135,-1.1399914,-0.33422673,1.3387711,0.8080031000000001
260,1747532916320,0.026114127,0.46858993,-1.2012498,-0.61625549,1.51134395,0.85354315
261,1747532916330,0.0148874919999999,0.51044572,-1.1761119,-0.87005475,1.5925704,0.871918975
262,1747532916340,0.02391761,0.5232587,-1.146825,-0.92784536,1.5877767,0.86659265
263,1747532916350,0.058573738,0.5442477,-1.0823939,-0.94542223,1.5313177,0.7840346
264,1747532916360,-0.0771220904999999,0.58561537,-1.11082655,-0.8325041799999999,1.30148685,0.557399625
265,1747532916370,-0.1585151775,0.5680432200000001,-1.172329,-0.8330368,1.27245835,0.5166532749999999
266,1747532916380,-0.2494265,0.5318007,-1.2395668,-0.8431568,1.2825783,0.5070659
267,1747532916390,-0.29579738,0.5112999,-1.2712942,-0.8974853,1.3539511,0.53103435
268,1747532916400,-0.469078,0.56767714,-1.347196,-0.9709886,1.4567492,0.598146
269,1747532916410,-0.502147795,0.6613951499999999,-1.29960485,-1.1185277,1.5747272,0.9158611
270,1747532916420,-0.4793284399999999,0.75938415,-1.2075953,-1.026914915,1.44077025,1.018659165
271,1747532916430,-0.405012995,0.84639055,-1.1066775999999998,-0.8237157150000001,1.1560783,1.0817761
272,1747532916440,-0.34778157,0.8815348,-1.0545714,-0.6961503,0.9763149,1.1004182
273,1747532916450,-0.065163285,0.93278676,-0.9696394,-0.33449304,0.5613944,1.0386329
274,1747532916460,0.053936653,0.9225364,-1.0282133,0.45859635,-0.23702134,0.75101143
275,1747532916470,0.13764828,0.9071608,-1.1143653,0.65460503,-0.4463458,0.5933523
276,1747532916480,0.22819353,0.8821449,-1.21943205,0.7478156499999999,-0.5962818,0.307062485
277,1747532916490,0.237955815,0.89312747,-1.2583592,0.68043765,-0.689492425,-0.025300035
278,1747532916500,0.2277054,0.90789294,-1.2688537,0.6103965,-0.7488809,-0.25300032
279,1747532916510,0.173524705,0.8814127350000001,-1.2172355499999998,0.47803741,-0.7627293500000001,-0.52650696
280,1747532916520,0.15875924,0.840045065,-1.1714747499999998,0.41385524,-0.73449985,-0.67883977
281,1747532916530,0.15473229,0.79281998,-1.1242497,0.37257624,-0.67804085,-0.82398205
282,1747532916540,0.142041315,0.72838885,-1.0683606,0.34647726,-0.59228705,-0.95820535
283,1747532916550,0.13203497,0.6879974,-1.0352908,0.3355583,-0.5422196,-1.0189254
284,1747532916560,0.148386805,0.653951365,-0.9955095,0.38908784,-0.54062173,-1.0476876
285,1747532916570,0.14765464,0.64479923,-0.9942892,0.41225734,-0.55127436,-1.0450244
286,1747532916580,0.17645339,0.597086075,-1.02089145,0.45806372,-0.60666812,-0.98723387
287,1747532916590,0.2183092099999999,0.588300025,-1.0420024,0.48735848,-0.62690815,-0.89934952
288,1747532916600,0.24869433,0.59013045,-1.0555476,0.50333744,-0.6295713,-0.8378305
289,1747532916610,0.311295035,0.5697516499999999,-1.09484085,0.43089947,-0.4833637349999999,-0.7866977749999999
290,1747532916620,0.3132474899999999,0.5368039,-1.10460315,0.36458676,-0.37923415,-0.7539408999999999
291,1747532916630,0.29360089,0.50251387,-1.038463585,0.33182988,-0.33768883,-0.7307714
292,1747532916640,0.29128235,0.4804267,-0.968663185,0.415719465,-0.5331648600000001,-0.63942497
293,1747532916650,0.294089,0.473227,-0.9623177,0.50120693,-0.67537767,-0.60240704
294,1747532916660,0.24442333,0.410626335,-1.01893895,0.5699165,-0.80107886,-0.58696073
295,1747532916670,0.191951025,0.3648656,-1.0720214,0.51478906,-0.8269115,-0.4902879599999999
296,1747532916680,0.155708525,0.319959055,-1.1192465,0.356863595,-0.7017429500000001,-0.35553202
297,1747532916690,0.16046764,0.29396696,-1.12986305,0.036218995,-0.395479435,-0.18322549
298,1747532916700,0.17645338,0.28871974,-1.1199788,-0.17417073,-0.18961707,-0.09427591
299,1747532916710,0.3219115,0.31922689,-1.0756823,-0.4183826149999999,0.084155892,-0.120641195
300,1747532916720,0.4296627899999999,0.30897648,-1.0903258,-0.578704925,0.3155846,-0.19627497
301,1747532916730,0.49433799,0.290428125,-1.1396254,-0.86339685,0.58775966,-0.32676987
302,1747532916740,0.5122762,0.28457075,-1.171963,-1.0641992,0.73343456,-0.40852892
303,1747532916750,0.5022698,0.28579104,-1.1524384,-1.2420983,0.64821345,-0.44368264
304,1747532916760,0.473227,0.26992732,-1.0833701,-1.3843112,0.4133226,-0.4362258
305,1747532916770,0.432225375,0.254185615,-0.87287073,-1.30601425,0.0420779449999999,-0.406931025
306,1747532916780,0.4127008,0.25748038,-0.80441266,-1.2367721,-0.08362326,-0.39627838
307,1747532916790,0.32630454,0.27761512,-0.664445845,-0.65673553,-0.668719725,-0.27084349
308,1747532916800,0.31019676,0.27212384,-0.66700846,-0.55127436,-0.74675035,-0.22264028
309,1747532916810,0.2478401449999999,0.25418562,-0.682628125,-0.34274883,-0.721184045,0.02956109
310,1747532916820,0.22782744,0.25894474,-0.6854348,-0.249005565,-0.5054679950000001,0.418382615
311,1747532916830,0.22965786,0.26211748,-0.690438,-0.21038973,-0.33129725,0.69987875
312,1747532916840,0.3746279,0.27358818,-0.6633476,-0.16298546,-0.11824436,0.902279
313,1747532916850,0.4978768,0.31776255,-0.6616392,-0.06231797,-0.013315806,0.89162636
314,1747532916860,0.56474847,0.35363895,-0.7138674,0.03888215,-0.010120012,0.7707188
315,1747532916870,0.544003575,0.3405819,-0.8914191250000001,-0.00639159,-0.187486545,0.397343645
316,1747532916880,0.48713825,0.2898179899999999,-0.98843188,-0.176567585,-0.319313015,0.1177117225
317,1747532916890,0.41465325,0.219041375,-0.97830346,-0.26365295,-0.35100463,0.037284255
318,1747532916900,0.3743838,0.18109047,-0.95743656,-0.4564658,-0.3121225,-0.018109497
319,1747532916910,0.33265,0.07004443,-0.8327233,-0.598146,-0.15978967,0.058056913
320,1747532916920,0.384512185,-0.085664096,-0.62588485,-0.573112275,0.409594185,0.65114291
321,1747532916930,0.43661842,-0.14936304,-0.5715821,-0.5139901,0.67484504,0.9896307
322,1747532916940,0.67872318,-0.15326795,-0.635281035,-0.4644553,0.907339,1.35208695
323,1747532916950,0.77122086,-0.136428,-0.6640798,-0.4543353,0.948618,1.4199976
324,1747532916960,0.97085977,-0.10348027,-0.70459324,-0.4282363,0.90174633,1.4066817
325,1747532916970,1.1874606,-0.177795705,-0.756699505,-0.438356325,0.569117535,1.2420983
326,1747532916980,1.206131,-0.1757212249999999,-0.68714321,-0.4183826149999999,0.259924525,1.1387676999999998
327,1747532916990,1.2138187500000002,-0.1524137549999999,-0.5848832150000001,-0.300670895,0.0186421329999999,1.1052119
328,1747532917000,1.2173575,-0.14350566,-0.53058046,-0.22050974,-0.087884314,1.0988203
329,1747532917010,1.2174796,-0.0916434999999999,-0.453336345,0.12250541225,-0.33502567,1.05248125
330,1747532917020,1.21381875,-0.0424659624999999,-0.54534591,0.3339604,-0.40772997,0.950215875
331,1747532917030,1.20954775,-0.0102504044,-0.6894617000000001,0.377369925,-0.394414155,0.79894835
332,1747532917040,1.16818,0.0226973241,-0.78269157,0.20612867,-0.31025827,0.657800795
333,1747532917050,1.138527,0.044174362,-0.82393724,0.08628642,-0.25726137,0.58429754
334,1747532917060,1.1416998,0.127031795,-0.7637771250000001,-0.38482679,-0.0569916465,0.26418558
335,1747532917070,1.1676919,0.150339265,-0.6605409250000001,-0.668719775,0.1763012735,-0.17283916
336,1747532917080,1.14670295,0.136305975,-0.6031875,-0.782703075,0.38402784,-0.6064017899999999
337,1747532917090,1.0778788,0.120076165,-0.57268035,-0.7355651000000001,0.468716355,-0.8692557999999999
338,1747532917100,1.03163,0.11275445,-0.5662128,-0.6961503,0.49641323,-0.9896307
339,1747532917110,0.8095379,0.10055159,-0.62917957,-0.573911235,0.45673215,-1.17338875
340,1747532917120,0.6598088,0.091033353,-0.64955837,-0.46339005,0.2798982399999999,-1.1946941
341,1747532917130,0.57341252,0.099209275,-0.6253967,-0.317182495,0.0407463624999999,-1.1747204
342,1747532917140,0.55535227,0.12032022,-0.59293708,-0.141680175,-0.1693770475,-1.154214
343,1747532917150,0.5430273999999999,0.139844795,-0.61563441,0.09853696,-0.35499937,-1.1262508
344,1747532917160,0.5344854,0.14887492,-0.65090066,0.23276028,-0.4250405,-1.107875
345,1747532917170,0.49055508,0.154610265,-0.72253148,0.207193935,-0.3826962499999999,-1.0351707
346,1747532917180,0.44662476,0.16034561,-0.7941623,0.18162759,-0.340352,-0.9624664
347,1747532917190,0.373041515,0.224532665,-0.82894043,0.005060008,-0.191747595,-0.8178567999999999
348,1747532917200,0.35119838,0.24674188,-0.82857436,-0.06018744,-0.13209279,-0.7680557
349,1747532917210,0.4150193599999999,0.31519993,-0.7568215300000001,-0.2676477,0.154729665,-0.664458725
350,1747532917220,0.44174363,0.31654225,-0.7145996299999999,-0.247141355,0.210656045,-0.66179555
351,1747532917230,0.44174363,0.3090985,-0.680309595,-0.15499598,0.19307918,-0.641022885
352,1747532917240,0.43051702,0.3048275,-0.66944903,-0.09427591,0.17204021,-0.62104917
353,1747532917250,0.4229512,0.29213652,-0.6958072,0.02396845,0.09374327,-0.53529537
354,1747532917260,0.47359309,0.34887983,-0.80050778,0.159523355,-0.0628506024999999,-0.35180359
355,1747532917270,0.50837124,0.377190485,-0.8362621800000001,0.14594123,-0.1169127725,-0.3470099
356,1747532917280,0.54388155,0.38731885,-0.8570070700000001,0.0985369625,-0.17124126,-0.381364675
357,1747532917290,0.57914785,0.36486557,-0.85346817,0.022903185,-0.21678132,-0.439421595
358,1747532917300,0.5858594500000001,0.3319178499999999,-0.84346177,-0.1126517175,-0.17576864,-0.50466903
359,1747532917310,0.55645055,0.3178845649999999,-0.8347977950000001,-0.25672873,-0.0439421599999999,-0.533431175
360,1747532917320,0.522282525,0.3137356,-0.813930925,-0.35233621,0.110521185,-0.51612064
361,1747532917330,0.49006695,0.314711835,-0.7825695500000001,-0.39414784,0.19228023,-0.50120693
362,1747532917340,0.443452005,0.334114375,-0.7320496999999999,-0.42557316,0.39254994,-0.40213734
363,1747532917350,0.41343296,0.35168648,-0.699224,-0.4063984,0.43782368,-0.34887412
364,1747532917360,0.39793533,0.3735296099999999,-0.65504965,-0.227700275,0.184290749,-0.265517165
365,1747532917370,0.42258513,0.3818275599999999,-0.6227120749999999,-0.040480051,-0.064448501,-0.241548715
366,1747532917380,0.4510178,0.387806965,-0.607336475,0.154463339,-0.27696876,-0.2479403
367,1747532917390,0.48408754,0.37194325,-0.642114625,0.389620465,-0.46418898,-0.28495824
368,1747532917400,0.5022698,0.35437113,-0.67677075,0.5273059,-0.55287224,-0.31372038
369,1747532917410,0.4934837549999999,0.33094164,-0.767316015,0.55127433,-0.48655954,-0.34567832
370,1747532917420,0.486406105,0.32032515,-0.82393727,0.4889563799999999,-0.3779025649999999,-0.3520699
371,1747532917430,0.46419689,0.318738775,-0.85712904,0.321976185,-0.165382311,-0.3406183
372,1747532917440,0.432591465,0.326182515,-0.8561528199999999,0.140082275,0.028762139,-0.31531827
373,1747532917450,0.423805415,0.33911754,-0.83406563,0.0463390049999999,0.10066749,-0.29507825
374,1747532917460,0.44552651,0.35376097,-0.8123445499999999,0.0010652644999999,0.1334243749999999,-0.30093721
375,1747532917470,0.46920006,0.36035052,-0.8049008200000001,-0.0077231672,0.1379517499999999,-0.33209619
376,1747532917480,0.471152515,0.351320405,-0.81149038,0.0295610883,0.023702135,-0.40133838
377,1747532917490,0.449675485,0.336432905,-0.81893411,0.06231797,-0.08362326,-0.4511395
378,1747532917500,0.43320164,0.32996538,-0.82100856,0.10759171,-0.23595607,-0.4644553
379,1747532917510,0.4036707,0.3109289,-0.8190561,0.13209279,-0.36804888,-0.4495416
380,1747532917520,0.390125515,0.296407535,-0.79306405,0.1603223,-0.479369025,-0.3922836349999999
381,1747532917530,0.3914678299999999,0.303363165,-0.7684142700000001,0.18056232,-0.48096692,-0.331563565
382,1747532917540,0.40916199,0.3127593749999999,-0.75084212,0.193611815,-0.444481595,-0.27909929
383,1747532917550,0.42612398,0.31434575,-0.7482795,0.19547603,-0.42717105,-0.26418558
384,1747532917560,0.46492904,0.31703037,-0.7541369,0.1965413,-0.360592,-0.2561961
385,1747532917570,0.5026359,0.314833865,-0.8001417,0.15686019,-0.2149171,-0.29454562
386,1747532917580,0.485551875,0.3173964649999999,-0.816859585,0.08362326,-0.115314875,-0.3470099
387,1747532917590,0.441377505,0.320813255,-0.820886555,0.0106526445,-0.056459016,-0.39468049
388,1747532917600,0.42246306,0.31947094,-0.81978834,-0.012250541,-0.048469532,-0.40959418
389,1747532917610,0.372065265,0.30348518,-0.796114745,-0.030360037,-0.0250337145,-0.419447875
390,1747532917620,0.315443995,0.294455065,-0.7883049200000001,-0.0151800185,0.019441077,-0.3603256999999999
391,1747532917630,0.245155515,0.291526395,-0.78586435,0.010652645,0.03435478,-0.2479403
392,1747532917640,0.2123298049999999,0.2934788499999999,-0.77061075,0.042077945,-0.011185275,-0.13369069
393,1747532917650,0.20525214,0.29579738,-0.759018,0.0628506,-0.040480047,-0.07563378
394,1747532917660,0.208058805,0.31971501,-0.72448398,0.158990715,-0.066312715,0.0830906315
395,1747532917670,0.25198912,0.34534101,-0.73119551,0.2476739849999999,0.0221042349999999,0.148338085
396,1747532917680,0.28749946,0.3653537,-0.74510676,0.31185617,0.151267555,0.134489645
397,1747532917690,0.303851275,0.39598289,-0.800263715,0.312921425,0.24154873,0.062850604
398,1747532917700,0.29872608,0.4036707,-0.82344913,0.30519825,0.283893,0.023435818
399,1747532917710,0.22892569,0.393542315,-0.863352525,0.25672874,0.33768883,-0.022370555
400,1747532917720,0.1583931475,0.38304784,-0.838458675,0.12596752,0.378168885,0.0681769205
401,1747532917730,0.117635585,0.3778006,-0.80514485,0.07084008,0.3749731,0.14327806
402,1747532917740,0.1372822,0.412944885,-0.69422083,0.2617887399999999,0.23755397,0.2644519
403,1747532917750,0.13886857,0.42587993,-0.6711574,0.37444046,0.18322548,0.30360037
404,1747532917760,0.16717921,0.4544346,-0.6706693,0.5773733,0.11451593,0.35473305
405,1747532917770,0.15326795,0.472860915,-0.821008595,0.84555365,0.1568601949999999,0.40746366
406,1747532917780,0.11836776,0.47713193,-0.91375035,0.9310411,0.20399815,0.43516052
407,1747532917790,0.081881205,0.46419687,-1.01186135,0.884169485,0.333427765,0.5339638250000001
408,1747532917800,0.08322352,0.45638704,-1.0367552,0.85753787,0.3834952,0.56725335
409,1747532917810,0.0942060949999999,0.45858356,-1.05225285,0.8162588850000001,0.434361585,0.59068915
410,1747532917820,0.202567525,0.5180114849999999,-1.15426875,0.4713795149999999,0.7001450499999999,0.6029397000000001
411,1747532917830,0.221481955,0.51947582,-1.2130865,0.291616145,0.8141283500000001,0.593352325
412,1747532917840,0.22184804,0.513130335,-1.2466444,0.105194861,0.89642002,0.621049195
413,1747532917850,0.22233616,0.5108118,-1.2520137,0.010120012,0.92464954,0.64341974
414,1747532917860,0.19963883,0.51642513,-1.2224828,-0.12144015,0.9310411,0.71106404
415,1747532917870,0.161809945,0.5570607000000001,-1.12034485,-0.17843179,0.71825458,0.870321075
416,1747532917880,0.16705718,0.58622555,-1.06970295,-0.17789916,0.51638695,0.988565425
417,1747532917890,0.196954205,0.5954997,-1.07495015,-0.2042644599999999,0.42903525,1.0647318499999998
418,1747532917900,0.21525851,0.5976962,-1.0862988,-0.23009712,0.4016047,1.1020161
419,1747532917910,0.2543076449999999,0.635158965,-1.0727536,-0.46392266,0.37230993,1.1901667
420,1747532917920,0.28371654,0.664079765,-1.005881915,-0.6599313,0.337422525,1.1856393
421,1747532917930,0.281275975,0.667862665,-0.941694885,-0.813063075,0.3070624899999999,1.1451593
422,1747532917940,0.267242685,0.6577343,-0.8706742199999999,-0.8657936749999999,0.3067961649999999,1.1182614000000002
423,1747532917950,0.213916175,0.6430908500000001,-0.789037075,-0.8831042,0.3174488,1.1100056
424,1747532917960,0.1283741075,0.627959275,-0.740835775,-0.801877795,0.45992792,1.1619372499999998
425,1747532917970,0.06284474,0.622345975,-0.74718125,-0.77125144,0.48469532,1.1877699
426,1747532917980,0.037584815,0.6257628,-0.7568215,-0.7105314,0.49747851,1.2495552
427,1747532917990,0.0245277525,0.65700212,-0.79538255,-0.6559366,0.510794315,1.28817105
428,1747532918000,0.0274564405,0.67555045,-0.8635965999999999,-0.6593987,0.6205165850000001,1.25434885
429,1747532918010,0.05588911,0.69300055,-0.92009587,-0.6743124,0.7163904,1.2170646
430,1747532918020,0.07907455,0.7130132650000001,-0.95560617,-0.6780408250000001,0.910534765,1.056476015
431,1747532918030,0.087372495,0.737418965,-1.0095428,-0.68283453,1.025583315,0.90680635
432,1747532918040,0.0635769135,0.74766935,-1.08105155,-0.72730933,1.1416971500000002,0.6628607950000001
433,1747532918050,0.036852647,0.7482795,-1.1226633,-0.7680557,1.2016183,0.49960902
434,1747532918060,0.0364865575,0.7626789,-1.1628108,-0.843156815,1.22745095,0.358461485
435,1747532918070,0.0529604214999999,0.7708548500000001,-1.1263242,-0.834368385,1.12039185,0.24021713
436,1747532918080,0.067847915,0.79648085,-1.06067275,-0.7390272499999999,0.9041432,0.113983295
437,1747532918090,0.094450155,0.81027005,-0.9623177,-0.418382645,0.405333114,-0.052996905
438,1747532918100,0.11519502,0.810026,-0.8973985,-0.16990969,0.035153728,-0.15819177
439,1747532918110,0.14472595,0.80343646,-0.86664724,0.285757195,-0.429567865,-0.26551716
440,1747532918120,0.191218855,0.7747597150000001,-0.8810466800000001,0.56272597,-0.64182182,-0.3286340749999999
441,1747532918130,0.214526325,0.763777135,-0.91594685,0.6918893,-0.72917354,-0.35952675
442,1747532918140,0.232952655,0.76255685,-0.9942892,0.93157375,-0.8644621,-0.45007423
443,1747532918150,0.24186075,0.76267886,-1.0494461,1.003745425,-0.90520848,-0.535029065
444,1747532918160,0.252965345,0.7396155,-1.104359,0.994424375,-0.926780075,-0.781105175
445,1747532918170,0.25626011,0.7225315,-1.1197347,0.887098975,-0.8791095,-0.88709898
446,1747532918180,0.270171375,0.70703385,-1.116684,0.75766935,-0.82371575,-0.99575593
447,1747532918190,0.262727635,0.676282615,-1.0777568,0.5784386,-0.75926725,-1.1472898
448,1747532918200,0.24454537,0.65334123,-1.0455412,0.4660532,-0.7206514,-1.2415657
449,1747532918210,0.19719826,0.62551874,-1.0023432,0.344080415,-0.651142895,-1.2482236
450,1747532918220,0.16205402,0.59232694,-0.97085977,0.29081718,-0.589623875,-1.19948775
451,1747532918230,0.157294895,0.5444917199999999,-0.913018165,0.28176245,-0.522778535,-1.1235876500000002
452,1747532918240,0.156440695,0.5399766699999999,-0.85212588,0.381631,-0.523044835,-0.9622001
453,1747532918250,0.15570852,0.55059314,-0.81490713,0.47031426,-0.5523396,-0.8447547
454,1747532918260,0.25296534,0.57841568,-0.83296733,0.62903865,-0.619983925,-0.721450365
455,1747532918270,0.31776254,0.58817797,-0.871162295,0.69961245,-0.636495525,-0.67431242
456,1747532918280,0.377190475,0.6109973200000001,-0.932298665,0.7134609000000001,-0.63889235,-0.63809342
457,1747532918290,0.4058672,0.6296677,-0.9715919,0.7036072,-0.6348976,-0.6194513
458,1747532918300,0.41148052,0.6282034,-1.002099,0.6327671,-0.60560286,-0.59228706
459,1747532918310,0.414653265,0.62295612,-1.0207694,0.48229847,-0.4894890249999999,-0.5363606750000001
460,1747532918320,0.4180700499999999,0.60245532,-1.0092987,0.37550571,-0.3781688749999999,-0.506000635
461,1747532918330,0.3642554249999999,0.5444917499999999,-0.94962675,0.300670895,-0.2394181799999999,-0.464987945
462,1747532918340,0.25796851,0.48616205,-0.8792163,0.29614352,-0.181361275,-0.39441417
463,1747532918350,0.190974795,0.45919371,-0.84211958,0.31691617,-0.19973709,-0.35313517
464,1747532918360,0.17230442,0.44808912,-0.82808626,0.38456047,-0.3009372,-0.26045716
465,1747532918370,0.2092791,0.45089575,-0.87543333,0.4474110599999999,-0.4876247999999999,-0.1022653875
466,1747532918380,0.34973405,0.46261052,-0.95938905,0.330764605,-0.40959418,-0.0205063399999999
467,1747532918390,0.49299567,0.49738867,-1.04383285,0.12596752,-0.21225394,-0.0266316075
468,1747532918400,0.53033644,0.5198419,-1.0709232,0.03195793,-0.11771172,-0.06391586
469,1747532918410,0.579269875,0.5091034,-1.1078979,-0.26365295,0.139017015,-0.246875045
470,1747532918420,0.5416850449999999,0.492751585,-1.10228465,-0.44607949,0.220776055,-0.35153727
471,1747532918430,0.422096985,0.4605360349999999,-1.00307533,-0.5954828249999999,0.1041295969999999,-0.418382615
472,1747532918440,0.33484653,0.4339338,-0.91521466,-0.65886605,-0.027696876,-0.44208476
473,1747532918450,0.2689511,0.40611124,-0.83687234,-0.59761333,-0.20932446,-0.42077947
474,1747532918460,0.18597162,0.3943965299999999,-0.766461775,-0.459395285,-0.424507885,-0.31345405
475,1747532918470,0.1876800149999999,0.36132675,-0.737785025,-0.35633095,-0.45380265,-0.1307612
476,1747532918480,0.217821085,0.31654223,-0.7050813499999999,-0.25726136,-0.374174125,0.051931642
477,1747532918490,0.229535835,0.298482015,-0.67164555,-0.162985465,-0.290817185,0.147006497
478,1747532918500,0.23331872,0.29140437,-0.6560259,-0.10918961,-0.25832662,0.19014971
479,1747532918510,0.2494265,0.288597705,-0.64565345,-0.03914847,-0.25140241,0.224770805
480,1747532918520,0.39622693,0.31056285,-0.7628009250000001,0.25326663,-0.364586765,0.16325178
481,1747532918530,0.41257876,0.341192035,-0.8812907000000001,0.274571915,-0.51771854,-0.022104238
482,1747532918540,0.382559745,0.333748285,-0.9409627,0.24181503,-0.58056915,-0.092145376
483,1747532918550,0.36462155,0.3248402,-0.9623177,0.10705908,-0.6530071,-0.22583607
484,1747532918560,0.3200810699999999,0.28493683,-0.89178515,-0.1195759365,-0.5936186,-0.33023198
485,1747532918570,0.30385128,0.26114124,-0.8551766,-0.18855181,-0.535828,-0.33289513
486,1747532918580,0.3668180399999999,0.164860675,-0.68055363,-0.41199103,0.2484729329999999,0.1190433021999999
487,1747532918590,0.4425978299999999,0.143871745,-0.650656625,-0.4253068399999999,0.59814598,0.33129725
488,1747532918600,0.485918,0.12837411,-0.64089435,-0.41438788,0.7126619,0.42077947
489,1747532918610,0.5047103749999999,0.1415532,-0.62856942,-0.300937205,0.67031767,0.623446025
490,1747532918620,0.526309425,0.164372555,-0.61624452,-0.09614012,0.33129725,0.75181038
491,1747532918630,0.5449798,0.17596528,-0.60989904,0.05539375,0.0644485,0.81918836
492,1747532918640,0.61111936,0.16803341,-0.621003665,0.25992452,-0.319579335,0.79122518
493,1747532918650,0.63381666,0.16034561,-0.6299118,0.31638354,-0.42184472,0.76485986
494,1747532918660,0.6657882,0.13471961,-0.6496804,0.37763625,-0.53476274,0.68816084
495,1747532918670,0.72118918,0.028920787,-0.6628594800000001,0.302002465,-0.358461495,0.5475459
496,1747532918680,0.72533816,-0.029530926,-0.65895456,0.173638105,-0.0034621049999999,0.5510080500000001
497,1747532918690,0.721921365,-0.10470056,-0.63625725,0.050600064,0.31691619,0.638093425
498,1747532918700,0.72777873,-0.12349297,-0.6272271,-0.014913702,0.4788364,0.69029135
499,1747532918710,0.75389284,-0.14082102,-0.6360132,-0.1571265,0.7909589,0.8127968
500,1747532918720,0.7768341999999999,-0.1592473549999999,-0.7347343550000001,-0.482298475,1.0868361000000002,1.1219898
501,1747532918730,0.8274760999999999,-0.130692655,-0.7790307249999999,-0.7251788,1.1267835000000002,1.2980247
502,1747532918740,0.8573731,-0.11177822,-0.7721971,-0.8245146999999999,1.04236128,1.3227921
503,1747532918750,0.9274175,-0.053936653,-0.7238738,-0.8580705,0.97951066,1.3134711
504,1747532918760,1.00673612,0.0453946499999999,-0.635036935,-0.7898936,0.7227819200000001,1.1536814
505,1747532918770,1.05469345,0.10933765,-0.5576708050000001,-0.571514375,0.43862263,0.9262474
506,1747532918780,1.07043515,0.1574169249999999,-0.51862162,-0.303067745,0.19094865,0.696949265
507,1747532918790,1.05152065,0.189632475,-0.56023338,-0.1163801434999999,0.0950748575,0.546214355
508,1747532918800,1.036023,0.20744865,-0.60013676,-0.025566347,0.060720075,0.46924898
509,1747532918810,0.966466695,0.200126945,-0.709230365,0.220243425,0.093210643,0.04767058
510,1747532918820,0.9006932350000001,0.20390983,-0.7745157,0.20772657,0.149403338,-0.1057275
511,1747532918830,0.8413873199999999,0.208790975,-0.81063617,0.1504686049999999,0.186421275,-0.2295644949999999
512,1747532918840,0.7908675000000001,0.207936775,-0.81515122,0.0854874715,0.189350755,-0.34834148
513,1747532918850,0.70837617,0.198296515,-0.78757275,0.0529969065,0.153664395,-0.478303745
514,1747532918860,0.6202715,0.184995395,-0.76121455,0.070840085,0.110254867,-0.5520733
515,1747532918870,0.5695075949999999,0.17645339,-0.758896,0.09161274,0.094808534,-0.55340487
516,1747532918880,0.54961693,0.17303659,-0.7614586,0.14274544,0.06764429,-0.50600064
517,1747532918890,0.5659687,0.18914437,-0.7676820849999999,0.2511361,-0.0098536955,-0.440220535
518,1747532918900,0.5693855,0.20012695,-0.7753699,0.29667616,-0.037284255,-0.42663842
519,1747532918910,0.59183884,0.24454537,-0.83101493,0.38029942,-0.15659387,-0.44687843
520,1747532918920,0.563284165,0.269073115,-0.8904428449999999,0.36112465,-0.223705535,-0.45939529
521,1747532918930,0.54961693,0.27602875,-0.90789294,0.3435478,-0.24501082,-0.45593318
522,1747532918940,0.52960426,0.27651685,-0.9117979,0.2876214,-0.28975195,-0.4293016
523,1747532918950,0.524479,0.2848148,-0.89617825,0.19228023,-0.28336033,-0.3685815
524,1747532918960,0.53448535,0.281398,-0.889832725,0.17230652,-0.26045715,-0.3552656899999999
525,1747532918970,0.58219855,0.265656315,-0.89764255,0.054062172,-0.10865698,-0.29800772
526,1747532918980,0.60587212,0.260653125,-0.91155385,-0.032756881,-0.0271642465,-0.273506655
527,1747532918990,0.66530004,0.251500985,-0.9091133,-0.083090626,0.011185277,-0.26205507
528,1747532919000,0.73449027,0.243691165,-0.8883684000000001,-0.32969934,0.09267801,-0.26897928
529,1747532919010,0.74876765,0.24942651,-0.8693318999999999,-0.49454902,0.18162759,-0.35100463
530,1747532919020,0.7412019,0.25552794,-0.8642067,-0.5454154,0.21944448,-0.3818973
531,1747532919030,0.69458693,0.28920785,-0.84663457,-0.68123662,0.228765545,-0.524110115
532,1747532919040,0.618929175,0.289695965,-0.70227474,-0.68709558,0.179763375,-0.60879865
533,1747532919050,0.5942794,0.27944556,-0.67042524,-0.65513766,0.16192019,-0.6194513
534,1747532919060,0.54205118,0.25796851,-0.584395075,-0.4527373799999999,0.0956074849999999,-0.58669443
535,1747532919070,0.528384,0.25284332,-0.55693865,-0.36432046,0.07456851,-0.567786
536,1747532919080,0.49714461,0.25320938,-0.543271415,0.108390655,0.023702134,-0.4546016
537,1747532919090,0.472616865,0.26968324,-0.61075323,0.34780884,0.007456851,-0.39468047
538,1747532919100,0.46590528,0.27773714,-0.65090066,0.51292485,-0.035153728,-0.34514567
539,1747532919110,0.456997185,0.296285495,-0.77646813,0.59894492,-0.15126755,-0.29854037
540,1747532919120,0.46639338,0.3100747299999999,-0.83528593,0.57550912,-0.23888554,-0.291882455
541,1747532919130,0.488480565,0.31129501,-0.868721785,0.4660531999999999,-0.365385695,-0.314785635
542,1747532919140,0.5022698,0.3053156,-0.87982637,0.3834952,-0.44421527,-0.3339604
543,1747532919150,0.5193538,0.28749946,-0.8685997,0.29294774,-0.49641323,-0.34834146
544,1747532919160,0.51618105,0.28383857,-0.8412653,0.207193935,-0.47324373,-0.35952676
545,1747532919170,0.5026359,0.2949431999999999,-0.7850101300000001,0.177632845,-0.417849975,-0.36298888
546,1747532919180,0.49592432,0.267974875,-0.752916605,0.17230652,-0.27909928,-0.33848779
547,1747532919190,0.48957884,0.24234885,-0.73461235,0.17736652,-0.17257284,-0.31265512
548,1747532919200,0.4698102,0.24527754,-0.7268025,0.21038973,-0.061252706,-0.23276028
549,1747532919210,0.4694440949999999,0.2720018,-0.7318056749999999,0.27031086,-0.0428768925,-0.162186515
550,1747532919220,0.47639975,0.29835999,-0.74449665,0.309193015,-0.0849548425,-0.158990725
551,1747532919230,0.48201308,0.3145898,-0.7524285,0.32810146,-0.11611383,-0.16831179
552,1747532919240,0.502391845,0.332283935,-0.8160054000000001,0.381098365,-0.284958245,-0.325438295
553,1747532919250,0.49641246,0.33118567,-0.8332114,0.3797668,-0.30786142,-0.35899413
554,1747532919260,0.450651705,0.32715873,-0.88629387,0.303866675,-0.33156355,-0.40400155
555,1747532919270,0.42685613,0.30983068,-0.8919071999999999,0.217580275,-0.3331614499999999,-0.41172472
556,1747532919280,0.4095280599999999,0.28286235,-0.8764095999999999,0.108124349,-0.29827404,-0.39814259
557,1747532919290,0.3930542,0.27322209,-0.8665252649999999,0.0213052894999999,-0.24261398,-0.36831519
558,1747532919300,0.38341393,0.273954255,-0.859081515,-0.006924219,-0.22104238,-0.35260254
559,1747532919310,0.37938698,0.2751745399999999,-0.8393129,-0.0849548375,-0.197340245,-0.306796165
560,1747532919320,0.35254068,0.2992141849999999,-0.81027008,-0.1246359375,-0.156860195,-0.263120325
561,1747532919330,0.32850104,0.33899552,-0.78867098,-0.139815955,-0.098536965,-0.22876554
562,1747532919340,0.32996538,0.35559142,-0.7819594,-0.13635385,-0.07350325,-0.22210763
563,1747532919350,0.34460884,0.37609223,-0.78464407,-0.1451422849999999,0.041012683,-0.24394556
564,1747532919360,0.37413976,0.39195594,-0.8073414,-0.15925704,0.091080114,-0.26684874
565,1747532919370,0.3917119,0.39976576,-0.8266219,-0.2034655,0.17097494,-0.33822146
566,1747532919380,0.35388303,0.3747498999999999,-0.78720665,-0.252733995,0.20399815,-0.454867925
567,1747532919390,0.33582278,0.3616928299999999,-0.7503540200000001,-0.20399814,0.132625425,-0.46205845
568,1747532919400,0.32728076,0.35656762,-0.7297312,-0.16777915,0.08894958,-0.4596616
569,1747532919410,0.313857615,0.3443647749999999,-0.70276285,-0.0258326669999999,-0.0519316415,-0.396012055
570,1747532919420,0.32264368,0.34668332,-0.7008104,0.102798018,-0.1371528,-0.32543829
571,1747532919430,0.32947728,0.35071027,-0.7055695,0.18482338,-0.1784318,-0.28176245
572,1747532919440,0.30592576,0.38158349,-0.73290393,0.21491711,-0.15073492,-0.268446635
573,1747532919450,0.2945771,0.38585448,-0.74193406,0.2146508,-0.13582122,-0.2647182
574,1747532919460,0.2853029299999999,0.38573247,-0.741689975,0.196274975,-0.047936899,-0.25433189
575,1747532919470,0.276638885,0.394274485,-0.74498475,0.21038973,0.065247446,-0.2625876849999999
576,1747532919480,0.262605585,0.401962275,-0.758896035,0.23169502,0.160588615,-0.27377297
577,1747532919490,0.2550398,0.40489095,-0.76804817,0.23702134,0.18162759,-0.2775014
578,1747532919500,0.23795582,0.4058672,-0.79440635,0.24607609,0.24394555,-0.29933932
579,1747532919510,0.186459735,0.3901255,-0.82454741,0.2340918599999999,0.48043425,-0.21784659
580,1747532919520,0.1808464149999999,0.38524437,-0.834309695,0.2447445099999999,0.6524744499999999,-0.108124345
581,1747532919530,0.16205401,0.408673855,-0.862620315,0.27244139,0.7179882,-0.03595267665
582,1747532919540,0.13520772,0.438204775,-0.91521465,0.268712955,0.69162293,0.04021373335
583,1747532919550,0.12593354,0.4527262,-0.9452337,0.25513083,0.65513766,0.07882957
584,1747532919560,0.10091767,0.469444125,-1.01064105,0.1850897,0.522778535,0.173105475
585,1747532919570,0.1156831399999999,0.490189,-1.02918945,0.068443242,0.460726875,0.22077606
586,1747532919580,0.1158051699999999,0.503612115,-1.05225285,-0.073236928,0.50120694,0.2231729
587,1747532919590,0.0636989435,0.498364875,-1.08556665,-0.203731825,0.634365,0.2359560799999999
588,1747532919600,0.030507157,0.4886026,-1.0985017,-0.28176245,0.7073356,0.2625877
589,1747532919610,-0.0109825765,0.467247605,-1.07360785,-0.667654475,1.08310765,0.579503875
590,1747532919620,-0.01330112,0.49055508,-1.0368772000000002,-0.7390272,1.17045935,0.715591405
591,1747532919630,-0.014521406,0.5069068999999999,-1.0124715,-0.7600662,1.20667825,0.851945255
592,1747532919640,0.006833604,0.5252112,-1.00161098,-0.7584683,1.1725898,0.966461225
593,1747532919650,0.020988924,0.5625519999999999,-1.01747468,-0.73609775,1.00374542,1.06632975
594,1747532919660,0.018792408,0.5872018,-1.0367552,-0.7185209,0.87032104,1.1206582
595,1747532919670,0.01622980725,0.60477385,-1.08288205,-0.8189220500000001,0.71186295,1.154214
596,1747532919680,0.0275784682499999,0.6074584999999999,-1.10106435,-0.94941695,0.6655239749999999,1.1805793
597,1747532919690,0.0471030489999999,0.596109835,-1.0937426,-1.08523815,0.6788398,1.2133362
598,1747532919700,0.054668825,0.58988637,-1.0845904,-1.1462245,0.7036072,1.2314457
599,1747532919710,0.027700497,0.59659795,-1.002831235,-1.17365515,0.8447547150000001,1.34196695
600,1747532919720,0.02318544,0.6145361,-0.99965847,-1.1377025,0.85966843,1.3704628
601,1747532919730,0.030141071,0.6551717,-1.0025872,-0.9917612,0.791225175,1.4005564499999998
602,1747532919740,0.0550349125,0.7120370300000001,-1.01808485,-0.88337055,0.611994425,1.3254552999999998
603,1747532919750,0.067359805,0.75096416,-1.0294335,-0.829841,0.4926848,1.2591426
604,1747532919760,0.136305975,0.825767695,-0.997339915,-0.77338202,0.272707685,1.0860371
605,1747532919770,0.16010156,0.85542065,-0.98452693,-0.71798825,0.141147538,0.92704638
606,1747532919780,0.237833805,0.94059665,-0.906794665,-0.645550265,0.012516856,0.722515615
607,1747532919790,0.2604091,0.9613415,-0.878362,-0.60507023,-0.051132694,0.60773337
608,1747532919800,0.33753118,0.9130182,-0.76170266,-0.3339604,-0.14807177,0.14966966
609,1747532919810,0.32850106,0.85249195,-0.764387275,-0.051399008,0.004793689,-0.143011755
610,1747532919820,0.297505795,0.8254016150000001,-0.78854895,0.0937432719999999,0.083889574,-0.2577939999999999
611,1747532919830,0.261263285,0.81039208,-0.8206424750000001,0.22290658,0.1038632825,-0.33955304
612,1747532919840,0.2407624649999999,0.8180798650000001,-0.85493255,0.28336033,0.0958738,-0.37603834
613,1747532919850,0.23722363,0.8297946,-0.873725,0.5390238,-0.13262543,-0.5219796
614,1747532919860,0.243325085,0.8322352150000001,-0.93937637,0.710797695,-0.453802665,-0.69242192
615,1747532919870,0.22526484,0.8258897350000001,-0.9996585,0.7667240799999999,-0.671915565,-0.7928230700000001
616,1747532919880,0.197198255,0.80709732,-1.0859327,0.6660566,-0.8791095,-0.9206548
617,1747532919890,0.1615658999999999,0.7884269500000001,-1.13120535,0.4807006,-0.97391805,-1.026116
618,1747532919900,0.1444819,0.7834238,-1.1260802,0.4063984,-0.964597,-1.0492855
619,1747532919910,0.080294835,0.7854982699999999,-1.027481,0.25832662,-0.904409525,-1.0940265500000002
620,1747532919920,0.0579635965,0.77903074,-0.950847015,0.24527714,-0.8647284150000001,-1.1044129
621,1747532919930,0.040635533,0.764997455,-0.88507363,0.35899413,-0.773914635,-1.047687575
622,1747532919940,0.0347781584999999,0.766705835,-0.857739215,0.51265855,-0.68842715,-0.948351675
623,1747532919950,0.042221904,0.7739055,-0.8598137,0.567786,-0.67058396,-0.9060074
624,1747532919960,0.14631232,0.7784206300000001,-0.91924162,0.688959785,-0.673779765,-0.8415589
625,1747532919970,0.205496205,0.774271605,-0.9681751,0.72171668,-0.69508505,-0.841825225
626,1747532919980,0.23734567,0.7466931050000001,-1.0193051,0.66099663,-0.71505875,-0.8149272750000001
627,1747532919990,0.24747404,0.72045696,-1.0499343,0.5992113,-0.7222493,-0.7840346
628,1747532920000,0.2345389999999999,0.70239675,-1.0272369,0.49375007,-0.7121293,-0.6870956
629,1747532920010,0.2657783449999999,0.715453805,-0.9178993,0.378435195,-0.6143912650000001,-0.52650696
630,1747532920020,0.311661105,0.70971848,-0.8028263,0.42956788,-0.40373521,-0.48336375
631,1747532920030,0.3084883499999999,0.6881194500000001,-0.7221654,0.6085323,-0.204264455,-0.51345746
632,1747532920040,0.2443012949999999,0.6594427199999999,-0.74230012,0.7965515000000001,-0.16911073,-0.5427522499999999
633,1747532920050,0.20183535,0.64162654,-0.77097684,0.8788432,-0.17044231,-0.5432849
634,1747532920060,0.17132819,0.6164886,-0.8534682,0.9896307,-0.21784659,-0.4889564
635,1747532920070,0.153512,0.6272271,-0.9823304,0.786697805,-0.130228579,-0.217313958
636,1747532920080,0.3060477849999999,0.6373555,-1.3109535,0.415985765,0.098536961,-0.0335558313
637,1747532920090,0.35412705,0.6313761,-1.351345,0.24234766,0.22050974,0.0031957934
638,1747532920100,0.42636803,0.60306543,-1.3037539,-0.0314253,0.37603834,0.023435818
639,1747532920110,0.40489095,0.5942794,-1.1678139,-0.12942964,0.30360037,0.010120012
640,1747532920120,0.23673553,0.510079635,-1.002587185,-0.02130529,-0.041545313,0.033023197
641,1747532920130,0.09518233,0.434787975,-0.972812205,0.4149205099999999,-0.84422208,0.2274339699999999
642,1747532920140,0.047591163,0.399399665,-1.02711497,0.456465825,-1.04822023,0.33981936
643,1747532920150,0.041733786,0.3829258,-1.0633575,0.381631,-1.1515509000000002,0.4183826149999999
644,1747532920160,0.1537560625,0.331673785,-1.1315715,0.1105211925,-1.1006844999999998,0.4194478849999999
645,1747532920170,0.236857555,0.292746665,-1.16073635,-0.2545982025,-0.958738,0.40266997
646,1747532920180,0.281886125,0.25528388,-1.1475572,-0.5853628200000001,-0.79921465,0.459128995
647,1747532920190,0.374505865,0.19695419,-1.0642116499999998,-0.7584683,-0.7057377,0.50653327
648,1747532920200,0.43076107,0.16425052,-0.9999026,-1.0679276,-0.4016047,0.6002765
649,1747532920210,0.51459471,0.166447045,-0.7591401,-1.1414309,-0.2263687,0.6247776
650,1747532920220,0.57707335,0.174744995,-0.6530972,-1.03090965,-0.15393071,0.56592175
651,1747532920230,0.62356625,0.17755165,-0.620027425,-0.872717925,-0.24980452,0.43010054
652,1747532920240,0.624908585,0.1599795299999999,-0.6089228250000001,-0.741956725,-0.410659445,0.292947725
653,1747532920250,0.61502427,0.14399378,-0.6074585,-0.6801714,-0.50333744,0.22583607
654,1747532920260,0.5095915400000001,0.075047603,-0.6130718,-0.5784386,-0.67005134,0.14966966
655,1747532920270,0.42343931,-0.0329477299999999,-0.598428365,-0.477771105,-0.66392607,0.42157843
656,1747532920280,0.40196227,-0.1231268829999999,-0.55303375,-0.4330300099999999,-0.43809002,0.807470475
657,1747532920290,0.4234393,-0.13569583,-0.5288721,-0.41438788,-0.30626354,0.95447695
658,1747532920300,0.5274077,-0.13911264,-0.49470404,-0.37444046,0.026631612,1.2229236
659,1747532920310,0.8185679800000001,-0.0584517149,-0.51923181,-0.34834146,0.3787015,1.4029533
660,1747532920320,0.98635735,0.0294088976,-0.559013125,-0.3331614499999999,0.8415589050000001,1.22212465
661,1747532920330,1.01784075,0.0673598,-0.5635281750000001,-0.32703618,0.81412837,1.02744755
662,1747532920340,1.0282132,0.083223522,-0.542783315,-0.27137612,0.700411385,0.80267675
663,1747532920350,0.99111648,0.094816242,-0.503734165,-0.14008228,0.6021407299999999,0.6205165500000001
664,1747532920360,0.93046823,0.097866955,-0.478596265,0.04394216,0.5350290799999999,0.54621435
665,1747532920370,0.86762348,0.085298005,-0.52167234,0.3422162,0.43382895,0.5715144
666,1747532920380,0.83589603,0.079440632,-0.59379125,0.6098639,0.330231985,0.6407566
667,1747532920390,0.8395569,0.082735404,-0.61892915,0.680704,0.29348037,0.6689861
668,1747532920400,0.8600578,0.08786061,-0.67042524,0.7803062,0.23648871,0.6961503
669,1747532920410,0.964514235,0.145458117,-0.80270427,0.797350435,0.127565415,0.44261739
670,1747532920420,0.97549677,0.16791138,-0.8268659,0.7685883,0.09853696,0.34674358
671,1747532920430,0.9586569,0.22135992,-0.88007045,0.5970807,-0.017044231,0.051665325
672,1747532920440,0.90325594,0.25357547,-0.91814333,0.39894155,-0.11025487,-0.18801917
673,1747532920450,0.844438,0.25528386,-0.9174112,0.18801917,-0.14434333,-0.4000068
674,1747532920460,0.6728658000000001,0.149241,-0.76572961,-0.09480854,-0.020506341,-0.673779785
675,1747532920470,0.6233222,0.13081467,-0.73485637,-0.11132014,0.013848438,-0.69295454
676,1747532920480,0.528384,0.11690342,-0.6919023,-0.11451593,0.058056913,-0.65513766
677,1747532920490,0.441987665,0.1234929675,-0.651144725,-0.0849548374999999,0.0806937849999999,-0.517718535
678,1747532920500,0.42417148,0.12739788,-0.6411384,-0.07084008,0.08575379,-0.46658584
679,1747532920510,0.39805737,0.17108414,-0.61746484,-0.012250541,0.08149273,-0.28868666
680,1747532920520,0.40659937,0.19207305,-0.6118515,0.0058589545,0.0958738,-0.24714136
681,1747532920530,0.46053603,0.2272173,-0.6203935,0.02343581825,0.135288585,-0.24927188
682,1747532920540,0.47688788,0.23868799,-0.6284474,0.041012682,0.17470337,-0.2514024
683,1747532920550,0.47542354,0.2723679,-0.6962953,0.01917476,0.25086978,-0.25832662
684,1747532920560,0.45419052,0.28688928,-0.6815298750000001,0.064714817,0.16484967,-0.2277002699999999
685,1747532920570,0.4506517049999999,0.287865515,-0.67725887,0.133158057,0.053263222,-0.169643365
686,1747532920580,0.46553922,0.27432035,-0.685068695,0.2082592,-0.053529538,-0.090281167
687,1747532920590,0.4751795,0.26626647,-0.69385475,0.2412824,-0.09374327,-0.051132694
688,1747532920600,0.568775425,0.2849368399999999,-0.74583897,0.32277515,-0.098536962,0.044741105
689,1747532920610,0.5972081,0.29018408,-0.75340474,0.330232,-0.082025364,0.040480047
690,1747532920620,0.6493143,0.2951872399999999,-0.82296105,0.295610885,0.0157126505,-0.037816889
691,1747532920630,0.6510227,0.28932986,-0.874945275,0.22130869,0.1014664415,-0.08442221
692,1747532920640,0.63625725,0.26394791,-0.917167125,0.17310548,0.1470065,-0.10226539
693,1747532920650,0.6257628,0.2438132,-0.938156,-0.0479369,0.30999196,-0.076166406
694,1747532920660,0.63308454,0.2272173,-0.94572186,-0.17576863,0.34834146,-0.032490566
695,1747532920670,0.6460195,0.23185438,-0.92814976,-0.2593919,0.3552657,-0.006924219
696,1747532920680,0.6643238,0.24649782,-0.88421935,-0.29827404,0.33182988,0.00479369
697,1747532920690,0.74827955,0.26162934,-0.78061712,-0.2412824,0.18855181,-0.09427591
698,1747532920700,0.7492558,0.26162934,-0.77146494,-0.18216023,0.1257012,-0.16724652
699,1747532920710,0.747181265,0.27163571,-0.73949347,-0.07456851,0.037284256,-0.28336034
700,1747532920720,0.75291663,0.26797485,-0.733148,-0.03195793,0.013315806,-0.32330775
701,1747532920730,0.7499879,0.24503349,-0.75047606,0.05486112,-0.0053263223,-0.3882889
702,1747532920740,0.6894617,0.21769907,-0.8510276,0.03009372,0.02530003035,-0.363521505
703,1747532920750,0.6879974,0.21769907,-0.8947139,-0.015978966,0.044208474,-0.34621096
704,1747532920760,0.69568518,0.21940747,-0.8971544499999999,-0.075101148,0.061519022,-0.331563565
705,1747532920770,0.709108315,0.2456436149999999,-0.8235712,-0.2801645499999999,0.0924116899999999,-0.32650356
706,1747532920780,0.67774698,0.2856689999999999,-0.755479225,-0.336623565,0.0476705828,-0.371777295
707,1747532920790,0.644311115,0.313247475,-0.7274126249999999,-0.343281475,-0.0223705532,-0.42077945
708,1747532920800,0.6272271,0.328257,-0.7192367,-0.33076462,-0.048469532,-0.43782368
709,1747532920810,0.57390062,0.3398497099999999,-0.7221654,-0.270044535,-0.0607200765,-0.47137952
710,1747532920820,0.52594336,0.32703671,-0.73595463,-0.243679245,-0.0263652943,-0.46658583
711,1747532920830,0.49592432,0.31703037,-0.74242216,-0.23329292,-0.0037284256,-0.4596616
712,1747532920840,0.4837215,0.307024,-0.7246059,-0.1587244,0.015978966,-0.3818973
713,1747532920850,0.48018265,0.304705455,-0.7023967499999999,-0.0551274355,-0.02396845075,-0.319046705
714,1747532920860,0.47835222,0.30336314,-0.6958072,-0.017044231,-0.042077947,-0.29987195
715,1747532920870,0.470542345,0.3075121349999999,-0.70605761,0.06178534,-0.10173275,-0.24234766
716,1747532920880,0.47176263,0.31434575,-0.72631437,0.21891184,-0.175236,-0.1272991
717,1747532920890,0.45833952,0.374505845,-0.77170902,0.29134983,-0.205329725,-0.133690688
718,1747532920900,0.4628545699999999,0.412822855,-0.7854982500000001,0.324106715,-0.236488705,-0.16990968
719,1747532920910,0.477009895,0.420998765,-0.7934301,0.35047201,-0.2530003,-0.235956075
720,1747532920920,0.48396555,0.41636166,-0.797335,0.36218992,-0.25406557,-0.27643612
721,1747532920930,0.41501936,0.362913115,-0.830648825,0.32117723,-0.171507575,-0.42504051
722,1747532920940,0.386708725,0.344852875,-0.83760442,0.30200246,-0.1470065,-0.4383563
723,1747532920950,0.37145515,0.333382185,-0.84492615,0.22477081,-0.0111852765,-0.40693101
724,1747532920960,0.344486815,0.361692835,-0.85493255,0.166447575,0.1129180334999999,-0.36112465
725,1747532920970,0.321545425,0.402572425,-0.8526140200000001,0.111320135,0.26338664,-0.30333406
726,1747532920980,0.31666426,0.419900505,-0.833089415,0.105194865,0.348874115,-0.275104535
727,1747532920990,0.300922565,0.4275883299999999,-0.81795785,0.14807176,0.3273025,-0.269511905
728,1747532921000,0.285058855,0.4286865749999999,-0.806975285,0.201601295,0.24154871,-0.2660498
729,1747532921010,0.28164205,0.4240494649999999,-0.7865964999999999,0.266316105,0.1193096225,-0.27164243
730,1747532921020,0.28640118,0.413188905,-0.78086115,0.37577203,-0.0316916175,-0.29108351
731,1747532921030,0.293234795,0.403182565,-0.8096599250000001,0.4623247649999999,-0.112651715,-0.31105722
732,1747532921040,0.29774985,0.3990336,-0.83028275,0.4745753,-0.10865697,-0.31638354
733,1747532921050,0.29945824,0.3990336,-0.86201024,0.4607269,-0.041012682,-0.32170987
734,1747532921060,0.2817640999999999,0.409528045,-0.90947935,0.43196473,0.06018744,-0.31372038
735,1747532921070,0.2660224,0.42124277,-0.9349833,0.27084348,0.32490567,-0.19041602
736,1747532921080,0.28554698,0.44491637,-0.90057127,0.2386192349999999,0.373108885,-0.17283916
737,1747532921090,0.2892078449999999,0.459071685,-0.872748705,0.248472935,0.36112465,-0.18935076
738,1747532921100,0.29042813,0.464685,-0.86323047,0.26045716,0.33768883,-0.20559604
739,1747532921110,0.288231615,0.442963885,-0.8638406249999999,0.32357408,0.101732754,-0.32330777
740,1747532921120,0.2903061099999999,0.4039147349999999,-0.8809246399999999,0.35100463,-0.042077946,-0.38855522
741,1747532921130,0.2824962749999999,0.3798751099999999,-0.902889765,0.332362505,-0.051132695,-0.398142595
742,1747532921140,0.27383223,0.37243137,-0.9127741,0.31691617,-0.04474111,-0.39894155
743,1747532921150,0.25357547,0.3577879,-0.9098454,0.29134983,0.011185277,-0.3787015
744,1747532921160,0.247596075,0.34839171,-0.899595015,0.294279315,0.0471379515,-0.35233621
745,1747532921170,0.21538051,0.332161915,-0.9199738,0.29667614,0.17470337,-0.1720402125
746,1747532921180,0.215502545,0.352540685,-0.9503589,0.2561961,0.18881813,-0.0713727175
747,1747532921190,0.229657865,0.361814855,-0.97964575,0.194144445,0.167779155,-0.0423442599999999
748,1747532921200,0.23380683,0.371089035,-1.010519,0.0521979575,0.1123853975,-0.0284958234999999
749,1747532921210,0.23380683,0.3778006,-1.0245523,-0.053795855,0.068176925,-0.018109497
750,1747532921220,0.26114124,0.37169918,-1.0250404,-0.053795855,0.068176925,-0.018109497
751,1747532921230,0.2591888,0.36974674,-1.0238202,-0.294013,0.0031957934,0.0058589545
752,1747532921240,0.23722364,0.36474355,-0.95780267,-0.447943705,0.00399474165,0.0607200725
753,1747532921250,0.256382145,0.3625470349999999,-0.87946027,-0.49161956,0.01438107,0.090014845
754,1747532921260,0.29774985,0.379997135,-0.81210045,-0.54035537,0.122505415,0.266848745
755,1747532921270,0.3184947,0.3956168,-0.797335,-0.5278385,0.13795175,0.29880667
756,1747532921280,0.33313814,0.4234393,-0.801484,-0.5022722,0.15765914,0.34088463
757,1747532921290,0.32862309,0.438326835,-0.8429737500000001,-0.511593235,0.156593875,0.40932787
758,1747532921300,0.30385128,0.4458926,-0.861278,-0.5294364,0.15126756,0.4394216
759,1747532921310,0.277004975,0.469688175,-0.866281215,-0.608265995,0.08788432,0.529969055
760,1747532921320,0.289329865,0.474325255,-0.84260762,-0.6583334249999999,0.0644484999999999,0.60799967
761,1747532921330,0.311539075,0.47676583,-0.794406335,-0.67085028,0.06391587,0.69029135
762,1747532921340,0.366940065,0.5043443350000001,-0.737541,-0.58456385,0.088949585,0.7832357
763,1747532921350,0.41050428,0.52789587,-0.7082541,-0.50333744,0.1123854,0.8357
764,1747532921360,0.3763362799999999,0.5476644500000001,-0.7753699000000001,-0.397077335,0.191481285,0.891360025
765,1747532921370,0.35559142,0.5518134,-0.8022162,-0.38029942,0.20612867,0.91825795
766,1747532921380,0.308732435,0.575975075,-0.85444444,-0.37736995,0.18109495,0.99948438
767,1747532921390,0.29726174,0.59110665,-0.86884385,-0.3797668,0.16937704,1.010936
768,1747532921400,0.22062775,0.62259,-0.9606094,-0.5044027,0.18695392,0.9853696
769,1747532921410,0.20988922,0.6067263,-1.0089327,-0.6487461,0.29454562,0.9635317
770,1747532921420,0.0994533275,0.5885440749999999,-1.07434,-0.9310411,0.59255335,0.94808535
771,1747532921430,0.052472305,0.5869577,-1.091424,-1.194694,0.8463526100000001,1.01280015
772,1747532921440,-0.12739788,0.6101431,-1.104359,-1.3432984,0.98430437,1.0668623
773,1747532921450,-0.19280522,0.63503695,-1.087031,-1.4508902,1.0226538,1.1430287
774,1747532921460,-0.222092095,0.68116377,-1.02516248,-1.51320815,0.9454222,1.241832
775,1747532921470,-0.22111587,0.7196028,-0.97220206,-1.48604395,0.852211575,1.2809805
776,1747532921480,-0.22160399,0.7392494,-0.94572186,-1.4583471,0.799481,1.2974921
777,1747532921490,-0.13325526,0.79660285,-0.8529801,-1.2112057,0.5933523,1.3081448
778,1747532921500,-0.067847915,0.85236993,-0.8819008500000001,-0.93769907,0.4852279699999999,1.2005531
779,1747532921510,-0.0327036705,0.8943477799999999,-0.90105937,-0.82504732,0.40346892,1.1116035
780,1747532921520,-0.009274175,0.9178993,-0.90642864,-0.7749799,0.3584615,1.0610034
781,1747532921530,0.11617125,1.001855,-0.86884385,-0.6812366,0.27537087,0.92092115
782,1747532921540,0.15375607,1.0431006,-0.81319875,-0.43569317,0.05273059,0.5363607
783,1747532921550,0.18157859,1.0606729,-0.76121455,-0.2695119,-0.08468852,0.3334278
784,1747532921560,0.2135501,1.0496902,-0.7089863,0.07084009,-0.262321365,0.04527374
785,1747532921570,0.2323425,1.0218678,-0.6665203,0.19920446,-0.3110572,-0.04314321
786,1747532921580,0.2497925899999999,0.97391045,-0.7111828,0.73157037,-0.4314321,-0.35553202
787,1747532921590,0.2562601,0.9520673,-0.7556012,0.93423694,-0.47137952,-0.49481535
788,1747532921600,0.243447095,0.93766797,-0.84407198,1.07378655,-0.57124805,-0.71612402
789,1747532921610,0.22099383,0.8973985,-0.898740825,1.08337395,-0.6202502350000001,-0.8636631699999999
790,1747532921620,0.20500809,0.8681116,-0.92229235,1.073254,-0.63915867,-0.9353022
791,1747532921630,0.13911263,0.75999425,-0.913506275,0.96885803,-0.658866065,-1.16087195
792,1747532921640,0.109703735,0.732171735,-0.91436047,0.903610585,-0.637028165,-1.2074773
793,1747532921650,0.076878035,0.70227471,-0.91240802,0.82105257,-0.58562915,-1.2096078
794,1747532921660,0.0453946474999999,0.673964075,-0.89373765,0.7430219499999999,-0.515588,-1.16300245
795,1747532921670,0.010494461,0.65468355,-0.81612745,0.70653665,-0.43675842,-1.02425175
796,1747532921680,-0.0092741754999999,0.64272475,-0.7208231,0.7552725,-0.40107207,-0.85221155
797,1747532921690,-0.006345488,0.6382097,-0.6875093,0.8032094,-0.4079963,-0.7866978
798,1747532921700,0.024405725,0.63162017,-0.626739,0.96406436,-0.43409526,-0.6562029
799,1747532921710,0.10421244,0.6355251,-0.61624455,1.1696603,-0.4841627,-0.54648066
800,1747532921720,0.30043447,0.67140144,-0.8161274,1.3523532,-0.55127436,-0.49534798
801,1747532921730,0.344852895,0.66310355,-1.01295965,1.32359105,-0.5637912,-0.48629323
802,1747532921740,0.350954325,0.6373555,-1.10289475,1.1265172,-0.521180625,-0.4908206
803,1747532921750,0.34753752,0.6228341,-1.138039,1.0104034,-0.49481535,-0.49321744
804,1747532921760,0.253941565,0.51849964,-1.1157077,0.629305,-0.39068575,-0.45353635
805,1747532921770,0.19548985,0.45687518,-1.070191,0.505468,-0.35792887,-0.4282363
806,1747532921780,0.15363404,0.42966278,-0.973910425,0.1358212175,-0.28842035,-0.136087533
807,1747532921790,0.1632743,0.4234393,-0.95060295,0.080960095,-0.27856666,-0.039414786
808,1747532921800,0.2706595,0.4087959,-0.9303462,-0.018109497,-0.19068234,0.15765914
809,1747532921810,0.43954712,0.4424758,-0.94620997,-0.19068234,0.0005326322,0.3206446
810,1747532921820,0.7314396,0.5430274,-0.96304995,-0.5656554,0.43782368,0.27217507
811,1747532921830,0.78610843,0.53253293,-0.91814333,-0.6988135,0.56725335,0.1272991
812,1747532921840,0.76389915,0.50715095,-0.8498074,-0.74461985,0.5422196,-0.019707393
813,1747532921850,0.67530644,0.49226347,-0.77122086,-0.6791061,0.3834952,-0.1486044
814,1747532921860,0.5523015,0.46712556,-0.7319277,-0.53263223,0.11451593,-0.23702134
815,1747532921870,0.26797486,0.39720316,-0.7608485,-0.231961335,-0.585096515,-0.187486545
816,1747532921880,0.24259291,0.39207796,-0.80368055,-0.09800433,-1.045290715,-0.02450108
817,1747532921890,0.25040275,0.3943965,-0.8188121,-0.09427591,-1.1451592,0.05965481
818,1747532921900,0.34070393,0.33045352,-0.8358961,-0.13528858,-1.160073,0.23595607
819,1747532921910,0.40220633,0.29311275,-0.8295506,-0.25300032,-0.8916263499999999,0.4599279149999999
820,1747532921920,0.5875678200000001,0.33911754,-0.702030675,-0.3419499,-0.392283645,0.6660566
821,1747532921930,0.71716219,0.3658418049999999,-0.669204965,-0.386691,-0.02130529,0.7861652
822,1747532921940,0.76292294,0.38536638,-0.66188323,-0.32969934,0.24660872,0.7126619
823,1747532921950,0.7560893,0.43979117,-0.6557818,-0.22050974,0.32437304,0.5422196
824,1747532921960,0.7294871,0.45052966,-0.68409246,-0.104928546,0.22530343,0.33662358
825,1747532921970,0.50983559,0.31275937,-0.74376449,0.145408603,-0.4055994149999999,-0.141946493
826,1747532921980,0.45785138,0.27822527,-0.73583263,0.18269286,-0.5278385,-0.17896444
827,1747532921990,0.36144876,0.16937573,-0.7465711,0.253532945,-0.7376956299999999,-0.0351537275
828,1747532922000,0.21672285,-0.09664667,-0.7700006,0.26205507,-0.77444726,0.060720075
829,1747532922010,0.2550398,-0.17254847,-0.7124031,0.2130529,-0.70840085,0.7392935
830,1747532922020,0.48799248,-0.241616675,-0.62222395,0.2748382299999999,-0.4681837199999999,1.2844426
831,1747532922030,0.6856788650000001,-0.26284966,-0.6180749999999999,0.30945933,-0.3653857,1.4402375
832,1747532922040,0.788549,-0.26626647,-0.626495,0.3888215,-0.08894958,1.6357136
833,1747532922050,1.0892274,-0.20281157,-0.7380291,0.3685815,0.0974717,1.5664713
834,1747532922060,1.1580516,-0.19134088,-0.78586435,0.3057309,0.08149273,1.4429007
835,1747532922070,1.16134635,-0.199150715,-0.83174712,0.15073492,0.0455400549999999,1.30761215
836,1747532922080,1.1490215,-0.19744232,-0.8422416,0.09054748,0.037284255,1.2793826
837,1747532922090,1.0584763,-0.1871919,-0.8676235,-0.036751624,0.0628506,1.3273195
838,1747532922100,1.0086887,-0.12568948,-0.88104665,-0.39041942,0.21518342,1.6016251
839,1747532922110,1.0748281,-0.044418417,-0.8346757,-0.5917544,0.36645097,1.6895094
840,1747532922120,1.2455462000000002,0.0976228975,-0.70361705,-0.69535138,0.560861735,1.50282185
841,1747532922130,1.3236445,0.17242644,-0.6277152349999999,-0.67857345,0.67005135,1.2484899
842,1747532922140,1.3576905,0.20744865,-0.58988637,-0.6530071,0.7121293,1.0966897
843,1747532922150,1.3947871,0.2767609,-0.54034275,-0.35420042,0.721184,0.30253512
844,1747532922160,1.25225775,0.25357549,-0.6458975,-0.12010857,0.592553375,-0.2351571325
845,1747532922170,1.12852075,0.2246546999999999,-0.7217993,-0.0268979271999999,0.453536345,-0.504136415
846,1747532922180,1.0633575,0.20988922,-0.7556012,0.0037284256,0.37603834,-0.61891866
847,1747532922190,0.83833665,0.12690976,-0.80368054,0.039947417,0.19760656,-0.77125144
848,1747532922200,0.75267255,0.09469421,-0.78659654,0.11717909,-0.1667139,-0.9038769
849,1747532922210,0.6588325500000001,0.0743154325,-0.7615806350000001,0.20639499,-0.33555831,-0.8591358
850,1747532922220,0.63235235,0.06980037,-0.7551131,0.23808661,-0.37444046,-0.8357
851,1747532922230,0.5959878,0.058085624,-0.7465711,0.28336033,-0.39787626,-0.79042625
852,1747532922240,0.574022665,0.0497876775,-0.7443746,0.298007725,-0.261256115,-0.7115966650000001
853,1747532922250,0.58232063,0.054668825,-0.7470592,0.29241508,-0.21092236,-0.7036072
854,1747532922260,0.62673902,0.06491923,-0.7789087,0.26658243,-0.087351685,-0.7560714500000001
855,1747532922270,0.639429985,0.074315432,-0.8096599250000001,0.2327602899999999,-0.067377975,-0.8327705000000001
856,1747532922280,0.599526615,0.087616552,-0.838092595,0.160854935,-0.15126755,-0.89402322
857,1747532922290,0.562796,0.0924977,-0.84858704,0.10918961,-0.22796659,-0.91612744
858,1747532922300,0.541319,0.07541369,-0.84907514,0.06338324,-0.28442562,-0.8692558
859,1747532922310,0.5221605,0.078830487,-0.8498073500000001,-0.020772657,-0.275903495,-0.7531419699999999
860,1747532922320,0.5271637,0.082735404,-0.8422416,-0.051132694,-0.26738137,-0.7121293
861,1747532922330,0.56779915,0.122150655,-0.8049008,-0.198671825,-0.12330436,-0.55899755
862,1747532922340,0.5608435,0.14228538,-0.7997756,-0.22903186,-0.07563378,-0.5368933
863,1747532922350,0.51105585,0.18340902,-0.76316703,-0.3206446,0.0513990095,-0.4716458249999999
864,1747532922360,0.5112999,0.19426957,-0.71594195,-0.33129725,0.09054748,-0.4498079
865,1747532922370,0.5186216,0.19671014,-0.6892177,-0.32277513,0.108124346,-0.44315
866,1747532922380,0.5066628400000001,0.243081,-0.62100365,-0.07669904,0.112385397,-0.48176585
867,1747532922390,0.49909708,0.26162934,-0.6199054,-0.00958738,0.087884314,-0.49215218
868,1747532922400,0.4932397,0.26870704,-0.66139513,0.11930962,0.0127831735,-0.50813115
869,1747532922410,0.5051985,0.26529023,-0.7243619,0.216514995,-0.111586455,-0.53556172
870,1747532922420,0.4950701349999999,0.26016502,-0.90118135,0.144077014,-0.173105475,-0.50733221
871,1747532922430,0.479694515,0.27993366,-0.922780415,-0.0055926385,-0.2087918349999999,-0.46498794
872,1747532922440,0.47225076,0.29311275,-0.91863143,-0.068176925,-0.21624869,-0.4527374
873,1747532922450,0.45797342,0.32679265,-0.827232035,-0.18375812,-0.254331875,-0.4468784449999999
874,1747532922460,0.4515059,0.3338703,-0.7907455,-0.20293288,-0.2647182,-0.44847634
875,1747532922470,0.4314932099999999,0.34753753,-0.6703032499999999,-0.082291682,-0.25166872,-0.457531075
876,1747532922480,0.41270079,0.36291313,-0.6322303499999999,0.075101143,-0.20692762,-0.4535363449999999
877,1747532922490,0.4024504,0.368648485,-0.6517549,0.200269715,-0.15712651,-0.4428837
878,1747532922500,0.4041588,0.36584184,-0.6667644,0.300404575,-0.111586455,-0.43276368
879,1747532922510,0.387440875,0.34875781,-0.74425257,0.363255185,-0.10945592,-0.4034689
880,1747532922520,0.371943235,0.34607318,-0.777932495,0.390419425,-0.171507575,-0.3787015
881,1747532922530,0.40220633,0.343144505,-0.77268526,0.39148468,-0.21731395,-0.3787015
882,1747532922540,0.42270714,0.34168017,-0.76853627,0.40373522,-0.31158987,-0.41705105
883,1747532922550,0.41807005,0.33362624,-0.77195305,0.4181163,-0.36272255,-0.46711847
884,1747532922560,0.326304535,0.33862943,-0.82076455,0.33582462,-0.27137612,-0.46818373
885,1747532922570,0.2629716749999999,0.35034418,-0.8427297,0.201601295,-0.0833569435,-0.387756265
886,1747532922580,0.247962165,0.36974673,-0.82686595,0.108124338,0.0945422165,-0.304133
887,1747532922590,0.25528389,0.39842345,-0.781349275,0.077231673,0.220776055,-0.253532935
888,1747532922600,0.2638259,0.41416514,-0.75218445,0.07829694,0.27217507,-0.2396845
889,1747532922610,0.297749825,0.41855818,-0.689217675,0.21571605,0.33129724,-0.27377297
890,1747532922620,0.32020311,0.403182565,-0.710572675,0.38296258,0.30945932,-0.357662545
891,1747532922630,0.310806915,0.388905225,-0.7754918799999999,0.50839748,0.25646241,-0.4386226399999999
892,1747532922640,0.29604146,0.38121742,-0.81246656,0.5251754,0.23276028,-0.45486793
893,1747532922650,0.23697957,0.3704789,-0.8849516,0.49481535,0.17097494,-0.4245079
894,1747532922660,0.25601604,0.372919485,-0.9093573,0.3273025,-0.01091896,-0.33555831
895,1747532922670,0.29726171,0.390003485,-0.85883745,0.273506635,-0.079628517,-0.30786143
896,1747532922680,0.30922052,0.3990336,-0.8324793,0.2796319,-0.08628642,-0.31265512
897,1747532922690,0.3128814,0.4041588,-0.77829856,0.3392867,-0.08362326,-0.34194988
898,1747532922700,0.30067852,0.38878322,-0.7602383,0.41758367,-0.06178534,-0.3749731
899,1747532922710,0.274930495,0.329965395,-0.784644025,0.54834488,0.04660532,-0.389087835
900,1747532922720,0.2683409599999999,0.28457075,-0.8269879499999999,0.60986392,0.173105473,-0.35792885
901,1747532922730,0.26577836,0.27212384,-0.8454143,0.6173208,0.23222765,-0.3371562
902,1747532922740,0.27615078,0.26675457,-0.8546885,0.6127933999999999,0.270044535,-0.3155846
903,1747532922750,0.31239328,0.26406994,-0.9030118,0.5137238,0.35446675,-0.2660497899999999
904,1747532922760,0.283838585,0.28908582,-1.01698655,0.387223615,0.326769875,-0.241016075
905,1747532922770,0.292624655,0.2954313,-1.02589465,0.33289513,0.30466563,-0.22690132
906,1747532922780,0.2868893,0.31471181,-1.02320995,0.2047971,0.29614352,-0.208525515
907,1747532922790,0.27993366,0.32728076,-1.0211354,0.165116,0.29827404,-0.20559604
908,1747532922800,0.27187978,0.345951155,-0.9746426,-0.0037284255,0.33875409,-0.116912775
909,1747532922810,0.27334413,0.34851375,-0.959145,-0.02396845,0.3536678,-0.08841695
910,1747532922820,0.30702401,0.3781667199999999,-0.9148486,-0.02476739875,0.39867522,-0.0332895135
911,1747532922830,0.3133695,0.38878322,-0.9022797,0.0135821217499999,0.42184472,-0.018375812
912,1747532922840,0.340948,0.4127008,-0.88739216,0.039947417,0.4282363,-0.01917476
913,1747532922850,0.27310005,0.46151224,-0.9554841,0.17576863,0.37337518,-0.048469532
914,1747532922860,0.22331238,0.44467232,-1.0218678,0.2082592,0.31691617,-0.016511599
915,1747532922870,0.17425688,0.44320798,-1.0794652,0.230629755,0.179497065,0.0580569129999999
916,1747532922880,0.111290105,0.46419686,-1.1395032,0.22796659,0.12357068,0.08841695
917,1747532922890,0.07468152,0.48128092,-1.2115002,0.15073492,-0.011717909,0.17630127
918,1747532922900,0.023429496,0.4927516,-1.3223021,-0.16245283,-0.03355583,0.283893
919,1747532922910,0.022819353,0.481647,-1.3180312,-0.50813116,0.115581195,0.3949467949999999
920,1747532922920,0.027090356,0.48128092,-1.3059504,-0.62371236,0.18588865,0.43036684
921,1747532922930,0.037584815,0.49446,-1.2456682,-0.8277105,0.36485308,0.50173956
922,1747532922940,0.058817793,0.50837123,-1.1665937,-0.9832391,0.49481535,0.56938386
923,1747532922950,0.05051985,0.5845171,-1.006004,-1.10734245,0.5070658849999999,0.6748450500000001
924,1747532922960,0.0809049799999999,0.6389418499999999,-0.90960137,-1.08949925,0.438622635,0.68043765
925,1747532922970,0.08322352,0.6548056,-0.8947139,-1.0753845,0.4016047,0.6716492
926,1747532922980,0.033191785,0.6616392,-0.93010217,-1.0828413,0.3153183,0.6514092
927,1747532922990,-0.03636453,0.6433349,-0.95792466,-1.2559468,0.1438107,0.62104917
928,1747532923000,-0.0873725,0.6433349,-0.9359596,-1.3869743,0.12197278,0.6103965
929,1747532923010,-0.13569583,0.618929165,-0.84504822,-1.5387745000000002,0.21944448,0.6143912499999999
930,1747532923020,-0.1526578049999999,0.58646953,-0.7623128,-1.545965,0.36751623,0.63250075
931,1747532923030,-0.1881681399999999,0.5758530500000001,-0.69348863,-1.36939745,0.639425,0.68017135
932,1747532923040,-0.21769907,0.58183247,-0.6665203,-1.2128036,0.8223842,0.7174556
933,1747532923050,-0.24478942,0.60867876,-0.69287854,-1.0423613,0.84581995,0.75793564
934,1747532923060,-0.25772446,0.65858847,-0.757431675,-0.802943085,0.67670925,0.801078875
935,1747532923070,-0.272733975,0.692512425,-0.8173477,-0.67777452,0.485227965,0.8327705
936,1747532923080,-0.24149464,0.747303305,-0.8941037000000001,-0.54568172,0.1736381089999999,0.827710475
937,1747532923090,-0.20793676,0.78366786,-0.9413288,-0.4660532,-0.026631612,0.8069378
938,1747532923100,-0.191829,0.8310149299999999,-0.950359,-0.41847138,-0.1171790906666666,0.7682332000000001
939,1747532923110,-0.16522676,0.8664033,-0.9442575,-0.29028457,-0.22370553,0.68656296
940,1747532923120,-0.083101495,0.88019245,-0.944501535,-0.159257038,-0.196541295,0.6077334
941,1747532923130,-0.05588911,0.8829991,-0.942305,-0.113983296,-0.18695392,0.5795039
942,1747532923140,0.054424766,0.93181056,-0.8944698,0.18748654,-0.2796319,0.42184472
943,1747532923150,0.102992155,0.9601213,-0.9003272,0.35420042,-0.41065946,0.29933932
944,1747532923160,0.14228537,1.0277251,-0.9460879,0.54435016,-0.642088145,0.032224247
945,1747532923170,0.171450215,1.0384636500000002,-1.01906105,0.59335233,-0.797350435,-0.322242508
946,1747532923180,0.1790159949999999,0.998560285,-1.11546365,0.49907641,-0.8314389,-0.73529881
947,1747532923190,0.1696198,0.97134787,-1.1536586,0.40586576,-0.78776306,-0.89642006
948,1747532923200,0.10909359,0.9188756,-1.1861182,0.19867182,-0.608266,-1.1105382
949,1747532923210,-0.0292868735,0.83504188,-1.1399914,-0.11558119,-0.28016455,-1.24902265
950,1747532923220,-0.13716018,0.7570656,-1.014179885,-0.2540655699999999,-0.058589547,-1.1603393
951,1747532923230,-0.20903504,0.6973936000000001,-0.871284365,-0.25433189,0.0561927,-0.9558085
952,1747532923240,-0.197930425,0.68775332,-0.76414323,-0.10333065225,-0.014381068,-0.7486146
953,1747532923250,-0.0982330355,0.67127947,-0.6500464699999999,0.15339807775,-0.19414445,-0.574710185
954,1747532923260,-0.016839951,0.6555378,-0.59281504,0.64208816,-0.644218685,-0.487092185
955,1747532923270,0.22697324,0.5422952,-0.6484601,0.9763149,-0.9800433,-0.4676511
956,1747532923280,0.2438132,0.5103237,-0.7197248,1.1105382,-1.1574098,-0.47830373
957,1747532923290,0.229535855,0.52679755,-0.7551131,1.1574098,-1.1062771,-0.45034054
958,1747532923300,0.21525851,0.5432714,-0.7905014,1.2042814,-1.0551444,-0.42237735
959,1747532923310,0.25381953,0.6351589550000001,-1.06469975,0.94462325,0.2905508599999999,0.08229168
960,1747532923320,0.36950266,0.65090066,-1.1246158,0.7755125,0.813862,0.20240025
961,1747532923330,0.4148973,0.6560259,-1.1207108,0.606401805,1.0748519,0.088150635
962,1747532923340,0.41855815,0.65919864,-1.1775762,0.54275227,1.063134,0.03089267
963,1747532923350,0.32447411,0.572070175,-1.29960485,0.28682246,0.63889237,0.0170442315
964,1747532923360,0.31239327,0.5155709399999999,-1.2858156,-0.0247673999999999,0.1174454049999999,0.1078580275
965,1747532923370,0.38121743,0.46968818,-1.20320225,-0.29720879,-0.309991965,0.203199195
966,1747532923380,0.48152496,0.44394015,-1.0905698,-0.37923415,-0.46685215,0.20399814
967,1747532923390,0.52203846,0.43930307,-1.0323621,-0.39734364,-0.5273059,0.18748654
968,1747532923400,0.5430274,0.44564855,-0.950359,-0.40266997,-0.5795039,0.18855181
969,1747532923410,0.5648705,0.38353597,-0.8510276750000001,-0.3826962499999999,-0.3107909,0.266049795
970,1747532923420,0.545712,0.36632994,-0.79391825,-0.298806675,-0.10146644,0.297208785
971,1747532923430,0.46834587,0.3748719299999999,-0.724361915,-0.18056232,-0.062584287,0.294545625
972,1747532923440,0.44027928,0.36901456,-0.7214332,-0.11558119,-0.051132694,0.2892193
973,1747532923450,0.42124277,0.38878322,-0.76804817,-0.027696876,-0.07350325,0.26205507
974,1747532923460,0.47737597,0.39756925,-0.84236355,-0.0135821219999999,-0.33981936,0.11025486665
975,1747532923470,0.5264314750000001,0.351808525,-0.8260117,-0.012250541,-0.67564398,-0.0732369333499999
976,1747532923480,0.53180075,0.32337585,-0.8070973,-0.007989483,-0.81066626,-0.14487597
977,1747532923490,0.5015376,0.22648512,-0.7309515,0.021837922,-0.9986854,-0.23116238
978,1747532923500,0.464685,0.12056428,-0.61770886,0.12410331,-1.0407634,-0.2444782
979,1747532923510,0.421852945,0.010128375,-0.446746765,0.4841627,-0.7904262200000001,-0.1166464535
980,1747532923520,0.42795437,-0.0876165515,-0.378288715,0.7925567499999999,-0.51505535,0.0367516264999999
981,1747532923530,0.4587056,-0.2040318599999999,-0.38597654,0.97764645,-0.28948561,0.2138518449999999
982,1747532923540,0.4761557,-0.26651052,-0.40123013,1.0610034,-0.16884442,0.32117724
983,1747532923550,0.58134437,-0.359496325,-0.5131303700000001,1.15740985,0.217047623,0.741956715
984,1747532923560,0.71459964,-0.404280835,-0.65468355,1.0444918,0.3094593249999999,1.17898145
985,1747532923570,0.81014802,-0.4444282499999999,-0.8361401500000001,0.7771104,0.2002697249999999,1.6594157
986,1747532923580,0.87677567,-0.46614932,-0.93095643,0.4527374,0.044474789,2.02959515
987,1747532923590,0.92082804,-0.47054234,-0.95377576,0.2775014,-0.021837922,2.2194786
988,1747532923600,1.257383,-0.3287451,-0.780251,-0.23808661,-0.06977482,2.650378
989,1747532923610,1.257383,-0.3287451,-0.780251,-0.23808661,-0.06977482,2.650378
990,1747532923620,1.5441502,-0.041977845,-0.5427833,-0.34834146,0.08042747,2.398443
991,1747532923630,1.6061407,0.07297312,-0.5037342,-0.34088463,0.15073492,2.069276
992,1747532923640,1.602724,0.16547081,-0.5091034,-0.36112466,0.21145499,1.6628778
993,1747532923650,1.4137016,0.285913065,-0.5997707,-0.61305967,0.35792886,0.46179214
994,1747532923660,1.29240515,0.285424945,-0.61551237,-0.72864087,0.44421527,0.0852211549999999
995,1747532923670,1.17306115,0.2646800849999999,-0.6088007950000001,-0.82344942,0.53636065,-0.22264026
996,1747532923680,1.1197346,0.24942651,-0.59964865,-0.86179894,0.5816344,-0.360592
997,1747532923690,0.87299275,0.15497635,-0.545712,-0.87618,0.6514092,-0.5949502
998,1747532923700,0.77561396,0.12007617,-0.4829893,-0.568052275,0.6045375749999999,-0.9819075
999,1747532923710,0.6545615499999999,0.074803548,-0.41245674,-0.28069719,0.487358495,-1.07804765
1000,1747532923720,0.565114565,0.057963598,-0.40952805,0.1065264349999999,0.26578348,-1.1422298
