id,timestamp,acc_x,acc_y,acc_z,gyro_x,gyro_y,gyro_z
1,1747533294330,-0.40940602,0.437350585,0.7440085000000001,-0.588558595,-0.4612594969999999,0.166447572
2,1747533294340,-0.971957935,0.361692845,-0.0420998999999999,0.20559605,-0.93716638,-0.453536335
3,1747533294350,-1.36781875,0.42282918,-1.03858565,1.80296005,-0.85567368,-1.14755615
4,1747533294360,-1.29130685,0.44296391,-1.27605335,1.7912422,-0.719586175,-0.90600745
5,1747533294370,-1.1131451,0.42905265,-1.5036367,1.3496901,-0.73130405,-0.680704
6,1747533294380,-1.01283758,0.3126373449999999,-1.46580785,0.37603834,-1.2282499,-0.5470133
7,1747533294390,-0.85359023,0.151803618,-1.381242,0.23382554,-1.2799152,-0.54994277
8,1747533294400,-0.7946504,0.107385196,-1.334505,0.0143810699999999,-1.3310479000000002,-0.56459017
9,1747533294410,-0.67762493,-0.010982578,-1.1654954,-0.08894958,-1.3137374,-0.594151275
10,1747533294420,-0.643823,-0.087494525,-1.04993432,-0.09454222,-1.26606685,-0.632767075
11,1747533294430,-0.65175485,-0.137892345,-0.92717347,0.20133498,-1.0487529,-0.72171664
12,1747533294440,-0.737541,-0.117391534,-0.9015475,0.3387541,-0.86233157,-0.6812366
13,1747533294450,-0.737541,-0.117391534,-0.9015475,0.3805657249999999,-0.761664085,-0.6311692
14,1747533294460,-0.7878168,-0.08908089,-0.9440134,0.42237735,-0.6609966,-0.5811018
15,1747533294470,-0.8117344,-0.094938265,-0.9359595,0.466852125,-0.5898902,-0.527039615
16,1747533294480,-0.8254016,-0.08505395,-0.9641481,0.56965015,-0.402137335,-0.38722363
17,1747533294490,-0.8066092,-0.06345488,-0.9862353,0.66365975,-0.19973709,-0.27164245
18,1747533294500,-0.78513217,-0.07858644,-0.9586569,0.71532506,-0.14594123,-0.26205507
19,1747533294510,-0.793308085,-0.076267892,-1.04078215,0.6948187299999999,-0.1438107,-0.2583266349999999
20,1747533294520,-0.71948075,0.12032023,-1.0687267,-0.45859635,-0.73290193,-0.32170987
21,1747533294530,-0.77317333,-0.071020655,-0.9117979,-0.036218993,-0.3057309,-0.3536678
22,1747533294540,-0.83784854,-0.0690682,-0.80343646,0.31691617,0.29294774,-0.267914
23,1747533294550,-0.86823365,-0.0175721215,-0.77988493,0.537958535,0.47617322,-0.2508697749999999
24,1747533294560,-0.95353163,0.0679699435,-0.8365062000000001,0.8817726499999999,0.7355651000000001,-0.188818125
25,1747533294570,-1.05774405,0.145946235,-1.00807845,0.9930928,0.84741785,-0.082557995
26,1747533294580,-1.1975889,0.28871974,-1.355738,0.5789712,0.74781567,0.34887412
27,1747533294590,-1.0882512,0.26162934,-1.4255384,0.30200246,0.7520767,0.5028048
28,1747533294600,-0.96719885,0.2042759,-1.4338363,0.058056913,0.8064052,0.5683186
29,1747533294610,-0.925220995,0.172670495,-1.41296945,-0.1504686085,0.848749465,0.58935755
30,1747533294620,-0.88238897,0.1308146849999999,-1.37306615,-0.44501424,0.89562109,0.625576525
31,1747533294630,-0.8788501,0.10055158,-1.2900866,-0.6679208,0.9076053,0.6791061
32,1747533294640,-0.8771418,0.0622346,-1.1990532,-0.7222493,0.9374327,0.7185209
33,1747533294650,-0.865427,0.029286869,-1.09118,-0.6644587,1.04342655,0.76725675
34,1747533294660,-0.87213855,0.0240396385,-1.0902037,-0.5624596500000001,1.22345625,0.8428905
35,1747533294670,-0.8923953,0.021965152,-1.1088740499999998,-0.483630085,1.3733922,0.903077925
36,1747533294680,-0.921072,0.04075756,-1.189047,-0.44048685,1.52039865,0.975515925
37,1747533294690,-0.92363465,0.039293217,-1.2144289,-0.452737395,1.64609985,1.0546118
38,1747533294700,-0.9261973,0.037828874,-1.2398108,-0.47351006,1.7006947,1.0945592
39,1747533294710,-0.829428565,-0.040147417,-1.2104019,-0.69375345,1.7821874,1.17072565
40,1747533294720,-0.79782313,-0.0776102,-1.155611,-0.7456851,1.8130801,1.1307782
41,1747533294730,-0.800019665,-0.076633975,-1.1479232,-0.731836675,1.84397275,1.11453295
42,1747533294740,-0.8363842,-0.017328065,-1.1685461,-0.71319455,1.9643476,1.0998856
43,1747533294750,-0.86615915,-0.004026945,-1.1766,-0.7696535600000001,1.98112555,1.13956665
44,1747533294760,-0.886171815,0.0185483505,-1.19405015,-0.94968325,1.9382486,1.226652
45,1747533294770,-0.85639685,0.016595893,-1.1819692,-1.107875,1.8445054,1.2522184
46,1747533294780,-0.855786725,0.0175721215,-1.16085825,-1.13823505,1.84077695,1.2615395
47,1747533294790,-0.8571291,0.0353883,-1.0604287,-1.0892329,2.0490363,1.3214606
48,1747533294800,-0.8759214,0.040513504,-1.0033194,-0.9816412,2.181129,1.3534185
49,1747533294810,-0.88788027,0.05832968,-0.9825745,-0.87831056,2.283927,1.4029533
50,1747533294820,-0.8851956,0.082003236,-1.0201592,-0.8314389,2.390986,1.4817829
51,1747533294830,-0.8576172,0.0741934,-1.0394398,-0.83516735,2.4628913,1.5755261
52,1747533294840,-0.716064,0.051007964,-1.0416363,-0.968858,2.4005735,1.6575515
53,1747533294850,-0.6910480999999999,0.0512520205,-1.04114815,-1.0250507,2.3702134,1.65329045
54,1747533294860,-0.662981485,0.0522282485,-1.027725,-1.1057445,2.32573855,1.6476978
55,1747533294870,-0.667862655,0.05564505,-1.00173295,-1.1241203,2.3281355,1.65861675
56,1747533294880,-0.6595647200000001,0.0577195385,-0.94791835,-1.0615361,2.4080303,1.7092168
57,1747533294890,-0.6145361,0.048323333,-0.9130182,-0.8809737,2.4527714,1.6863136
58,1747533294900,-0.67555046,0.119343996,-0.9952655,-0.8341021,2.5241442,1.7528926
59,1747533294910,-0.66176123,0.139234663,-1.02382015,-0.8277105,2.57873895,1.80375905
60,1747533294920,-0.6335725999999999,0.156806785,-1.0856886499999998,-0.8442221,2.7023096,1.88764865
61,1747533294930,-0.5100796,0.1044565,-1.103871,-1.1211908,2.8889973,1.8977686
62,1747533294940,-0.49860895,0.060770255,-1.0499343,-1.2032162,2.8644962,1.8232001
63,1747533294950,-0.5757311,0.0024405725,-0.96768695,-1.18244355,2.8607677,1.7867148
64,1747533294960,-0.6347929,0.082491346,-1.0077124,-1.0945592,2.9119003,1.7859159
65,1747533294970,-0.64089435,0.101893903,-1.03919575,-1.09855395,2.95717405,1.8311896
66,1747533294980,-0.59989275,0.1099477949999999,-1.0684825999999998,-1.1531487500000002,2.99579,1.9060244
67,1747533294990,-0.54864067,0.1342315,-1.1273005,-1.3827133,2.984871,2.0005667
68,1747533295000,-0.5343633350000001,0.11946603,-1.09862375,-1.46473865,2.9885995000000003,2.0309267
69,1747533295010,-0.494093885,0.1007956449999999,-1.05005635,-1.6362462,2.97501735,2.08711935
70,1747533295020,-0.407819645,0.0984771,-1.00954285,-1.9600866,2.863431,2.1283984
71,1747533295030,-0.3436326,0.030751213,-0.78464407,-2.1329258,2.6658244,2.1110878
72,1747533295040,-0.330331485,0.0420998765,-0.7537707849999999,-2.3483756,2.3712788,2.1518342
73,1747533295050,-0.22965786,-0.024161667,-0.5806122,-2.2860576,2.3510387,2.13745315
74,1747533295060,-0.22062774,-0.021965152,-0.56645685,-2.10442995,2.3747408,2.10123415
75,1747533295070,-0.22624107,0.0776102,-0.54937285,-1.4647386,2.9113677,2.1438446
76,1747533295080,-0.251867085,0.10201593,-0.598428375,-1.2724584,3.1329427,2.253567
77,1747533295090,-0.28237423,0.16986385,-0.7678041,-1.2676647,3.3353431,2.4469125
78,1747533295100,-0.2456436149999999,0.17218239,-0.801484,-1.3534185,3.34679455,2.50683365
79,1747533295110,-0.171450215,0.163274295,-0.83919085,-1.5949672,3.2921997,2.60537065
80,1747533295120,-0.0644311138999999,0.09640261,-0.75914008,-2.1502363,2.881274,2.65357375
81,1747533295130,0.13154685,-0.0019524579,-0.5232587,-2.9449236,2.1640847,2.6919234
82,1747533295140,0.2633378,-0.099087246,-0.32850105,-3.2261534,1.8429075,2.6610305
83,1747533295150,0.3956168,-0.16034561,-0.12910628,-3.4013894,1.5755261,2.6184201
84,1747533295160,0.4402792749999999,-0.18243279,-0.0205008074999999,-3.4248252,1.47326075,2.60430525
85,1747533295170,0.490433035,-0.225508895,0.1817006175,-3.3811494,1.3281185,2.6106968
86,1747533295180,0.6540734,-0.29579738,0.5347294,-2.9161615,1.4013554,2.8815403
87,1747533295190,0.87201655,-0.37658033,0.6221019,-2.7766118,1.3699301,2.892193
88,1747533295200,0.998072075,-0.415507465,0.6624933749999999,-2.7489149,1.2836436999999998,2.83733185
89,1747533295210,1.2484748,-0.5004394000000001,0.74779141,-2.7182886,1.04848655,2.6671558500000003
90,1747533295220,1.8138335,-0.7138674,1.027481,-2.7004454,0.4910869,2.20563
91,1747533295230,1.8777765,-0.7293650700000001,1.07104525,-2.54891155,0.125967515,1.7576863500000002
92,1747533295240,2.003466,-0.75194037,1.1678139,-2.02347,-0.33502567,0.8016115
93,1747533295250,1.98186695,-0.7375409850000001,1.19588055,-1.692439,-0.31824775,0.504669035
94,1747533295260,1.8593502,-0.681651885,1.2229709,-1.04688865,-0.278034015,0.0202400249999999
95,1747533295270,1.5968665,-0.5349735,1.121199,-0.4266384075,-0.2580603,-0.311057225
96,1747533295280,1.4933862,-0.4373506,0.93303087,0.7952199,-0.52357745,-0.9757822
97,1747533295290,1.3022895,-0.24747404,0.52911615,1.0711234,-0.69295454,-1.252751
98,1747533295300,1.128764815,-0.137282198,0.31397967,1.21067305,-0.806937845,-1.4447649
99,1747533295310,0.7592621,0.073217176,-0.049543623,1.3928332,-0.9598033,-1.6783241
100,1747533295320,0.705447475,0.120442253,-0.1079953315,1.3928332,-0.9598033,-1.6783241
101,1747533295330,0.652365,0.22502078,-0.24332508,1.2953615,-1.1046792,-1.5925703
102,1747533295340,0.6823841,0.23258655,-0.26651052,1.1994878,-1.2293152,-1.6335831
103,1747533295350,0.6571241750000001,0.2527212749999999,-0.26370386,1.1222561,-1.3630059,-1.67938945
104,1747533295360,0.61526835,0.269073115,-0.24222682,1.0367685999999998,-1.5547535,-1.7465011
105,1747533295370,0.5559624,0.26529023,-0.21916342,1.0471549,-1.7033578,-1.8008295
106,1747533295380,0.51349646,0.26919514,-0.23356278,1.1041466,-1.7145431,-1.8253306
107,1747533295390,0.47371513,0.27968961,-0.26943919,1.1606056,-1.6492957,-1.82639585
108,1747533295400,0.40818575,0.32032515,-0.367184125,1.36673425,-1.34676065,-1.77712735
109,1747533295410,0.351564465,0.34692739,-0.4676136949999999,1.52679025,-1.0458234,-1.6927051999999998
110,1747533295420,0.300434465,0.34936795,-0.52704164,1.50974605,-0.9733854,-1.6072178
111,1747533295430,0.27017137,0.35998443,-0.5613316,1.3582122,-1.0594054,-1.4471618
112,1747533295440,0.306779965,0.34570709,-0.5564505,1.2732573500000002,-1.1496866,-1.42772075
113,1747533295450,0.38792901,0.305925755,-0.48701623,1.07165605,-1.4783207,-1.4756576
114,1747533295460,0.43246946,0.28042176,-0.42246306,0.9550096,-1.7166736,-1.5430355
115,1747533295470,0.47762007,0.27432033,-0.33460248,0.96752643,-1.94730345,-1.72306525
116,1747533295480,0.387440905,0.276882945,-0.34595114,1.05754125,-1.9728698,-1.81760745
117,1747533295490,0.12764193,0.3807293,-0.5017817,1.3299826,-1.8253306,-1.758219
118,1747533295500,0.1167813849999999,0.39610491,-0.566945,1.3725931999999998,-1.69590095,-1.6381104
119,1747533295510,0.095060295,0.42685613,-0.69348867,1.3568806,-1.50681655,-1.44742805
120,1747533295520,0.116293275,0.438326835,-0.7614586050000001,1.2133362,-1.44609655,-1.34196685
121,1747533295530,0.181578595,0.396593035,-0.720823085,1.03756755,-1.51400715,-1.3246563
122,1747533295540,0.2518671,0.2801777,-0.44564855,0.6982809,-2.2540996,-1.591505
123,1747533295550,0.13716017,0.26162934,-0.3900035,0.6969493,-2.4080303,-1.6293219
124,1747533295560,0.109337645,0.25613807,-0.36327922,0.75580515,-2.634399,-1.6863136
125,1747533295570,0.107019105,0.245155515,-0.335334655,1.0892329,-2.721218,-1.7795243
126,1747533295580,0.12080834,0.21184167,-0.3912238,1.18883515,-2.6881948,-1.82080325
127,1747533295590,-0.0718748699999999,0.289451895,-0.498853035,1.4285197,-2.4359934,-1.7084178
128,1747533295600,-0.2463757999999999,0.3615708199999999,-0.656758035,1.57472725,-2.1571605,-1.4527543500000002
129,1747533295610,-0.21220778,0.3267926599999999,-0.752428465,1.52039875,-2.08152675,-1.3057479
130,1747533295620,-0.16205402,0.24064046,-0.76341105,1.335309,-2.218413,-1.2836437
131,1747533295630,-0.14008886,0.1969542,-0.70288485,1.2618058,-2.483664,-1.3944311
132,1747533295640,-0.15766099,0.14521407,-0.67506236,1.3102753,-2.821353,-1.7193369
133,1747533295650,-0.16315227,0.126177605,-0.6488261799999999,1.3970943500000002,-2.80564035,-1.79470435
134,1747533295660,-0.282496265,0.09786696,-0.63942995,1.5784556,-2.73346865,-1.8948392
135,1747533295670,-0.559257165,0.136916115,-0.708742225,1.7741979,-2.5529063,-1.8136128
136,1747533295680,-0.700322275,0.200371005,-0.85395631,1.96088555,-2.309227,-1.4871092
137,1747533295690,-0.5191097,0.15766099,-0.9994144,1.98991405,-2.24371325,-1.2860405
138,1747533295700,-0.5191097,0.15766099,-0.9994144,1.933455,-2.2977755,-1.3054816
139,1747533295710,-0.55620646,0.09298581,-0.98062205,1.8216022,-2.4762073,-1.4434333
140,1747533295720,-0.780617075,0.085298003,-0.98440495,1.93718335,-2.60403895,-1.6226641
141,1747533295730,-0.812588605,0.129838455,-1.0837362499999998,2.11241935,-2.4676851500000003,-1.6474315
142,1747533295740,-0.84736675,0.16119981,-1.19685675,2.164351,-2.24131645,-1.5867114
143,1747533295750,-1.04651747,0.2511349,-1.28166665,2.01734455,-2.03678565,-1.3326458
144,1747533295760,-1.12034485,0.35632357,-1.3147364,1.7643443,-1.9382487,-0.902545275
145,1747533295770,-0.8798264200000001,0.26675456,-1.25335595,1.4000238500000002,-2.0793963,-0.607467055
146,1747533295780,-0.3270367,-0.1564407,-0.8049008,0.545948,-2.9433258,-0.9491506
147,1747533295790,-0.3270367,-0.1564407,-0.8049008,0.545948,-2.9433258,-0.9491506
148,1747533295800,-0.42978483,-0.27456442,-0.6169767,0.67005134,-3.077549,-1.267132
149,1747533295810,-0.666886445,-0.274076285,-0.56572465,1.38218065,-2.6389264,-1.49962605
150,1747533295820,-0.8031924349999999,-0.22514281,-0.73937145,1.9859193,-2.10389735,-1.55661775
151,1747533295830,-0.950969065,-0.12007617,-1.02430835,2.45170615,-1.40242065,-1.438906
152,1747533295840,-1.0296775,-0.05222825,-1.1404796,2.54758,-0.931840075,-1.16060565
153,1747533295850,-1.038463615,0.05051985,-1.35134495,2.20163535,-1.022387575,-0.910534785
154,1747533295860,-0.87055218,0.020744866,-1.3891738500000002,1.6213325,-1.3946975,-0.789360935
155,1747533295870,-0.681407815,-0.061624456,-1.29692025,0.95208012,-1.92679705,-0.82584625
156,1747533295880,-0.5315566700000001,-0.24076248,-0.98208637,0.030360037,-2.9656963,-1.371528
157,1747533295890,-0.4783522,-0.42734425,-0.63235232,0.1752359985,-2.90178035,-1.48684285
158,1747533295900,-0.541074915,-0.50690691,-0.49043302,0.58376493,-2.60750105,-1.68871045
159,1747533295910,-0.6424807,-0.52289265,-0.46712555,1.15847515,-2.0844563000000003,-1.8202706
160,1747533295920,-0.9855032,-0.4417436,-0.7382732,2.3350596,-1.0418286,-1.8455707
161,1747533295930,-1.1875826,-0.3316738,-0.94962674,2.404302,-0.89642006,-1.6714
162,1747533295940,-1.2871579,-0.24259292,-1.1114367,2.2370553,-0.9502159,-1.4109428
163,1747533295950,-1.3179091,-0.20500809,-1.2476206,1.861017,-1.1334413,-1.1472899
164,1747533295960,-1.172695,-0.23429495,-1.2371262,1.63198515,-1.26713205,-1.06792767
165,1747533295970,-0.92912596,-0.43124917,-0.9178993,0.7387609,-2.018676,-1.0578076
166,1747533295980,-0.8844635,-0.48006064,-0.75169635,0.78083885,-2.1108215,-1.128115
167,1747533295990,-0.85127175,-0.5086153,-0.6555378,1.005077,-1.9984361,-1.1813782
168,1747533296000,-0.82711005,-0.50885934,-0.6118515,1.3592775,-1.6985642,-1.2239889
169,1747533296010,-0.84102124,-0.4893348,-0.643823,1.748099,-1.3427658,-1.2442288
170,1747533296020,-0.9349833,-0.4097721,-0.8434618,2.2509038,-0.79415464,-1.176052
171,1747533296030,-1.0204034,-0.35363895,-0.9659786,2.3249397,-0.62264705,-1.081776
172,1747533296040,-1.0565238,-0.29262465,-1.0665302,2.282329,-0.48363006,-0.912399
173,1747533296050,-1.06238115,-0.2864011749999999,-1.0686046500000002,2.25356695,-0.46818373,-0.8578041999999999
174,1747533296060,-1.0265048,-0.29872608,-1.125592,2.141714,-0.4032026,-0.6354303
175,1747533296070,-0.9984382,-0.30360723,-1.1907552,2.102832,-0.314253,-0.5432849
176,1747533296080,-0.9850151,-0.29433304,-1.2886223,2.0335898,-0.17204021,-0.4293016
177,1747533296090,-0.9508471,-0.29262465,-1.3891739,1.8855181,-0.05273059,-0.30253512
178,1747533296100,-0.8402891,-0.33094162,-1.4074782,1.381648,-0.12357068,-0.19387813
179,1747533296110,-0.82491344,-0.3414361,-1.381364,1.081776,-0.20293288,-0.18216023
180,1747533296120,-0.87323684,-0.33313814,-1.3457316,0.75580513,-0.2050634,-0.11451593
181,1747533296130,-0.88849044,-0.32166745,-1.31485835,0.663393435,-0.163251775,-0.05086637825
182,1747533296140,-0.89007676,-0.383658,-1.1783084,0.47723848,-0.049002163,0.13369069
183,1747533296150,-0.81893408,-0.40208431,-1.1933178999999998,0.434095265,-0.02316950095,0.162719145
184,1747533296160,-0.7270465500000001,-0.429052635,-1.26140985,0.3534014749999999,0.03781688755,0.19228023
185,1747533296170,-0.7063017,-0.43759465,-1.3144923,0.3158509,0.072970614,0.19281286
186,1747533296180,-0.609655,-0.43613032,-1.432128,0.06178534,0.3888215,0.16990969
187,1747533296190,-0.6286915,-0.46029195,-1.3903941,-0.350472,0.51771855,0.05006743
188,1747533296200,-0.661517175,-0.450163585,-1.3709916,-0.4346279,0.513191175,0.039414785
189,1747533296210,-0.75389284,-0.41733786,-1.3159567,-0.592553375,0.5070659,0.038615836
190,1747533296220,-0.7831797,-0.4075756,-1.2678773,-0.77444726,0.51665324,0.06711166
191,1747533296230,-0.82125264,-0.4024504,-1.2363939,-0.81972101,0.52943642,0.08229168
192,1747533296240,-0.9191196,-0.3773125,-1.1844097,-0.94595486,0.6087986,0.16138756
193,1747533296250,-0.93327487,-0.3778006,-1.1670818,-1.0466223,0.77604514,0.3520699
194,1747533296260,-0.9513352,-0.383658,-1.1536586,-1.0684602,0.89535475,0.42663842
195,1747533296270,-0.9654905,-0.379509,-1.1526824,-1.0743192,1.0221212,0.5001417
196,1747533296280,-0.96622264,-0.37682438,-1.1751356,-1.1014835,1.2106731,0.5949502
197,1747533296290,-0.95377576,-0.39537275,-1.1827015,-1.2341089,1.4833808,0.7126619
198,1747533296300,-0.95377576,-0.39537275,-1.1827015,-1.2341089,1.4833808,0.7126619
199,1747533296310,-0.971469875,-0.4190462849999999,-1.1663496,-1.3590111,1.5504924,0.777643055
200,1747533296320,-1.0208915,-0.409284,-1.1868503,-1.44183545,1.613343,0.824514685
201,1747533296330,-1.05469345,-0.40269445,-1.2019818999999998,-1.51826815,1.7177389,0.8961536999999999
202,1747533296340,-1.0936205,-0.3956168,-1.2217506,-1.7427727,2.027731,1.1361046
203,1747533296350,-1.0963051,-0.4122127,-1.2044225000000002,-1.7960359,2.073271,1.1747204
204,1747533296360,-1.1033828,-0.435764225,-1.1801388,-1.87513175,2.1544973,1.24342995
205,1747533296370,-1.1192465,-0.45052966,-1.2012497,-1.9467708,2.3068302,1.3448963
206,1747533296380,-1.0592085,-0.47493544,-1.2112561,-2.047971,2.534264,1.4034859
207,1747533296390,-1.0535951,-0.48323337,-1.2119883,-2.083391,2.5672873,1.3946975
208,1747533296400,-1.0388296,-0.48677219,-1.21162225,-2.1598237,2.6346654,1.3763217
209,1747533296410,-1.0269929,-0.47945048,-1.1996634,-2.23545755,2.70071175,1.351288
210,1747533296420,-1.03943985,-0.46736963,-1.18721645,-2.300705,2.7574370000000004,1.3339774
211,1747533296430,-1.0910579,-0.43588624,-1.19771095,-2.39551345,2.8543761,1.3776532
212,1747533296440,-1.1222972,-0.404402875,-1.2189439000000002,-2.48606085,2.95797315,1.44822705
213,1747533296450,-1.1064335500000002,-0.405623155,-1.21540505,-2.53612825,3.0035132,1.48444605
214,1747533296460,-1.0504224,-0.4275883,-1.1736712,-2.6019084,2.999252,1.4860439
215,1747533296470,-0.99807213,-0.4051350299999999,-1.1456047,-2.6493127000000003,3.0013825,1.4756575500000002
216,1747533296480,-0.92668538,-0.3730415099999999,-1.0793432,-2.711897,2.9981868,1.4647386
217,1747533296490,-0.892029215,-0.34863578,-0.99990255,-2.72441385,2.9648973,1.4626081
218,1747533296500,-0.873480865,-0.3137356,-0.95255545,-2.7196202,2.9033782500000003,1.4711302000000002
219,1747533296510,-0.8489531,-0.280299775,-0.94413545,-2.70683705,2.85437625,1.49216915
220,1747533296520,-0.8080735,-0.275296585,-0.93290882,-2.6535737,2.8554415,1.4927018
221,1747533296530,-0.7524285,-0.232586555,-0.91741117,-2.49618085,2.9992521,1.4748586
222,1747533296540,-0.7219213,-0.18157859,-0.87640953,-2.3046997,3.1776838,1.496164
223,1747533296550,-0.7060576,-0.1769415,-0.856885,-2.27247535,3.1750207,1.50734925
224,1747533296560,-0.68933965,-0.1516815799999999,-0.8848295500000001,-2.24238165,3.16383545,1.5425029
225,1747533296570,-0.64101632,-0.1186118274999999,-0.91985175,-2.27939965,3.14146485,1.5912387
226,1747533296580,-0.43368974,-0.16986385,-0.8117344,-2.420281,2.9566414,1.530785
227,1747533296590,-0.37413976,-0.1398448,-0.7380291,-2.3829967,2.957973,1.48684285
228,1747533296600,-0.35205257,-0.132157,-0.7076439999999999,-2.2895197,2.973153,1.4098775
229,1747533296610,-0.35058823,-0.126421655,-0.6511447699999999,-2.15662795,3.0035131,1.3499564
230,1747533296620,-0.4419877,-0.043930303,-0.71996886,-1.9547603,3.1941955,1.4636734
231,1747533296630,-0.35705575,0.006833603,-0.869576,-2.0256004,3.2479913,1.4940335
232,1747533296640,-0.351320415,-0.0141553199999999,-0.8449262200000001,-2.05329725,3.20990815,1.47086395
233,1747533296650,-0.365353705,-0.0063454889999999,-0.83638422,-2.1089573,3.1252196000000003,1.44369965
234,1747533296660,-0.371211065,0.0403914725,-0.853956325,-2.1979069,3.01629625,1.46180915
235,1747533296670,-0.31300342,0.043930303,-0.780617075,-2.3973777,2.5806031,1.5243934
236,1747533296680,-0.18035831,0.042710018,-0.6954411,-2.4234767,2.5521073,1.50681655
237,1747533296690,-0.01854835,0.003172744,-0.58134437,-2.4511735,2.5198832,1.3843112
238,1747533296700,-0.046370875,0.0190364645,-0.5627960350000001,-2.42480825,2.5414547,1.37392485
239,1747533296710,-0.074925575,0.0562551925,-0.51422865,-2.36302295,2.5899242,1.38218065
240,1747533296720,-0.051252022,0.056133166,-0.4183141,-2.253567,2.6274748,1.4221281
241,1747533296730,0.041977845,0.08956901,-0.40342662,-2.2024343,2.5848641,1.4636734
242,1747533296740,0.117635585,0.048567392,-0.33631086,-2.21308695,2.5446504,1.44689545
243,1747533296750,0.1359398775,0.055645051,-0.3137355899999999,-2.2461102,2.43040085,1.4090785499999998
244,1747533296760,0.19854057,0.09384001,-0.25076883,-2.30390075,2.283927,1.38537645
245,1747533296770,0.277249035,0.127519905,-0.159247352,-2.37074605,2.139051,1.3731259
246,1747533296780,0.39878955,0.10055158,0.08566409,-2.3393207,1.7587516,1.2942963
247,1747533296790,0.420998765,0.11824573,0.0999414419999999,-2.3105586,1.7286579,1.29216575
248,1747533296800,0.46639341,0.1347196,0.145458122,-2.24903955,1.68178625,1.29323105
249,1747533296810,0.55803692,0.14594624,0.25394156,-2.1648836,1.5861788,1.30574795
250,1747533296820,0.7004443,0.11324256,0.45321432,-2.0714068,1.3491575,1.3038837
251,1747533296830,0.8520039,0.11153416,0.545468,-2.0256004,1.135572,1.2676647
252,1747533296840,0.9254651,0.1086054725,0.60904485,-2.0026972,0.9369001,1.2042814
253,1747533296850,1.0903258,0.0635769115,0.82515755,-1.89936655,0.7222493,1.117995
254,1747533296860,1.2279741,0.0024405725,1.0581102,-1.67938945,0.4117246999999999,0.96912432
255,1747533296870,1.30961125,-0.0358764165,1.1977109,-1.41041015,0.222906585,0.834634695
256,1747533296880,1.37428645,-0.0683360299999999,1.28130055,-1.07538445,0.0471379549999999,0.677508205
257,1747533296890,1.4460392,-0.10592084,1.3020455,-0.4788364,-0.13315806,0.37444046
258,1747533296900,1.44518495,-0.096890725,1.2418854,0.02396845,-0.19707393,0.0844222099999999
259,1747533296910,1.4083323,-0.071996888,1.10838605,0.7222493,-0.31558459,-0.33662357
260,1747533296920,1.3151025500000002,-0.0395372745,0.96829715,1.2575446,-0.5400891,-0.68336713
261,1747533296930,1.1895351,-0.0065895465,0.8078295,1.3875069,-0.6362292,-0.770186185
262,1747533296940,1.0095428,0.058329685,0.48957884,1.62506095,-0.8695221,-0.95953697
263,1747533296950,0.82125264,0.16229807,0.06467517,1.7217337,-1.0426276,-1.09429295
264,1747533296960,0.7903794049999999,0.17852788,0.01061649,1.6772589,-1.11373405,-1.15714355
265,1747533296970,0.7359546349999999,0.208546925,-0.08419975,1.58884195,-1.1986889,-1.216532
266,1747533296980,0.6811638,0.23990828,-0.16278619,1.3986923,-1.351288,-1.3086774
267,1747533296990,0.6555378000000001,0.239542195,-0.133499315,1.2298478,-1.562743,-1.4753913
268,1747533297000,0.6299118,0.23917611,-0.10421244,1.2298478,-1.562743,-1.4753913
269,1747533297010,0.61746485,0.21403821,0.0125689449999999,1.27379005,-1.69563475,-1.618403
270,1747533297020,0.59074055,0.1858496,0.066749653,1.4269217,-1.850897,-1.780057
271,1747533297030,0.420876715,0.169985875,-0.0154976349999999,1.5566176500000002,-1.84344015,-1.79523695
272,1747533297040,0.23551525,0.187191905,-0.162786185,1.7238642,-1.80881905,-1.7603495
273,1747533297050,0.2058622849999999,0.22062775,-0.2720018,1.7616811,-1.77260005,-1.670601
274,1747533297060,0.226729185,0.22611904,-0.37047888,1.7081515,-1.77419795,-1.62000095
275,1747533297070,0.271513685,0.22087181,-0.46126818,1.57179765,-1.81094955,-1.6311862
276,1747533297080,0.29958026,0.2007370849999999,-0.402572435,1.3877733,-1.88338755,-1.7006947
277,1747533297090,0.28115393,0.147898685,-0.227827445,1.2420984000000002,-2.206429,-1.8722023
278,1747533297100,0.27663888,0.09359595,-0.1225167349999999,1.26153945,-2.5933863,-2.0809941
279,1747533297110,0.25284332,0.05235028,-0.057231423,1.4375744,-2.7537086,-2.2522353
280,1747533297120,-0.032215554,0.022453265,-0.06833603,1.8913771,-2.8133633,-2.4192157
281,1747533297130,-0.214282267,0.1137306775,-0.311783145,2.14997005,-2.6162895,-2.2623554500000003
282,1747533297140,-0.46224442,0.25723633,-0.8156393,2.3931167,-2.0964406,-1.8034927
283,1747533297150,-0.426245985,0.26943919,-0.903988025,2.2940471,-2.026932,-1.71161365
284,1747533297160,-0.321301375,0.283594505,-1.024674375,2.031992,-1.95609185,-1.58857565
285,1747533297170,-0.209767205,0.27151367,-1.0212576,1.67779155,-2.03545405,-1.57233035
286,1747533297180,-0.21916342,0.10958171,-0.4729829,1.2708606,-2.9028456,-1.7939054
287,1747533297190,-0.1901206,0.06296677,-0.44686884,1.34649435,-3.0083068,-1.86128335
288,1747533297200,-0.1718163,0.052838395,-0.4804267,1.4221281,-3.113768,-1.9286613
289,1747533297210,-0.174256875,0.0302630995,-0.5337531799999999,1.8732676,-2.72228325,-2.1683457
290,1747533297220,-0.34265639,0.0362425019999999,-0.623444225,2.21708165,-2.2833943,-2.23625635
291,1747533297230,-0.70093244,0.2596769,-1.1404796,2.3627565,-1.5142734,-1.562743
292,1747533297240,-0.5110559,0.14228538,-1.185142,1.9504992,-1.7768611,-1.5057513
293,1747533297250,-0.47957251,0.0757797774999999,-1.16000405,1.9504992,-1.7768611,-1.5057513
294,1747533297260,-0.478108135,-0.0041489734999999,-1.07128925,1.39230065,-2.6354643,-1.77126845
295,1747533297270,-0.566456855,-0.037462786,-0.9407187,1.21067305,-3.13800275,-1.9390476
296,1747533297280,-0.61038718,-0.06455314,-0.86542705,1.4434333,-3.1111048500000003,-2.10309835
297,1747533297290,-0.6045298,-0.09322987,-0.85956967,2.137453,-2.3206787,-2.2759376
298,1747533297300,-0.7320497349999999,-0.07822035,-0.910699635,2.35503335,-1.97020665,-2.2114891
299,1747533297310,-1.006370085,-0.0134231499999999,-1.0420024,2.696717,-1.4202638,-1.9789951
300,1747533297320,-1.035779,0.0294088975,-1.26299625,2.6413233,-1.1531488,-1.4162691
301,1747533297330,-0.8851956,-0.031483386,-1.4147999,2.47061465,-1.36620165,-1.4306502
302,1747533297340,-0.88031445,-0.0494215955,-1.4353007,1.9499665,-2.1193435,-1.5275892
303,1747533297350,-0.8754333,-0.067359805,-1.4558015,1.9499665,-2.1193435,-1.5275892
304,1747533297360,-0.8136868349999999,-0.0466149364999999,-1.44018185,1.6676715,-2.2583606,-1.60375565
305,1747533297370,-0.722409455,-0.040025389,-1.3220581500000002,1.36353855,-2.32254285,-1.7086842
306,1747533297380,-0.84150934,-0.13325526,-0.99136055,1.6777915,-1.7949706,-1.7390442
307,1747533297390,-0.916678995,-0.1065309899999999,-1.036877225,1.8594191,-1.5345135,-1.5531555
308,1747533297400,-1.020525375,-0.07187486,-1.13389,1.9025623,-1.43863965,-1.44556385
309,1747533297410,-1.00746832,-0.076756005,-1.22236075,1.93079185,-1.33264585,-1.27405635
310,1747533297420,-0.855054585,-0.1001855025,-1.26031165,1.8471686,-1.3608754,-1.1989552
311,1747533297430,-0.69263446,-0.12935033,-1.1490215,1.6263925,-1.4889734,-1.221592
312,1747533297440,-0.6804316,-0.15961345,-1.0138137,1.4349113,-1.6058862,-1.2815131
313,1747533297450,-0.681896,-0.18475133,-0.87640953,1.5041534,-1.5680692,-1.2719258
314,1747533297460,-0.6640798,-0.20366577,-0.832723315,1.5813851,-1.5254587000000002,-1.2604742
315,1747533297470,-0.7136234,-0.28969595,-0.81417495,1.8977686,-1.3677995,-1.2596753
316,1747533297480,-0.73412424,-0.28115395,-0.90838104,2.2088258,-1.1579424,-1.2010857
317,1747533297490,-0.69214636,-0.31581008,-0.9828185,2.2594259,-1.1004182,-1.2106731
318,1747533297500,-0.69214636,-0.31581008,-0.9828185,2.2594259,-1.1004182,-1.2106731
319,1747533297510,-0.70203065,-0.34546304,-1.0147901,2.26927975,-1.1009508,-1.2602079
320,1747533297520,-0.70630165,-0.35717778,-1.0627472999999998,2.2650186,-1.03250755,-1.29243215
321,1747533297530,-0.75316066,-0.36803833,-1.1495095,2.231729,-0.78989357,-1.2772521
322,1747533297540,-0.77707828,-0.365841825,-1.1580515999999998,2.18512365,-0.722781935,-1.23544045
323,1747533297550,-0.8256457,-0.37218732,-1.0365112,1.9462382,-0.81918836,-1.1163971
324,1747533297560,-0.8470006999999999,-0.36938066,-1.0089327,1.91268235,-0.90467583,-1.1089403
325,1747533297570,-0.8939817,-0.3525407,-0.9714699,1.86980545,-1.0532802,-1.0772487000000002
326,1747533297580,-0.927173465,-0.33472451,-0.97500875,1.8679412,-1.13290875,-1.013599115
327,1747533297590,-0.899839065,-0.33326016,-1.0096648,1.88738225,-1.1238540499999998,-0.948351665
328,1747533297600,-0.78891505,-0.360350515,-1.04261255,1.9419771,-0.956873835,-0.9390306
329,1747533297610,-0.703495015,-0.40318255,-1.065554,2.00456145,-0.736630385,-0.9827064
330,1747533297620,-0.707277895,-0.4272222049999999,-1.0599406,2.04663935,-0.601075475,-1.03304015
331,1747533297630,-0.74522878,-0.441987695,-1.02394215,2.111354,-0.5320996,-1.0647318
332,1747533297640,-0.809904,-0.4589496549999999,-0.9863574,2.1321267500000003,-0.54301855,-1.04688865
333,1747533297650,-0.92802775,-0.42490366,-1.01344775,2.15929105,-0.53156695,-0.880174775
334,1747533297660,-1.01552225,-0.37218729,-1.0994779,2.12680045,-0.45273739,-0.62291339
335,1747533297670,-0.95694846,-0.37755656,-1.1587838,2.0327909,-0.306263535,-0.42051314
336,1747533297680,-0.924976945,-0.39586085,-1.129741,1.93105815,-0.121972783,-0.2490055649999999
337,1747533297690,-0.8351639,-0.47932845,-1.0025872,1.8492991,0.11132014,-0.002130529
338,1747533297700,-0.8351639,-0.47932845,-1.0025872,1.8492991,0.11132014,-0.002130529
339,1747533297710,-0.547298375,-0.5624299500000001,-1.1146095,1.46793445,-0.129429629,0.26604979
340,1747533297720,-0.3738957,-0.63381666,-1.1275444,1.20667835,-0.31292143,0.136087537
341,1747533297730,-0.31654227,-0.64016217,-1.138527,0.81013364,-0.55766594,-0.1603223
342,1747533297740,-0.398179415,-0.617342835,-1.06408955,0.65966502,-0.5749765,-0.28549088
343,1747533297750,-0.52630946,-0.5880559750000001,-0.953897715,0.508663775,-0.532632245,-0.41252367
344,1747533297760,-0.61404803,-0.572192225,-0.923634645,0.5502091,-0.2876214,-0.35260254
345,1747533297770,-0.6744522,-0.54131895,-0.98342868,0.5475459,-0.07669904,-0.22743396
346,1747533297780,-0.65797836,-0.50593066,-1.1373067,0.41971418,0.120907515,-0.11504856
347,1747533297790,-0.61770893,-0.52033003,-1.18294545,0.219977102,0.11984225,-0.120907515
348,1747533297800,-0.5782937,-0.5404647499999999,-1.23297725,-0.096672753,0.087351684,-0.1528654549999999
349,1747533297810,-0.5920829000000001,-0.53814623,-1.2512815000000002,-0.323574085,0.0423442615,-0.2079928899999999
350,1747533297820,-0.6118515,-0.5287500300000001,-1.2679994,-0.5400890700000001,0.0426105784999999,-0.25486452
351,1747533297830,-0.6587105,-0.511788,-1.2639725,-0.79255673,0.1451422835,-0.29640983
352,1747533297840,-0.6703032499999999,-0.5022698,-1.2825209,-1.03517068,0.290817195,-0.323307755
353,1747533297850,-0.681896,-0.4927516,-1.3010693,-1.1318434,0.34780884,-0.32650355
354,1747533297860,-0.7272906,-0.481280925,-1.2946016500000002,-1.54649765,0.3994741699999999,-0.336889885
355,1747533297870,-0.8336995,-0.4837215,-1.0848345,-1.9441077,0.23595607,-0.31691617
356,1747533297880,-0.9176552,-0.4803047,-1.0543274,-2.191249,-0.092145376,-0.22530343
357,1747533297890,-0.9093573,-0.45370242,-1.1180263,-2.2540996,-0.051132694,-0.16085494
358,1747533297900,-0.9110657,-0.4416216,-1.16512935,-2.29697645,0.029561088,-0.113450667
359,1747533297910,-0.94816244,-0.42905265,-1.2422514,-2.38565965,0.241282395,-0.0095873789999999
360,1747533297920,-1.0223558,-0.41465324,-1.1946602,-2.487925,0.6221144,0.2130529
361,1747533297930,-1.0330943,-0.44930938,-1.1353543,-2.5220137,1.0066749,0.64341974
362,1747533297940,-0.9791577,-0.50690687,-1.1028948,-2.5166874,1.1419635,0.75633776
363,1747533297950,-0.98294055,-0.528505955,-1.078367,-2.48739255,1.19282985,0.789893595
364,1747533297960,-1.0125935,-0.55169142,-1.03443665,-2.3552997,1.2873721,0.912399
365,1747533297970,-1.1404796,-0.52301466,-1.1700104,-2.2136195,1.4343786,1.2234563
366,1747533297980,-1.1006982,-0.51642513,-1.2908187,-2.211489,1.6042882,1.381648
367,1747533297990,-1.0069802,-0.54986095,-1.3881977,-2.2722092,1.820537,1.474326
368,1747533298000,-0.97903565,-0.571582075,-1.4027191,-2.3244071,1.92919395,1.49163655
369,1747533298010,-0.93547145,-0.606482265,-1.4086985,-2.4327976500000004,2.1148162,1.51001235
370,1747533298020,-0.94303715,-0.6760386,-1.3335288,-2.747317,2.1150825,1.4658039
371,1747533298030,-0.97696114,-0.6726217,-1.3027775,-2.812298,1.9755329,1.4588797
372,1747533298040,-1.0086887,-0.6474839,-1.313028,-2.845854,1.8903117,1.4849787
373,1747533298050,-1.0166205,-0.63332855,-1.32169205,-2.8479845,1.90069805,1.5142735
374,1747533298060,-1.0296775,-0.6080686,-1.3409726,-2.8421255,1.96168445,1.5843146
375,1747533298070,-0.9962417,-0.583418815,-1.33267465,-2.8229508,2.3467777,1.7816548
376,1747533298080,-0.9198518,-0.57402265,-1.232001,-2.8005803,2.4650218,1.839179
377,1747533298090,-0.8678676,-0.545712,-1.1971008,-2.7739487,2.5406556,1.8801918
378,1747533298100,-0.801361985,-0.537048,-1.19099935,-2.7739487,2.5406556,1.8801918
379,1747533298110,-0.692512435,-0.52960427,-1.16915625,-2.824815,2.55636845,1.8208033
380,1747533298120,-0.6488262,-0.5165471699999999,-1.1053353,-2.86582765,2.4977789,1.72572845
381,1747533298130,-0.6980037,-0.4471129,-1.1097283,-2.8511803,2.36515345,1.6072178
382,1747533298140,-0.7063017,-0.38512233,-1.1914874,-2.8091023,2.31695,1.5393071
383,1747533298150,-0.7084982,-0.355225325,-1.21345255,-2.82374965,2.364887,1.5528892
384,1747533298160,-0.7191146749999999,-0.29823796,-1.2337093499999998,-2.87887715,2.4530378,1.59683135
385,1747533298170,-0.728632925,-0.25394156,-1.2075952499999998,-2.97741415,2.501241,1.67060095
386,1747533298180,-0.740835785,-0.23356278,-1.087641085,-3.1465248,2.3957797,1.82426535
387,1747533298190,-0.7080101,-0.20159128,-0.9344952,-3.2826123,2.1646173,2.0271983
388,1747533298200,-0.674086135,-0.21257386,-0.882511,-3.26370395,2.12333835,2.05436255
389,1747533298210,-0.615878465,-0.230390035,-0.8045347199999999,-3.1814123,2.0897826,2.0911142
390,1747533298220,-0.54107493,-0.20159128,-0.7792748,-2.958772,2.2104237,2.1038973
391,1747533298230,-0.5742667,-0.123004854,-0.83882475,-2.6775422,2.5049694,2.1427794
392,1747533298240,-0.55962324,-0.05344854,-0.9283937,-2.6402578,2.6290727,2.2205439
393,1747533298250,-0.55962324,-0.05344854,-0.9283937,-2.6402578,2.6290727,2.2205439
394,1747533298260,-0.38914929,-0.0679699435,-0.97903565,-2.9664952500000004,2.7220169,2.2058964
395,1747533298270,-0.29872608,-0.11495096,-0.8139309,-3.4029872,2.5688853,2.1310616
396,1747533298280,-0.27529657,-0.14765464,-0.5972081,-3.4471958,2.3819313,2.0857878
397,1747533298290,-0.24503349,-0.15155955,-0.39976576,-3.3811494,2.28898705,2.0652814
398,1747533298300,-0.224898755,-0.106897075,-0.370967015,-3.0812775,2.16515005,2.02986135
399,1747533298310,-0.226729175,-0.0319715004,-0.384878285,-2.76169815,2.1992384,2.04450885
400,1747533298320,-0.33875147,0.06589546,-0.51544887,-2.5944517,2.450641,2.2306638
401,1747533298330,-0.3269147,0.075901805,-0.517645385,-2.59045685,2.51775255,2.34251655
402,1747533298340,-0.24283697,0.059794027,-0.49470404,-2.6674223,2.5608957,2.5635588
403,1747533298350,-0.20903504,0.0573534555,-0.44125551,-2.7249465,2.41601985,2.6261431
404,1747533298360,-0.13520771,0.046614934,-0.33411437,-2.7947214,2.130529,2.7345338
405,1747533298370,-0.133499315,0.0401474185,-0.322155565,-2.7569045,2.10203315,2.7579696
406,1747533298380,-0.011836778,0.0358764164999999,-0.28591305,-2.6615633,2.07007515,2.7680896500000003
407,1747533298390,0.28920785,-0.02391761,-0.13496366,-2.4000409,2.0490363,2.5252094
408,1747533298400,0.29201451,0.07480355,-0.25040275,-2.2780681,2.17420485,2.366485
409,1747533298410,0.233562795,0.163518355,-0.328134985,-2.1137510500000003,2.3435818,2.16887845
410,1747533298420,0.08859278,0.26284966,-0.4554108,-2.107892,2.37580595,2.1720741500000003
411,1747533298430,0.18426323,0.27822527,-0.4702983,-2.4122913,2.295645,2.3062975
412,1747533298440,0.262361555,0.202567515,-0.293234775,-2.6732811,2.0341225,2.29324805
413,1747533298450,0.4521160399999999,0.09884318,0.0172060399999999,-2.99099625,1.61573985,2.2399849
414,1747533298460,0.660174815,0.0214770369999999,0.257968515,-3.04612375,1.3432985,2.0961742
415,1747533298470,0.77659017,-0.040513504,0.53765815,-2.8724856,1.1467572,1.8008295
416,1747533298480,0.8034364599999999,-0.0206228378799999,0.6119735749999999,-2.7294738,1.1800467,1.7393105000000002
417,1747533298490,0.94157284,-0.052716363,1.0291895,-1.8578212,1.1787151,1.4801849
418,1747533298500,1.0357789,-0.082491346,1.0789771,-1.5600798,1.0482203,1.3598101
419,1747533298510,1.0267489,-0.102748096,1.056768,-1.3198626,0.92997587,1.2724584
420,1747533298520,1.1036268,-0.09737884,1.027481,-1.1462245,0.8293084,1.1973573
421,1747533298530,1.2119883,-0.13179092,1.0904478,-0.9853696,0.6956177,1.0668623
422,1747533298540,1.4538491,-0.19817449,1.2932593,-0.4926848,0.19920446,0.5704491
423,1747533298550,1.4795971,-0.2047640299999999,1.30863495,-0.331297245,0.0367516299999999,0.39894153
424,1747533298560,1.5063213,-0.204886055,1.2994828,0.0055926349999999,-0.27483823,0.04846953
425,1747533298570,1.49716915,-0.18365308,1.2401769,0.41545313,-0.57977018,-0.35473305
426,1747533298580,1.2720264,-0.1040904199999999,0.96012125,0.96246645,-0.8199873,-0.79814935
427,1747533298590,0.91253006,0.06199054,0.47273886,1.4626081,-0.86233157,-1.0290455
428,1747533298600,0.90911328,0.0783423749999999,0.37767857,1.51267555,-0.82930836,-1.0479539
429,1747533298610,0.916557,0.10225999,0.21245183,1.5725967,-0.772316725,-1.12198975
430,1747533298620,0.92131615,0.1403329,0.061502427,1.5520903,-0.7584683,-1.3241237
431,1747533298630,0.8656710750000001,0.171816295,0.0386830735,1.4823155,-0.86419578,-1.4511565
432,1747533298640,0.7732954000000001,0.21245184,0.036608585,1.3630059,-1.154214,-1.659682
433,1747533298650,0.71411153,0.224898755,0.080782945,1.3560817,-1.2913668,-1.7092168
434,1747533298660,0.67738088,0.22685121,0.113852705,1.367267,-1.50681655,-1.8018948
435,1747533298670,0.5460780749999999,0.23563728,0.08969104,1.5169366,-1.5824503,-1.85648965
436,1747533298680,0.32972133,0.2928687,-0.07516963,1.7853832,-1.459945,-1.7433053
437,1747533298690,0.33655494,0.31361356,-0.17450093,1.8791265,-1.3310479,-1.635181
438,1747533298700,0.33655494,0.31361356,-0.17450093,1.8791265,-1.3310479,-1.635181
439,1747533298710,0.33655494,0.31361356,-0.17450093,1.8791265,-1.3310479,-1.635181
440,1747533298720,0.4288086,0.328257,-0.32239962,1.8253306,-1.383246,-1.5968314
441,1747533298730,0.45687518,0.29482117,-0.29897013,1.7752632,-1.5377093,-1.7254621
442,1747533298740,0.37877685,0.298482,-0.26480213,1.72892425,-1.78272005,-1.9049592
443,1747533298750,0.34765956,0.302630975,-0.260042995,1.7560885000000002,-1.9598203,-1.9925772
444,1747533298760,0.12544543,0.33826336,-0.3380193,1.8578212,-2.1033647,-1.9952403
445,1747533298770,-0.02391761,0.44955346,-0.63406074,1.90975285,-2.0037625,-1.819738
446,1747533298780,0.0656514,0.44052333,-0.707766,1.9275961,-1.8232001,-1.5595472
447,1747533298790,0.1432616,0.44540447,-0.7575537,1.839179,-1.8056233,-1.562743
448,1747533298800,0.135451765,0.4523600949999999,-0.77353945,1.7781927,-1.80881905,-1.57179775
449,1747533298810,0.1250793369999999,0.4616342599999999,-0.7847661,1.6455673000000002,-1.8255969,-1.5949672499999998
450,1747533298820,0.143871752,0.44320793,-0.64992445,1.55635135,-1.9347865,-1.6663399499999998
451,1747533298830,0.21452633,0.3699908,-0.4075756,1.6602147,-2.1363878,-1.8482338
452,1747533298840,0.19378146,0.3513204,-0.40086403,1.75901795,-2.1422468500000003,-1.9158781
453,1747533298850,0.0433201599999999,0.34412071,-0.45931573,1.9526298,-2.11960995,-1.9944414
454,1747533298860,-0.232952635,0.420632675,-0.66420178,2.07912995,-2.0282635,-1.88791495
455,1747533298870,-0.3704788799999999,0.518621665,-0.8800704500000001,2.0785973,-1.9046929,-1.61760405
456,1747533298880,-0.06662763,0.45321432,-1.0006347,1.5691346,-1.8461033,-1.3385048
457,1747533298890,0.018060237,0.41074833,-0.8917852,1.45781445,-1.9038939,-1.38670805
458,1747533298900,0.018060237,0.41074833,-0.8917852,1.3464943,-1.9616845,-1.4349113
459,1747533298910,-0.00976228985,0.2954313,-0.60892285,1.4040185,-2.352104,-1.7443706
460,1747533298920,-0.1082393879999999,0.255405905,-0.5533998,1.67113355,-2.3289345,-1.8434402
461,1747533298930,-0.30348518,0.283106405,-0.6875092700000001,2.0594225,-2.1638185,-1.9036276
462,1747533298940,-0.53961054,0.3632792099999999,-0.92924797,2.3004386,-1.675661,-1.6213325
463,1747533298950,-0.69019385,0.463342665,-1.16952235,2.2538333,-1.53930715,-1.4357102
464,1747533298960,-0.60269935,0.489822875,-1.28252085,2.05968885,-1.3946975,-1.1395667
465,1747533298970,-0.28920783,0.36266906,-1.16927825,1.6575515,-1.5531556,-1.06153605
466,1747533298980,-0.0816371475,0.20940112,-0.93010215,1.1350393,-2.05356355,-1.29855735
467,1747533298990,-0.22233616,0.053692598,-0.58134437,1.0301107,-2.625877,-1.7353158
468,1747533299000,-0.22233616,0.053692598,-0.58134437,1.24342995,-2.6157569,-1.8029601
469,1747533299010,-0.37804466,0.041733786,-0.5618198,1.4567492,-2.6056368,-1.8706044
470,1747533299020,-0.430150925,0.0849319225,-0.778176515,2.22214175,-1.97686445,-1.9137476
471,1747533299030,-0.9108216,0.3577879,-1.4687365,2.6290728,-1.28737207,-1.7262611
472,1747533299040,-0.8600578,0.4544346,-1.6339632,2.3712788,-0.80747044,-1.0567423
473,1747533299050,-0.8600578,0.4544346,-1.6339632,2.3712788,-0.80747044,-1.0567423
474,1747533299060,-0.280665858,0.16412849,-1.15500092,0.98084225,-2.02506765,-1.165399315
475,1747533299070,-0.22599702,-0.16449459,-0.43466598,0.628506,-3.2277513,-1.8189391
476,1747533299080,-0.366818035,-0.160589675,-0.44894332,0.89642,-3.19472815,-1.90256235
477,1747533299090,-0.6260068400000001,-0.09689073,-0.5946455,1.50548495,-2.85916985,-1.95902135
478,1747533299100,-0.846512585,0.05283839,-1.05432732,2.3659523,-1.68817785,-1.7222663
479,1747533299110,-0.94865054,0.14277348,-1.3825843,2.8852687,-0.819721,-1.5126755
480,1747533299120,-0.77732235,0.302631,-1.7869871,2.218946,-0.535828,-1.1558119
481,1747533299130,-0.765363545,0.23722365,-1.79333265,1.7827201499999998,-0.8064051999999999,-1.11453295
482,1747533299140,-0.562185885,0.136672055,-1.4782548,0.709199825,-1.7036242,-1.2096078499999998
483,1747533299150,-0.323375865,0.0402694435,-0.99978055,-0.0071905349999999,-2.4730115,-1.42798705
484,1747533299160,-0.25784649,-0.0723629715,-0.695441135,0.103863284,-2.551841,-1.6809874
485,1747533299170,-0.34119204,-0.22672918,-0.34802565,0.6396913,-2.218413,-1.8386464
486,1747533299180,-0.5852493,-0.22599702,-0.44516042,1.3443637,-1.6847157,-1.8951055
487,1747533299190,-0.8019721,-0.087982642,-0.77976286,1.7915084499999998,-1.14515928,-1.6740631
488,1747533299200,-0.9814762,0.067969943,-1.23053655,2.15156785,-0.48629323,-1.31480265
489,1747533299210,-0.86725745,0.07431543,-1.3846587499999998,1.84530435,-0.479102675,-1.1494204
490,1747533299220,-0.7369308800000001,0.0412456734999999,-1.3796556,1.36593535,-0.808003075,-1.14542565
491,1747533299230,-0.62637293,-0.0401474165,-1.13913717,0.8924253,-1.2527509499999998,-1.2144015
492,1747533299240,-0.546932275,-0.11763559,-0.850539505,0.55926385,-1.66234515,-1.32918375
493,1747533299250,-0.530092325,-0.16766733,-0.6755504649999999,0.534762775,-1.7731327,-1.4242586
494,1747533299260,-0.5601114,-0.211231555,-0.55693863,0.8295747250000001,-1.56940085,-1.4868429
495,1747533299270,-0.6199053999999999,-0.21464835,-0.6036756,1.23783735,-1.2636699500000002,-1.552623
496,1747533299280,-0.70471527,-0.144847972,-0.8756773999999999,1.6293220000000002,-0.73157036,-1.6018915
497,1747533299290,-0.78464407,-0.07370529,-1.142432,1.7204021,-0.37017938,-1.6415725
498,1747533299300,-0.78464407,-0.07370529,-1.142432,1.7204021,-0.37017938,-1.6415725
499,1747533299310,-0.75938415,-0.1219065969999999,-1.13523235,1.40082275,-0.64501762,-1.7126789
500,1747533299320,-0.73766305,-0.1475326049999999,-1.10204055,1.1984225,-0.8074704699999999,-1.77739375
501,1747533299330,-0.7635331000000001,-0.19134088,-1.0012449,0.9869675,-0.94808537,-1.8168086
502,1747533299340,-0.7826915999999999,-0.23893204,-0.88958868,0.96726012,-0.977113835,-1.778459
503,1747533299350,-0.75267255,-0.27554063,-0.8424856300000001,0.966727495,-0.999218065,-1.7246631
504,1747533299360,-0.69312255,-0.32557237,-0.8160054000000001,1.027713875,-0.962466415,-1.72120105
505,1747533299370,-0.6357691,-0.3860985649999999,-0.8075854,1.10734235,-0.8878979,-1.7467674
506,1747533299380,-0.6344268,-0.425147725,-0.78769475,1.2548815,-0.730771415,-1.74543585
507,1747533299390,-0.6656661500000001,-0.4478450349999999,-0.75987225,1.4258565,-0.59281969,-1.7060211
508,1747533299400,-0.69812575,-0.4740812,-0.76023833,1.5283882,-0.563791225,-1.6511599499999998
509,1747533299410,-0.7587739499999999,-0.474935415,-0.81454103,1.5776567,-0.5454154,-1.56087875
510,1747533299420,-0.77683425,-0.47591165,-0.8700641,1.5174692,-0.5539375,-1.2708606
511,1747533299430,-0.767926125,-0.479572505,-0.8570070000000001,1.4865765,-0.5741775499999999,-1.2271847
512,1747533299440,-0.76170266,-0.5125202,-0.7512082,1.4492923,-0.67058396,-1.0913634
513,1747533299450,-0.769146415,-0.52118425,-0.716186,1.4855113,-0.67511135,-1.0482202
514,1747533299460,-0.785010135,-0.528506,-0.6889736,1.57419455,-0.63250077,-0.95820537
515,1747533299470,-0.7067898,-0.53814626,-0.9220483,1.7182716,-0.18642128,-0.76059884
516,1747533299480,-0.6535853,-0.5464442,-0.98013395,1.663943,0.020240024,-0.8016115
517,1747533299490,-0.64040625,-0.55669457,-0.96573454,1.6144083,0.17044231,-0.89375687
518,1747533299500,-0.669204975,-0.541196935,-0.96951744,1.5797872000000002,0.209324465,-0.923584285
519,1747533299510,-0.7426662,-0.48787045,-0.99038434,1.4492923,0.22796659,-0.9550096
520,1747533299520,-0.7907455,-0.44857723,-1.087275,1.0849719,0.03195793,-0.871919
521,1747533299530,-0.82759815,-0.4097721,-1.1404796,0.8974853,-0.022903185,-0.809601
522,1747533299540,-0.8598137,-0.38146147,-1.1495095,0.71958613,-0.08575379,-0.7073356
523,1747533299550,-0.8635965999999999,-0.379386985,-1.17123065,0.634098665,-0.10972224,-0.6559366
524,1747533299560,-0.8673795,-0.3773125,-1.1929518,0.5486112,-0.13369069,-0.6045376
525,1747533299570,-0.82125268,-0.37035688,-1.25884725,0.4532700349999999,-0.13395701,-0.5571333
526,1747533299580,-0.7653635,-0.38439015,-1.291795,0.083090635,-0.011451595,-0.3885551849999999
527,1747533299590,-0.7336361,-0.4036707,-1.2742229,-0.254864525,0.133690695,-0.247407665
528,1747533299600,-0.7202129500000001,-0.411968635,-1.2797142,-0.389354175,0.17603495,-0.2330266
529,1747533299610,-0.82759815,-0.37633628,-1.313028,-0.5992113,0.21997711,-0.25566345
530,1747533299620,-0.9030118,-0.33191785,-1.3132721,-0.91133374,0.20399815,-0.13741912
531,1747533299630,-0.9059405,-0.3256943949999999,-1.32767145,-0.99469067,0.2034655149999999,-0.0940095915
532,1747533299640,-0.90777095,-0.3225216549999999,-1.3520770999999998,-1.1749867,0.20506341,-0.007190535
533,1747533299650,-0.88055855,-0.34582913,-1.3435352,-1.4588797,0.23276028,0.1107875
534,1747533299660,-0.8459024,-0.37023485,-1.300337,-1.623463,0.2860235,0.16724652
535,1747533299670,-0.862864385,-0.380851345,-1.2086935,-1.68871045,0.35579832,0.24314661
536,1747533299680,-0.87811795,-0.39158987,-1.10618945,-1.75315895,0.47297742,0.37657098
537,1747533299690,-0.89764255,-0.383658,-1.0884954,-1.7555559,0.5970807,0.54275227
538,1747533299700,-0.91863143,-0.38121742,-1.0948408,-1.7544906,0.66845345,0.66365975
539,1747533299710,-0.92070594,-0.38365799,-1.10460305,-1.7635453,0.697215575,0.7222493
540,1747533299720,-0.93840015,-0.41001618,-1.1622007,-1.8775285,0.7637946,0.99069595
541,1747533299730,-0.96817505,-0.40342662,-1.2188219,-1.9819245,0.7664578,1.1158645
542,1747533299740,-0.98330665,-0.39878955,-1.2420074,-2.1177456,0.7685883,1.2580773
543,1747533299750,-0.92937,-0.46078008,-1.193928,-2.324407,0.76272935,1.4839134
544,1747533299760,-0.92937,-0.46078008,-1.193928,-2.324407,0.76272935,1.4839134
545,1747533299770,-0.8092938,-0.51740134,-1.1187584,-2.34544595,0.848749475,1.5193334
546,1747533299780,-0.803192375,-0.516669185,-1.08959355,-2.3414512,0.9816412,1.5507587
547,1747533299790,-0.8105141,-0.4790844,-1.002099,-2.25010475,1.0663296999999998,1.5603461
548,1747533299800,-0.8387027499999999,-0.46212241,-1.0310198000000002,-2.1747373,1.10015185,1.59230405
549,1747533299810,-0.8969103,-0.42514774,-1.1441404,-2.2152174,1.0482203,1.6634104
550,1747533299820,-0.92497694,-0.4075756,-1.2144289,-2.3281355,0.964597,1.7374463
551,1747533299830,-0.91448253,-0.39927766,-1.2690977,-2.4676852,0.8724516,1.8114822
552,1747533299840,-0.9117979,-0.39854547,-1.2634844,-2.6205506,0.8772453,1.917476
553,1747533299850,-0.835408,-0.3900035,-1.2268758,-2.6951191,1.1669972,2.1166804
554,1747533299860,-0.73485637,-0.4253918,-1.1848979,-2.6993802,1.3677995,2.128931
555,1747533299870,-0.66993713,-0.44516042,-1.1021625,-2.69085805,1.43943855,2.10309835
556,1747533299880,-0.64187056,-0.44003522,-1.0169866,-2.6194854,1.5664713,1.9877834
557,1747533299890,-0.6574902,-0.34509695,-0.98525906,-2.521481,1.4610102,1.8620822
558,1747533299900,-0.6788452300000001,-0.329355255,-0.99270283,-2.510562,1.41547015,1.8461033
559,1747533299910,-0.7582859,-0.25259924,-1.0513986,-2.5007083,1.2942963,1.8482338
560,1747533299920,-0.8190561,-0.20866893,-1.0965492,-2.5118935,1.2719258,1.9393139
561,1747533299930,-0.8332114,-0.12349297,-1.2029582,-2.5688853,1.3038837,2.0596888
562,1747533299940,-0.7643873,-0.10640897,-1.1629328,-2.7941887,1.442368,2.3105586
563,1747533299950,-0.73388013,-0.119710085,-1.1246158,-2.84026135,1.45408595,2.34384815
564,1747533299960,-0.66383568,-0.148264775,-1.05127655,-2.9092372,1.45834705,2.3779366
565,1747533299970,-0.5422952,-0.18011424,-0.9261973,-2.922553,1.4210628,2.3270702
566,1747533299980,-0.44955346,-0.14374973,-0.88226694,-2.8623655,1.4301175,2.2594259
567,1747533299990,-0.39342028,-0.12910628,-0.85956967,-2.6397252,1.5904398,2.0612867
568,1747533300000,-0.39342028,-0.12910628,-0.85956967,-2.6397252,1.5904398,2.0612867
569,1747533300010,-0.46590528,-0.009274175,-0.9349833,-2.3643544,1.7512947,1.8647454
570,1747533300020,-0.52496713,0.049787678,-1.0382195,-2.389388,1.780057,1.8626149
571,1747533300030,-0.53253293,0.0993313,-1.1121689,-2.5347967,1.7315874,1.8860507
572,1747533300040,-0.63332856,0.10665302,-1.0860548,-2.886334,1.4588797,1.953695
573,1747533300050,-0.6462635999999999,0.127641945,-1.0873971,-3.0152311,1.3267869,2.052232
574,1747533300060,-0.6377216,0.16547081,-1.0599406,-3.1286817,1.2713932,2.1656826
575,1747533300070,-0.584029,0.12935033,-0.82857436,-3.15265,1.0865698,2.3398533
576,1747533300080,-0.4751795,0.1381364,-0.7831797,-3.0764837,1.0024139,2.3771377
577,1747533300090,-0.44320798,0.15082738,-0.767316,-2.9779468,0.9331717,2.389388
578,1747533300100,-0.454678655,0.159735465,-0.78171537,-2.8756814,0.9038769,2.4165523
579,1747533300110,-0.5012936,0.19597797,-0.8600578,-2.7989824,1.0120013,2.5001757
580,1747533300120,-0.50885934,0.200371,-0.85542065,-2.7041738,1.1685951,2.5917885
581,1747533300130,-0.44491637,0.24600971,-1.0099089,-2.6573021,1.5920377,2.7851338
582,1747533300140,-0.38316986,0.20818083,-0.9391323,-2.727077,1.7726,2.8229508
583,1747533300150,-0.3658418049999999,0.200493025,-0.8932495,-2.7406591,1.8133464,2.8282771
584,1747533300160,-0.30287504,0.19475769,-0.79318607,-2.809635,1.8738002,2.8272119
585,1747533300170,-0.28090988,0.189632485,-0.77292931,-2.851713,1.8538265,2.81735815
586,1747533300180,-0.19622204,0.17376876,-0.53082454,-2.8927257,1.5137408,2.7180223
587,1747533300190,-0.2072046,0.18231077,-0.48957884,-2.8261466,1.347027,2.6802053
588,1747533300200,-0.22526483,0.24088451,-0.58939826,-2.8005803,1.3006879,2.7153592
589,1747533300210,-0.18475133,0.26406994,-0.5610876,-2.828277,1.3544837,2.8064392
590,1747533300220,-0.14228538,0.23258655,-0.52789587,-2.9470541,1.6000272,3.0487869
591,1747533300230,-0.042221904,0.17132819,-0.32850105,-3.007774,1.7092168,3.1627703
592,1747533300240,0.046614934,0.1044565,-0.07858644,-2.9411952,1.6367788,3.1995218
593,1747533300250,0.107629254,0.10470056,0.06369894,-2.8597023,1.5329156,3.2522523
594,1747533300260,0.18548352,0.08029483,0.29213652,-2.7116306,1.3544837,3.2953956
595,1747533300270,0.34387666,0.00097622897,0.5767073,-2.3329291,0.7797736,3.355583
596,1747533300280,0.42783237,-0.038561042,0.6518769,-2.1166804,0.4644553,3.3843453
597,1747533300290,0.4770098849999999,-0.058085621,0.6667643999999999,-1.8855181,0.20453078,3.3720946
598,1747533300300,0.57243625,-0.08395569,0.67433018,-1.7715348,0.1038632867,3.35345255
599,1747533300310,0.6573682000000001,-0.086396263,0.6554157300000001,-1.56940085,-0.0647148182999999,3.3276199
600,1747533300320,0.8681116,-0.16058967,0.64992446,-1.30734575,-0.12942963,3.29672715
601,1747533300330,1.0894716,-0.20744865,0.7492558,-0.91346425,-0.075101145,3.0972564
602,1747533300340,1.3308442,-0.25894472,0.82052046,-0.6870956,-0.05219796,2.770753
603,1747533300350,1.4775226,-0.287255375,0.84761083,-0.568052285,-0.062051655,2.52707365
604,1747533300360,2.0261633,-0.37755656,0.8712844,-0.19707392,-0.029294772,1.5675366
605,1747533300370,2.0791237,-0.37145513,0.8329674,0.24873926,0.011717909,-0.02396845
606,1747533300380,1.8323817,-0.30360723,0.780251,0.40373522,-0.091080114,-0.608266
607,1747533300390,1.5546447,-0.23917611,0.75267255,0.51984906,-0.31372038,-0.97258645
608,1747533300400,1.4372531,-0.2104993849999999,0.701176475,0.56299228,-0.48522796,-1.092162375
609,1747533300410,1.2197981,-0.12544543,0.5801241,0.6743124,-0.82185155,-1.3230585
610,1747533300420,1.177088,-0.084687866,0.51496077,0.94275904,-0.8974853,-1.6346483
611,1747533300430,1.1541467,-0.073217176,0.4807928,1.1132014,-0.8974853,-1.8381138
612,1747533300440,1.104115,-0.052472305,0.43954712,1.2820457,-0.8942895,-2.058091
613,1747533300450,1.06726235,-0.042465959,0.417459935,1.3590111,-0.903077935,-2.1651501
614,1747533300460,0.9103335,-0.01415532,0.3231318,1.5648735,-0.9582054,-2.463424
615,1747533300470,0.592571,0.12764193,0.08346757,1.6868463,-1.0034791,-2.5944517
616,1747533300480,0.5208182,0.17425688,0.038316987,1.7070863,-1.0503508,-2.5891252
617,1747533300490,0.47444725,0.19353738,0.008297946,1.7390442,-1.109473,-2.593919
618,1747533300500,0.3841461,0.21940747,-0.020500809,1.7859159,-1.2362394,-2.6253443
619,1747533300510,0.30360723,0.22843759,-0.030507157,1.9244002,-1.2591426,-2.6098979
620,1747533300520,0.19280522,0.24600971,-0.08371163,2.027731,-1.2314457,-2.549178
621,1747533300530,0.13398743,0.26651052,-0.13862452,2.1283984,-1.206412,-2.4596956
622,1747533300540,0.11275445,0.27529657,-0.22672918,2.1869879,-1.1776499,-2.380866
623,1747533300550,0.1147069,0.30336314,-0.38512233,2.2088258,-1.202151,-2.336125
624,1747533300560,0.12202863,0.336799,-0.4502856,2.1459754,-1.2692626,-2.3515713
625,1747533300570,0.1261776,0.34973404,-0.5281399,2.0271983,-1.3560816,-2.402704
626,1747533300580,0.10958171,0.34949,-0.55791485,1.8844528,-1.4439659,-2.4676852
627,1747533300590,0.06760386,0.33069757,-0.5112999,1.6628778,-1.4924355,-2.5630262
628,1747533300600,0.0251378975,0.309586635,-0.44760097,1.6860473,-1.52971975,-2.59471785
629,1747533300610,-0.11983211,0.30165476,-0.36169282,1.8434402,-1.6655409,-2.6338663
630,1747533300620,-0.173158615,0.31727443,-0.38378001,1.92226975,-1.6831178,-2.60403895
631,1747533300630,-0.32239962,0.35241866,-0.49982923,2.227468,-1.6650083,-2.4517062
632,1747533300640,-0.37291947,0.43808278,-0.77195305,2.4080303,-1.4114754,-2.214152
633,1747533300650,-0.3607166,0.44418418,-0.878118,2.38619235,-1.3342437,-2.1632857
634,1747533300660,-0.37279744,0.4489433,-0.9283938,2.3113575,-1.2034825,-2.072472
635,1747533300670,-0.36388937,0.46785772,-1.0535952,2.0708742,-1.1030813,-1.9744676
636,1747533300680,-0.29897013,0.43515408,-1.056768,1.8381138,-1.1329087,-1.965413
637,1747533300690,-0.20085911,0.33899552,-0.9308343,1.5158713,-1.3566142,-2.2008364
638,1747533300700,-0.21806514,0.33326016,-0.8599357000000001,1.47911965,-1.46553755,-2.2738070500000003
639,1747533300710,-0.30043447,0.28505886,-0.65114474,1.5190672,-2.0373182,-2.5395904
640,1747533300720,-0.43100512,0.2928687,-0.6970275,1.6080167,-2.3276029,-2.6237464
641,1747533300730,-0.6731099,0.38585448,-0.94669807,1.7731327,-2.2173479,-2.4841967
642,1747533300740,-0.7551131,0.4807928,-1.1158297,1.7853832,-1.7507621,-2.2130868
643,1747533300750,-0.69385475,0.48445365,-1.1480453,1.7443706,-1.2186625,-1.9313245
644,1747533300760,-0.620393525,0.439059005,-1.07580435,1.71694,-1.06872655,-1.85356015
645,1747533300770,-0.4288086,0.27407628,-0.8324793,1.6953684,-0.9374327,-1.8178738
646,1747533300780,-0.38902727,0.18157859,-0.746083,1.7390442,-1.2010857,-1.9947077
647,1747533300790,-0.6245425,0.17254847,-0.8820229,1.7390442,-1.2010857,-1.9947077
648,1747533300800,-0.7304634,0.21062139,-0.97744924,1.9718045,-2.0682108,-2.469283
649,1747533300810,-0.76292294,0.2169669,-1.0301657,2.0751352,-2.0905814,-2.5145566
650,1747533300820,-0.93937635,0.29726174,-1.2910628,2.1624868,-1.9457055,-2.543319
651,1747533300830,-0.93937635,0.29726174,-1.2910628,2.1869879,-1.5899072,-2.412824
652,1747533300840,-1.1307173,0.541319,-1.5380487,1.830657,-0.57790595,-1.5472966
653,1747533300850,-1.0133257,0.49079914,-1.4427444,1.6721989000000002,-0.510261675,-1.3843112
654,1747533300860,-0.763533085,0.365597755,-1.21101205,1.2245215,-0.62317973,-1.1446266
655,1747533300870,-0.54912883,-0.044418417,-0.5940353,1.3012205,-1.6543556,-1.6570189
656,1747533300880,-0.69287854,-0.015375607,-0.7060576,1.5574167,-1.8785939,-1.8301244
657,1747533300890,-0.8161274,0.07224095,-0.9432813,1.804558,-1.7411747,-1.8748654
658,1747533300900,-0.8717725,0.127886,-1.1407236,1.9920446,-1.3630059,-1.8402443
659,1747533300910,-0.86554905,0.148630865,-1.18782665,2.1097562,-0.90174633,-1.788579
660,1747533300920,-0.8593256,0.16937573,-1.2349297,2.1097562,-0.90174633,-1.788579
661,1747533300930,-0.8815348,0.23502712,-1.2795922,1.794438,-0.25193503,-1.4413028
662,1747533300940,-0.8329674,0.22477673,-1.2178457,1.4988271,-0.3153183,-1.2580773
663,1747533300950,-0.70996255,0.14765464,-1.0438329,1.3185311,-0.43542687,-1.18990035
664,1747533300960,-0.631742175,0.0957924715,-0.941206785,0.9736517,-0.8042747,-1.1233214
665,1747533300970,-0.4495534399999999,-0.0593059085,-0.664933965,1.0945592,-1.158475,-1.3571469
666,1747533300980,-0.35656762,-0.234539,-0.38194957,1.3944311,-1.2080098,-1.4924355
667,1747533300990,-0.389027235,-0.2580905249999999,-0.405989235,1.5784555500000002,-1.17019295,-1.54410085
668,1747533301000,-0.465417145,-0.276882945,-0.505808675,1.91614435,-1.05035075,-1.6130767499999998
669,1747533301010,-0.5981843,-0.23185438,-0.7477914,2.253567,-0.76272935,-1.5803198
670,1747533301020,-0.7563334,-0.18450728,-1.0113733,2.1459754,-0.53955644,-1.2911005
671,1747533301030,-0.7070338,-0.21916342,-1.044565,1.9126823,-0.6135923,-1.1973573
672,1747533301040,-0.6428468,-0.28798756,-0.99868226,1.6682042,-0.7813715,-1.194694
673,1747533301050,-0.60306545,-0.31959297,-0.94840646,1.5747272,-0.886033725,-1.2330435999999998
674,1747533301060,-0.5027579,-0.43198135,-0.7670719,1.4024206,-1.186172,-1.4141386
675,1747533301070,-0.6074585,-0.53912246,-0.5530337,1.7028252,-1.4578145,-1.7379789
676,1747533301080,-0.65834443,-0.53912246,-0.5975741699999999,1.83545065,-1.4492923,-1.79150845
677,1747533301090,-0.79440635,-0.50837123,-0.76292294,2.2237396,-1.2772521,-1.8849854
678,1747533301100,-0.8241813250000001,-0.4951921549999999,-0.82759812,2.3339945,-1.131577175,-1.88551805
679,1747533301110,-0.92497694,-0.4515059,-1.0287013,2.6130936,-0.57790595,-1.8184065
680,1747533301120,-1.0616491,-0.33460248,-1.2803243,2.5558357000000003,-0.3376888249999999,-1.6748621
681,1747533301130,-1.073852,-0.31361356,-1.3193735,2.288188,-0.058589544,-1.3869743
682,1747533301140,-1.0516427,-0.29530928,-1.2930154,2.0415792,-0.13582122,-1.2676647
683,1747533301150,-1.0308978,-0.29347885,-1.2565288,1.92999285,-0.19680761,-1.2277173
684,1747533301160,-0.99441125,-0.283472495,-1.1901452,1.7302558,-0.32144355,-1.15794245
685,1747533301170,-0.9017916,-0.3082443,-1.0023432,1.4892397,-0.51665324,-1.0492855
686,1747533301180,-0.87335885,-0.2988481,-0.99795012,1.50788185,-0.485227945,-1.05008445
687,1747533301190,-0.82247293,-0.30116665,-1.0330943,1.5723304,-0.2625877,-1.0444918
688,1747533301200,-0.8173477149999999,-0.302020845,-1.040172,1.58005355,-0.1842907574999999,-1.03490445
689,1747533301210,-0.8122225,-0.30287504,-1.0472497,1.5877767,-0.105993815,-1.0253171
690,1747533301220,-0.75438095,-0.3169083299999999,-0.955484135,1.6588831000000002,0.16644757,-0.993891735
691,1747533301230,-0.7990434,-0.35095432,-0.88104665,1.7539579,0.29241508,-0.9470201
692,1747533301240,-0.82906246,-0.37243137,-0.86884385,1.8301244,0.34993938,-0.8586032
693,1747533301250,-0.77781045,-0.39634898,-1.0113733,1.7443706,0.4527374,-0.660464
694,1747533301260,-0.72826684,-0.41416514,-1.0245523,1.5813851,0.42663842,-0.6013418
695,1747533301270,-0.70801007,-0.438326805,-1.01442395,1.4093449,0.29880667,-0.5928197
696,1747533301280,-0.6860449200000001,-0.472860915,-1.01747465,1.161404575,0.14887070275,-0.562725965
697,1747533301290,-0.62063754,-0.4698102,-0.9396204,0.6785734,-0.13954964,-0.47351006
698,1747533301300,-0.5930590950000001,-0.48506377,-0.918631475,0.5768406699999999,-0.22583607,-0.441285805
699,1747533301310,-0.44027928,-0.5559624,-0.8151512,0.33502567,-0.48203218,-0.39787626
700,1747533301320,-0.36584184,-0.60989904,-0.7558453,0.28122982,-0.60560286,-0.44101948
701,1747533301330,-0.33020946,-0.64016217,-0.7280228,0.31158987,-0.70147663,-0.51292485
702,1747533301340,-0.3612047,-0.64992446,-0.7917217,0.39894155,-0.7233146,-0.5864281
703,1747533301350,-0.49446,-0.5715821,-1.2317569,0.42344263,-0.49534798,-0.6711166
704,1747533301360,-0.5342413,-0.52399087,-1.4470154,0.28336033,-0.25672874,-0.68816084
705,1747533301370,-0.5706058,-0.49006698,-1.6271297,0.058589544,0.042077947,-0.70840085
706,1747533301380,-0.6274712,-0.4656612,-1.7498904,-0.24181503,0.35899413,-0.7281082
707,1747533301390,-0.8361401,-0.41636166,-1.6896083,-0.8825716,0.7499462,-0.644485
708,1747533301400,-0.91497064,-0.39927766,-1.616147,-1.1835088,0.8223842,-0.5384912
709,1747533301410,-0.9535317,-0.4075756,-1.5204766,-1.4674017,0.83250415,-0.41438788
710,1747533301420,-0.94926065,-0.41611759,-1.46434345,-1.6093482,0.830107325,-0.34914044
711,1747533301430,-0.9454777,-0.43466598,-1.2700739,-1.9121497,0.78936094,-0.18695392
712,1747533301440,-0.98403883,-0.4334457,-1.0218678,-2.0250678,0.6562029,0.002130529
713,1747533301450,-1.0291895,-0.4097721,-0.950359,-2.02347,0.5656554,0.1272991
714,1747533301460,-1.087519,-0.36413342,-0.9274175,-2.0192087,0.46711847,0.30626354
715,1747533301470,-1.0983796,-0.34363261,-0.954019775,-2.03012765,0.423708945,0.414920495
716,1747533301480,-1.052863,-0.32459614,-1.1182703,-2.2610238,0.29987195,0.9241169
717,1747533301490,-1.0211354,-0.34973404,-1.1241276,-2.3750072,0.28549087,1.0913634
718,1747533301500,-1.0008788,-0.37706846,-1.0965492,-2.4602282,0.29933932,1.2916331
719,1747533301510,-0.95646036,-0.4283205,-1.044565,-2.4612935,0.3270362,1.4226607
720,1747533301520,-0.90374404,-0.48103684,-1.0150341,-2.401106,0.3888215,1.5132082
721,1747533301530,-0.79660285,-0.5342413,-1.0333383,-2.2226744,0.66206187,1.5760587
722,1747533301540,-0.76975656,-0.55010504,-1.0482259,-2.1401162,0.81705785,1.577124
723,1747533301550,-0.79489446,-0.55108124,-1.0714114,-2.11375095,0.878576875,1.5773903
724,1747533301560,-0.83077085,-0.53131264,-1.104603,-2.0847225,1.0024139,1.6042882
725,1747533301570,-0.86982006,-0.511788,-1.1490215,-2.143312,0.9933591,1.6591494
726,1747533301580,-0.8429737,-0.51740134,-1.1997855,-2.376605,0.8628642,1.8082864
727,1747533301590,-0.8102701,-0.5315567,-1.1968567,-2.4623587,0.8250473,1.8423749
728,1747533301600,-0.77292925,-0.5379022,-1.1905112,-2.5081651,0.82398206,1.8620822
729,1747533301610,-0.7353445,-0.5354616,-1.193928,-2.5268073,0.8990832,1.8706044
730,1747533301620,-0.7291209999999999,-0.51483877,-1.1495096,-2.4812672,1.0061423,1.88818125
731,1747533301630,-0.7336361,-0.46102414,-1.0799533,-2.376605,1.2096078,1.953695
732,1747533301640,-0.71996886,-0.4249037,-1.0760484,-2.3393207,1.2650015,2.0032299
733,1747533301650,-0.7043492,-0.3773125,-1.0980135,-2.3664849,1.2841763,2.0554278
734,1747533301660,-0.6877533,-0.35437113,-1.0431006,-2.4165523,1.2346416,2.1012342
735,1747533301670,-0.65675807,-0.3441207,-0.971836,-2.4090955,1.1536814,2.1134846
736,1747533301680,-0.54717636,-0.33484653,-0.8937377,-2.2833943,1.0924287,2.0192087
737,1747533301690,-0.552179515,-0.3175184749999999,-0.89263938,-2.21867955,1.1089403,1.9987024
738,1747533301700,-0.58134437,-0.24991462,-0.9469421,-2.0383835,1.2053467,1.9632823
739,1747533301710,-0.60941094,-0.16083373,-1.0718994,-1.9984361,1.3432984,1.9787288
740,1747533301720,-0.635281,-0.13667206,-1.1016744,-2.02480145,1.3414342,1.98831615
741,1747533301730,-0.635281,-0.13667206,-1.1016744,-2.0511668,1.33957,1.9979035
742,1747533301740,-0.70971847,-0.040269446,-1.1822133,-2.3643544,1.2916331,2.1699438
743,1747533301750,-0.73558855,-0.017084008,-1.1458488,-2.540123,1.1893678,2.2871227
744,1747533301760,-0.75486904,-0.01513155,-1.0880072,-2.706837,1.0210559,2.4096282
745,1747533301770,-0.71142685,-0.028798755,-0.98574716,-2.9561088,0.62584287,2.6045716
746,1747533301780,-0.7038611,-0.02757847,-0.8925173,-3.00085,0.4575311,2.6945865
747,1747533301790,-0.72558224,-0.05418071,-0.780007,-2.898052,0.35739622,2.7830033
748,1747533301800,-0.72314164,-0.06882414,-0.75059807,-2.7558391,0.3832288849999999,2.8053739
749,1747533301810,-0.740347655,-0.0601601085,-0.79452837,-2.44185245,0.547812255,2.8525119
750,1747533301820,-0.65041256,0.08956901,-1.2302926,-1.8626149,2.0437098,2.9987195
751,1747533301830,-0.5747548,0.071020655,-1.1975889,-1.808819,2.4820662,2.9262815
752,1747533301840,-0.4656612,0.046858992,-1.09118,-1.7907095,2.6642263,2.7686224
753,1747533301850,-0.435032025,0.058817796,-1.05774415,-1.8301243,2.6043052500000003,2.5891253
754,1747533301860,-0.40440285,0.0707766,-1.0243083,-1.8695391,2.5443842,2.4096282
755,1747533301870,-0.36852646,0.078830495,-0.9669548,-1.9558256,2.294047,2.159291
756,1747533301880,-0.37682438,0.082491346,-0.9706156,-1.9441077,2.1859226,2.0341225
757,1747533301890,-0.385854515,0.105920838,-0.99941445,-1.9531624,2.16008995,1.99497405
758,1747533301900,-0.43710655,0.137526255,-1.05591375,-2.00589305,2.1169468,1.9611519
759,1747533301910,-0.53533959,0.182798885,-1.1611024,-2.11295215,2.12200675,2.0205404
760,1747533301920,-0.45419052,0.1403329,-1.2256554,-2.5406556,2.4138892,2.143312
761,1747533301930,-0.41074833,0.15180361,-1.1111927,-2.6743464,2.5033715,2.1513016
762,1747533301940,-0.371699165,0.14082103,-1.049690215,-2.7433222,2.5345304,2.1526332
763,1747533301950,-0.3398497099999999,0.13703815,-0.896056145,-2.9316077,2.44504815,2.21069005
764,1747533301960,-0.16010156,0.07809832,-0.67799103,-3.1824775,2.150769,2.2514365
765,1747533301970,-0.09786696,-0.011714748,-0.49226347,-3.163303,1.9190739,2.1337247
766,1747533301980,-0.0575975125,0.029042811,-0.4757895949999999,-3.0658312,1.7630126,2.0208068
767,1747533301990,-0.028066583,0.08297946,-0.44735694,-2.9939258,1.7832527,1.9893813
768,1747533302000,-0.019402551,0.11995414,-0.49763274,-3.00377955,1.89643705,2.06075405
769,1747533302010,0.0510079655,0.104090421,-0.47774207,-3.0546458,2.078331,2.0879183
770,1747533302020,0.119588055,0.0156196635,-0.3141017,-3.0442594,2.05489515,2.0516993
771,1747533302030,0.18816814,0.0976229,-0.29067218,-3.06157,2.01840985,2.0080235
772,1747533302040,0.265168205,0.0510079652,-0.10543273,-3.09965325,1.88099075,1.9566245
773,1747533302050,0.401352135,0.0082979467,0.16608096,-3.0615700500000003,1.6737967500000002,1.86474545
774,1747533302060,0.513252375,-0.002928687,0.3568117,-2.9340046500000003,1.53584495,1.7667411
775,1747533302070,0.608068625,-0.0187924085,0.5324109,-2.75051285,1.43251435,1.6674052
776,1747533302080,0.70715585,-0.00976229,0.6801875500000001,-2.5281389,1.3630059,1.5614114
777,1747533302090,0.76780407,0.011958805,0.8408992200000001,-2.1734058,1.2479573,1.44263435
778,1747533302100,0.86615914,0.03172744,0.989164,-1.85808755,1.0956245,1.37339215
779,1747533302110,0.92973607,0.0069556305,1.0553035,-1.69616735,0.958738035,1.3233247
780,1747533302120,1.02882335,-0.0307512145,1.16329885,-1.51507235,0.76885462,1.226652
781,1747533302130,1.13315785,-0.036364531,1.2427395,-1.3044163,0.56485647,0.97045595
782,1747533302140,1.3009472,-0.061990541,1.38575705,-0.7819041099999999,0.298806675,0.629304985
783,1747533302150,1.3999124,-0.09493827,1.4911898,-0.37230992,0.12516858,0.49055427
784,1747533302160,1.40747815,-0.08859278,1.4731295000000002,0.36165728,-0.089215898,0.02796319
785,1747533302170,1.3374337,-0.0485673925,1.3498806,0.818123085,-0.230097115,-0.24900557
786,1747533302180,1.1730611999999998,0.0220871825,1.0158883,1.27698575,-0.43729105,-0.557665965
787,1747533302190,1.0233321,0.087738585,0.66237138,1.55848185,-0.6391586650000001,-0.81386205
788,1747533302200,0.97391045,0.117147485,0.50153765,1.59496715,-0.7747135650000001,-0.9669938
789,1747533302210,0.95023685,0.119466027,0.42746626,1.6136093,-0.95181375,-1.18057935
790,1747533302220,0.91448247,0.1132425619999999,0.391833905,1.65515465,-1.13716975,-1.4239923
791,1747533302230,0.82076452,0.133743365,0.323619915,1.70442315,-1.2863068,-1.62399565
792,1747533302240,0.64162654,0.16717921,0.20549619,1.7273263,-1.3539511,-1.7134778
793,1747533302250,0.59476754,0.18426322,0.151315487,1.83811385,-1.51294185,-1.9853867
794,1747533302260,0.5315567,0.20281157,0.03734076,1.8466359,-1.4924355,-2.040514
795,1747533302270,0.528384,0.15961345,0.048567392,1.9148128,-1.459945,-2.1827269
796,1747533302280,0.42636803,0.15229172,0.02831064,1.9686087,-1.4807175,-2.240251
797,1747533302290,0.37926495,0.14057697,-0.00097622897,2.014415,-1.5803198,-2.3158848
798,1747533302300,0.369990775,0.1493630349999999,-0.023673554485,2.0106866,-1.6413062,-2.3499733000000003
799,1747533302310,0.3607166,0.1581491,-0.04637088,2.0069582,-1.7022926,-2.3840618
800,1747533302320,0.279933655,0.1303265725,-0.04258799,2.0514331,-1.87433285,-2.5028389
801,1747533302330,0.148386805,0.1166593575,-0.08151512,2.1675469,-2.15396475,-2.676477
802,1747533302340,0.0976229,0.13081467,-0.12422514,2.2391858,-2.2615564,-2.731338
803,1747533302350,-0.0135451764999999,0.16364038,-0.27053745,2.32360815,-2.27034485,-2.6844665
804,1747533302360,-0.07687803,0.17767367,-0.44149956,2.3473103,-2.16355205,-2.6170886
805,1747533302370,-0.1209303599999999,0.186703795,-0.445038395,2.3531692,-2.0165456,-2.5305358
806,1747533302380,-0.245765645,0.204153895,-0.45699719,2.4319987,-1.9499665,-2.3574302
807,1747533302390,-0.31056285,0.213306045,-0.476155685,2.4833977,-1.9497002,-2.3097596
808,1747533302400,-0.2072046,0.17718557,-0.55620646,2.637062,-1.8647454,-2.283927
809,1747533302410,-0.09445015,0.1300825,-0.5964759,2.7467844,-1.7821875,-2.4261398
810,1747533302420,-0.3734076,0.16717921,-0.6462636,2.9534457,-1.7560885,-2.6083
811,1747533302430,-0.5518134,0.22575295,-0.76072645,2.96915835,-1.7811222,-2.5702168
812,1747533302440,-0.627471165,0.262727625,-0.850783575,2.94439095,-1.83518435,-2.4335966
813,1747533302450,-0.6754284500000001,0.31483384,-0.99075035,2.79046025,-1.8919097,-2.2232068
814,1747533302460,-0.547298405,0.253941555,-1.0304096,2.50443675,-1.94330875,-2.15183405
815,1747533302470,-0.46370876,0.13227904,-0.9752528,2.3031018000000003,-1.9726035,-2.26555105
816,1747533302480,-0.50873733,0.13252309,-0.971713925,2.26901335,-1.97127185,-2.3869912500000003
817,1747533302490,-0.59769622,0.14362769,-0.9532876,2.3009713,-1.9180087,-2.4522388
818,1747533302500,-0.64162654,0.15448824,-0.93840015,2.3457123,-1.8841865,-2.46235885
819,1747533302510,-0.5704838,0.109825755,-0.8289404,2.45170605,-1.803759,-2.50763265
820,1747533302520,-0.7442525499999999,0.128984255,-0.8905648749999999,2.6759443,-1.551025,-2.321744
821,1747533302530,-0.9745206,0.17938208,-1.078977125,2.61762105,-1.49509865,-2.1630195
822,1747533302540,-1.01674255,0.144847982,-1.24615635,2.45303775,-1.45035755,-1.93025915
823,1747533302550,-0.98586925,0.080416869,-1.35000265,2.22187545,-1.5326491999999998,-1.8490328
824,1747533302560,-0.94474555,0.0384390185,-1.3755066500000002,1.9837888,-1.67086725,-1.8684739
825,1747533302570,-0.88312115,0.018060236,-1.27324665,1.6953684,-1.76248,-2.0271983
826,1747533302580,-0.77756643,0.0019524575,-1.10472505,1.73291895,-1.6737967500000002,-2.063151
827,1747533302590,-0.718016445,-0.0208668945,-0.9757408,1.9142802,-1.3475596,-2.14491
828,1747533302600,-0.697271565,-0.0422219035,-0.8505395,2.0093551,-1.23836995,-2.1454427000000003
829,1747533302610,-0.76487542,-0.041489731,-0.7946504,2.192048,-1.033572815,-2.0714068
830,1747533302620,-0.9884319,-0.099819414,-0.9174112,2.26635,-1.1195929,-1.6458336
831,1747533302630,-1.00161095,-0.153512007,-0.9614635,2.2429143,-1.2423646499999998,-1.6327840999999998
832,1747533302640,-1.0101529,-0.23087815,-1.07641445,2.15503,-1.5648735,-1.6687368
833,1747533302650,-1.0177187,-0.2203837,-1.2856936,2.1113541,-1.56753665,-1.68338415
834,1747533302660,-0.9171671,-0.16888762,-1.2476206,1.9728698,-1.139833,-1.6671388
835,1747533302670,-0.82100856,-0.19060871,-1.138771,1.9808593,-0.93157375,-1.6740631
836,1747533302680,-0.73510045,-0.21403822,-1.0382195,1.991512,-0.79202414,-1.716141
837,1747533302690,-0.6726217,-0.24308102,-0.9413288,1.99976775,-0.76299567,-1.75795265
838,1747533302700,-0.7560893,-0.22160399,-0.9484064,1.9142802,-0.86392945,-1.7619474
839,1747533302710,-0.7682922,-0.22404456,-0.9623177,1.7694043,-1.0274476,-1.6788567
840,1747533302720,-0.72631437,-0.2945771,-0.9247329,1.6346483,-1.2575446,-1.6602147
841,1747533302730,-0.70264083,-0.38536638,-0.8717725,1.5664713,-1.4950987,-1.7209347
842,1747533302740,-0.7414459,-0.42905265,-0.8500514,1.5925703,-1.6282567,-1.7971011
843,1747533302750,-0.78635246,-0.4300289,-0.9452337,1.8221349,-1.406149,-1.8716697
844,1747533302760,-0.8151512,-0.4085518,-0.9693954,1.9702066,-1.0780476,-1.8487664
845,1747533302770,-0.83064883,-0.400864015,-0.9836727,2.1236048,-0.6631271,-1.7747306
846,1747533302780,-0.8617661,-0.38756293,-1.053107,2.149171,-0.42717105,-1.6969663
847,1747533302790,-0.83858067,-0.400619965,-1.0708012,2.11135415,-0.382696255,-1.66207885
848,1747533302800,-0.79440632,-0.43039495,-1.06616415,1.912416,-0.45833003,-1.6165388
849,1747533302810,-0.7513302500000001,-0.47042035,-1.0019771,1.5994946,-0.8133294,-1.6655409
850,1747533302820,-0.72460598,-0.504832415,-0.91960777,1.55581875,-0.905474785,-1.7038905
851,1747533302830,-0.7468152,-0.5195979,-0.7844,1.5217303,-1.0961571,-1.7912422
852,1747533302840,-0.8346757,-0.52301466,-0.67579454,1.69616735,-1.02185492,-1.76913795
853,1747533302850,-0.8463905,-0.5210621799999999,-0.7078880700000001,1.9632824,-0.83756417,-1.71214625
854,1747533302860,-0.89007676,-0.4932397,-0.8607899,2.1731396,-0.4149205,-1.5760587
855,1747533302870,-0.8831211649999999,-0.4751794649999999,-0.90679473,2.18965115,-0.265250845,-1.51640395
856,1747533302880,-0.8601797849999999,-0.48640609,-0.93498333,2.0809941,0.082025364,-1.28897
857,1747533302890,-0.810026,-0.5508372,-0.8712844,2.0170782,-0.06711166,-1.2660668
858,1747533302900,-0.79879937,-0.56096555,-0.8820228999999999,1.96940765,-0.17496968,-1.27165945
859,1747533302910,-0.79111157,-0.57316842,-0.90874715,1.86314755,-0.3717773,-1.28124685
860,1747533302920,-0.79831123,-0.5801241,-0.93059033,1.7156084,-0.561927,-1.2825783
861,1747533302930,-0.79831123,-0.5801241,-0.93059033,1.7156084,-0.561927,-1.2825783
862,1747533302940,-0.8254016,-0.59281504,-0.88641596,1.6841831,-0.509729,-1.2085425
863,1747533302950,-0.86994208,-0.57878175,-0.9004492,1.73212,-0.294012995,-1.0618024
864,1747533302960,-0.8744571,-0.5440036,-0.9947773,1.72599475,-0.12277173,-0.931840085
865,1747533302970,-0.8495633,-0.5342413,-1.0484699,1.5936357,0.09640643,-0.7451525
866,1747533302980,-0.819422215,-0.541807075,-1.05872035,1.2639363,0.018642128,-0.58696073
867,1747533302990,-0.775735945,-0.55364385,-1.0725096,1.1632688,-0.043409526,-0.562193335
868,1747533303000,-0.7470592,-0.56816524,-1.0611609,0.86872315,-0.22743396,-0.50813115
869,1747533303010,-0.75194037,-0.55620646,-1.0562798,0.66152924,-0.34834146,-0.44687843
870,1747533303020,-0.7592621,-0.53717,-1.0777569,0.49694586,-0.40852892,-0.38029942
871,1747533303030,-0.7985553,-0.5142286,-1.1482893,0.1304949,-0.45486793,-0.19600865
872,1747533303040,-0.7819594,-0.5130083000000001,-1.15268235,0.0407463685,-0.42717105,-0.147272805
873,1747533303050,-0.74327632,-0.53704795,-1.1263242,-0.1121190815,-0.342748835,-0.072704298
874,1747533303060,-0.71398947,-0.5803681350000001,-1.057256,-0.18615496,-0.1848233799999999,-0.0324905665
875,1747533303070,-0.66920495,-0.61673266,-0.8925173,-0.11558119,0.19228023,0.007989483
876,1747533303080,-0.65919864,-0.6274712,-0.89032084,0.083090626,0.716923,0.04527374
877,1747533303090,-0.65919864,-0.6274712,-0.89032084,0.083090626,0.716923,0.04527374
878,1747533303100,-0.667496565,-0.61758685,-0.92619725,0.0007989475,0.742489325,0.0338221465
879,1747533303110,-0.75340474,-0.5554743,-1.0133257,-0.2564624175,0.526240635,0.062850605
880,1747533303120,-0.75743167,-0.54900677,-1.02540655,-0.5840312400000001,0.25273399,0.1227717349999999
881,1747533303130,-0.76975656,-0.54034275,-1.0511546,-0.8314389,0.0980043265,0.184557075
882,1747533303140,-0.76975656,-0.54034275,-1.0511546,-0.9539443,0.034621093,0.21784659
883,1747533303150,-0.7770783,-0.55596242,-1.0297996,-1.23064675,-0.0378168875,0.32277513
884,1747533303160,-0.77439365,-0.5695075700000001,-1.0216237,-1.3539511,0.0114515925,0.39201732
885,1747533303170,-0.76841425,-0.5920828499999999,-0.99746197,-1.42798695,0.27963192,0.478836385
886,1747533303180,-0.78708464,-0.6216138,-0.92863786,-1.4295849,0.70147663,0.5747102
887,1747533303190,-0.80233822,-0.62869145,-0.90130341,-1.4101438000000002,0.76246303,0.5904228499999999
888,1747533303200,-0.8440719999999999,-0.6421146,-0.86725743,-1.3907027,0.82344943,0.6061355
889,1747533303210,-0.88849042,-0.63381665,-0.88775827,-1.3531522,0.8695221,0.65327343
890,1747533303220,-0.924732895,-0.6046518249999999,-0.96280587,-1.4508902,0.843156835,0.72411353
891,1747533303230,-0.9391323,-0.5735345,-1.0311419,-1.6072178,0.7946873050000001,0.80853573
892,1747533303240,-0.9220483,-0.5715821,-1.0465174,-1.7512948000000002,0.74861462,0.880174755
893,1747533303250,-0.9176552,-0.5725583,-1.065554,-1.90309495,0.70573772,0.95527589
894,1747533303260,-0.91057765,-0.59183884,-1.0365112,-2.0879183,0.6823019,1.0796455
895,1747533303270,-0.896544325,-0.59928257,-1.0274811,-2.12573515,0.70973245,1.15448035
896,1747533303280,-0.869087865,-0.613926,-1.014424,-2.1630194,0.76086515,1.25301735
897,1747533303290,-0.85566473,-0.6211257,-1.010397,-2.1624868,0.7845673,1.2767195
898,1747533303300,-0.8754333,-0.64357895,-1.01479,-2.1454427,0.8229168,1.3171995
899,1747533303310,-0.91472655,-0.59391332,-1.11790425,-2.1915152,0.8873652750000001,1.4476944
900,1747533303320,-0.91960772,-0.56450442,-1.20173785,-2.3060312,0.998951725,1.5781893
901,1747533303330,-0.85908157,-0.56767714,-1.1844097,-2.4501083,1.2058793,1.685781
902,1747533303340,-0.8391909,-0.57658522,-1.13974725,-2.45809765,1.2602078,1.69803155
903,1747533303350,-0.807707485,-0.588422015,-1.05237485,-2.4493092,1.34969005,1.7156083999999998
904,1747533303360,-0.7770783,-0.56474847,-0.9781815,-2.40563345,1.40321965,1.7273263
905,1747533303370,-0.7670719500000001,-0.551691415,-1.00881065,-2.37553975,1.3952301500000002,1.73904425
906,1747533303380,-0.75767575,-0.53289903,-1.05713395,-2.4005735,1.3600764,1.7443706
907,1747533303390,-0.7582859,-0.5039782,-1.0967933,-2.479403,1.3576796,1.7592843
908,1747533303400,-0.742910275,-0.503124,-1.095695,-2.50736615,1.37206065,1.76221375
909,1747533303410,-0.73192769,-0.515692975,-1.07568235,-2.53852515,1.3970943500000002,1.7587516
910,1747533303420,-0.743520415,-0.499341145,-1.06653025,-2.5321336,1.4301175,1.7560885
911,1747533303430,-0.76097048,-0.45480068,-1.0803194,-2.541721,1.43171545,1.77260005
912,1747533303440,-0.7917217,-0.39342028,-1.1146095,-2.680738,1.4072144,1.8924423
913,1747533303450,-0.7660956999999999,-0.37426178,-1.1241277,-2.680738,1.4072144,1.8924423
914,1747533303460,-0.72204337,-0.360106465,-1.11265695,-2.7268107,1.39230065,1.90202965
915,1747533303470,-0.6587105,-0.383658,-0.95572823,-2.7571708,1.3097426,1.89483915
916,1747533303480,-0.6366233,-0.380119165,-0.950480965,-2.69698335,1.24769095,1.8500981
917,1747533303490,-0.592204865,-0.334968565,-0.96366003,-2.6194852500000003,1.2897689,1.80828645
918,1747533303500,-0.56987363,-0.2933568,-0.98208636,-2.5651568,1.37419115,1.7832527
919,1747533303510,-0.57988,-0.2685849999999999,-1.00075678,-2.5459821,1.4919029,1.7686053
920,1747533303520,-0.5980622849999999,-0.23697959,-1.01857295,-2.5553031,1.577923,1.7707358
921,1747533303530,-0.61795294,-0.20403185,-1.070191,-2.58885885,1.59283665,1.78991055
922,1747533303540,-0.579636,-0.16644704,-1.0455412,-2.69298855,1.5827166,1.82879275
923,1747533303550,-0.5542540499999999,-0.1632742999999999,-1.00905465,-2.8176246,1.5792545,1.8647454
924,1747533303560,-0.5008055,-0.153512,-0.8659151,-2.7904603,1.5803198,1.8594191
925,1747533303570,-0.48006061,-0.137770315,-0.83064883,-2.76276335,1.5656724,1.84876645
926,1747533303580,-0.45467865,-0.08639627,-0.76804817,-2.6929886,1.5100124,1.8258632
927,1747533303590,-0.508249225,-0.0518621675,-0.793918255,-2.6719496,1.465005,1.86900645
928,1747533303600,-0.54888475,0.0106164884999999,-0.850173445,-2.6772759,1.413606,1.95209715
929,1747533303610,-0.5637722,0.012202863,-0.87616557,-2.7462518,1.4290522,2.0602214
930,1747533303620,-0.599404575,0.00329477335,-0.8803145349999999,-2.7316044,1.4460964500000002,2.103631
931,1747533303630,-0.6042857,0.056133166,-0.97354436,-2.7079022,1.5249261,2.2434468
932,1747533303640,-0.52472305,0.053936653,-1.027481,-2.9427931,1.7022926,2.3670175
933,1747533303650,-0.5549862,0.07004443,-1.0452971,-2.98700155,1.69164,2.38486075
934,1747533303660,-0.5757311,0.1330112,-1.1514622,-3.2053807,1.6911073,2.4911208
935,1747533303670,-0.5637722,0.15936938,-1.2146729,-3.33427775,1.71081475,2.5518409
936,1747533303680,-0.4596818099999999,0.0871284365,-1.01662045,-3.59739815,1.67992205,2.61762105
937,1747533303690,-0.21599068,0.032215554,-0.6457755,-3.665575,1.5371766,2.5310683
938,1747533303700,-0.166935162,0.0438082755,-0.5723142649999999,-3.6061865,1.50308815,2.4716798
939,1747533303710,-0.13667206,0.10128376,-0.45980385,-3.4621095,1.44476495,2.36515345
940,1747533303720,-0.13203497,0.174745,-0.5269196,-3.2607746,1.3843112,2.2892532
941,1747533303730,-0.09811102,0.208913,-0.60843474,-3.480219,1.2735237,2.3350596
942,1747533303740,-0.14350566,0.20232345,-0.5962319,-3.5481296,1.2098741,2.3744744
943,1747533303750,-0.035632357,0.21672285,-0.53717,-3.778493,1.0476876,2.5081651
944,1747533303760,0.11202228,0.15204766,-0.31605414,-3.82216885,1.0309097,2.52813885
945,1747533303770,0.42905265,0.057841565,0.16010156,-3.7715688,1.0247844,2.5124261
946,1747533303780,0.490311025,0.046492904,0.277493105,-3.4669032,1.1054782,2.37580595
947,1747533303790,0.5959878249999999,0.0538146265,0.43076104,-2.95930465,1.19895515,2.14810575
948,1747533303800,0.678113075,0.102870135,0.45358038,-2.57740735,1.21227095,1.96141825
949,1747533303810,0.740469665,0.121052395,0.441377535,-2.1885858,1.1222562,1.7086842
950,1747533303820,0.8545664150000001,0.112754445,0.45650908,-2.0972394,0.94142752,1.5454324499999998
951,1747533303830,0.9826965,0.118367765,0.50837126,-1.9680761,0.6700513699999999,1.3052153
952,1747533303840,1.1302291,0.09176553,0.69556314,-1.86288125,0.51452275,1.1451593
953,1747533303850,1.16842405,0.079684695,0.77097682,-1.68231895,0.43276368,0.96619487
954,1747533303860,1.2732466,0.04881145,0.9781815,-1.40827965,0.4308994699999999,0.76272935
955,1747533303870,1.2983845,0.071020655,1.0814177,-0.43196473,0.5320996,0.17204021
956,1747533303880,1.27739565,0.0809049755,1.06750645,-0.26977822,0.5286375,0.0708400865
957,1747533303890,1.2392007,0.108605478,1.0183289,0.02263687,0.4977448299999999,-0.1278317335
958,1747533303900,1.2073512,0.1391126349999999,0.9685412,0.269511915,0.416784715,-0.33289514
959,1747533303910,1.1565873,0.164372555,0.942305065,0.50866379,0.300138255,-0.551008045
960,1747533303920,1.0133257,0.2183091999999999,0.840045065,0.8633968,0.11797803775,-0.826911535
961,1747533303930,0.80563295,0.28798756,0.6382097,1.19123195,-0.04767058725,-1.054345465
962,1747533303940,0.76194671,0.2979939,0.57536495,1.36247325,-0.136353855,-1.1701929999999998
963,1747533303950,0.676526685,0.318860785,0.457729355,1.49802815,-0.21278658,-1.27485525
964,1747533303960,0.58976435,0.34631723,0.341069995,1.6026904,-0.280164555,-1.3704627
965,1747533303970,0.481402925,0.390125495,0.200493025,1.65515465,-0.380565735,-1.45009125
966,1747533303980,0.402206325,0.41843613,0.12898426,1.6793894,-0.5544701,-1.514806
967,1747533303990,0.35107634,0.40794169,0.145702175,1.7281252500000002,-0.6149238850000001,-1.5321166000000002
968,1747533304000,0.3027530149999999,0.40916197,0.1104359,1.8279938,-0.7246461550000001,-1.5608788
969,1747533304010,0.289940015,0.4344219,0.017328065,1.91348125,-0.80081257,-1.5947009
970,1747533304020,0.26187343,0.45150592,-0.06638357,2.00243085,-0.85673895,-1.6562199
971,1747533304030,0.1867038,0.47151858,-0.13691612,2.1209416,-0.8974853,-1.7124126
972,1747533304040,0.172914565,0.48237914,-0.159003295,2.14251315,-0.89535477,-1.69962945
973,1747533304050,0.141797265,0.493361725,-0.198784625,2.17021,-0.88470212,-1.66607365
974,1747533304060,0.11226633,0.4702983,-0.29652956,2.1209416,-0.8841695,-1.5595472
975,1747533304070,0.1175135625,0.45675314,-0.29079421,2.118811,-0.88843055,-1.5558187499999998
976,1747533304080,0.1280080275,0.42990684,-0.261385315,2.1662152,-0.9235843,-1.5563514
977,1747533304090,0.13325526,0.4166057,-0.23771177,2.2333269,-0.9350359,-1.5733956
978,1747533304100,0.13459757,0.38121742,-0.187191915,2.3928503,-0.942759075,-1.6085493
979,1747533304110,0.100551582,0.3965930199999999,-0.2314882999999999,2.57288,-0.917725355,-1.62585985
980,1747533304120,0.0026846298,0.39146784,-0.45589894,2.7204191,-0.88070741,-1.5837819
981,1747533304130,-0.0478352201,0.388051035,-0.50153765,2.76436125,-0.90547481,-1.5129418499999998
982,1747533304140,-0.12471325,0.394884635,-0.6092889,2.68633065,-1.01839283,-1.44183545
983,1747533304150,-0.1459462249999999,0.400864035,-0.69775962,2.5342642,-1.17791615,-1.370729
984,1747533304160,-0.13435351,0.385000315,-0.725704215,2.3680829,-1.3480921,-1.32811845
985,1747533304170,-0.10750722,0.3205692,-0.695563165,2.2626217,-1.53877445,-1.36407115
986,1747533304180,-0.15595257,0.24771811,-0.6806757,2.3094933,-1.655421,-1.4860439
987,1747533304190,-0.238199875,0.282008155,-0.73900535,2.3385217000000003,-1.62452835,-1.46234175
988,1747533304200,-0.375848175,0.3535169299999999,-0.8394349,2.37527335,-1.5068166500000002,-1.33158055
989,1747533304210,-0.37804466,0.36144876,-0.94157284,2.3140208,-1.3278522,-1.078047625
990,1747533304220,-0.28627914,0.32923323,-0.92863786,2.1885859,-1.25621315,-0.911067425
991,1747533304230,-0.2218480299999999,0.288597695,-0.89800868,2.026133,-1.3539511,-0.9763149
992,1747533304240,-0.116415305,0.20879098,-0.81271065,2.016013,-1.38457745,-1.0636666
993,1747533304250,-0.14313957,0.1182457449999999,-0.6838484,2.1976405,-1.41094275,-1.34383115
994,1747533304260,-0.280665835,0.07529166,-0.6744522,2.4991103,-1.3944312,-1.577923
995,1747533304270,-0.42368339,0.1036023,-0.83833665,2.66475905,-1.3677996,-1.614142
996,1747533304280,-0.48030466,0.1375262599999999,-1.0854446,2.63067055,-1.3065469,-1.588043
997,1747533304290,-0.39317623,0.14130914,-1.227364,2.4498418,-1.23437525,-1.5947009
998,1747533304300,-0.39317623,0.14130914,-1.227364,2.2572953,-1.186172,-1.63651255
999,1747533304310,-0.40184026,0.16778936,-1.1524383,2.06368355,-1.15554565,-1.64823045
1000,1747533304320,-0.40257242,0.15326795,-1.01735265,1.866876,-1.1712582,-1.6484967
