id,timestamp,acc_x,acc_y,acc_z,gyro_x,gyro_y,gyro_z
1,1747533092240,-0.30031244,-0.104944609,0.84395,-0.43569316,0.3797667899999999,-0.6745787299999999
2,1747533092250,0.56377225,-0.41294484,0.263093725,-0.440753165,-1.46074396,0.4314321000000001
3,1747533092260,1.39991235,-0.56352818,-0.3721873,-0.2471413499999999,-2.73693075,2.36941445
4,1747533092270,1.5380487,-0.55523026,-0.36510965,-0.29880667,-2.509763,2.3393207
5,1747533092280,1.61028965,-0.471396595,-0.361570825,-0.399207845,-2.24318055,2.1552963
6,1747533092290,1.6753309,-0.349001865,-0.3405819,-0.5536711950000001,-1.8437064,1.8543591
7,1747533092300,1.62859395,-0.28127597,-0.298970135,-0.6535397350000001,-1.5832492500000002,1.6311862
8,1747533092310,1.50986015,-0.227461355,-0.173890795,-0.70200928,-1.3627395,1.3267869
9,1747533092320,1.41040685,-0.19744231,-0.01330112,-0.70467246,-1.2697952,1.1286477
10,1747533092330,1.38783155,-0.177673675,0.099087245,-0.37230992,-1.60615245,0.835699975
11,1747533092340,1.37550665,-0.150583325,0.177673675,-0.0231695,-1.9414444,0.620516525
12,1747533092350,1.3075367,-0.125689485,0.0740713715,0.38935415,-2.1614215,0.40932785
13,1747533092360,1.21113405,-0.117757625,-0.1347196085,0.8213189,-2.02187195,0.106792765
14,1747533092370,1.12839865,-0.116049225,-0.261507345,1.06526445,-1.73904425,-0.176833895
15,1747533092380,1.0233321,-0.09493827,-0.3441207,1.1456919,-1.5520903,-0.40107206
16,1747533092390,0.9654905,-0.11299851,-0.3572998,1.3129385,-1.6213325,-0.5592638
17,1747533092400,0.8897107,-0.12593354,-0.410138185,1.42053015,-1.7249295,-0.618119675
18,1747533092410,0.7133793,-0.114462845,-0.5349735,1.8844528,-2.7276096,-0.7978831
19,1747533092420,0.690926035,-0.1226387575,-0.57402265,1.94836865,-2.9481194,-0.7917578249999999
20,1747533092430,0.6711573850000001,-0.156806775,-0.6940988299999999,2.02453505,-3.29219985,-0.784833575
21,1747533092440,0.673842,-0.18279888,-0.77512586,2.0367856,-3.4157705,-0.7840346
22,1747533092450,0.63125407,-0.155220415,-1.00673612,1.6053535499999998,-2.91349835,-0.6942861
23,1747533092460,0.61258365,-0.143505665,-1.09337645,1.0823087,-2.0208067,-0.5819007
24,1747533092470,0.5841510000000001,-0.14972912,-1.09398655,0.677508215,-1.21733098,-0.47191216
25,1747533092480,0.5608435,-0.1483868,-1.0460293,0.332895135,-0.499342725,-0.34834148
26,1747533092490,0.5850052,-0.11543907,-0.93522733,-0.056459017,0.36432046,-0.18801917
27,1747533092500,0.6227120500000001,-0.098599125,-0.824791415,-0.0961401185,0.48070058,-0.1818939
28,1747533092510,0.67555045,-0.0849319225,-0.6556597500000001,-0.0868190549999999,0.367782535,-0.205063405
29,1747533092520,0.692512425,-0.0838336645,-0.55400995,0.05113269,-0.1938781399999999,-0.27270769
30,1747533092530,0.697759655,-0.0687021145,-0.4833554,0.26738137,-0.862597925,-0.35073831
31,1747533092540,0.71996886,-0.03441207,-0.47859627,0.68816084,-1.6575515,-0.48735848
32,1747533092550,0.69592923,-0.0290428115,-0.581100315,1.0173275,-1.8977686,-0.69721556
33,1747533092560,0.6300338,-0.0159857495,-0.734246255,0.98643485,-1.80615585,-0.7014766299999999
34,1747533092570,0.56279605,0.01159272,-0.8241813499999999,0.87404948,-1.58324925,-0.6977481999999999
35,1747533092580,0.5449798,0.1261776,-0.84858704,0.71505878,-1.3821806,-0.69215555
36,1747533092590,0.59037447,0.00048811449,-0.81344277,0.396811,-1.202151,-0.81918836
37,1747533092600,0.5691415,0.07224095,-0.7822035,0.34408042,-1.1153319,-0.8740495
38,1747533092610,0.567189035,0.060160115,-0.7747597500000001,0.35047201,-1.03969813,-0.9038769
39,1747533092620,0.568287285,0.022453268,-0.7847661,0.3552657,-0.85141263,-0.97365175
40,1747533092630,0.543271425,-0.0184263234999999,-0.822717,0.335824625,-0.65993135,-1.0357034
41,1747533092640,0.41062631,-0.0244057265,-0.8650609300000001,0.241815035,-0.541154365,-1.02664863
42,1747533092650,0.2473520149999999,0.016473865,-0.88409738,0.115581195,-0.5065332650000001,-0.94169378
43,1747533092660,0.1500952099999999,0.08310149,-0.860057725,0.013582125,-0.52490908,-0.80906835
44,1747533092670,0.10470056,0.13557379,-0.808683695,-0.06924219,-0.5270395800000001,-0.6474144799999999
45,1747533092680,0.146434355,0.197930425,-0.72924307,-0.09321064,-0.4711132,-0.49135323
46,1747533092690,0.25089085,0.24698594,-0.6677406,0.07137272,-0.33662358,-0.2396845
47,1747533092700,0.267974855,0.251500995,-0.664567865,0.120907515,-0.382696255,-0.22823291
48,1747533092710,0.296163455,0.260531115,-0.660907015,0.222640275,-0.507065865,-0.21172131
49,1747533092720,0.3193489,0.259310825,-0.65895455,0.34301517,-0.6514092,-0.2069276199999999
50,1747533092730,0.338507415,0.248084195,-0.673598,0.4870922,-0.721982975,-0.200536035
51,1747533092740,0.37096703,0.28432667,-0.8473667,0.70147663,-0.52464277,-0.16884442
52,1747533092750,0.3648656,0.2884757,-0.9176552,0.6593987,-0.37550572,-0.18429075
53,1747533092760,0.34680535,0.29274668,-0.93486125,0.6205165500000001,-0.31425302,-0.17816548
54,1747533092770,0.314589785,0.3108069,-0.96304988,0.52171327,-0.22317291,-0.157392825
55,1747533092780,0.294699135,0.33496857,-0.97744928,0.40719734,-0.19228023,-0.13422332
56,1747533092790,0.29823795,0.32606047,-0.9794017,0.24607609,-0.137152793,-0.10546118
57,1747533092800,0.29579738,0.3121492,-0.97330034,0.0950748515,-0.016777914,-0.0743022
58,1747533092810,0.29152638,0.29567534,-0.96097544,0.0151800195,0.1225054139999999,-0.039148471
59,1747533092820,0.28408264,0.27505252,-0.93376307,-0.0359526745,0.2458097799999999,0.015180019
60,1747533092830,0.260165,0.27310005,-0.9108216,-0.054328486,0.35739622,0.10918961
61,1747533092840,0.24918245,0.33484653,-0.8978866,-0.033023197,0.41225734,0.29028457
62,1747533092850,0.27212384,0.36413342,-0.8744571,-0.034088463,0.35420042,0.36485308
63,1747533092860,0.29018407,0.36498763,-0.8600577300000001,-0.0221042375,0.34434673,0.38748994
64,1747533092870,0.332039885,0.38866118,-0.829916655,0.028762139,0.342748835,0.40986049
65,1747533092880,0.370356875,0.4294187299999999,-0.821374655,0.179230745,0.38402784,0.380299405
66,1747533092890,0.3619369,0.41807005,-0.87909424,0.37284255,0.49428272,0.36112466
67,1747533092900,0.3444868,0.421730925,-0.90191357,0.4250405,0.60080916,0.4063984
68,1747533092910,0.2767609,0.45687518,-0.95597225,0.4412858,0.65567028,0.44714475
69,1747533092920,0.26504616,0.4552888,-0.964026125,0.48336375,0.7185208750000001,0.608266
70,1747533092930,0.25333142,0.45370242,-0.97208,0.5091964,0.72651035,0.7286409
71,1747533092940,0.300312445,0.46151224,-0.985869235,0.5368932799999999,0.6812366249999999,0.8082694
72,1747533092950,0.3636453,0.478230165,-1.025162485,0.56032911,0.6069344249999999,0.90867057
73,1747533092960,0.4036707,0.5098356,-1.103871,0.52517539,0.55526909,0.94382432
74,1747533092970,0.4230732499999999,0.53021437,-1.12388365,0.38029942,0.5001417,0.9752496
75,1747533092980,0.44223175,0.56548065,-1.12998505,0.38029942,0.5001417,0.9752496
76,1747533092990,0.44564855,0.62503064,-1.0772687,-0.016511599,0.7052051,1.0274476
77,1747533093000,0.4422317449999999,0.64357897,-1.052741,-0.0711063995,0.75260935,1.0343718
78,1747533093010,0.432225405,0.69983415,-0.98696758,-0.172839155,0.813063085,1.0596718
79,1747533093020,0.42563587,0.737541,-0.94572186,-0.21997711,0.82611257,1.0780476
80,1747533093030,0.51996395,0.9137504,-0.72741264,-0.137152803,0.47457532,1.0322412
81,1747533093040,0.63967407,0.95938903,-0.6160005,0.0492684819999999,0.37044571,0.9193232
82,1747533093050,0.6960513,0.9850151,-0.59672,0.46019423,0.32756883,0.6508766
83,1747533093060,0.720212965,0.932786825,-0.66395775,0.701210315,0.26471822,0.40426787
84,1747533093070,0.7124031,0.7946504,-0.8319912,1.1020161,0.12623383,-0.10972224
85,1747533093080,0.7124031,0.7946504,-0.8319912,1.1587413999999998,0.0900148425,-0.23835292
86,1747533093090,0.5381462,0.66346965,-1.01259358,1.2221246,0.0402137335,-0.421312085
87,1747533093100,0.4148973099999999,0.596475925,-1.1404796,1.18617195,0.032490566,-0.493217435
88,1747533093110,0.26199546,0.521062225,-1.32401055,0.8836368800000001,0.145142275,-0.439954215
89,1747533093120,0.16473864,0.47273888,-1.45104225,0.4434163399999999,0.3257046,-0.32117723
90,1747533093130,0.17840585,0.467735695,-1.4312737,0.09667275,0.47111322,-0.2396845
91,1747533093140,0.2213599299999999,0.461756305,-1.3388981000000002,-0.18615497,0.599211285,-0.18828549
92,1747533093150,0.29274667,0.439181,-1.15207225,-0.36218992,0.68496505,-0.164849675
93,1747533093160,0.362058915,0.4085518099999999,-0.963049935,-0.40107207,0.56618805,-0.17337179
94,1747533093170,0.38561043,0.3961049,-0.90081537,-0.38029942,0.4181163,-0.18748654
95,1747533093180,0.4732270199999999,0.37365166,-0.7951385,-0.1190432984999999,0.0037284199999999,-0.254331885
96,1747533093190,0.54937287,0.376702375,-0.78452202,0.0956074865,-0.24074977,-0.326769875
97,1747533093200,0.614658165,0.3845121999999999,-0.8844634899999999,0.32650355,-0.523577475,-0.5057343
98,1747533093210,0.611119365,0.383535965,-1.01613237,0.456199495,-0.777643055,-0.6854976749999999
99,1747533093220,0.561209685,0.36596383,-1.0926443,0.44661212,-0.93397058,-0.759799875
100,1747533093230,0.51605907,0.35034418,-1.15939395,0.35899413,-1.0615361,-0.8165252
101,1747533093240,0.4698101999999999,0.35546939,-1.22114045,0.279898245,-1.03783395,-0.8218515
102,1747533093250,0.421730915,0.3713330999999999,-1.25372205,0.115048566,-0.9781791,-0.829840975
103,1747533093260,0.3841461,0.3773125,-1.23676005,-0.113184339,-0.910002165,-0.846618925
104,1747533093270,0.3548592499999999,0.36303515,-1.18746055,-0.300937205,-0.908137945,-0.85673895
105,1747533093280,0.3286230999999999,0.3439987,-1.1176602,-0.35712992,-0.97072223,-0.84368945
106,1747533093290,0.30751214,0.34265639,-1.04078215,-0.3470099,-1.0279802,-0.819188375
107,1747533093300,0.31446777,0.35717779,-0.965368425,-0.226102375,-1.08710235,-0.785366225
108,1747533093310,0.34753752,0.3734076,-0.921072,0.010652645,-1.135572,-0.78936094
109,1747533093320,0.34753752,0.3734076,-0.921072,0.010652645,-1.135572,-0.78936094
110,1747533093330,0.34753752,0.3734076,-0.921072,0.010652645,-1.135572,-0.78936094
111,1747533093340,0.241128565,0.363523275,-0.9985602,0.0812264175,-1.2817794999999998,-0.7384945700000001
112,1747533093350,0.12373703,0.354371115,-1.0842242999999998,0.128098055,-1.4705976,-0.63995763
113,1747533093360,0.113974735,0.3636453,-1.0969153,0.068975875,-1.5052187,-0.541154355
114,1747533093370,0.143871745,0.386586685,-1.09801355,-0.004527375,-1.433846,-0.452737395
115,1747533093380,0.26187342,0.43149322,-1.0982577,-0.0974717,-1.1249193,-0.40426785
116,1747533093390,0.284570735,0.4344219099999999,-1.12608025,-0.15020229,-0.943558,-0.4324973749999999
117,1747533093400,0.292014475,0.431493235,-1.1487775,-0.34514568,-0.4287689349999999,-0.49960905
118,1747533093410,0.2306341,0.40562314,-1.1241276,-0.6247776,0.32117724,-0.51984906
119,1747533093420,0.24088451,0.38609856,-1.09118,-0.7387609,0.7344999,-0.48309743
120,1747533093430,0.28335047,0.3802412,-1.0638455,-0.8202536,1.067395,-0.47510794
121,1747533093440,0.27676092,0.36535371,-1.0435888,-0.9619338,1.3699301,-0.45912898
122,1747533093450,0.24649782,0.31141704,-0.95792466,-0.97897804,1.2692626,-0.4213121
123,1747533093460,0.24198277,0.301654755,-0.92656333,-0.95740642,1.144094,-0.3802994
124,1747533093470,0.24503348,0.2831064,-0.879460285,-0.89855055,1.01732755,-0.290550865
125,1747533093480,0.2884757,0.27920148,-0.8754333,-0.80800307,1.2825783,-0.14274544
126,1747533093490,0.30067855,0.2800556899999999,-0.9048422,-0.8615326350000001,1.86554435,-0.0482032175
127,1747533093500,0.319592965,0.278713375,-0.92339058,-0.9576728,2.69538545,0.0900148475
128,1747533093510,0.38853914,0.29140437,-0.8851956,-1.0255834,3.07089115,0.15472966
129,1747533093520,0.43417785,0.29201451,-0.8751892699999999,-1.0729876,3.26183975,0.17816548
130,1747533093530,0.6616392,0.19304928,-0.95279956,-1.1041466,3.8685079,0.18216023
131,1747533093540,0.70874226,0.1483868,-1.0082005,-1.3310479,4.349475,0.24021713
132,1747533093550,0.7660957,0.13349932,-1.01479,-1.530785,4.5364285,0.2806972
133,1747533093560,0.8055109,0.135329745,-0.974276485,-1.62719145,4.452805250000001,0.27963193
134,1747533093570,0.88238895,0.144603915,-0.867623485,-1.78058955,4.1739723,0.246342405
135,1747533093580,0.9357155,0.17193833,-0.659076575,-1.7765948,3.4855453,0.1089232878
136,1747533093590,0.8920292,0.18621568,-0.46956614,-1.5877767,2.6839337,-0.047404267
137,1747533093600,0.86286435,0.1858496,-0.474447295,-1.53957345,2.68659685,-0.042344261
138,1747533093610,0.80807355,0.18682583,-0.491531325,-1.4761902,2.80271075,-0.0141147535
139,1747533093620,0.76389922,0.183286995,-0.51459475,-1.47965235,3.10577855,0.052197959
140,1747533093630,0.70349502,0.15009521,-0.5260654499999999,-1.6026904000000002,3.619236,0.182426535
141,1747533093640,0.6616392,0.12178457,-0.5266756,-1.7070863,3.9430764,0.2695119
142,1747533093650,0.639063935,0.10555476,-0.3985454899999999,-1.78378535,4.0527987,0.35446675
143,1747533093660,0.6733539,0.11299851,-0.20500809,-1.83944545,4.0757019,0.45966162
144,1747533093670,0.688241415,0.13581786,-0.132156998,-1.7446369000000002,3.79580355,0.4862932199999999
145,1747533093680,0.7097184649999999,0.216112695,0.011714749,-1.4263891000000002,2.9617015,0.447677385
146,1747533093690,0.70837615,0.27102559,0.091765522,-0.9965549,1.82985805,0.367249925
147,1747533093700,0.6876313199999999,0.23929814,0.0678479125,-0.6708502999999999,1.03570335,0.33209619
148,1747533093710,0.6875093,0.164006462,-0.0517401324999999,-0.4679174149999999,0.6263755,0.3536678
149,1747533093720,0.71276921,0.071874856,-0.224288605,-0.439687905,0.60400495,0.419980515
150,1747533093730,0.75389284,-0.05662128,-0.46834585,-0.71106404,1.1456919,0.6013418
151,1747533093740,0.7614586,-0.047103047,-0.36632994,-1.3401027,2.1965754,0.87990844
152,1747533093750,0.783911865,-0.050885936,-0.2979939,-1.4333133500000002,2.3736756,0.92784532
153,1747533093760,0.8333334649999999,-0.0763899225,-0.15290186,-1.5494272,2.6511769,1.00427805
154,1747533093770,0.9318106,-0.113242565,0.053204485,-1.4266554500000002,2.6053705000000003,1.0032128
155,1747533093780,1.0225999,-0.145824205,0.206228375,-1.12571822,2.2612901,0.9387643
156,1747533093790,1.03431465,-0.186215675,0.19256116,-0.82717785,1.9156118,0.8841695
157,1747533093800,1.0438329,-0.234416975,0.093107835,-0.5930859799999999,1.6522252,0.86685895
158,1747533093810,1.1153417,-0.2923806,-0.12056428,-0.4804342749999999,1.4572818,0.85647262
159,1747533093820,1.12730045,-0.295309275,-0.24759609,-0.65220815,1.5635419000000002,0.833569435
160,1747533093830,1.1646413,-0.27651685,-0.34509695,-0.993092775,1.9025623,0.80693784
161,1747533093840,1.16927835,-0.274442375,-0.295919415,-1.24982155,2.19843945,0.7595335750000001
162,1747533093850,1.16854615,-0.296773615,-0.1969542,-1.4516892,2.4892566,0.68310085
163,1747533093860,1.1152196,-0.346927375,-0.01513155,-1.58591245,2.66369365,0.61039655
164,1747533093870,1.0762924,-0.379875095,0.18292091,-1.59470085,2.4897892500000003,0.5587312
165,1747533093880,1.1150975,-0.383657985,0.3082443099999999,-1.4050838,2.0208068,0.45806372
166,1747533093890,1.1745255,-0.3627911,0.4057451749999999,-1.30122055,1.96248355,0.3922836349999999
167,1747533093900,1.2041785,-0.345341,0.44394013,-1.1973573,1.9041603,0.32650355
168,1747533093910,1.14828935,-0.32508426,0.48921274,-0.8359662800000001,2.30310175,0.04021374
169,1747533093920,1.01674252,-0.33875147,0.523380775,-0.578438585,2.6471822,-0.1099885499999999
170,1747533093930,0.89825272,-0.341192035,0.565602675,-0.3842941549999999,2.7004454,-0.1251685699999999
171,1747533093940,0.81356485,-0.322399615,0.613193825,-0.167512838,2.54837895,-0.095607483
172,1747533093950,0.7678041,-0.2626056,0.64992446,0.23009712,2.0298615,-0.05219796
173,1747533093960,0.7708548,-0.22197007,0.60465183,0.50733221,1.48577765,-0.039414786
174,1747533093970,0.7780545000000001,-0.164982705,0.4939718749999999,0.89136005,0.64528396,-0.020772657
175,1747533093980,0.7903794,-0.1356958325,0.371333125,1.0671287,0.05805692,-0.0055926382
176,1747533093990,0.8178358,-0.1111680755,0.27041544,1.17099195,-0.51612064,0.0130494903
177,1747533094000,0.896422265,-0.080660921,0.154488237,1.21173825,-1.20508045,0.0015978975
178,1747533094010,0.989164015,-0.0613803995,0.03807293135,1.1675298,-1.62799045,-0.04048005
179,1747533094020,1.0457853,-0.0693122565,-0.04368624565,1.01732755,-1.54090505,-0.085221155
180,1747533094030,1.08276,-0.08395569,-0.09981941,0.6514092,-1.0641992,-0.14594123
181,1747533094040,1.0965492,-0.086152208,-0.119099935,0.51319115,-0.82398205,-0.15419703
182,1747533094050,1.09117995,-0.065529373,-0.0370967015,0.1701760035,-0.16777914,-0.18242654
183,1747533094060,1.0799533499999998,-0.058329685,0.1039683885,-0.0644485015,0.33688988,-0.214917105
184,1747533094070,1.0593305,-0.08615221,0.214770385,-0.0703074575,0.37577203,-0.237553975
185,1747533094080,0.99550945,-0.10055158,0.34241232,0.1470065,-0.13582122,-0.23755397
186,1747533094090,0.9896521,-0.1049446149999999,0.35607953,0.34887412,-0.6993461,-0.22743396
187,1747533094100,1.0116173,-0.17206036,0.29823795,0.6716492,-1.9068234,-0.24980451
188,1747533094110,1.02321,-0.17047399,0.273344115,0.7123956,-2.15609525,-0.262854005
189,1747533094120,1.0394398,-0.15778301,0.22575295,0.77258307,-2.5534389,-0.29348035
190,1747533094130,1.01271555,-0.092253637,0.18816813,0.7936220199999999,-2.7419907,-0.32091091
191,1747533094140,0.95524013,0.05906185,0.16595893,0.7797736,-2.7265444,-0.32011196
192,1747533094150,0.959755165,0.059794025,0.169863845,0.78243675,-2.5414547,-0.321709855
193,1747533094160,0.9369358,0.08395569,0.1683995,0.8165252000000001,-2.2245385,-0.317715125
194,1747533094170,0.933274935,0.07883049,0.157172865,0.8831042250000001,-2.03066035,-0.29640985
195,1747533094180,0.945355785,0.06125837,0.124835275,0.958471675,-1.95742345,-0.27297403
196,1747533094190,0.98440495,0.04966565,0.0207448599999999,1.0295781,-1.97260345,-0.262587695
197,1747533094200,1.00624805,0.0613804,-0.11116808,1.0396981,-2.0722057,-0.271376115
198,1747533094210,1.0047837,0.07224095,-0.16010156,1.0189254,-2.1454427,-0.2828277
199,1747533094220,0.9532876,0.150583325,-0.27322209,0.78350202,-2.0250677,-0.28043086
200,1747533094230,0.931322455,0.183409025,-0.2817640999999999,0.602939695,-1.9070897,-0.2743056
201,1747533094240,0.83223516,0.2933568,-0.10665302,0.36911413,-1.7454358,-0.24501082
202,1747533094250,0.8092938,0.28432667,-0.031483386,0.4426174,-1.7614148,-0.20240025
203,1747533094260,0.8041685999999999,0.284814785,-0.01452140675,0.5107943,-1.764078,-0.178698115
204,1747533094270,0.80819558,0.28420465,-0.00671157375,0.6625944500000001,-1.74543585,-0.128364365
205,1747533094280,0.8666473299999999,0.278713365,-0.11190024,0.80826937,-1.66021465,-0.0833569399999999
206,1747533094290,0.9679311,0.28798756,-0.29091623,0.9193232,-1.1270498,-0.034621093
207,1747533094300,0.9906283,0.32532832,-0.34607318,0.891626325,-1.03410548,-0.0511326914999999
208,1747533094310,0.9884318,0.3433885399999999,-0.346927375,0.826112575,-0.97738018,-0.096406435
209,1747533094320,0.9789136,0.35827602,-0.32862307,0.768322,-1.22318995,-0.180562325
210,1747533094330,0.87714175,0.33618885,-0.308244285,0.7664578,-1.62532725,-0.263386635
211,1747533094340,0.7236297,0.32337585,-0.336799,0.81439465,-2.4889903,-0.20080236
212,1747533094350,0.72485006,0.3133695,-0.36559775,0.81013364,-2.6493127,-0.120907515
213,1747533094360,0.73607668,0.31178313,-0.371943235,0.80986732,-2.6847328,-0.088683266
214,1747533094370,0.7563333999999999,0.319959045,-0.37548207,0.8149273,-2.75317595,-0.02769687625
215,1747533094380,0.78012898,0.345585045,-0.363157185,0.83783048,-2.850914,0.0071905352499999
216,1747533094390,0.7934301,0.35998443,-0.36632994,0.93290538,-3.03041115,0.004527374
217,1747533094400,0.78000695,0.3636453,-0.385610445,1.06499815,-3.1835428500000003,-0.00852211575
218,1747533094410,0.7665838,0.36730617,-0.40489095,1.1195929,-3.2218924,-0.0127831735
219,1747533094420,0.70776607,0.38292581,-0.520574095,1.1811119,-3.2762209,-0.015180019
220,1747533094430,0.64931432,0.366573975,-0.6118515200000001,1.15021925,-3.2759546000000004,0.01304949
221,1747533094440,0.48201308,0.36047253,-0.72167724,0.8905611,-3.2692966,0.21891184
222,1747533094450,0.45589894,0.35510328,-0.70264083,0.8111989,-3.3087113,0.32863408
223,1747533094460,0.456997185,0.33167379,-0.68970579,0.78243675,-3.3164345,0.39095205
224,1747533094470,0.466637465,0.31044083,-0.65883255,0.740092475,-3.2919334,0.50946271
225,1747533094480,0.5315567,0.321667465,-0.6301558,0.7374293249999999,-3.16916165,0.6229134000000001
226,1747533094490,0.6127057,0.342046235,-0.6344268,0.7917578249999999,-2.7766118,0.694286125
227,1747533094500,0.6323523,0.367672235,-0.675184395,0.852211575,-2.3715451,0.6993461
228,1747533094510,0.6145361250000001,0.395982875,-0.7309514699999999,0.8607336999999999,-2.27913335,0.680171345
229,1747533094520,0.5643823750000001,0.41453123,-0.79269792,0.82504735,-2.34038595,0.66552397
230,1747533094530,0.5269196,0.41904628,-0.82442534,0.7978831,-2.390986,0.6609966
231,1747533094540,0.343388565,0.377068445,-0.78549828,0.7880294,-3.3071135,0.81918835
232,1747533094550,0.20671648,0.3236199,-0.7670719,0.93423694,-4.5295043,1.1797804
233,1747533094560,0.28371654,0.323863965,-0.8212526,0.95793907,-4.58356665,1.2684636500000002
234,1747533094570,0.42038862,0.351808515,-0.9014254,0.9685917,-4.0962082,1.41760065
235,1747533094580,0.5232587,0.4085518,-0.9576807,0.9206548,-3.17102585,1.46101015
236,1747533094590,0.5493728499999999,0.41245673,-0.9373019,0.87112,-2.5481125,1.40481745
237,1747533094600,0.55571835,0.411846595,-0.906794725,0.85833683,-2.1470405,1.3164005
238,1747533094610,0.43320161,0.402572425,-0.879094245,0.92811168,-1.96860865,1.2338425
239,1747533094620,0.288353645,0.37950901,-0.8770197200000001,1.03170865,-1.98432125,1.23011415
240,1747533094630,0.216112695,0.346317225,-0.91082163,1.0948256,-2.04717195,1.325189
241,1747533094640,0.177917735,0.332894085,-0.941694915,1.13903405,-2.09297835,1.45754805
242,1747533094650,0.24478942,0.29262465,-0.94254905,1.2106731,-2.143312,1.6218652
243,1747533094660,0.335212645,0.3457071,-0.92827174,1.3946975,-2.31961335,1.5907062
244,1747533094670,0.461146185,0.4272222249999999,-0.965002415,1.6556873,-2.53532945,1.48790815
245,1747533094680,0.4966565,0.4556549,-1.0160104,1.7326527,-2.5747442,1.4162691
246,1747533094690,0.44662476,0.63625723,-1.1746475,1.83145595,-2.3853935,1.1355719
247,1747533094700,0.42002252,0.679089265,-1.21906595,1.8232001,-2.0532973,0.95101485
248,1747533094710,0.35290678,0.768414215,-1.30143525,1.63890935,-1.33264585,0.6681871500000001
249,1747533094720,0.31239328,0.8354079400000001,-1.3393861,1.40748065,-0.74089145,0.3834952
250,1747533094730,0.3443648,0.8534682,-1.3806318,1.3369069,-0.6540724,0.2892193
251,1747533094740,0.32069123,0.83272333,-1.4343244,1.1140002999999998,-0.680171375,-0.0729706149999999
252,1747533094750,0.202933595,0.6640797549999999,-1.5497635,0.662328175,-0.68469875,-0.34621095
253,1747533094760,0.0641870549999999,0.451505885,-1.5869822999999998,0.128098051,-0.54967646,-0.5289038
254,1747533094770,-0.0209889235,0.35022214,-1.5162057,-0.215449739,-0.2825614,-0.553138575
255,1747533094780,-0.06613952,0.26065314,-1.3369455,-0.499609035,0.00878843,-0.539290125
256,1747533094790,-0.0536925964999999,0.234416985,-1.2527458,-0.70999877,0.2591255799999999,-0.5440838
257,1747533094800,-0.043564219,0.17108413,-1.04419895,-0.7621967350000001,0.52837116,-0.6037386499999999
258,1747533094810,-0.08444381,0.107629254,-0.8573731,-0.66046396,0.7419567,-0.6522082
259,1747533094820,-0.0990872449999999,0.098599132,-0.8578612,-0.52011536,0.84528735,-0.63969133
260,1747533094830,-0.120442255,0.09042321,-0.86713535,-0.38296257,0.90840425,-0.598412305
261,1747533094840,-0.1261776,0.106164895,-0.8861718,-0.17257284,0.85487473,-0.5075985
262,1747533094850,0.006833603,0.14130914,-0.95646036,0.1107875,0.49428272,-0.44474792
263,1747533094860,0.0325816415,0.160101545,-0.99965848,0.177366525,0.424507885,-0.472977425
264,1747533094870,0.057841565,0.1818226399999999,-1.11363315,0.244478185,0.323307755,-0.520914315
265,1747533094880,0.05735345,0.18475133,-1.1844097,0.24501082,0.29188246,-0.5406217
266,1747533094890,0.028554698,0.156196635,-1.35878875,0.0833569445,0.3526025299999999,-0.58616178
267,1747533094900,-0.0008542005,0.1468004299999999,-1.4013767499999998,-0.1600559855,0.4319647399999999,-0.570715455
268,1747533094910,-0.004881145,0.13923466,-1.3478061,-0.37097834,0.4130562949999999,-0.535295395
269,1747533094920,-0.0095182325999999,0.123737028,-1.2803243,-0.40400153,0.218112895,-0.494282705
270,1747533094930,0.0134231489,0.122516738,-1.25787105,-0.3779025649999999,-0.073769565,-0.445014225
271,1747533094940,0.09786695,0.20085912,-1.3485383,-0.4508731849999999,-0.27537086,-0.41518681
272,1747533094950,0.25259924,0.32093528,-1.4843562,-0.76485986,-0.05006743,-0.4889564
273,1747533094960,0.29177043,0.33814131,-1.4804513,-0.8969526800000001,0.18855181,-0.557399635
274,1747533094970,0.4058672,0.35144243,-1.4182167,-1.15448035,0.777110425,-0.713727185
275,1747533094980,0.40049795,0.344730865,-1.35671425,-1.35581535,1.51134395,-0.89002845
276,1747533094990,0.3951287,0.3380193,-1.2952118,-1.4317155,1.8956381,-0.9784454
277,1747533095000,0.24906042,0.28652321,-0.9785475,-1.3038837,2.69245605,-1.1094729
278,1747533095010,0.234050885,0.3117831399999999,-0.93083435,-1.1443603,2.5891253,-1.0844391999999998
279,1747533095020,0.25381953,0.35363895,-0.93583755,-0.971787475,2.313488,-1.06047075
280,1747533095030,0.320813255,0.4249036499999999,-1.03175205,-0.842890505,2.03358975,-1.0599381
281,1747533095040,0.3790209,0.49470404,-1.1875826,-0.866326305,2.081793,-1.12678345
282,1747533095050,0.36779428,0.5020258,-1.2171135,-1.1153319,2.8181572,-1.2623384
283,1747533095060,0.33008744,0.48359945,-1.19453825,-1.2149341,3.2258872,-1.28311105
284,1747533095070,0.248206225,0.414531235,-1.10948425,-1.38457745,4.0823596,-1.27831735
285,1747533095080,0.158027065,0.323985995,-0.8720165,-1.3313142,5.23710625,-1.07218868
286,1747533095090,0.16205402,0.29042813,-0.6040417,-1.01786015,5.97746525,-0.7558051299999999
287,1747533095100,0.32532832,0.30922052,-0.61892915,-0.535828,5.5750613,-0.46392268
288,1747533095110,0.401718245,0.33521261,-0.66505599,-0.43089946,5.25361765,-0.42610579
289,1747533095120,0.557304735,0.39927765,-0.764021245,-0.267914005,4.52870525,-0.3965446999999999
290,1747533095130,0.7452288,0.4785962499999999,-0.94242713,-0.275104545,3.50072525,-0.5006743
291,1747533095140,0.85712905,0.513862515,-1.11729415,-0.45353633,2.788596,-0.65646925
292,1747533095150,0.80758542,0.49226348,-1.1663496,-0.7028082,2.7382623,-0.74062513
293,1747533095160,0.7016645699999999,0.459071695,-1.1252259,-0.96246647,2.88766565,-0.75181038
294,1747533095170,0.61319385,0.41831413,-1.00612595,-1.17498675,3.1569112500000003,-0.68629662
295,1747533095180,0.6386978,0.2638259,-0.5696296,-1.1515509,3.6693034,-0.38456047
296,1747533095190,0.6879973699999999,0.254673745,-0.51740135,-1.06846025,3.67596135,-0.341150935
297,1747533095200,0.882511,0.19231711,-0.48957884,-0.8175905,3.7215014,-0.2247708
298,1747533095210,0.96195165,0.16864356,-0.566944985,-0.81865575,3.7238982,-0.20373183
299,1747533095220,1.11875845,0.155830555,-0.695685165,-0.9145295,3.680755,-0.18002969
300,1747533095230,1.4033291,0.24869433,-0.584029,-1.3491575,3.2415998,-0.43303
301,1747533095240,1.3755066,0.27554062,-0.4737151,-1.4753913,3.1824775,-0.588026
302,1747533095250,1.32352245,0.291526375,-0.37658033,-1.49323445,3.17368915,-0.6724482
303,1747533095260,1.19905325,0.31263734,-0.20720461,-1.4564828,3.1675639,-0.79575255
304,1747533095270,1.02931142,0.322643675,-0.11238836,-1.3363743,3.15957435,-0.838096815
305,1747533095280,0.73131755,0.324352065,-0.128496135,-1.2152005,3.1214912,-0.790159915
306,1747533095290,0.504588365,0.3178845649999999,-0.15607461,-1.1385014,3.10098485,-0.54435014
307,1747533095300,0.496534465,0.305071565,-0.104578535,-1.07831395,3.1233554,-0.27031086
308,1747533095310,0.53338708,0.286523215,-0.055400997,-1.0391655,3.1388018,-0.19068234
309,1747533095320,0.5523015,0.2774931,-0.046614934,-0.9214538,3.3268209,-0.05219796
310,1747533095330,0.676892755,0.2054962,-0.103724325,-0.879642115,4.17051015,0.087618005
311,1747533095340,0.7386392749999999,0.1432616,-0.113608645,-0.933970615,4.923652150000001,0.13315806
312,1747533095350,0.7985553249999999,0.127153825,-0.0530824499,-0.9784454,5.2043495,0.0862864215
313,1747533095360,0.880680575,0.09981941,0.0407575601,-0.943558,5.288772,-0.0567253335
314,1747533095370,0.50788313,0.050031736,-0.10933765,-0.7302388,4.4730453,-0.22530343
315,1747533095380,0.36632994,-0.014643434,-0.29555333,-0.91133374,3.9851544,-0.103863284
316,1747533095390,0.33582276,-0.1147069,-0.3499781,-1.04049702,3.800331,-0.030360037
317,1747533095400,0.3585200899999999,-0.183164965,-0.32105731,-1.32838475,3.510579,0.150468605
318,1747533095410,0.8180799,-0.49616838,0.084931925,-1.7331853,3.60592,0.19813919
319,1747533095420,0.83016075,-0.54034274,0.1751110775,-1.73425055,3.67303175,0.140082277
320,1747533095430,0.82747612,-0.61026515,0.343876645,-1.71614105,3.69753285,0.036485308
321,1747533095440,0.792209805,-0.656758065,0.47993858,-1.66181255,3.54679795,-0.036218994
322,1747533095450,0.7313175350000001,-0.678357115,0.526797575,-1.5978967,3.34812615,-0.0689758749999999
323,1747533095460,0.63491495,-0.72326365,0.50422226,-1.68444945,2.9787457,0.0263652949999999
324,1747533095470,0.5789038,-0.767316,0.49226347,-1.8250643,2.47567465,0.18801918
325,1747533095480,0.716674135,-0.739615475,0.6221019,-1.8663433,1.94144455,0.291882465
326,1747533095490,0.9391323,-0.6218578,0.7604824,-1.8684739,1.3044163,0.30519825
327,1747533095500,1.00466165,-0.5620638,0.86701338,-1.82186855,1.26553415,0.26045715
328,1747533095510,1.0516426499999998,-0.469322085,1.03529083,-1.5928367,1.2921658,0.0846885225
329,1747533095520,0.97269015,-0.43381177,1.14206585,-1.25807735,1.3592775,-0.0782969375
330,1747533095530,0.85920355,-0.428686575,1.1958805,-0.948085375,1.2644689,-0.10492855
331,1747533095540,0.77317335,-0.40647735,1.20796135,-0.6508765750000001,0.96220008,-0.0705737715
332,1747533095550,0.74303227,-0.363767325,1.2172355,-0.36645095,0.498277445,-0.0135821215
333,1747533095560,0.75499107,-0.3281349799999999,1.1787965,0.12383699,-0.1725728349999999,0.054594802
334,1747533095570,0.774393635,-0.306413885,1.06091685,0.58909124,-0.569383835,0.1014664399999999
335,1747533095580,0.7955046,-0.29701767,0.8939817,0.77764307,-0.446878435,0.106526446
336,1747533095590,0.806243115,-0.282374225,0.7194807999999999,0.86020107,-0.235689765,0.1083906555
337,1747533095600,0.86103404,-0.16571487,0.5256993,0.85594,0.0300937149999999,0.0782969375
338,1747533095610,0.849563305,-0.151681575,0.516303085,0.85886947,0.188551805,0.020240026
339,1747533095620,0.817469735,-0.130570625,0.475301475,0.88603372,0.09028116385,-0.0098536965
340,1747533095630,0.78793882,-0.1086054774999999,0.412334725,0.8740495,-0.13768543115,0.0002663155
341,1747533095640,0.8268659,-0.044418417,0.32093528,0.7339672,-0.479369,0.05219796
342,1747533095650,0.90496425,-0.01952457875,0.325328305,0.59601546,-0.4543353,0.0351537285
343,1747533095660,1.0202813000000002,0.00451505905,0.35278475,0.40293628,-0.37523942,-0.0170442315
344,1747533095670,1.07836695,-0.0015863721999999,0.40928401,0.31425302,-0.27403928,-0.103064335
345,1747533095680,1.087275,-0.008297946,0.55791485,0.2759035,-0.22903186,-0.2593919
346,1747533095690,1.012837575,-0.019036466,0.5991605499999999,0.344879375,-0.3520699,-0.31771512
347,1747533095700,0.83858067,-0.051252022,0.59867245,0.4263721099999999,-0.52144697,-0.36804886
348,1747533095710,0.800263705,-0.0623566285,0.599282595,0.43729107,-0.70413985,-0.31451933
349,1747533095720,0.73985955,-0.0575975105,0.62283412,0.460726885,-0.9627328,-0.2316950199999999
350,1747533095730,0.6970275,-0.0172060345,0.65932065,0.5379585499999999,-1.2191952,-0.1576591375
351,1747533095740,0.62356627,-0.028066583,0.5930591,0.68496505,-1.78112215,-0.0231695024999999
352,1747533095750,0.6416265050000001,-0.0471030514999999,0.54632214,0.7997472999999999,-2.4370588,0.13502227
353,1747533095760,0.698003735,-0.087006413,0.44943142,0.8162589,-2.81149925,0.24767399
354,1747533095770,0.779518865,-0.1010397005,0.36144878,0.7792409499999999,-3.09592475,0.333960415
355,1747533095780,0.89019885,-0.0791965775,0.33094163,0.7028082,-3.40511775,0.36698361
356,1747533095790,1.05579175,-0.0215990685,0.40269446,0.7057376799999999,-3.80592335,0.215449735
357,1747533095800,1.15927205,0.054302739,0.46273253,0.79681781,-4.0410805,-0.016777915
358,1747533095810,1.14414045,0.0855420625,0.427466265,0.872451605,-4.0176449000000005,-0.17656758
359,1747533095820,1.0556696,0.07968469,0.34290044,0.905208475,-3.9207058,-0.279898225
360,1747533095830,0.911309735,0.0345341035,0.2123298149999999,0.88843055,-3.8826226,-0.28256139
361,1747533095840,0.8324793,-0.035876416,0.12739788,0.7643272,-4.701545,-0.08681905
362,1747533095850,0.8368723,-0.043808276,0.1353297399999999,0.76166405,-5.02538525,-0.0474042665
363,1747533095860,0.8533461499999999,-0.038805102,0.1415532,0.77631145,-5.57133325,0.0287621435
364,1747533095870,0.895324,-0.0103724328999999,0.118123705,0.814394675,-5.88265665,0.092411695
365,1747533095880,1.0078344,0.0881046711,0.09908724,0.852744195,-5.79716895,0.0828243125
366,1747533095890,1.12180915,0.20012695,0.1066530149999999,0.9864349,-5.2288504,-0.11611383
367,1747533095900,1.1332798,0.24051843,0.0745594875,1.0439592,-5.07758285,-0.19228024
368,1747533095910,1.0578661500000002,0.25296534,-0.0341680125,1.13024565,-4.88823215,-0.31984566
369,1747533095920,0.94816242,0.239176095,-0.182920895,1.15581195,-4.88024275,-0.398142585
370,1747533095930,0.83443172,0.19646608,-0.325206275,1.11453295,-4.950284,-0.4119910249999999
371,1747533095940,0.717772375,0.14448189,-0.4364964,0.95927068,-5.0128684,-0.27537087
372,1747533095950,0.6901939,0.12349297,-0.46370876,0.773382,-5.031244,-0.068176925
373,1747533095960,0.6901939,0.12349297,-0.46370876,0.773382,-5.031244,-0.068176925
374,1747533095970,0.7485235699999999,0.147898695,-0.423195275,0.7587345999999999,-4.945756749999999,0.0
375,1747533095980,0.80941587,0.18731394,-0.3871968249999999,0.78776305,-4.8405617,-0.0186421295
376,1747533095990,0.8123445499999999,0.21879733,-0.36950268,0.9025453,-4.6845002,-0.133690695
377,1747533096000,0.6794554,0.25650415,-0.40391475,1.0727214,-4.531635,-0.27164245
378,1747533096010,0.6374775500000001,0.2571142899999999,-0.419534415,1.1110709,-4.5066012,-0.2727077
379,1747533096020,0.57280237,0.25394155,-0.46785774,1.19975415,-4.4453485,-0.269778225
380,1747533096030,0.527285695,0.254673735,-0.5551082,1.2732574,-4.4189833,-0.25939191
381,1747533096040,0.4598038599999999,0.249182455,-0.711914975,1.24955525,-4.478638,-0.2300971299999999
382,1747533096050,0.35974038,0.2208718,-0.8871481,1.0982877,-4.381965,-0.1486044
383,1747533096060,0.35400504,0.207326635,-0.89373765,1.046622365,-4.2711777,-0.118510675
384,1747533096070,0.339849725,0.2041539,-0.8866599749999999,0.969390665,-4.0448091,-0.067644293
385,1747533096080,0.309464605,0.215868645,-0.863596575,0.94808537,-3.7289581,-0.02476739855
386,1747533096090,0.22209209,0.19841854,-0.88104665,0.94169377,-3.3662356,0.0348874144499999
387,1747533096100,0.2391760949999999,0.20317765,-0.8860498050000001,0.92837795,-3.0429279,0.1137169849999999
388,1747533096110,0.2562601,0.20793676,-0.89105296,0.9257148,-2.882073,0.15499598
389,1747533096120,0.3205692,0.24930449,-0.887148125,0.9289106,-2.61602315,0.169643365
390,1747533096130,0.37633628,0.2767609,-0.9205839,0.90654004,-2.0511668,0.11717909
391,1747533096140,0.357543875,0.27798119,-0.9325427,0.888963195,-1.86288125,0.0982706449999999
392,1747533096150,0.285302925,0.285058855,-0.95072498,0.8516789,-1.6389093,0.07084008
393,1747533096160,0.16022358,0.28603509,-0.98330668,0.81572625,-1.71347785,0.096672745
394,1747533096170,0.08310149,0.2871333499999999,-1.00405155,0.6799050499999999,-1.80828645,0.21704764
395,1747533096180,0.11885588,0.276028735,-0.977083215,0.54594805,-1.72306525,0.327835145
396,1747533096190,0.187558,0.26870702,-0.934007115,0.5070659,-1.4085459,0.34647727
397,1747533096200,0.2152585,0.29994636,-0.90996745,0.51478905,-1.00907175,0.33076462
398,1747533096210,0.117269512,0.31044082,-0.9220483,0.54754595,-0.850347325,0.331829875
399,1747533096220,-0.0327036729999999,0.309830685,-0.9531656,0.5811018,-0.989364325,0.4069310149999999
400,1747533096230,-0.09481624,0.32069123,-0.99221475,0.58509652,-1.2170646,0.5233111500000001
401,1747533096240,-0.106775045,0.3137355899999999,-1.0194271499999998,0.55580172,-1.4357101499999998,0.647680785
402,1747533096250,-0.090301185,0.29079421,-1.008078475,0.53822485,-1.6197346,0.779507285
403,1747533096260,0.02464978,0.24503348,-0.973666375,0.588558615,-1.7547568999999998,0.9566075
404,1747533096270,0.16791139,0.2312442499999999,-0.95243338,0.678307145,-1.7315874,1.07858025
405,1747533096280,0.21428227,0.24771811,-0.94938266,0.72011876,-1.6591494,1.0913634
406,1747533096290,0.24942651,0.32239962,-1.0140579,0.7850999,-1.3821807,1.0807108
407,1747533096300,0.18182266,0.51471674,-1.2249234,0.47830373,-0.582167,0.9800433
408,1747533096310,0.16717922,0.52887207,-1.2088156,0.404267865,-0.37976676,0.9483517
409,1747533096320,0.134353515,0.562674015,-1.16329885,0.25779401,0.0745685149999999,0.88843058
410,1747533096330,0.09859913,0.584029,-1.0140579,0.08628642,0.87618,0.7669904
411,1747533096340,0.067237773,0.58415102,-0.95682645,0.10785803,1.0199907,0.7451525
412,1747533096350,0.035876416,0.58427304,-0.899595,0.12942964,1.1638014,0.7233146
413,1747533096360,-0.041245672,0.587445795,-0.8901988000000001,0.306263535,1.4114754,0.7265103850000001
414,1747533096370,-0.103602297,0.6050179,-0.901303425,0.534762765,1.7307884,0.73955986
415,1747533096380,-0.059916052,0.647117795,-0.945111725,0.64528395,1.81787375,0.744087225
416,1747533096390,-0.0107385189999999,0.7066677699999999,-1.00014665,0.75766935,1.71640735,0.71798823
417,1747533096400,0.037828876,0.8045347,-1.1591499,0.80214415,1.075118165,0.62184811
418,1747533096410,0.119588055,0.90423214,-1.4377413,0.58749336,0.2695119,0.45220476
419,1747533096420,0.1535120125,0.88299912,-1.44408675,0.4607268799999999,0.184557065,0.39228363
420,1747533096430,0.209401115,0.83931288,-1.41907085,0.23462449,0.0705737715,0.256995045
421,1747533096440,0.2518671,0.7226535,-1.3208379,-0.013848438,0.054328486,0.03195793
422,1747533096450,0.19353738,0.511544,-1.1748916,-0.22423817,0.37763625,-0.20612867
423,1747533096460,0.177673665,0.44991954,-1.1164399,-0.2210423799999999,0.483363745,-0.234624495
424,1747533096470,0.1441158049999999,0.34509694,-1.0094208,-0.15925704,0.675910295,-0.26897928
425,1747533096480,0.12642166,0.3018988,-0.9608534,0.11345066,0.6556703,-0.2412824
426,1747533096490,0.1208083349999999,0.227583375,-1.01369183,0.25113608,0.361124665,-0.208525515
427,1747533096500,0.21403822,0.21647878,-1.3169329,0.45859633,-0.35127095,-0.15526229
428,1747533096510,0.25467375,0.2222141249999999,-1.40711205,0.43809,-0.817057845,-0.155794925
429,1747533096520,0.3283790199999999,0.245277535,-1.5351200500000002,0.21571605,-0.77684411,-0.22716765
430,1747533096530,0.3731635199999999,0.2617513999999999,-1.5728269,-0.072970615,-0.531300645,-0.35872781
431,1747533096540,0.28066583,0.22916976,-1.4273688,-0.44900897,-0.1944107659999999,-0.529170125
432,1747533096550,0.1178796429999999,0.17206036,-1.19905325,-0.692421925,-0.0223705535,-0.614657615
433,1747533096560,0.059305906,0.1466784,-1.1160738,-0.7163904,-0.029827405,-0.6109292
434,1747533096570,-0.0311172995,0.122028628,-0.897520525,-0.515588,-0.24048345,-0.47137955
435,1747533096580,-0.011592719,0.126421655,-0.83797057,-0.2082592,-0.45859635,-0.36272255
436,1747533096590,0.0734612325,0.169619775,-0.89044285,-0.014114755,-0.520115375,-0.36112465
437,1747533096600,0.144603915,0.23612537,-1.04493108,0.1989381399999999,-0.58589545,-0.378168875
438,1747533096610,0.152047655,0.28298437,-1.19270775,0.17523601,-0.5669869999999999,-0.4199805
439,1747533096620,0.14082103,0.3209352749999999,-1.28727995,0.0583232319999999,-0.47803742,-0.464721615
440,1747533096630,0.12800803,0.355957495,-1.3220581,-0.264185583,-0.1829591675,-0.5384911649999999
441,1747533096640,0.112144305,0.36230299,-1.2589693,-0.5866944000000001,0.1089232924999999,-0.60773335
442,1747533096650,0.0805388915,0.32252166,-1.1314494,-0.678839765,0.198671825,-0.6186523500000001
443,1747533096660,0.0543027365,0.291160305,-1.0184509,-0.658333415,0.23196134,-0.59734705
444,1747533096670,0.0536925935,0.291038275,-0.946331975,-0.56139435,0.219444485,-0.56166065
445,1747533096680,0.1256894785,0.32520628,-0.941938975,-0.28815404,0.5454154,-0.53742594
446,1747533096690,0.2222141249999999,0.37206528,-0.98879795,-0.27350666,0.7803062,-0.55793227
447,1747533096700,0.3231318,0.4053791,-1.0518868,-0.29561087,1.7049558,-0.65034395
448,1747533096710,0.34765956,0.41270081,-1.05811025,-0.3206446,2.1289310500000003,-0.70307454
449,1747533096720,0.37487194,0.43210335,-1.0605508499999998,-0.367249915,2.96782675,-0.82877573
450,1747533096730,0.20183535,0.3841461,-1.078489,-0.43036684,3.829093,-0.98377174
451,1747533096740,0.145946235,0.36303516,-1.07690265,-0.43382895,3.68688025,-0.93929692
452,1747533096750,0.061380394,0.321423395,-1.08044145,-0.44474791,3.3127061,-0.81785678
453,1747533096760,0.032703668,0.30092257,-1.0855666,-0.45220476,3.0807447,-0.74089146
454,1747533096770,0.086884383,0.29482116,-1.0906918499999998,-0.5400891050000001,2.6256106,-0.4881574199999999
455,1747533096780,0.244423342,0.3062918599999999,-1.0056378499999998,-0.59947759,2.654639,-0.33209619
456,1747533096790,0.417581945,0.319592975,-0.8916631500000001,-0.59947759,3.0487869,-0.2649845349999999
457,1747533096800,0.501903725,0.313491535,-0.81051415,-0.5209143350000001,3.57050015,-0.2974751
458,1747533096810,0.533631175,0.3076341449999999,-0.754503,-0.389354155,3.8807584,-0.34141725
459,1747533096820,0.513862535,0.303363145,-0.76585165,-0.24873925,3.84693635,-0.371244655
460,1747533096830,0.461756335,0.2867672599999999,-0.87201655,-0.1419464925,3.01097,-0.32969934
461,1747533096840,0.4139211,0.2677308,-1.04066,-0.14114754,1.1920309,-0.19760656
462,1747533096850,0.41172457,0.24771811,-1.1246158,-0.2024002449999999,0.76006618,-0.1374191175
463,1747533096860,0.432957545,0.246497825,-1.1413337,-0.357928855,0.145674918,-0.0079894845
464,1747533096870,0.518377585,0.24906043,-1.13803895,-0.57923755,0.137685438,0.1195759379999999
465,1747533096880,0.72936511,0.2668766099999999,-0.97732725,-0.827976795,1.3206616,0.1241033129999999
466,1747533096890,0.885805785,0.279933665,-0.7669499,-0.945954825,2.98061,0.0151800195
467,1747533096900,0.86530495,0.26529023,-0.6347929,-0.89455583,4.14813985,-0.0846885285
468,1747533096910,0.77414957,0.209523145,-0.529482185,-0.73130405,4.8376322,-0.140614915
469,1747533096920,0.67713682,0.156684745,-0.494093885,-0.468716355,4.52258015,-0.15286545
470,1747533096930,0.54534593,0.12568948,-0.6937327,-0.20905815,2.39577965,-0.0447411049999999
471,1747533096940,0.451749965,0.110191845,-0.98586925,-0.188818125,0.16618125,0.165116
472,1747533096950,0.528872035,0.130448595,-1.11338915,-0.49321746,-0.67058397,0.3850930999999999
473,1747533096960,0.891053,0.17950411,-0.93754592,-0.9369001,-0.0958738,0.4868258399999999
474,1747533096970,1.27324665,0.23039005,-0.616732685,-1.1646004,1.42026382,0.327568815
475,1747533096980,1.33828795,0.238199875,-0.42282918,-1.1062772,2.83786455,0.0378168899999999
476,1747533096990,1.1748916500000002,0.19085276,-0.312027185,-0.9733854,4.20646315,-0.192546555
477,1747533097000,0.90813705,0.1172695,-0.284082635,-0.8189220349999999,5.33590965,-0.2798982399999999
478,1747533097010,0.611607485,0.0551569374999999,-0.3231317999999999,-0.639957635,6.11887885,-0.1499359709999999
479,1747533097020,0.4089179149999999,0.01244691955,-0.385976525,-0.5001416750000001,6.3002402,0.128630684
480,1747533097030,0.3680383299999999,-0.01427734895,-0.47737597,-0.5067995750000001,6.05656115,0.394414155
481,1747533097040,0.4424758,-0.0050031739999999,-0.52045208,-0.63223445,5.71754065,0.59708072
482,1747533097050,0.6710354000000001,0.073461237,-0.377922635,-0.76645775,5.17265785,0.65061028
483,1747533097060,0.8236932,0.13227904,-0.25357547,-0.8186557,4.8421597,0.62371236
484,1747533097070,0.854322335,0.0907892949999999,-0.185361485,-0.83063995,4.347876749999999,0.46046056
485,1747533097080,0.85298007,0.0422219025,-0.164494585,-0.854874725,4.08502275,0.353401485
486,1747533097090,0.8577392399999999,-0.0252599245,-0.145336085,-0.868989475,3.90126475,0.230363435
487,1747533097100,0.7300972699999999,-0.153512012,-0.212939955,-0.9622001,3.69700025,0.13901701
488,1747533097110,0.5670670499999999,-0.333870315,-0.3158101,-1.2034825,3.68128765,0.173105475
489,1747533097120,0.528384,-0.41880223,-0.34168017,-1.3518206,3.7875478,0.23382555
490,1747533097130,0.47676582,-0.593913315,-0.163152275,-1.655421,3.9792955,0.39734364
491,1747533097140,0.5086153,-0.687509265,0.0090301199999999,-1.9528961,4.21178935,0.67138292
492,1747533097150,0.844194,-0.7997756,0.41758195,-2.082592,4.5161886,0.87351686
493,1747533097160,0.88788027,-0.788671015,0.457241255,-2.0527646500000003,4.58569715,0.8506136799999999
494,1747533097170,0.96634467,-0.76084849,0.52643148,-1.9350529,4.537494,0.7339672
495,1747533097180,1.04224645,-0.734856395,0.5920829,-1.8905781,4.176902,0.6407565500000001
496,1747533097190,1.120955,-0.6875093,0.7353445,-1.7283915,2.8959215,0.4032026
497,1747533097200,1.13450015,-0.639063925,0.7729292999999999,-1.6021577,2.2152175,0.32703619
498,1747533097210,1.1830675,-0.5551082249999999,0.8293065150000001,-1.4327807,1.3861754,0.21491711
499,1747533097220,1.253356,-0.4840875649999999,0.887880265,-1.3267869,1.2026835500000002,0.123837
500,1747533097230,1.3066825,-0.43881494,0.956094265,-1.17099195,1.2412994,-0.011185277
501,1747533097240,1.2809344500000002,-0.443207965,1.044931165,-0.9640643,1.3904364500000002,-0.1736381069999999
502,1747533097250,1.1703765000000002,-0.45260416,1.12803265,-0.482298465,1.4330470000000002,-0.4098604999999999
503,1747533097260,0.916435,-0.43930307,1.1026506,0.27537087,1.2479573,-0.6045376
504,1747533097270,0.8326013,-0.42478165,1.0372433,0.441285805,1.15341505,-0.5877596700000001
505,1747533097280,0.682506075,-0.403670685,0.88470755,0.71825457,0.97604852,-0.51212588
506,1747533097290,0.58305275,-0.36266907,0.6584664499999999,0.9438243,0.673513445,-0.307861425
507,1747533097300,0.564504425,-0.31556602,0.4617563,1.0745855,0.33609093,-0.0969390649999999
508,1747533097310,0.613804,-0.2896959449999999,0.35778792,1.07405285,0.1182443535,0.0271642449999999
509,1747533097320,0.6484601,-0.27651685,0.31141704,1.0572749,0.018109497,0.08575379
510,1747533097330,0.776834225,-0.253087355,0.29750578,1.00241382,-0.1379517515,0.09454222
511,1747533097340,1.0348027,-0.1849954,0.3333822,0.95793907,-0.357396235,0.0101200119999999
512,1747533097350,1.0326062,-0.18621568,0.31483385,0.9720538,-0.43196473,-0.17150758
513,1747533097360,1.0074683,-0.183531045,0.30092259,0.964064315,-0.460726875,-0.19547603
514,1747533097370,0.9597551,-0.188290165,0.281886115,0.939563245,-0.578971235,-0.22423817
515,1747533097380,0.9200958,-0.185971625,0.2829843749999999,0.91532848,-1.044225525,-0.221308695
516,1747533097390,0.9132622,-0.1758432449999999,0.27139166,0.9012137,-1.68152,-0.2114549949999999
517,1747533097400,0.9308343,-0.163030245,0.223312375,0.85380945,-2.19657535,-0.20932446
518,1747533097410,0.9662226,-0.152901865,0.155220407,0.74461985,-2.49484935,-0.213319205
519,1747533097420,1.01332565,-0.14850883,0.105066647,0.58269965,-2.4351945,-0.230097125
520,1747533097430,1.0560357,-0.145702175,0.174622955,0.40719735,-2.16062265,-0.25965821
521,1747533097440,1.0418804,-0.12813005,0.37194324,0.29774142,-1.6924389,-0.33129725
522,1747533097450,0.97134787,-0.114462845,0.47225076,0.39521313,-1.2729911,-0.41438788
523,1747533097460,0.941816935,-0.1151950175,0.48042668,0.486026915,-1.2980248,-0.41998051
524,1747533097470,0.83919085,-0.101283755,0.44418418,0.6625945,-1.4548849499999998,-0.42264366
525,1747533097480,0.6962953,-0.08566409,0.27358818,1.0583402,-2.5294704,-0.2743056
526,1747533097490,0.6782350749999999,-0.08566409,0.20879098,1.0647318,-2.7912592,-0.22077606
527,1747533097500,0.6914142,-0.091033354,0.04783522,1.0205233,-3.5654402,-0.06551377
528,1747533097510,0.73058538,-0.095670442,0.0041489735,0.96299905,-3.7481331,-0.0287621435
529,1747533097520,0.821008595,-0.103602305,-0.0715087715,0.82025365,-4.010188,0.0279631914999999
530,1747533097530,1.0657979,-0.064919226,-0.077122085,0.557932275,-4.004329,0.0194410759999999
531,1747533097540,1.078489,0.038316987,0.02391761,0.3057309,-3.675695,-0.068176925
532,1747533097550,1.0758043000000002,0.0669937135,0.067969945,0.33103093,-3.5499938,-0.1094559225
533,1747533097560,1.0535951,0.11373068,0.12886223,0.43755738,-3.34013665,-0.206394995
534,1747533097570,0.941084765,0.145214065,0.09689073,0.65034395,-3.46423995,-0.2942793099999999
535,1747533097580,0.76267886,0.14204131,-0.041977845,0.8852348,-4.0586576,-0.29827404
536,1747533097590,0.7228975,0.0976229,-0.15668476,0.91985583,-4.504471,-0.21891184
537,1747533097600,0.7292430249999999,0.07638992,-0.213184015,0.908404265,-4.69728385,-0.174437055
538,1747533097610,0.759872255,0.042343933,-0.308366345,0.871386325,-5.02218935,-0.0924116949999999
539,1747533097620,0.8264999049999999,0.0205008085,-0.37072296,0.799747275,-5.201420000000001,-0.0327568825
540,1747533097630,1.0294335,0.07492557,-0.36242503,0.6926882,-4.97238825,-0.0516653275
541,1747533097640,1.0398059,0.104700555,-0.3438766749999999,0.6578008,-4.488492,-0.21252026
542,1747533097650,1.01954915,0.167057185,-0.32227761,0.690824,-4.434696,-0.27164244
543,1747533097660,0.93510535,0.21379415,-0.330697585,0.769120925,-4.3697148,-0.37257625
544,1747533097670,0.81722568,0.22794947,-0.369624705,0.8548747,-4.4211138000000005,-0.43089947
545,1747533097680,0.532777,0.15302388,-0.58207655,0.922519,-4.770254,-0.31372038
546,1747533097690,0.5215503,0.14741059,-0.6465077,0.88843054,-4.8176584,-0.2034655
547,1747533097700,0.5735345,0.12690976,-0.6850687,0.85966842,-4.79315735,-0.16351809
548,1747533097710,0.6233222,0.127519905,-0.6893397,0.80933468,-4.71059945,-0.10759171
549,1747533097720,0.6894617,0.13764828,-0.69117016,0.71479243,-3.9755669,-0.14274544
550,1747533097730,0.67030322,0.151803605,-0.69129218,0.704672415,-3.7771614,-0.163518095
551,1747533097740,0.6240543700000001,0.17376876,-0.6919023200000001,0.69135662,-3.41630305,-0.202400245
552,1747533097750,0.56365022,0.179015985,-0.70264082,0.67697555,-3.1012511,-0.21784658
553,1747533097760,0.53033644,0.17645338,-0.7128912,0.66579026,-2.948652,-0.21518342
554,1747533097770,0.445160435,0.18426322,-0.695929225,0.70067768,-2.551841,-0.15632756
555,1747533097780,0.407453595,0.166325015,-0.7269245,0.7536746,-2.6636938,-0.1272991
556,1747533097790,0.376946435,0.137160175,-0.7892811500000001,0.7765778050000001,-2.79019395,-0.0671116615
557,1747533097800,0.359984445,0.1132425649999999,-0.8362622,0.782170435,-2.87834455,0.009587381
558,1747533097810,0.35534734,0.1010397,-0.8498074,0.7850999,-2.9103024,0.046339005
559,1747533097820,0.347781585,0.13655003,-0.968785195,0.80241042,-3.4296189000000004,0.13235911
560,1747533097830,0.31275937,0.158149095,-1.013203615,0.7605988,-3.6764939,0.17550232
561,1747533097840,0.29006204,0.18877828,-1.0513986000000002,0.69987875,-3.905792,0.2154497349999999
562,1747533097850,0.28298439,0.199882885,-1.048958,0.6218481499999999,-4.07037535,0.2537992599999999
563,1747533097860,0.30421737,0.1948797099999999,-1.0097868,0.51106064,-4.01471535,0.2676476949999999
564,1747533097870,0.293844925,0.210133285,-0.954263825,0.44101948,-3.89727,0.26684874
565,1747533097880,0.26797485,0.22892569,-0.92229235,0.4990764,-3.7374804,0.22264028
566,1747533097890,0.118001678,0.23112221,-0.967686955,0.56112805,-3.73961085,0.24474451
567,1747533097900,0.02757846575,0.26284966,-1.056035675,0.538757505,-3.805391,0.3022687899999999
568,1747533097910,-0.0102504045,0.2889638,-1.1165619,0.51292485,-3.83655,0.33822146
569,1747533097920,0.03502221275,0.285058875,-1.1191244500000002,0.360059395,-3.7257625,0.3864246799999999
570,1747533097930,0.08029483,0.28115395,-1.121687,0.20719394,-3.614975,0.4346279
571,1747533097940,0.0682139995,0.34253435,-1.05811025,0.1118527649999999,-3.46024525,0.4016047
572,1747533097950,0.015375607,0.3099527,-0.83809257,0.1510012399999999,-3.1614386000000003,0.3520699
573,1747533097960,-0.0159857495,0.32313178,-0.8324792350000001,0.29134983,-2.66289485,0.32969935
574,1747533097970,-0.0345341005,0.3267926399999999,-0.837360375,0.403468905,-2.0730046,0.34461306
575,1747533097980,-0.0180602365,0.3433885399999999,-0.858105275,0.4745753149999999,-1.3741912,0.345678315
576,1747533097990,-0.0135451769999999,0.40379272,-0.8726267,0.51106063,-0.704139835,0.317715125
577,1747533098000,-0.028432669,0.485551905,-0.85615285,0.53636065,-0.0490021549999999,0.1842907574999999
578,1747533098010,-0.111778216,0.542173165,-0.853956325,0.56432384,0.43169841,0.0207726574999999
579,1747533098020,-0.24149465,0.53619375,-0.881412745,0.5749765,0.71745558,-0.040746365
580,1747533098030,-0.3746278899999999,0.52216045,-0.8906869,0.5970807300000001,1.0034791,-0.0183758115
581,1747533098040,-0.500195325,0.5249671499999999,-0.89752051,0.6519418299999999,1.20907515,0.0697748235
582,1747533098050,-0.5503491,0.53436337,-0.91082163,0.75846828,1.2495552,0.248206625
583,1747533098060,-0.5277738000000001,0.5491288,-0.93571548,0.87218527,1.21679835,0.418116305
584,1747533098070,-0.49519215,0.57170413,-0.99001823,0.9353022,1.2639363,0.517185885
585,1747533098080,-0.4807928,0.5872018,-1.0262607,0.95927066,1.3140037,0.56618804
586,1747533098090,-0.25381953,0.7682922,-1.1802609,0.81545997,1.5180018,0.6956177
587,1747533098100,-0.222580205,0.7812272499999999,-1.21150015,0.7669904350000001,1.4567491499999998,0.6442186999999999
588,1747533098110,-0.194635655,0.7978231499999999,-1.2753211,0.65620292,1.34063535,0.5552691249999999
589,1747533098120,-0.2023234549999999,0.80123995,-1.3415827,0.49987535,1.2330436,0.486559555
590,1747533098130,-0.203177655,0.7507201,-1.37758115,0.1725728425,1.11133715,0.414121555
591,1747533098140,-0.19085277,0.6519989500000001,-1.3310882,-0.1312938425,0.9632654,0.364586755
592,1747533098150,-0.1691316749999999,0.555352275,-1.2333432,-0.2247708,0.753674615,0.35260254
593,1747533098160,-0.1311807675,0.454312565,-1.14047945,-0.24767399,0.62317973,0.34887412
594,1747533098170,-0.0353883,0.31190515,-1.0409042,-0.133424375,0.26897928,0.337156185
595,1747533098180,0.030751215,0.241860725,-1.0865429,0.0950748549999999,0.1555286149999999,0.28868666
596,1747533098190,0.13886857,0.16473864,-1.2183337,0.33289513,0.1965413,0.18908444
597,1747533098200,0.163274295,0.166691095,-1.2689756,0.327568815,0.2258360649999999,0.14993597
598,1747533098210,0.203787805,0.177551645,-1.3676968,0.3222425,0.25513083,0.1107875
599,1747533098220,0.23112221,0.21013328,-1.5248697,0.06231797,0.3637878,-0.08948222
600,1747533098230,0.15570852,0.24088451,-1.5509838,-0.49215218,0.35792887,-0.27696875
601,1747533098240,0.1332552575,0.21281792,-1.4972912,-0.60373862,0.283094035,-0.306263525
602,1747533098250,0.0838336675,0.1560746049999999,-1.3773371,-0.77125143,0.116380141,-0.345412
603,1747533098260,0.05686534,0.12739788,-1.3110756,-0.8183894,-0.035686359,-0.34567831
604,1747533098270,-0.0174500935999999,0.095304355,-1.14816735,-0.77551255,-0.149935975,-0.315850895
605,1747533098280,-0.028066584,0.11104605,-1.0628693500000002,-0.6253102500000001,-0.2000034,-0.259391885
606,1747533098290,0.006345487,0.16022359,-1.02589465,-0.45833002,-0.139283325,-0.23222765
607,1747533098300,0.042954076,0.215014445,-1.0482259,-0.37816888,-0.045806374,-0.26977822
608,1747533098310,0.0442963915,0.266998635,-1.0819058,-0.34381411,-0.0135821224999999,-0.33129725
609,1747533098320,0.013423148,0.2997023,-1.1163178,-0.353135175,-0.0814927335,-0.39041943
610,1747533098330,-0.0633328495,0.283350465,-1.12839865,-0.3949468,-0.245809775,-0.431698415
611,1747533098340,-0.13667205,0.25113491,-1.1230294,-0.432763675,-0.41918157,-0.39627838
612,1747533098350,-0.14362769,0.23929813,-1.1218091,-0.4423510499999999,-0.53662698,-0.3089267
613,1747533098360,-0.10225999,0.228437585,-1.1216871,-0.43755737,-0.6325007650000001,-0.2479403
614,1747533098370,-0.0436862485,0.228193525,-1.1216871,-0.4226436799999999,-0.69002503,-0.21278657
615,1747533098380,0.0259920989999999,0.251256935,-1.13681865,-0.421312095,-0.5568669900000001,-0.21092236
616,1747533098390,0.076633975,0.30287504,-1.155123,-0.4660532,-0.20932446,-0.26684874
617,1747533098400,0.073949344,0.34656128,-1.1546348,-0.53263223,-0.00479369,-0.32117724
618,1747533098410,0.0639429985,0.36938064,-1.1467029,-0.590689165,0.145941235,-0.36139097
619,1747533098420,0.0194025515,0.4105043,-1.1218091,-0.69561772,0.38562573,-0.425839465
620,1747533098430,-0.10177187,0.40855184,-1.04505313,-0.818922045,0.382962565,-0.423708935
621,1747533098440,-0.219163405,0.35376099,-0.93669168,-0.887631595,0.1906823375,-0.34408042
622,1747533098450,-0.24576565,0.266998645,-0.83455375,-0.81679152,0.0106526424999999,-0.21997711
623,1747533098460,-0.21538052,0.193537405,-0.753648785,-0.65087657,-0.110521185,-0.07163903275
624,1747533098470,-0.12910628,0.17071805,-0.724361885,-0.4338289349999999,-0.157925455,0.06604639225
625,1747533098480,0.10421245,0.204153895,-0.81966625,-0.1595233489,0.154463335,0.0759000884999999
626,1747533098490,0.36266908,0.3141017,-1.0672623,-0.05273059,1.0306433,-0.12996227
627,1747533098500,0.39488465,0.36047253,-1.1409676,-0.130761215,1.34702685,-0.218645535
628,1747533098510,0.343632625,0.38390203,-1.14462845,-0.41465419,2.4240092,-0.4580636999999999
629,1747533098520,0.25870069,0.40525705,-1.10179645,-0.7102650699999999,3.52842215,-0.659665
630,1747533098530,0.19060871,0.391101735,-0.992458835,-0.8428905,4.1167145000000005,-0.7467503799999999
631,1747533098540,0.1189779099999999,0.3572998,-0.86823365,-0.8673915999999999,4.4488106,-0.79255673
632,1747533098550,0.0414897331,0.31947092,-0.7623127949999999,-0.7850999000000001,4.4466801,-0.7787083
633,1747533098560,-0.0386830768999999,0.22550889,-0.6972715549999999,-0.48096688,3.67143395,-0.57604175
634,1747533098570,-0.029530926,0.12837411,-0.73339206,-0.04527374,2.4133565,-0.15925704
635,1747533098580,0.044296387,0.14350566,-0.78037303,0.010120015,2.24397955,-0.070840088
636,1747533098590,0.22819353,0.183531045,-0.87177243,0.078563255,2.0490363,0.046072687
637,1747533098600,0.51288633,0.272733965,-0.99746198,0.066312711,2.1611554,0.032490565
638,1747533098610,0.70386112,0.3497340399999999,-1.0937426,-0.32863408,3.4940674,-0.39787626
639,1747533098620,0.72021294,0.36242503,-1.1087521,-0.32863408,3.4940674,-0.39787626
640,1747533098630,0.61514627,0.329721335,-1.0239422,-0.7163904,4.932174,-0.700944
641,1747533098640,0.49384985,0.26858499,-0.92070595,-0.77418095,5.27652085,-0.71665665
642,1747533098650,0.33728713,0.185483505,-0.725094065,-0.77471355,5.83898065,-0.609597575
643,1747533098660,0.25516187,0.13227902,-0.538756385,-0.63676183,5.970541,-0.4000068
644,1747533098670,0.2976278249999999,0.12288282,-0.4529702399999999,-0.452737405,5.7164755,-0.235157125
645,1747533098680,0.3871968249999999,0.12825208,-0.41562948,-0.24687504,5.338040100000001,-0.103596965
646,1747533098690,0.50287994,0.138258425,-0.42673411,-0.0665790265,4.9092713,-0.02263687
647,1747533098700,0.657368175,0.166447045,-0.5109338800000001,0.0657800785,4.4243098,-0.0178431785
648,1747533098710,0.75267255,0.18572757,-0.57988006,0.12037488,4.1571946,-0.040480047
649,1747533098720,0.8091718000000001,0.20903504,-0.71411151,-0.058589546,4.2022021,-0.1392833299999999
650,1747533098730,0.8250355,0.217210965,-0.7922098049999999,-0.259391895,4.37823705,-0.20080235
651,1747533098740,0.8172257,0.21452633,-0.83357752,-0.5158542899999999,4.66346145,-0.2514024099999999
652,1747533098750,0.80123995,0.18523945,-0.7307074,-1.107875,5.0914316,-0.360592
653,1747533098760,0.811246275,0.13886857,-0.501537625,-1.1305119,5.00088405,-0.389620465
654,1747533098770,0.828086225,0.108117358,-0.30092258,-1.0972224000000002,4.769721499999999,-0.437823685
655,1747533098780,0.83113697,0.078098318,-0.17681948,-0.94968325,4.4418864,-0.46365635
656,1747533098790,0.83687234,0.05662128,-0.13618395,-0.8580705,4.2546663,-0.47031426
657,1747533098800,0.8876362,0.051740136,-0.22819352,-0.66206188,4.19288085,-0.292947725
658,1747533098810,0.93059028,0.065773428,-0.25406359,-0.74435355,4.4815677,-0.23489081
659,1747533098820,0.99880428,0.10701911,-0.28579104,-0.8913600500000001,4.811267000000001,-0.22796659
660,1747533098830,1.02699285,0.14204132,-0.28884176,-1.0612697,5.14868925,-0.25246767
661,1747533098840,0.99367903,0.1381364,-0.2471079649999999,-1.23810355,5.414206500000001,-0.28229508
662,1747533098850,0.94279316,0.11751357,-0.185117425,-1.4847123,5.5353804,-0.30146985
663,1747533098860,0.93132248,0.101039703,-0.107141135,-1.7190705,5.46587185,-0.305464585
664,1747533098870,0.92363465,0.084687868,0.0345341049999999,-1.8229338,5.15721155,-0.313454065
665,1747533098880,0.8930054700000001,0.0466149375,0.17022994,-1.81680855,4.685832,-0.317715125
666,1747533098890,0.8504174950000001,-0.026846295,0.267120675,-1.7193368,3.84933305,-0.288154035
667,1747533098900,0.799531545,-0.0837116325,0.315688065,-1.6522251,3.2676988,-0.26312032
668,1747533098910,0.75840789,-0.099575353,0.30092258,-1.6048209,2.8668929,-0.185888645
669,1747533098920,0.7792748,-0.10958171,0.2882316,-1.5808525,2.1789985,-0.049534798
670,1747533098930,0.803436475,-0.162542135,0.30543765,-1.6162725,2.07593415,-0.0255663473499999
671,1747533098940,0.7987994,-0.24503349,0.35925224,-1.7092168,2.069276,0.04527374
672,1747533098950,0.815029175,-0.254673745,0.40306054,-1.70495575,2.0793961,0.04527374
673,1747533098960,0.8366281950000001,-0.265656325,0.47322701,-1.6719326,2.093511,0.034887411
674,1747533098970,0.82894042,-0.280787875,0.50507644,-1.6335831,2.09324465,0.0183758115
675,1747533098980,0.811124265,-0.28908581,0.6168546500000001,-1.58085245,1.9449065,0.00932106385
676,1747533098990,0.8097819,-0.30726805,0.82198477,-1.4519554,1.6945694,-0.01384843815
677,1747533099000,0.7963588,-0.322399615,0.848587035,-1.2716594,1.47219545,-0.034088463
678,1747533099010,0.774027565,-0.35534735,0.8865379499999999,-1.07698235,1.27032785,-0.011451593
679,1747533099020,0.767926095,-0.39073564,0.895446015,-0.84342315,1.139034,0.0655137635
680,1747533099030,0.85261398,-0.396959095,0.8502954149999999,-0.559530175,0.98643485,0.170442315
681,1747533099040,0.96915135,-0.36388935,0.798433265,-0.3664509649999999,0.7898936000000001,0.20692762
682,1747533099050,1.0038075,-0.34216827,0.78928113,-0.32384038,0.7004114,0.19281286
683,1747533099060,1.01173935,-0.292868705,0.79379618,-0.24367924,0.5667207000000001,0.12516857
684,1747533099070,0.991360575,-0.240396385,0.799165465,-0.1193096224999999,0.41758367,0.0284958238999999
685,1747533099080,0.9608534,-0.23307467,0.8097819,0.0418116275,0.42184472,-0.0247673976
686,1747533099090,0.9567044,-0.223556445,0.807829465,0.24341293,0.46365635,-0.063116919
687,1747533099100,0.945721825,-0.200493035,0.772441165,0.4282363099999999,0.548877525,-0.0865527375
688,1747533099110,0.936447675,-0.171694275,0.6966614,0.58003648,0.6564692249999999,-0.1014664399999999
689,1747533099120,0.92302453,-0.1349636599999999,0.5776835,0.7121293,0.76752305,-0.10759171
690,1747533099130,0.90679473,-0.1007956425,0.47029831,0.70147665,0.725178775,-0.1022653875
691,1747533099140,0.90618455,-0.0683360285,0.42160891,0.6317018,0.525708,-0.09853696
692,1747533099150,0.9288819,-0.047347106,0.39659303,0.59761335,0.4013383749999999,-0.106526445
693,1747533099160,0.92619725,-0.044906534,0.395616795,0.52624065,0.12783173,-0.121972785
694,1747533099170,0.9216822,-0.0334358435,0.4046469,0.44821002,-0.1794970599999999,-0.129695955
695,1747533099180,0.9324207,0.0136672055,0.43124914,0.346477255,-0.433828965,-0.140348595
696,1747533099190,0.9664667,0.05662128,0.45907167,0.22050974,-0.38722363,-0.16724652
697,1747533099200,0.971836,0.044174362,0.4888467,0.17736652,-0.24501082,-0.18375812
698,1747533099210,0.9685412,0.0349001865,0.5051985,0.17097494,-0.2159823699999999,-0.18722023
699,1747533099220,0.9668328,0.018792408,0.53887838,0.16165388,-0.220243435,-0.1949434
700,1747533099230,0.974520625,-0.009030119,0.59257103,0.1853560149999999,-0.443948955,-0.23489081
701,1747533099240,0.958168745,-0.0283106425,0.64248075,0.23702135,-0.7781756799999999,-0.28735508
702,1747533099250,0.8817788,-0.009274175,0.6877533,0.34621096,-1.4679344,-0.32277513
703,1747533099260,0.8365062,-0.0013423148,0.703495,0.39947418,-1.73638105,-0.318514065
704,1747533099270,0.68994987,-0.00707766,0.6653,0.7041398,-2.9417279,-0.20612867
705,1747533099280,0.68994987,-0.0013423148,0.6266169500000001,0.729972465,-3.1249533,-0.16644757
706,1747533099290,0.714355585,-0.0009762287999999,0.5453459,0.74461985,-3.579821,-0.06231797
707,1747533099300,0.7695125,-0.014887492,0.4823791349999999,0.722781925,-3.6514601,-0.038083204
708,1747533099310,1.0250404,0.017084008,0.5181335,0.7094661,-3.7779603,-0.026631612
709,1747533099320,1.0902037,0.030385129,0.5310685500000001,0.76832195,-3.8008635,-0.120108571
710,1747533099330,1.2212625,0.12056428,0.554254,0.9374327,-3.9382827,-0.42290998
711,1747533099340,1.2483528,0.14960709,0.50446635,1.0487529,-4.009123,-0.6631271
712,1747533099350,1.1775762,0.14777666,0.4102602449999999,1.08790135,-4.01924285,-0.76752305
713,1747533099360,1.05798815,0.159125325,0.2752965699999999,1.1313109,-4.0730386,-0.97338545
714,1747533099370,0.9768391,0.165958935,0.21879731,1.12731615,-4.19075035,-1.10121715
715,1747533099380,0.9003272,0.14948507,0.197076225,1.13610455,-4.3721116,-1.13743615
716,1747533099390,0.8561529,0.13935669,0.19109683,1.1531488,-4.479437,-1.1472899
717,1747533099400,0.738517195,0.098721155,0.154366205,1.2665994500000002,-4.982508,-1.08470555
718,1747533099410,0.6643238300000001,0.102015925,0.11568313,1.44023755,-5.5010255,-0.92784535
719,1747533099420,0.629057575,0.13362134,0.0524723069999999,1.64370305,-5.8421765,-0.757669325
720,1747533099430,0.6393079749999999,0.17767367,-0.056865333,1.7411748,-5.78758165,-0.6740460749999999
721,1747533099440,0.65248707,0.208668945,-0.215014435,1.7286579,-5.56893615,-0.6098638999999999
722,1747533099450,0.65675807,0.2163567599999999,-0.363401265,1.6298545999999998,-5.31167485,-0.55447015
723,1747533099460,0.6454094,0.225386875,-0.4329575799999999,1.47139655,-5.00727555,-0.486559535
724,1747533099470,0.636379265,0.2379558199999999,-0.4540685,1.34010265,-4.7361657,-0.427171035
725,1747533099480,0.64821604,0.241372625,-0.48921272,1.2599415,-4.5465488,-0.39947415
726,1747533099490,0.686166945,0.243203055,-0.53533952,1.1736551,-4.3382895,-0.39814257
727,1747533099500,0.71313527,0.254795765,-0.56194175,1.041296,-4.142280700000001,-0.4546016
728,1747533099510,0.7005663200000001,0.266632545,-0.52826189,0.94275905,-4.03575435,-0.53130063
729,1747533099520,0.638453755,0.261995465,-0.4569972,0.96779275,-4.00699225,-0.57657438
730,1747533099530,0.528505965,0.2471079649999999,-0.402328375,1.0583402,-3.9713059,-0.58323231
731,1747533099540,0.40708749,0.23124424,-0.389027255,1.1832425,-3.923369,-0.535828035
732,1747533099550,0.28286236,0.2037878,-0.4590716649999999,1.3187974,-3.6509277,-0.33609094
733,1747533099560,0.2330746699999999,0.18267685,-0.5632841,1.4016217,-3.1899345,-0.094808536
734,1747533099570,0.27065949,0.180724395,-0.6303998550000001,1.42026385,-2.8136298,0.049002166
735,1747533099580,0.3321619,0.18865626,-0.68262815,1.4578145,-2.667955,0.19600865
736,1747533099590,0.34387666,0.203299695,-0.718016445,1.50628395,-2.9206889,0.2545982
737,1747533099600,0.38536638,0.20110317,-0.8066092,1.5781893,-3.4951327,0.35153726
738,1747533099610,0.39232202,0.1874359649999999,-0.8178358299999999,1.58271665,-3.54999375,0.38296257
739,1747533099620,0.41379908,0.1691316749999999,-0.83675023,1.5960324,-3.50844845,0.4495416
740,1747533099630,0.4424758,0.176575425,-0.8646948,1.6114788,-3.1334754,0.516919585
741,1747533099640,0.462122385,0.18975451,-0.95475195,1.5507588,-2.3366576,0.582699655
742,1747533099650,0.4308830649999999,0.204642005,-1.0415143,1.4325144,-1.7065537000000002,0.6314354799999999
743,1747533099660,0.3767023499999999,0.228193535,-1.02821315,1.3685985,-1.7406421,0.6644587
744,1747533099670,0.31019676,0.20915705,-0.9650024,1.4221281,-2.47674,0.7121293
745,1747533099680,0.28066583,0.217455,-0.97610695,1.4737934,-2.83360355,0.73263565
746,1747533099690,0.24661985,0.204886055,-1.08166165,1.56221035,-3.5007254,0.83197155
747,1747533099700,0.26577835,0.2031776599999999,-1.23761425,1.5582156,-3.74333935,0.93663375
748,1747533099710,0.316054135,0.223312385,-1.34841625,1.37765325,-3.4261568,0.97285275
749,1747533099720,0.36352326,0.225386865,-1.3748965000000002,1.1291803,-2.98114255,0.96752645
750,1747533099730,0.362913125,0.237589725,-1.23517375,1.00214752,-2.5704831,0.8990832200000001
751,1747533099740,0.3051936,0.232098445,-1.1104604500000002,1.03064337,-2.2564964,0.8346347199999999
752,1747533099750,0.214282275,0.205130125,-1.13388995,1.09802135,-2.0327909,0.84209155
753,1747533099760,0.1132425699999999,0.21001126,-1.19258575,1.11107085,-1.75395795,0.904675835
754,1747533099770,0.06687169,0.22526483,-1.2200422,1.103614,-1.6000272,0.94808537
755,1747533099780,0.09884319,0.33191785,-1.1775762,0.9241169,-0.9731191,1.1345067
756,1747533099790,0.09884319,0.33191785,-1.1775762,0.8974853,-0.8165252000000001,1.1435613999999998
757,1747533099800,0.12654368,0.349734035,-1.1502418,0.89482215,-0.53423011,1.10574445
758,1747533099810,0.15424417,0.36755022,-1.1229074,0.9187906,-0.40852892,1.0588728
759,1747533099820,0.1117782175,0.4224631,-1.17123075,0.891626315,-0.2431466099999999,0.9819075
760,1747533099830,0.10335824,0.4306390249999999,-1.1726950500000002,0.767523,0.0529969,0.9108011
761,1747533099840,0.1112901,0.4267340899999999,-1.11314505,0.651941825,0.416518385,0.824781
762,1747533099850,0.0749255725,0.4350320399999999,-1.02711488,0.6564692249999999,0.6173207350000001,0.7552725
763,1747533099860,0.033191785,0.44564855,-0.98111016,0.7507451199999999,0.56299226,0.727043
764,1747533099870,-0.098111013,0.4181920999999999,-0.98806578,0.84448837,0.280164555,0.7398261749999999
765,1747533099880,-0.15863721,0.40781966,-1.2176017,0.61412495,-0.21145499,0.85061365
766,1747533099890,-0.125323395,0.4127008049999999,-1.22101845,0.512392205,-0.11211908175,0.848749455
767,1747533099900,-0.0499097059,0.42697816,-1.19783295,0.3262372449999999,0.1613875632499999,0.8064052150000001
768,1747533099910,0.0129350355999999,0.452726185,-1.13974735,0.1946770749999999,0.5137238,0.698280885
769,1747533099920,0.011104606,0.4771319149999999,-1.0944747499999998,0.110254867,0.798415725,0.56618808
770,1747533099930,-0.0956704405,0.497510715,-1.03492475,0.024501082,0.939829555,0.46978162
771,1747533099940,-0.193903475,0.525455265,-0.97781535,-0.0194410759999999,0.98590225,0.45833004
772,1747533099950,-0.19939476,0.5679212149999999,-0.968663235,-0.0047936898499999,0.983239085,0.492684835
773,1747533099960,-0.16266415,0.6160005,-0.980866105,0.0031957934,0.89189264,0.503603785
774,1747533099970,-0.11153416,0.643334925,-1.0027092199999998,-0.00878843175,0.691090325,0.4841627
775,1747533099980,-0.0673598,0.596597925,-1.03187405,-0.0498011114999999,0.258326653,0.45540055
776,1747533099990,-0.025992097,0.51398455,-1.04944615,-0.1033306475,-0.150468602,0.44821001
777,1747533100000,0.040391473,0.44101146,-1.0409041499999998,-0.152865445,-0.300937205,0.45140581
778,1747533100010,0.12922831,0.372553395,-1.0091767,-0.18908444,-0.34514568,0.42876895
779,1747533100020,0.204519965,0.324962235,-0.95951103,-0.1454086,-0.26525086,0.3334278
780,1747533100030,0.34290043,0.2421048,-0.8759214,0.05486112,-0.17949706,0.14966966
781,1747533100040,0.3431445,0.24991462,-0.8944698,0.175236,-0.2263687,0.061252706
782,1747533100050,0.34436479,0.24686391,-0.9298581,0.21172131,-0.26418558,0.0159789669999999
783,1747533100060,0.339849725,0.253087365,-1.0160103,0.245809775,-0.3115898499999999,-0.068975871
784,1747533100070,0.3215454199999999,0.265778335,-1.1100944,0.2034655149999999,-0.3155846,-0.1422128
785,1747533100080,0.30080056,0.26382588,-1.1697664,0.04740427,-0.30093721,-0.244744505
786,1747533100090,0.26455808,0.25430766,-1.1570754,-0.16458336,-0.29454562,-0.38083205
787,1747533100100,0.24613174,0.2331966999999999,-1.12754445,-0.191214975,-0.32969935,-0.4079962849999999
788,1747533100110,0.19390348,0.198906655,-1.0521308,-0.18695392,-0.47697216,-0.442084745
789,1747533100120,0.16229807,0.16303024,-1.0011228,-0.1107875,-0.6359629,-0.45220476
790,1747533100130,0.17035197,0.15961345,-0.989164,-0.08495484,-0.6069344249999999,-0.45886266
791,1747533100140,0.17889397,0.17864991,-0.98416085,-0.02636529665,-0.519316425,-0.48256479
792,1747533100150,0.20451998,0.21464835,-0.98891998,0.05752428,-0.31478566,-0.58056915
793,1747533100160,0.205984315,0.269317165,-1.03504683,0.05752428,-0.1304949025,-0.689226125
794,1747533100170,0.16205401,0.3116611,-1.0903258,0.0226368694999999,0.1507349225,-0.8495484
795,1747533100180,0.0998194199999999,0.308122285,-1.12144305,-0.0524642755,0.2876214099999999,-0.92118743
796,1747533100190,0.052960425,0.287499445,-1.1309613,-0.1272991,0.348075165,-0.94488958
797,1747533100200,0.0320935285,0.28359452,-1.13388995,-0.1821602199999999,0.41332261,-0.9520801
798,1747533100210,0.022453265,0.3014107,-1.1607363,-0.2545982049999999,0.574177535,-0.953411665
799,1747533100220,0.037584814,0.288109585,-1.1545128,-0.343814105,0.774180925,-0.952080115
800,1747533100230,0.0650412515,0.266632545,-1.1305952,-0.400539445,0.98110855,-0.948884325
801,1747533100240,0.0874945199999999,0.26895109,-1.0945968,-0.41678472,1.26074045,-0.942759025
802,1747533100250,0.154976345,0.30922054,-1.09911185,-0.4133226,1.76727365,-0.9869675
803,1747533100260,0.2375897249999999,0.34753752,-1.1458488,-0.4474110599999999,2.3212112,-1.0841729
804,1747533100270,0.268829065,0.336554945,-1.1873385,-0.53209959,2.77554655,-1.17818255
805,1747533100280,0.27224587,0.29360087,-1.19990745,-0.63250078,3.31536925,-1.24502785
806,1747533100290,0.26455806,0.247840135,-1.16879015,-0.711330335,3.9209719,-1.2687299
807,1747533100300,0.2876214649999999,0.2148924,-1.05627975,-0.695085035,4.808070799999999,-1.2330436
808,1747533100310,0.347903605,0.21513646,-0.94035255,-0.590422825,5.5580173,-1.18883515
809,1747533100320,0.4554108,0.24869433,-0.9010593,-0.39254996,5.994776,-1.2101405
810,1747533100330,0.47469134,0.256504165,-0.92412275,-0.3328951449999999,6.161489850000001,-1.227451
811,1747533100340,0.51142199,0.2602870499999999,-0.9825745,-0.2617887399999999,6.488792200000001,-1.2500878000000002
812,1747533100350,0.5256993299999999,0.252965335,-1.01320365,-0.264984525,7.0139675,-1.2370383
813,1747533100360,0.53131263,0.2155025549999999,-0.989164,-0.29720878,7.45125865,-1.17072565
814,1747533100370,0.573290485,0.16876559,-0.9233906,-0.31984566,7.4746945,-1.06925925
815,1747533100380,0.645043315,0.166691105,-0.83797055,-0.30706248,7.2496575,-0.9765812
816,1747533100390,0.75474703,0.1915849399999999,-0.794162265,-0.267647695,6.48586285,-0.9171927
817,1747533100400,0.831991135,0.210499375,-0.8206425150000001,-0.28948561,5.54576685,-0.89482215
818,1747533100410,0.852980085,0.22282427,-0.8934936,-0.418116285,4.9577408,-0.8889632000000001
819,1747533100420,0.8710403499999999,0.22282427,-0.95646032,-0.6364955,4.535629800000001,-0.8775116000000001
820,1747533100430,0.83858067,0.18694785,-0.9554841,-1.0748519,4.165184,-0.8032094
821,1747533100440,0.849197185,0.1624201,-0.7707328,-1.28151315,4.0272323,-0.72011878
822,1747533100450,0.8881243,0.117635585,-0.3917119,-1.5329156,3.781689,-0.58056915
823,1747533100460,0.907038725,0.1086054705,-0.301776785,-1.5102787,3.74200775,-0.557665945
824,1747533100470,0.95060295,0.082247294,-0.07736614,-1.3480922,3.6996634,-0.50120693
825,1747533100480,0.947674275,0.078586432,-0.041611757,-1.24289735,3.7659762,-0.46232478
826,1747533100490,0.96414815,0.08310149,-0.0043930305,-1.0162623,3.9659797,-0.367249915
827,1747533100500,1.00295325,0.10042956,-0.00109825762,-0.86259787,4.1353567,-0.30013825
828,1747533100510,1.0457853,0.1165373399999999,0.00512520188,-0.7928230700000001,4.165184,-0.30173615
829,1747533100520,1.0778788,0.141187125,-0.004759116,-0.72464615,4.095409,-0.345412
830,1747533100530,1.040416,0.184019165,-0.058573742,-0.7334346,3.7790255,-0.4117247149999999
831,1747533100540,0.96573454,0.20866893,-0.07224095,-0.8202536,3.186206,-0.45486793
832,1747533100550,0.95096904,0.2040318549999999,-0.0633328579999999,-0.84102627,2.98646885,-0.4588626649999999
833,1747533100560,0.92753957,0.17791774,-0.03502221475,-0.904942155,2.54971035,-0.446878435
834,1747533100570,0.90179155,0.13655003,0.02342949525,-0.967526435,2.1640846500000004,-0.4013383849999999
835,1747533100580,0.859813685,0.104822585,0.133987422,-0.989630665,1.7710021500000002,-0.294012995
836,1747533100590,0.8363842,0.0924977,0.2608972,-0.981108545,1.42851965,-0.18136128
837,1747533100600,0.822717,0.107263165,0.28457075,-0.94275903,1.2365057,-0.117978045
838,1747533100610,0.78806085,0.133011205,0.31861674,-0.87831055,1.03410545,-0.056459019
839,1747533100620,0.73339206,0.15863721,0.33313814,-0.74248934,0.6716492,0.056459017
840,1747533100630,0.73339206,0.15863721,0.33313814,-0.74248934,0.6716492,0.056459017
841,1747533100640,0.78354583,0.100429552,0.1173915315,-0.55953018,0.2785666599999999,0.131826475
842,1747533100650,0.815517315,0.0379508975,-0.0283106385,-0.6812366299999999,0.50866379,0.13022858
843,1747533100660,0.86408469,-0.0484453625,-0.138380455,-0.94994955,1.03117602,0.1062601275
844,1747533100670,0.8696980249999999,-0.13093671,-0.13972277,-1.29669315,1.63464835,0.0774979875
845,1747533100680,0.7829357,-0.36413342,0.29921418,-1.6682042,2.352104,0.0628506
846,1747533100690,0.7541369,-0.4407674,0.43027294,-1.6178704,2.2498386000000004,0.0711064
847,1747533100700,0.74669315,-0.44955345,0.47408119,-1.47246175,1.9430424,0.096140117
848,1747533100710,0.745350835,-0.4757896,0.51813352,-1.246892,1.49456605,0.125701202
849,1747533100720,0.74169,-0.59989274,0.36462155,-0.9624664,0.9310411,0.165116
850,1747533100730,0.7392494,-0.63918597,0.25284332,-0.9832391,0.6199839,0.31158987
851,1747533100740,0.7897693,-0.6491923,0.19036464,-1.1611383,0.7185209,0.39361522
852,1747533100750,0.83223525,-0.624420475,0.221726005,-1.2530173,0.799480985,0.40772997
853,1747533100760,0.914726585,-0.580612175,0.3142237049999999,-1.40455115,0.957406385,0.4066647
854,1747533100770,0.987699685,-0.555108185,0.44686882,-1.49137025,1.07378655,0.35180359
855,1747533100780,1.04004995,-0.528627985,0.6654220799999999,-1.4026869999999998,1.1470235,0.181627597
856,1747533100790,1.04785975,-0.50898137,0.84919718,-1.17978045,1.2636699500000002,0.0050600059999999
857,1747533100800,1.0210135,-0.50300197,0.899473,-0.9579391,1.4610102,-0.069242191
858,1747533100810,0.99831622,-0.4940939,0.9268074,-0.7155914000000001,1.68231885,-0.11318435
859,1747533100820,0.9950214,-0.4868942149999999,0.9540198,-0.43516054,1.8410433,-0.14887071
860,1747533100830,0.991848645,-0.4630986299999999,0.9014255,0.009587375,1.81760755,-0.21971079
861,1747533100840,0.956460315,-0.42099875,0.76817022,0.3824299399999999,1.6439694500000002,-0.28868666
862,1747533100850,0.9014254,-0.377922635,0.64394507,0.498810075,1.4303839,-0.311856165
863,1747533100860,0.8483430000000001,-0.33728711,0.54327144,0.53502905,1.16779615,-0.312388795
864,1747533100870,0.788793025,-0.292136535,0.48042669,0.51185955,0.7736483000000001,-0.28682246
865,1747533100880,0.732415775,-0.25357549,0.48103685,0.486559535,0.0111853,-0.196807615
866,1747533100890,0.72570423,-0.2403963949999999,0.51007965,0.506266935,-0.77471355,-0.093476955
867,1747533100900,0.7636551549999999,-0.2374676949999999,0.53058045,0.5653891,-1.2958942,-0.037017941
868,1747533100910,0.84468216,-0.2323425,0.55010504,0.84422207,-2.3835292,0.05965481
869,1747533100920,0.86481688,-0.23563728,0.527285695,0.8876315850000001,-2.5702168,0.082025365
870,1747533100930,0.92119408,-0.2346610499999999,0.4897008949999999,0.9539443,-2.92628145,0.11984225
871,1747533100940,0.99904828,-0.22953584,0.47042036,1.0029465,-3.26237235,0.12783173
872,1747533100950,1.0755602,-0.21452633,0.42905265,1.0844392,-3.5750275,0.10013486
873,1747533100960,1.13657455,-0.19243915,0.372919485,1.08630345,-3.7236319,0.0561927005
874,1747533100970,1.1967347,-0.1474105849999999,0.302997085,1.08257505,-4.010188149999999,-0.0327568794999999
875,1747533100980,1.1745255,-0.110435905,0.2727339749999999,1.0748519,-4.3121905,-0.115048555
876,1747533100990,1.1287647500000002,-0.097134785,0.2433250699999999,1.07804765,-4.627508499999999,-0.177632845
877,1747533101000,1.0537171,-0.11116808,0.173036585,1.0791129000000002,-4.9934270000000005,-0.1989381399999999
878,1747533101010,0.997705975,-0.13288917,0.097622897,1.05301395,-5.3098107,-0.17496969
879,1747533101020,0.996729775,-0.153145915,0.069922402,1.03357285,-5.45442035,-0.13981596
880,1747533101030,1.0143019,-0.16656906,0.033069757,1.03623605,-5.51913515,-0.120374885
881,1747533101040,1.0421245,-0.1500951999999999,-0.031239328,1.0141318,-5.541772,-0.12916332
882,1747533101050,1.06897085,-0.09957536,-0.11556111,0.931573775,-5.522330999999999,-0.2074602549999999
883,1747533101060,1.0566459,-0.0295309305,-0.175233105,0.845819975,-5.47545935,-0.3091930149999999
884,1747533101070,0.9970959,0.0373407594999999,-0.194757685,0.8098673000000001,-5.4504256,-0.371510985
885,1747533101080,0.922902475,0.074071375,-0.211597635,0.79442097,-5.52339625,-0.4090615549999999
886,1747533101090,0.8195442,0.0629667684999999,-0.24686391,0.796551495,-5.710883000000001,-0.4215784099999999
887,1747533101100,0.736686775,0.0468589905,-0.28871973,0.89642006,-6.6264777,-0.34887412
888,1747533101110,0.70788805,0.041123647,-0.32130137,0.92944323,-6.8139641,-0.33076462
889,1747533101120,0.6995901250000001,0.0075657755,-0.35595749,0.99628855,-7.089867549999999,-0.28948562
890,1747533101130,0.708010075,-0.027700497,-0.3996437499999999,1.0634002,-7.12928245,-0.247940305
891,1747533101140,0.7474253,-0.0414897315,-0.507395035,1.10494555,-6.60916715,-0.245543445
892,1747533101150,0.77634615,-0.042954076,-0.64089435,1.0524813,-5.42912,-0.30253512
893,1747533101160,0.744252595,-0.01915849415,-0.6432128749999999,1.0322413,-5.131645000000001,-0.32091091
894,1747533101170,0.63015586,0.060770255,-0.63308454,1.0077402000000002,-4.632835,-0.36139095
895,1747533101180,0.58573743,0.0730951475,-0.632962495,1.0181265000000002,-4.39661265,-0.394414165
896,1747533101190,0.4510178,0.093717985,-0.658466455,1.0764497,-4.46265915,-0.394414165
897,1747533101200,0.313491535,0.09493827,-0.69519708,1.1488877,-4.71779,-0.35420043
898,1747533101210,0.23539322,0.068214001,-0.72607032,1.19922145,-5.032043,-0.281229815
899,1747533101220,0.1956118849999999,0.031117299,-0.769268455,1.2612731,-5.347095,-0.13954964
900,1747533101230,0.177185565,0.0030507154999999,-0.8177138349999999,1.2492888999999998,-5.258678,-0.079894832
901,1747533101240,0.194269565,0.0002440569999999,-0.8609119700000001,1.23357625,-4.67091825,0.015978968
902,1747533101250,0.20696054,0.012080833,-0.8955681,1.200553,-3.742274,0.082025364
903,1747533101260,0.18194468,0.0164738639999999,-0.92888191,1.17312245,-3.5015243,0.096672752
904,1747533101270,0.154366215,0.0438082754999999,-0.95560618,1.1081413,-3.0112363,0.13342437
905,1747533101280,0.1248352849999999,0.10287013,-0.9690293,1.0365023,-2.5590315,0.162719145
906,1747533101290,0.083833665,0.150217235,-0.9857472,0.8740495,-2.2919164,0.18588865
907,1747533101300,0.0400253885,0.156562725,-0.99099445,0.84821685,-2.3182818,0.19973709
908,1747533101310,0.0137892343,0.15863722,-0.98062205,0.80533995,-2.4011061,0.23196134
909,1747533101320,-0.0030507152,0.1732806499999999,-0.9878217,0.760598815,-2.49431665,0.2660498
910,1747533101330,0.016473865,0.1769415,-1.01893895,0.65673554,-2.38432815,0.277235075
911,1747533101340,0.062722711,0.189876535,-1.03663315,0.541686975,-2.0722057,0.2458097699999999
912,1747533101350,0.082613377,0.216478775,-1.02552855,0.4679174,-1.7222663,0.1802960049999999
913,1747533101360,0.063820971,0.24405725,-1.00734625,0.40613207,-1.3499564,0.102531705
914,1747533101370,0.001464343,0.2768829499999999,-0.975618835,0.35739622,-1.00880548,0.0372842585
915,1747533101380,-0.081149036,0.30775619,-0.934739265,0.32277513,-0.7419566799999999,0.0002663159999999
916,1747533101390,-0.27383223,0.37682438,-0.85566473,0.30333406,-0.5411543249999999,-0.001864213
917,1747533101400,-0.2868893,0.342046215,-0.848098935,0.286822455,-0.505734295,0.0482032195
918,1747533101410,-0.2882316099999999,0.275540625,-0.8262558,0.27537085,-0.60933127,0.138750695
919,1747533101420,-0.24710796,0.2229463,-0.79623678,0.293746665,-0.67857345,0.241016085
920,1747533101430,-0.0967687015,0.17035196,-0.76036035,0.40639839,-0.59708072,0.297741415
921,1747533101440,0.0523502785,0.14399378,-0.73656478,0.5896239,-0.351004645,0.272175065
922,1747533101450,0.08676235,0.15277984,-0.76133663,0.77551255,-0.0194410749999999,0.2159823699999999
923,1747533101460,0.09298581,0.15619664,-0.7897693,0.8708537,0.165116,0.18908444
924,1747533101470,0.068214001,0.16778936,-0.9329088,1.012800185,0.684698735,0.140348595
925,1747533101480,-0.0301410739999999,0.161809955,-1.0636015,1.02425175,0.8258463,0.20905815
926,1747533101490,-0.1210524,0.119221968,-1.17062055,1.0072075,0.8175905,0.2876214
927,1747533101500,-0.12666571,0.077854263,-1.19844305,0.96646115,0.560595435,0.42583945
928,1747533101510,-0.084321775,0.0647972025,-1.23004855,0.915328475,0.263120325,0.613326
929,1747533101520,0.035510335,0.036120475,-1.29862865,0.861798925,0.290817205,0.68656295
930,1747533101530,0.1408210349999999,0.002196515255,-1.35232125,0.8186557,0.35899413,0.7105314
931,1747533101540,0.18060236,-0.0056133163,-1.3933228,0.8149273,0.6002765,0.65886605
932,1747533101550,0.1907307349999999,0.0068336023499999,-1.41540995,0.81199785,0.63223445,0.630103925
933,1747533101560,0.20085911,0.019280521,-1.4374971,0.8090684,0.6641924,0.6013418
934,1747533101570,0.205984325,0.075413685,-1.5044908499999998,0.746750385,0.59574915,0.49295115
935,1747533101580,0.12593354,0.155098375,-1.5783182,0.60134178,0.4711132099999999,0.38962048
936,1747533101590,0.009030118,0.216600805,-1.65470815,0.372842565,0.331030935,0.3126551199999999
937,1747533101600,-0.092863782,0.23563728,-1.6894863,0.13129385,0.30652985,0.31052459
938,1747533101610,-0.14789869,0.24503349,-1.7003468,0.0,0.33129725,0.3206446
939,1747533101620,-0.227827435,0.260897205,-1.66483655,-0.505468,0.63409866,0.3749730799999999
940,1747533101630,-0.256504175,0.28981797,-1.4953387500000002,-0.95101485,1.09429295,0.396544675
941,1747533101640,-0.26882907,0.31617615,-1.2769075,-1.2756542,1.4535534,0.4048004899999999
942,1747533101650,-0.2643139949999999,0.346195215,-1.1242497,-1.33104795,1.4668692,0.4026699649999999
943,1747533101660,-0.260287045,0.384634225,-1.0069802,-1.31427,1.3968281,0.4000068
944,1747533101670,-0.255039825,0.44491636,-0.88531765,-1.2575447,1.27219215,0.4082626
945,1747533101680,-0.239908275,0.5010494999999999,-0.78684055,-1.08949925,1.01306653,0.442351065
946,1747533101690,-0.21391618,0.5117879999999999,-0.74632705,-0.863130515,0.67058398,0.484429015
947,1747533101700,-0.17035196,0.52777377,-0.73949345,-0.677508215,0.333161455,0.5067995750000001
948,1747533101710,-0.0678479125,0.520940185,-0.8107582,-0.49454905,-0.143011755,0.449541615
949,1747533101720,0.0246497805,0.479694515,-0.885683775,-0.39601205,-0.48442901,0.341150955
950,1747533101730,0.058207653,0.42966278,-0.9011814,-0.39441415,-0.5291701,0.24607609
951,1747533101740,0.08358961,0.36596383,-0.8938596750000001,-0.4058657599999999,-0.489755315,0.141946482
952,1747533101750,0.076023836,0.2801777,-0.8322352,-0.3968110099999999,-0.366450965,0.04474110535
953,1747533101760,0.055889111,0.20842488,-0.7691464,-0.297741415,-0.106792755,-0.05486112165
954,1747533101770,0.028066583,0.14350566,-0.7250941,-0.0793622,0.09321064,-0.14221281
955,1747533101780,0.004148973,0.119588055,-0.71093875,0.09960223,0.019707393,-0.13475595
956,1747533101790,-0.00707766,0.10372432,-0.76121455,0.32117724,-0.16777915,-0.09267801
957,1747533101800,0.046614934,0.13057062,-0.9271735,0.5139901,-0.45912898,-0.034621093
958,1747533101810,0.0569873694999999,0.148874915,-0.97561885,0.510261685,-0.50227219,-0.0362189915
959,1747533101820,0.07443746,0.18353106,-1.1121689,0.42077947,-0.60720074,-0.04580637
960,1747533101830,0.09445015,0.15936938,-1.1580516,0.28708878,-0.60773337,-0.06764429
961,1747533101840,0.09652464,0.155220405,-1.15378055,0.223439225,-0.5653890850000001,-0.082557995
962,1747533101850,0.07858644,0.12032023,-1.0833701,-0.007456851,-0.27324033,-0.13422333
963,1747533101860,0.0807829499999999,0.10409042,-1.05286295,-0.021038972,-0.248206615,-0.14301176
964,1747533101870,0.0852980075,0.077000065,-0.98757768,-0.0109189597499999,-0.22184132,-0.15792546
965,1747533101880,0.102992155,0.055400997,-0.9108216,0.10759171,-0.20719394,-0.18588865
966,1747533101890,0.102992155,0.055400997,-0.9108216,0.10759171,-0.20719394,-0.18588865
967,1747533101900,0.1283741125,0.0857861235,-0.951091075,0.26258769,-0.167779155,-0.234890825
968,1747533101910,0.15277984,0.1250793399999999,-1.020281325,0.441019485,-0.171507585,-0.31904671
969,1747533101920,0.12507934,0.14387175,-1.0832481,0.48309743,-0.34887412,-0.39468047
970,1747533101930,0.0388051,0.18231077,-1.1958805,0.44741106,-0.49534798,-0.40266997
971,1747533101940,-0.0053692615,0.204519975,-1.25103745,0.36831518,-0.59628177,-0.390419425
972,1747533101950,-0.05051985,0.19036464,-1.2664131,0.127032786,-0.6793724,-0.36538571
973,1747533101960,-0.0450285614999999,0.18536147,-1.2329772,-0.076166409,-0.6058691700000001,-0.34248252
974,1747533101970,-0.007565775,0.15253578,-1.1265682,-0.13422333,-0.43356264,-0.33449304
975,1747533101980,0.013667206,0.15839316,-1.0772687,-0.103863284,-0.31372038,-0.35739622
976,1747533101990,0.0341680154999999,0.136305977,-1.0507885,-0.0199737119999999,-0.25353294,-0.38589205
977,1747533102000,0.0450285624999999,0.131668882,-1.0379755,0.132891735,-0.194677075,-0.4311658
978,1747533102010,0.031971499,0.150217235,-1.09118,0.2452771349999999,-0.237553975,-0.46072689
979,1747533102020,0.0051252022,0.14106509,-1.2200422,0.30999196,-0.3888215,-0.4841627
980,1747533102030,-0.0054912874,0.1542441749999999,-1.2533560499999998,0.28708877,-0.400805735,-0.473243735
981,1747533102040,-0.017816179,0.24308102,-1.3828284,0.0031957934,-0.2695119,-0.45859635
982,1747533102050,-0.0416117575,0.26162936,-1.38441475,-0.0796285182999999,-0.27856665,-0.458862665
983,1747533102060,-0.091887548,0.28518089,-1.3779472,-0.256995045,-0.33795515,-0.451672125
984,1747533102070,-0.14228538,0.27310005,-1.3196175,-0.44421528,-0.43542685,-0.429567885
985,1747533102080,-0.1253234,0.23429495,-1.2431056,-0.64714815,-0.43835632,-0.38109835
986,1747533102090,-0.096524643,0.191584935,-1.12900885,-0.7930893800000001,-0.29454562,-0.33129725
987,1747533102100,-0.0532044805,0.1798701899999999,-1.04249052,-0.836498915,-0.07962852,-0.32197619
988,1747533102110,-0.021721095,0.17206036,-0.99355704,-0.84422207,0.03568636,-0.32863408
989,1747533102120,0.04148973,0.17938207,-0.8937377,-0.84422207,0.03568636,-0.32863408
990,1747533102130,0.117147475,0.21843125,-0.80416864,-0.5997439,1.3411679,-0.6061355
991,1747533102140,0.0913994375,0.2222141349999999,-0.80807355,-0.524909065,1.6455672,-0.7044061500000001
992,1747533102150,-0.032703668,0.20403185,-0.79269797,-0.34088463,1.9686087,-0.83037364
993,1747533102160,-0.072240944,0.18694785,-0.7952605500000001,-0.274571915,1.8490328,-0.80027992
994,1747533102170,-0.15863721,0.077122085,-0.8778739,0.0479369,0.8644621,-0.48309743
995,1747533102180,-0.14789869,0.07443746,-0.93888825,0.12463594,0.4825648,-0.29614353
996,1747533102190,-0.10750722,0.0656514,-0.971591925,0.13076121,0.3619236,-0.2258360649999999
997,1747533102200,-0.02574804325,0.057719539,-1.0222338,0.128364365,0.229564495,-0.1081243375
998,1747533102210,0.06919022925,0.065285314,-1.0551815,0.095074853,0.335025675,-0.0407463655
999,1747533102220,0.1769415025,0.074803545,-1.0777567499999998,0.0290284575,0.63835973,-0.033822146
1000,1747533102230,0.32532832,0.0622346,-1.0365112,-0.1571265,1.5233282,-0.1965413
