id,timestamp,acc_x,acc_y,acc_z,gyro_x,gyro_y,gyro_z
1,1747533032190,-0.22416658,0.436618425,0.831869125,-0.15339808,-0.028495815,0.5342301275
2,1747533032200,-0.073461233,0.359252275,0.810880185,-0.49694587,0.294012995,1.013599135
3,1747533032210,-0.027090356,0.3397277,0.74291027,-0.53795856,0.32170987,0.94808537
4,1747533032220,-0.016107778,0.20915705,0.62942365,-0.8977516299999999,0.403202585,0.58456385
5,1747533032230,-0.035144243,0.10884953,0.6491923,-1.0908308,0.41758367,0.4250405
6,1747533032240,-0.0578415674999999,-0.0795626595,0.8743350649999999,-1.27938265,0.299871935,0.42876894
7,1747533032250,-0.0741934025,-0.1452140599999999,1.035290815,-1.33264585,0.1984055,0.5323659
8,1747533032260,-0.07785426,-0.16058967,1.1107045,-1.3427658,0.14487597,0.6034723
9,1747533032270,-0.19622204,-0.19915071,1.3388981,-1.0924287,0.076432725,1.4841797
10,1747533032280,0.0023185424999999,-0.1898765399999999,1.4510423499999998,-0.961933785,0.037816889,1.81680855
11,1747533032290,0.2157466175,-0.183286995,1.47947505,-0.826645235,-0.059654811,2.03918255
12,1747533032300,0.426490065,-0.178405855,1.46629595,-0.6870956,-0.22556975,2.1270668500000003
13,1747533032310,0.71045065,-0.123737028,1.3906382,-0.46179215,-0.44128579,1.9092202
14,1747533032320,0.91838742,-0.0541807094999999,1.2834971,-0.24980452,-0.5536711750000001,1.47166285
15,1747533032330,0.93974242,-0.025259925,1.1953924,-0.149669655,-0.51345745,1.013865465
16,1747533032340,0.89215125,-0.0090301184,1.1299850500000002,-0.0846885225,-0.44687844,0.525175375
17,1747533032350,0.79965357,0.0242836961,1.0788551,-0.05699165,-0.36218992,0.01731055
18,1747533032360,0.6318641899999999,0.084321778,1.0770246499999998,-0.0806937855,-0.19680761,-0.5874933600000001
19,1747533032370,0.3704789,0.1466784,1.1753798,-0.054328486,0.070307456,-1.1984226
20,1747533032380,0.3704789,0.1466784,1.1753798,-0.054328486,0.070307456,-1.1984226
21,1747533032390,0.1521696975,0.12190659,1.2607997,0.190948645,0.303600365,-1.4761902
22,1747533032400,0.032825702,0.088958865,1.25469835,0.398142585,0.449008965,-1.59922825
23,1747533032410,-0.0817591855,0.04356422,1.1582957,0.62025022,0.5869607,-1.6809873
24,1747533032420,-0.15094942,0.0085420035,1.0471276,0.7318366700000001,0.66419237,-1.7022925999999998
25,1747533032430,-0.15766099,0.002928687,1.0113733,0.7238472,0.67005134,-1.6921726
26,1747533032440,-0.18292091,0.0206228384999999,0.97098175,0.62983765,0.63436499,-1.63065355
27,1747533032450,-0.22258021,0.030263099,1.0000246,0.554736475,0.51958275,-1.44503125
28,1747533032460,-0.25894475,0.05735345,1.03980595,0.5065332250000001,0.32144355,-1.1763183
29,1747533032470,-0.246253775,0.0882266925,1.0808076,0.52517535,0.1193096145,-0.93530222
30,1747533032480,-0.19243914,0.106164905,1.12547005,0.5978796749999999,-0.0657800855,-0.70866719
31,1747533032490,-0.114584875,0.13288917,1.15927195,0.711064045,-0.20772657,-0.552872255
32,1747533032500,0.027334413,0.21428227,1.1348661,0.9139969,-0.33182988,-0.4841627
33,1747533032510,0.026358183,0.20720461,1.1099723,1.0729876,-0.30120352,-0.55953015
34,1747533032520,0.0086640319999999,0.18231077,1.048958,1.27219205,-0.25166872,-0.6695187
35,1747533032530,-0.0219651525,0.146800435,0.9739104,1.31986265,-0.21864553,-0.7155914
36,1747533032540,-0.0512520229999999,0.1223947049999999,0.8960562,1.2985573499999998,-0.21252026,-0.71985245
37,1747533032550,-0.09737884,0.11775762,0.81978835,1.12971295,-0.27297402,-0.67218185
38,1747533032560,-0.14704449,0.137526255,0.768902375,0.9038769,-0.32756882,-0.6101302
39,1747533032570,-0.17022993,0.176697445,0.758895995,0.74621775,-0.30200247,-0.5848302000000001
40,1747533032580,-0.189632475,0.196100005,0.77646812,0.6167881,-0.229298175,-0.586161775
41,1747533032590,-0.2250207799999999,0.197930435,0.80014165,0.53662695,-0.14727281,-0.5864280749999999
42,1747533032600,-0.2866452399999999,0.238443935,0.78940315,0.49774481,-0.084688525,-0.52357748
43,1747533032610,-0.338507395,0.293478835,0.7601163,0.47750479,-0.062051655,-0.428236305
44,1747533032620,-0.369136585,0.32959931,0.731195515,0.460194245,-0.068975872,-0.34061831
45,1747533032630,-0.38634263,0.35559142,0.69458693,0.4287689449999999,-0.078829567,-0.23915187
46,1747533032640,-0.3699907799999999,0.3674282,0.670791315,0.3949468,-0.0761664049999999,-0.147539125
47,1747533032650,-0.33374826,0.374749915,0.66298147,0.3616572799999999,-0.0436758415,-0.0727043
48,1747533032660,-0.3069019699999999,0.379997135,0.65517167,0.259125575,0.0806937835,0.02609898
49,1747533032670,-0.288109585,0.382193635,0.6519989500000001,0.11824435,0.229031855,0.119309625
50,1747533032680,-0.27334413,0.3829258,0.6560259,0.06231797,0.27696875,0.14807177
51,1747533032690,-0.250158685,0.430639,0.6899498399999999,-0.067377977,0.26178874,0.22690134
52,1747533032700,-0.259310815,0.443452015,0.685068695,-0.067910607,0.162452828,0.2809635099999999
53,1747533032710,-0.240030295,0.4630986299999999,0.68580088,-0.0655137625,0.0412789955,0.317715125
54,1747533032720,-0.230268005,0.51618109,0.6803096,-0.0737695625,-0.0673779774999999,0.3158509
55,1747533032730,-0.23697957,0.5503491,0.6731099,-0.0793622,-0.1123854,0.30519825
56,1747533032740,-0.25674823,0.545468,0.6999562,-0.11930962,-0.1667139,0.27377295
57,1747533032750,-0.273466155,0.57914785,0.711060775,-0.168844415,-0.20692763,0.31158985
58,1747533032760,-0.30885444,0.62869145,0.74339834,-0.2335592349999999,-0.26471822,0.37603836
59,1747533032770,-0.3487578,0.63528102,0.790257365,-0.2372876649999999,-0.2932140399999999,0.4327636849999999
60,1747533032780,-0.39805739,0.62014947,0.80673125,-0.162186515,-0.324639335,0.5166532500000001
61,1747533032790,-0.42612398,0.6142921,0.7975791,-0.09853696,-0.34514567,0.5704491
62,1747533032800,-0.4317373,0.5970860499999999,0.739127395,-0.08415589,-0.35260254,0.67804082
63,1747533032810,-0.43466598,0.61063125,0.71655212,-0.14434333,-0.35712991,0.74941355
64,1747533032820,-0.44113348,0.64431115,0.7180164499999999,-0.219444475,-0.361657285,0.813862065
65,1747533032830,-0.4463807,0.6662763,0.7285109,-0.25086978,-0.35792887,0.84155893
66,1747533032840,-0.440889415,0.66444585,0.750354,-0.242347665,-0.361657285,0.8913600450000001
67,1747533032850,-0.44808911,0.6883635,0.7732953499999999,-0.1613875599999999,-0.42237736,1.07138975
68,1747533032860,-0.44271985,0.704471275,0.74474068,-0.1272991,-0.4833637699999999,1.1875036
69,1747533032870,-0.4314932099999999,0.708864275,0.72326365,-0.1145159279999999,-0.556867,1.31933005
70,1747533032880,-0.399643735,0.68616695,0.7156978549999999,-0.113983296,-0.5954828,1.3885722
71,1747533032890,-0.37658033,0.6645679,0.71826047,-0.223705545,-0.43116578,1.6839168
72,1747533032900,-0.33789725,0.6595647,0.7354665499999999,-0.327568825,-0.32117723,1.7134779
73,1747533032910,-0.3385074,0.6731099,0.7399816,-0.386691,-0.2727077,1.7198695
74,1747533032920,-0.3385074,0.6731099,0.7399816,-0.386691,-0.2727077,1.7198695
75,1747533032930,-0.3385074,0.6731099,0.7399816,-0.386691,-0.2727077,1.7198695
76,1747533032940,-0.4540685,0.78110525,0.916434945,-1.0373013,-0.34274884,2.0820594
77,1747533032950,-0.45907167,0.82027644,0.94254905,-1.0737866,-0.3616573,2.1582258
78,1747533032960,-0.40074201,0.8916631500000001,1.0215016499999998,-0.9715212,-0.4474110599999999,2.3662187
79,1747533032970,-0.289451895,0.93901028,1.015278175,-0.7267767,-0.5595301500000001,2.4639567
80,1747533032980,-0.20525214,0.97037166,0.99136055,-0.5613944,-0.6279734,2.4980452
81,1747533032990,-0.14887492,1.0265048,0.90569645,-0.3877562599999999,-0.66898607,2.428004
82,1747533033000,-0.13886858,1.0407821,0.8308929199999999,-0.308660375,-0.60959758,2.3699471
83,1747533033010,-0.103846365,1.04566325,0.7060576199999999,-0.2751045399999999,-0.37603836,2.2269353
84,1747533033020,-0.045882764,1.0467615,0.5997707,-0.29507825,-0.12916332,2.0218719
85,1747533033030,0.0028066585,1.05139855,0.5682872999999999,-0.343281465,-0.016245283,1.7856495
86,1747533033040,0.0388051045,1.0738518,0.5807342200000001,-0.36831518,0.0274305595,1.50655025
87,1747533033050,0.0412456765,1.1100943,0.626372935,-0.32996567,0.0215716055,1.2351742
88,1747533033060,-0.0602821355,1.1507299,0.666032215,-0.12516858,0.0149137024999999,0.8905611
89,1747533033070,-0.172060355,1.1612244,0.6681067,0.13635385,0.0412789965,0.6159891749999999
90,1747533033080,-0.19060871,1.1305952499999998,0.6278372750000001,0.2942793099999999,0.097205382,0.491353245
91,1747533033090,-0.1692537,1.09142405,0.5670670250000001,0.38296257,0.162452835,0.36032571
92,1747533033100,-0.1173915349999999,1.05371715,0.51361848,0.40187101,0.239151875,0.1856223374999999
93,1747533033110,-0.0290428119999999,1.01735265,0.5048324,0.3643204399999999,0.39281626,-0.2202434375
94,1747533033120,0.024527753,1.0025872,0.538024185,0.34914042,0.553937485,-0.664458735
95,1747533033130,0.0214770369999999,1.000390625,0.5832968350000001,0.39947417,0.63782705,-0.92464955
96,1747533033140,0.0248938385,0.987089525,0.62881352,0.470580575,0.68842715,-1.14515925
97,1747533033150,0.04527262,0.96817515,0.66652037,0.5323659249999999,0.7052051,-1.3334448
98,1747533033160,0.0730951485,0.94498968,0.722531495,0.53929015,0.68549768,-1.5643409
99,1747533033170,0.083955695,0.93962038,0.78769475,0.4929511399999999,0.67218183,-1.7691379500000002
100,1747533033180,0.067603859,0.965124375,0.852613955,0.45087318,0.69242187,-1.8919097
101,1747533033190,0.030385129,0.989041975,0.92168218,0.47723846,0.73316827,-2.01228465
102,1747533033200,-0.041123645,0.95292153,0.96280587,0.64182182,0.7960188500000001,-2.08259205
103,1747533033210,-0.0961585525,0.89227331,0.94523372,0.79894835,0.8290420350000001,-2.0879183
104,1747533033220,-0.1097037275,0.84919715,0.88409735,0.82185155,0.8149273100000001,-2.0804615
105,1747533033230,-0.1164153,0.82491344,0.8510276,0.8127968,0.80374205,-2.078331
106,1747533033240,-0.1776736749999999,0.72594827,0.77695626,0.660996585,0.740092475,-2.04370975
107,1747533033250,-0.2372236449999999,0.66883889,0.753770795,0.52384378,0.677508205,-1.98378865
108,1747533033260,-0.2661444349999999,0.65956472,0.8079515399999999,0.3371562,0.5832323150000001,-1.87886015
109,1747533033270,-0.27554065,0.7050814000000001,0.908503145,0.25726137,0.511326955,-1.7829864
110,1747533033280,-0.2884757,0.733148,0.95597225,0.29028457,0.49801114,-1.7560885
111,1747533033290,-0.371577175,0.7191147,0.990872445,0.596548095,0.536094335,-1.59922825
112,1747533033300,-0.38231568,0.64223668,0.92033992,0.94302537,0.581368085,-1.39895855
113,1747533033310,-0.32337585,0.5513253,0.66066295,1.2101405,0.6279734,-1.1552793
114,1747533033320,-0.292380575,0.52594335,0.58427304,1.16140465,0.6250439,-1.12278875
115,1747533033330,-0.22916975,0.469932235,0.44906534,1.0061423,0.5914880499999999,-1.0823087
116,1747533033340,-0.17450093,0.4202666,0.357543875,0.748614565,0.5075985000000001,-1.0847055
117,1747533033350,-0.1683995,0.41855815,0.37267542,-0.13475595,0.07456851,-1.1488878
118,1747533033360,-0.195733915,0.45541081,0.44564851,-0.239418185,0.013315805,-1.134773
119,1747533033370,-0.27163573,0.523746865,0.5781716,-0.38269626,-0.08974853,-1.0841729
120,1747533033380,-0.360838655,0.562551945,0.677869,-0.39734364,-0.124369625,-0.9867012
121,1747533033390,-0.40379271,0.5668229149999999,0.74376445,-0.3193130199999999,-0.0806937819999999,-0.86606
122,1747533033400,-0.35278474,0.58695765,0.746083,-0.190416025,0.040746363,-0.781105165
123,1747533033410,-0.297505785,0.6178309200000001,0.6976376,-0.117978035,0.18615496,-0.7819041
124,1747533033420,-0.29555333,0.62551874,0.6726217,-0.144343335,0.30519826,-0.8439557550000001
125,1747533033430,-0.336676965,0.5708499,0.6318642299999999,-0.197340245,0.3720436099999999,-0.894555835
126,1747533033440,-0.3568116799999999,0.52435698,0.6312540799999999,-0.3025351,0.256995055,-0.8926916149999999
127,1747533033450,-0.35290678,0.51154398,0.6620053,-0.42424157,0.0247673975,-0.84235785
128,1747533033460,-0.35961835,0.53131265,0.7283888700000001,-0.50813115,-0.1986718224999999,-0.74994618
129,1747533033470,-0.40769763,0.5656026999999999,0.800751835,-0.56245963,-0.388022575,-0.61066288
130,1747533033480,-0.478108155,0.59013045,0.827110015,-0.57630808,-0.45992792,-0.4330300099999999
131,1747533033490,-0.5094695250000001,0.551203315,0.8121005,-0.55713333,-0.32597092,-0.1699096728
132,1747533033500,-0.48799248,0.484453635,0.7724412,-0.5371596000000001,-0.1134506649999999,0.0197073922
133,1747533033510,-0.449309395,0.445404485,0.72253148,-0.54648065,0.0348874099999999,0.0343547785
134,1747533033520,-0.40318258,0.42258513,0.70312893,-0.5848302,0.12676647,0.0029294769999999
135,1747533033530,-0.366940065,0.463830815,0.784399985,-0.61066285,0.120641205,-0.0245010825
136,1747533033540,-0.3564456,0.5288721,0.904842185,-0.55500276,0.04767058725,0.0002663165
137,1747533033550,-0.37658033,0.53350915,0.9537757,-0.420513135,-0.0633832377499999,0.0836232625
138,1747533033560,-0.41404313,0.49360575,0.94315925,-0.26098979,-0.167779155,0.214384475
139,1747533033570,-0.446014615,0.446746785,0.889832725,-0.1150485639999999,-0.19121497,0.3818973
140,1747533033580,-0.45809543,0.42783237,0.85493255,-0.049534798,-0.17949706,0.47244477
141,1747533033590,-0.3294772849999999,0.34790361,0.66835073,-0.1659149369999999,-0.190682345,0.65593655
142,1747533033600,-0.21721096,0.365963835,0.699102,-0.294545625,-0.225836065,0.664725
143,1747533033610,-0.1598575,0.38658667,0.7316837,-0.36112466,-0.24927188,0.6578008
144,1747533033620,-0.066993708,0.426123945,0.860789885,-0.4924185,-0.26738138,0.598412315
145,1747533033630,-0.121418478,0.400986075,0.8693318999999999,-0.53263225,-0.1233043655,0.5395564500000001
146,1747533033640,-0.17742962,0.37218732,0.8551766,-0.5448828,0.002130529,0.5006743
147,1747533033650,-0.19219508,0.3314297499999999,0.7742716199999999,-0.5845639,0.24580978,0.455400555
148,1747533033660,-0.17108413,0.33460249,0.715819895,-0.6692524,0.35100465,0.39388154
149,1747533033670,-0.1917069699999999,0.35437113,0.730463325,-0.78003987,0.3619236,0.31318775
150,1747533033680,-0.22111587,0.3648656,0.7670719,-0.83889574,0.3520699,0.2711098
151,1747533033690,-0.32581642,0.35119838,0.8102701,-0.9720538,0.29614353,0.25885928
152,1747533033700,-0.417093845,0.2615073499999999,0.9154587,-0.9219864,0.17097495,0.437024735
153,1747533033710,-0.43771668,0.220993835,0.9532876,-0.84342316,0.0713727175,0.58775965
154,1747533033720,-0.41465325,0.201957375,1.0030753,-0.624511305,-0.0511326925,0.81918835
155,1747533033730,-0.34570708,0.1715722499999999,1.03382655,-0.35153727,-0.135288585,1.0064086
156,1747533033740,-0.25113491,0.1053107029999999,1.009054725,-0.169110725,-0.192812865,1.04901915
157,1747533033750,-0.16742327,0.0133011195,0.965246375,-0.0513990079999999,-0.26365295,1.07085705
158,1747533033760,-0.18963248,-0.1051886735,0.905208315,-0.064981131,-0.3214435399999999,1.1539476999999998
159,1747533033770,-0.225142805,-0.22965787,0.8840973649999999,-0.388821523,-0.3800330899999999,1.51161025
160,1747533033780,-0.20866893,-0.28725538,0.8959341,-0.66365975,-0.41172472,1.7981664
161,1747533033790,0.0381949615,-0.26236154,1.0771467,-0.97471698,-0.43808999,2.07406985
162,1747533033800,0.20171331,-0.276516855,1.22858425,-0.96566223,-0.52411009,2.17100895
163,1747533033810,0.3752379999999999,-0.27126962,1.3502467500000002,-0.7914914799999999,-0.6431534,2.20509745
164,1747533033820,0.61551236,-0.178283813,1.3709916,-0.384826785,-0.80081255,2.0722057
165,1747533033830,0.823449125,-0.0595499705,1.2841072,-0.0018642125,-0.87884315,1.7925738
166,1747533033840,0.927173425,0.005613316,1.17855245,0.1249022575,-0.80747043,1.4176007
167,1747533033850,0.969395325,0.0346561285,1.1050912,0.140881225,-0.66392608,0.91346425
168,1747533033860,0.820398375,0.0466149349999999,1.10033205,-0.0157126499999999,-0.38535943,0.0735032499999999
169,1747533033870,0.562307865,0.07260703,1.16744785,-0.2082592,-0.0860201025,-0.7017429500000001
170,1747533033880,0.45199403,0.09005712,1.2117443,-0.26312032,0.022370555,-0.9155948
171,1747533033890,0.118733852,0.15094941,1.38014375,-0.183225485,0.343547795,-1.2871058
172,1747533033900,-0.016717923,0.16632501,1.4592182500000002,0.046605315,0.45380266,-1.3518206
173,1747533033910,-0.130326575,0.1544882249999999,1.43749715,0.5502090749999999,0.447411075,-1.3118732
174,1747533033920,-0.2056182349999999,0.12959439,1.30814685,1.010137,0.365385715,-1.21386885
175,1747533033930,-0.21916341,0.09908724,1.1717189,1.154214,0.29427931,-1.1195929
176,1747533033940,-0.208668945,0.0596719965,1.07519425,1.1704593,0.23435818,-1.03383913
177,1747533033950,-0.189144365,0.030263098,1.0077124,1.0937603,0.186154965,-0.970455945
178,1747533033960,-0.177185565,0.028920785,0.972202075,0.90787165,0.1270327875,-0.912399015
179,1747533033970,-0.17950411,0.0532044835,0.970371605,0.7451525,0.0916127425,-0.861
180,1747533033980,-0.1774296249999999,0.08517598,0.97256813,0.705205065,0.094275905,-0.829841025
181,1747533033990,-0.154732295,0.105310705,0.965490465,0.6998787150000001,0.0974717,-0.81705785
182,1747533034000,-0.123004852,0.127886,0.89166313,0.68389975,0.11797804,-0.838629455
183,1747533034010,-0.108727512,0.149973175,0.808561665,0.633832335,0.147006495,-0.8860337149999999
184,1747533034020,-0.13288917,0.15534244,0.79269795,0.567253335,0.16511599,-0.927579015
185,1747533034030,-0.18584959,0.154732295,0.78903708,0.491086925,0.175236005,-0.91745901
186,1747533034040,-0.23270859,0.159735465,0.78989128,0.42077945,0.15792546,-0.84022733
187,1747533034050,-0.25833461,0.18414119,0.81063615,0.326769875,0.04261058,-0.649544975
188,1747533034060,-0.266754585,0.21647877,0.825157565,0.2279666,-0.0958738049999999,-0.4298342
189,1747533034070,-0.24576565,0.252233155,0.825157565,0.161653885,-0.17230653,-0.281229825
190,1747533034080,-0.18633771,0.2950652099999999,0.83626218,0.1091896099999999,-0.22130869,-0.1776328549999999
191,1747533034090,-0.12251674,0.342900435,0.84443808,0.0820253649999999,-0.233292915,-0.14221281
192,1747533034100,-0.0740713725,0.37523801,0.8546884699999999,0.106792765,-0.1853560149999999,-0.235423445
193,1747533034110,-0.0643090825,0.36327921,0.8698200199999999,0.1669802,-0.103330655,-0.39707732
194,1747533034120,-0.101405785,0.3393616,0.8573731,0.20905814,-0.0290284595,-0.499076395
195,1747533034130,-0.14497,0.33448044,0.81966625,0.213585515,0.0420779455,-0.548877515
196,1747533034140,-0.179015985,0.324962215,0.7869626,0.169909675,0.09667275,-0.5653891
197,1747533034150,-0.2313662749999999,0.30519359,0.75084215,-0.0157126499999999,0.1027980199999999,-0.512924815
198,1747533034160,-0.2729780349999999,0.30629185,0.7166741000000001,-0.25859294,0.08016115,-0.421578405
199,1747533034170,-0.263337775,0.326182515,0.72338565,-0.4298342149999999,0.0601874415,-0.35579833
200,1747533034180,-0.231000185,0.34729345,0.771709,-0.55633435,0.0434095265,-0.323307765
201,1747533034190,-0.1967101399999999,0.38268174,0.8390688,-0.6095975499999999,0.053263225,-0.337422525
202,1747533034200,-0.193659425,0.43356769,0.90105935,-0.53130063,0.11771173,-0.39601206
203,1747533034210,-0.21013329,0.466393385,0.92583117,-0.38429415,0.18482339,-0.44048685
204,1747533034220,-0.217577045,0.466271355,0.9286378,-0.25699505,0.201601295,-0.44581318
205,1747533034230,-0.2169669,0.43857087,0.935837505,-0.14301175,0.1605886125,-0.43276368
206,1747533034240,-0.2189193549999999,0.40855183,0.927661625,-0.068709557,0.0679106085,-0.39414784
207,1747533034250,-0.256382155,0.40318257,0.86774555,-0.075633777,-0.090813799,-0.301203525
208,1747533034260,-0.307024035,0.404280825,0.80331442,-0.1555286149999999,-0.22849923,-0.1866875949999999
209,1747533034270,-0.3475375149999999,0.413799045,0.76829222,-0.246076095,-0.278300345,-0.1041296
210,1747533034280,-0.38194958,0.4367404299999999,0.74876765,-0.323574085,-0.30972564,-0.0354200445
211,1747533034290,-0.39708113,0.45687516,0.760238325,-0.381098365,-0.320378275,0.0327568804999999
212,1747533034300,-0.39805737,0.48860262,0.8047787550000001,-0.4069310299999999,-0.290550875,0.09720538
213,1747533034310,-0.392932175,0.51764543,0.84529228,-0.39201732,-0.16644757,0.166181255
214,1747533034320,-0.3721873,0.52277061,0.8522479000000001,-0.36485307,-0.0178431799999999,0.219710795
215,1747533034330,-0.309464585,0.51703528,0.86542695,-0.36032571,0.0809601,0.243146605
216,1747533034340,-0.2584566299999999,0.51007965,0.8872701000000001,-0.35819518,0.099868545,0.246342395
217,1747533034350,-0.25650416,0.51056775,0.89373765,-0.3422161999999999,0.0434095275,0.2426139749999999
218,1747533034360,-0.28249625,0.52289265,0.8816568,-0.31744881,-0.0215716045,0.265250845
219,1747533034370,-0.3291112,0.53570568,0.8573731,-0.284958245,-0.098270647,0.32836777
220,1747533034380,-0.34546304,0.5182555799999999,0.8257677,-0.25379925,-0.183225485,0.4916195599999999
221,1747533034390,-0.3250842699999999,0.5047104,0.790135325,-0.263120315,-0.222906585,0.660996625
222,1747533034400,-0.29103829,0.5204521,0.775613925,-0.32517198,-0.229830805,0.73449985
223,1747533034410,-0.2501586799999999,0.526797575,0.7928199650000001,-0.404267865,-0.25166873,0.7643272299999999
224,1747533034420,-0.22221412,0.541196945,0.8471226949999999,-0.4913532349999999,-0.21491711,0.7584683
225,1747533034430,-0.21538053,0.56450442,0.892273305,-0.5438175249999999,-0.16484968,0.74728304
226,1747533034440,-0.211109525,0.5671890500000001,0.8967883249999999,-0.557399625,-0.16085494,0.76006622
227,1747533034450,-0.20622837,0.57573105,0.8884903749999999,-0.5805691,-0.17923075,0.7898936000000001
228,1747533034460,-0.20744865,0.5874458,0.88055855,-0.5954828,-0.19760656,0.8069378
229,1747533034470,-0.206716485,0.615756425,0.92192627,-0.6511429,-0.3033340599999999,0.84741789
230,1747533034480,-0.286035095,0.654683575,0.949870795,-0.67218187,-0.460726875,0.933970615
231,1747533034490,-0.39525072,0.68262815,0.958290775,-0.63143552,-0.659931335,1.1270498
232,1747533034500,-0.47676584,0.6906820499999999,0.976351,-0.530235385,-0.781904105,1.35421745
233,1747533034510,-0.5098356,0.690438,0.9867234,-0.47244477,-0.82078624,1.4626081
234,1747533034520,-0.50934749,0.72851087,0.924854925,-0.247940295,-0.95527585,1.7696706
235,1747533034530,-0.47737598,0.7524285,0.8829991,-0.14434333,-1.0098706,1.8817897
236,1747533034540,-0.440645365,0.77231918,0.793796175,-0.037550569,-1.03144225,1.9156118
237,1747533034550,-0.41501935,0.7898913000000001,0.76475335,0.029028456,-1.0708571,1.89190965
238,1747533034560,-0.412334695,0.8169816400000001,0.6940987999999999,0.0852211579999999,-1.09695605,1.8594191
239,1747533034570,-0.4080637099999999,0.867013395,0.598794475,0.0625842885,-0.98856535,1.7971011
240,1747533034580,-0.383291915,0.912408055,0.555352275,-0.0239684495,-0.847950475,1.68285155
241,1747533034590,-0.38268177,0.94779633,0.5503491,-0.092145375,-0.785366205,1.5350461
242,1747533034600,-0.39366436,0.9669548,0.5554743,-0.11930962,-0.75633776,1.4519554
243,1747533034610,-0.52277061,0.97391045,0.588422,-0.02396845,-0.64581656,1.1787152
244,1747533034620,-0.5944014,0.94279316,0.597574165,0.11105382,-0.539290115,1.01519705
245,1747533034630,-0.5863475,0.927783605,0.578537715,0.174437055,-0.422643665,0.91000215
246,1747533034640,-0.534363325,0.929980125,0.5607215299999999,0.173638105,-0.26844664,0.7635282999999999
247,1747533034650,-0.444672305,0.9541418,0.57060588,0.12330436,-0.059654813,0.51612063
248,1747533034660,-0.314711825,0.967687,0.6368674000000001,0.085753792,0.235157122,0.0431432099999999
249,1747533034670,-0.22026167,0.96268385,0.70874225,0.090281162,0.466053175,-0.39920785
250,1747533034680,-0.189632485,0.97549685,0.7394935,0.098270643,0.570981725,-0.63250078
251,1747533034690,-0.16486067,1.0022211,0.76438732,0.08548747,0.64341974,-0.82158522
252,1747533034700,-0.15229172,1.014546,0.77951884,0.072970614,0.67271453,-0.90654004
253,1747533034710,-0.13545177,1.03455865,0.8391908699999999,0.0585895439999999,0.69854717,-1.1206582
254,1747533034720,-0.1492410049999999,1.02528455,0.92241435,0.197872867,0.69322085,-1.32439005
255,1747533034730,-0.197198255,0.99367915,1.00380745,0.422111035,0.68176925,-1.4868429
256,1747533034740,-0.26126329,0.9558502,1.01771875,0.605869145,0.669252395,-1.5182682
257,1747533034750,-0.32386397,0.88788025,0.9824525,0.77444723,0.65540394,-1.5118766
258,1747533034760,-0.35900821,0.8097819500000001,0.917289175,0.95128115,0.6612629000000001,-1.48364705
259,1747533034770,-0.3316738,0.7050814,0.8502955,1.0769824,0.6828345,-1.4594123
260,1747533034780,-0.311295015,0.67628265,0.8349198499999999,1.05647605,0.679106085,-1.46686915
261,1747533034790,-0.2762727849999999,0.6416265,0.80123995,0.98883175,0.666855535,-1.48631025
262,1747533034800,-0.26834093,0.6411384,0.7625569,0.8673916,0.6679208,-1.5006913000000002
263,1747533034810,-0.27566266,0.62942365,0.7452288,0.68656295,0.70973245,-1.4689997
264,1747533034820,-0.27566266,0.59501155,0.75316065,0.54594805,0.7406251,-1.41147545
265,1747533034830,-0.27004935,0.56438237,0.75401485,0.4849616599999999,0.7203850650000001,-1.3611417
266,1747533034840,-0.235515245,0.53546157,0.7364427,0.42504051,0.664991315,-1.3025522
267,1747533034850,-0.195001735,0.51691323,0.737418935,0.29561088,0.50573429,-1.2120047
268,1747533034860,-0.18365308,0.51654713,0.7651194649999999,0.146740185,0.299605635,-1.1262509
269,1747533034870,-0.18951046,0.5186216,0.789769265,0.0524642775,0.1510012399999999,-1.06952555
270,1747533034880,-0.19573392,0.5181335,0.80123997,0.010652645,0.08575379,-1.0396981
271,1747533034890,-0.21843124,0.500317365,0.8206424999999999,-0.0703074549999999,0.018642128,-0.915594775
272,1747533034900,-0.21904138,0.484697685,0.7907454700000001,-0.1520665,0.1334243725,-0.8380968
273,1747533034910,-0.20830286,0.455654875,0.733758125,-0.272707695,0.279365605,-0.7832357
274,1747533034920,-0.186581765,0.426001925,0.701420545,-0.39947416,0.348341485,-0.7688546350000001
275,1747533034930,-0.16937573,0.43405581,0.7270465450000001,-0.52251221,0.4000068,-0.78483361
276,1747533034940,-0.17730759,0.4723728,0.813320775,-0.5787049200000001,0.44448159,-0.8279768249999999
277,1747533034950,-0.23539322,0.5130083400000001,0.9673209,-0.3949468,0.468183725,-0.83809683
278,1747533034960,-0.30238694,0.5303363999999999,1.0654319499999998,-0.0950748515,0.42690472,-0.76219673
279,1747533034970,-0.320203125,0.50629676,1.04066015,0.1065264485,0.31345406,-0.62424497
280,1747533034980,-0.31654227,0.48689422,1.0196712,0.1949434,0.24554345,-0.54807854
281,1747533034990,-0.332528,0.41855819,0.8931275000000001,0.27963191,-0.01731055,-0.316916175
282,1747533035000,-0.36864847,0.37572614,0.74632708,0.1198422435,-0.169909685,-0.1302285759999999
283,1747533035010,-0.384268135,0.3594963249999999,0.65492761,-0.1400822765,-0.1853560149999999,-0.0045273737499999
284,1747533035020,-0.34607318,0.371211065,0.69446488,-0.328900405,-0.074834825,-0.02130528875
285,1747533035030,-0.32069123,0.37804466,0.7299752,-0.41172472,-0.01438107,-0.048469532
286,1747533035040,-0.248938395,0.4255138149999999,0.95182327,-0.411192075,0.111852775,-0.183758115
287,1747533035050,-0.292502605,0.474813385,1.0888614,-0.1315601625,0.101999075,-0.132625423
288,1747533035060,-0.3704789,0.48396555,1.1270564,0.30040458,-0.023435818,0.14594123
289,1747533035070,-0.372065275,0.46895601,1.082882,0.36991309,-0.066312714,0.253532945
290,1747533035080,-0.301654755,0.403182565,0.9236346,0.442351075,-0.10785803,0.45060688
291,1747533035090,-0.22965786,0.35241866,0.8085616,0.44528055,-0.10652645,0.5400891
292,1747533035100,-0.18133453,0.3481476599999999,0.7449847350000001,0.244744512,-0.0162452849999999,0.36858151
293,1747533035110,-0.1615658999999999,0.375238015,0.697149535,-0.047936898,0.1163801399999999,0.11158645
294,1747533035120,-0.24539956,0.42051065,0.75438093,-0.1818939,0.188285495,-0.0039947414999999
295,1747533035130,-0.35522531,0.422463105,0.83858068,-0.22184132,0.22477081,0.0071905345
296,1747533035140,-0.423683375,0.3907356549999999,0.9111877,-0.158990718,0.1502022949999999,0.252733986
297,1747533035150,-0.4208767249999999,0.3524186649999999,0.9180213,-0.0700411365,0.012516858,0.56459014
298,1747533035160,-0.37084499,0.30946458,0.858471335,-0.04181163,-0.109189607,0.76113142
299,1747533035170,-0.221481955,0.27358817,0.7642652350000001,-0.0828243115,-0.215716055,0.90121372
300,1747533035180,-0.0626006835,0.2800556899999999,0.7366868,-0.27324033,-0.1432780725,0.817057845
301,1747533035190,-0.019768637,0.2979939,0.7668279,-0.42237735,-0.029827405,0.68176925
302,1747533035200,-0.047469132,0.22013964,0.95035895,-0.388022575,0.1169127725,0.50839746
303,1747533035210,-0.077122085,0.18963248,1.022844,-0.3536678,0.26365295,0.33502567
304,1747533035220,-0.244423335,0.07712209,1.0535952,-0.17230653,0.343814105,0.5052017
305,1747533035230,-0.1283741129999999,-0.048933475,1.0200373,-0.17603495,0.1845570715,0.80853575
306,1747533035240,0.014643434,-0.12886222,1.0033194,-0.22370553,0.041545313,0.9997507
307,1747533035250,0.205984315,-0.22233616,1.00100078,-0.4479437149999999,-0.2548645149999999,1.066596
308,1747533035260,0.30104462,-0.2561381,1.0123495,-0.637294475,-0.392017315,1.01839282
309,1747533035270,0.35839807,-0.247596085,1.0366332,-0.8178567999999999,-0.45699845,0.90440952
310,1747533035280,0.3756041,-0.23478307,1.0513986,-0.892159,-0.4628574,0.8383631
311,1747533035290,0.354737215,-0.151559555,1.1947822,-1.01013698,-0.31292143,0.656202875
312,1747533035300,0.368160365,-0.125689488,1.24640035,-0.94009588,-0.2346245,0.581101745
313,1747533035310,0.37365165,-0.111046048,1.2658029000000002,-0.8343684,-0.145142285,0.49268481
314,1747533035320,0.45211605,-0.0821252614999999,1.245058,-0.720917715,-0.0545948049999999,0.37177729
315,1747533035330,0.5217944,-0.061014313,1.2222387,-0.66525763,-0.00958738,0.2977414
316,1747533035340,0.4693220549999999,-0.0364865575,1.2055208,-0.5110606150000001,-0.046871637,-0.324905655
317,1747533035350,0.371699185,-0.016107778,1.2033242999999998,-0.49028795,-0.083356945,-0.499609025
318,1747533035360,0.233196715,0.0161077769999999,1.2243132,-0.44714475,-0.0724379825,-0.6207828550000001
319,1747533035370,0.134841635,0.045760731,1.2484749000000002,-0.364054135,-0.007723166,-0.712928235
320,1747533035380,0.1115341629999999,0.06296677,1.25811515,-0.125701215,0.2114549965,-0.899882115
321,1747533035390,0.0771220905,0.0704105174999999,1.23614995,0.164317045,0.4761732,-1.13184345
322,1747533035400,0.028798756,0.0560111385,1.17147475,0.353135165,0.6231797,-1.28897
323,1747533035410,0.002928687,0.044174362,1.1329137,0.43782368,0.680704,-1.3582122
324,1747533035420,-0.102259987,0.0052472308,0.91594683,0.459395285,0.63622923,-1.4615428499999998
325,1747533035430,-0.131912942,0.0063454884,0.87714173,0.358195165,0.584031255,-1.45967865
326,1747533035440,-0.158027075,0.0032947729,0.8623763,0.2479402949999999,0.5616606749999999,-1.44875965
327,1747533035450,-0.175965285,0.00756577515,0.8634746,0.14860439,0.56512278,-1.43304695
328,1747533035460,-0.187069885,0.03367990125,0.89776463,0.05086637775,0.58509651,-1.42399225
329,1747533035470,-0.201225195,0.0679699444999999,0.94572183,0.00106526445,0.60480388,-1.41174175
330,1747533035480,-0.21586863,0.102870128,0.97208,0.0258326627,0.59974385,-1.3827133
331,1747533035490,-0.232098445,0.13838045,0.98586925,0.099069596,0.548611185,-1.3273195
332,1747533035500,-0.24686391,0.155342435,0.98513705,0.1957423449999999,0.437557385,-1.2482236
333,1747533035510,-0.2506468,0.15766099,0.9803779,0.24181503,0.3685815,-1.206412
334,1747533035520,-0.21074343,0.163030245,0.929980115,0.373375195,0.0335558289999999,-1.0530139
335,1747533035530,-0.234416995,0.14533609,0.90813699,0.382696255,-0.060986391,-1.01865915
336,1747533035540,-0.254551705,0.117025448,0.896056175,0.375239415,-0.101200123,-0.9851033
337,1747533035550,-0.2688290399999999,0.088836838,0.897642585,0.34940675,-0.09640643,-0.95634115
338,1747533035560,-0.31617615,0.0828574374999999,0.87604356,0.2498045199999999,-0.01091896,-0.8972189749999999
339,1747533035570,-0.36169284,0.0983550725,0.8490751750000001,0.125701208,0.1054611819999999,-0.838096795
340,1747533035580,-0.38231568,0.125445425,0.8490751750000001,0.053795854,0.165648625,-0.819987295
341,1747533035590,-0.398911565,0.163274295,0.861278075,0.019707392,0.201867615,-0.807470425
342,1747533035600,-0.4178260099999999,0.2164787799999999,0.875433375,0.025300031,0.21678132,-0.788562
343,1747533035610,-0.43783872,0.250158685,0.877385825,0.068176925,0.1784318,-0.7174556
344,1747533035620,-0.450529685,0.24625377,0.86774555,0.11424961,0.11025487,-0.6151902
345,1747533035630,-0.45870559,0.220261675,0.8623763,0.14088122,0.044208473,-0.516120615
346,1747533035640,-0.42173092,0.198784635,0.8545664799999999,0.157392825,-0.0109189605,-0.39760995
347,1747533035650,-0.3695026649999999,0.202811575,0.845658365,0.14061491,-0.0085221155,-0.329699355
348,1747533035660,-0.359984445,0.21196372,0.853590235,0.11851067,0.027963193,-0.345944645
349,1747533035670,-0.37706846,0.21013329,0.8717725000000001,0.136353855,0.041012683,-0.371244675
350,1747533035680,-0.41257879,0.203299685,0.883365175,0.18988339,0.024234767,-0.348874115
351,1747533035690,-0.43466598,0.2020794,0.88373125,0.22370553,0.009054748,-0.32277513
352,1747533035700,-0.420266585,0.222702245,0.8195442,0.31105723,-0.12037488,-0.11451592615
353,1747533035710,-0.3626690649999999,0.23514916,0.7609705,0.300670895,-0.22530343,0.01491370285
354,1747533035720,-0.3095866,0.25333143,0.72948713,0.2186455299999999,-0.2809635,0.01438107065
355,1747533035730,-0.28286234,0.26504618,0.71728426,0.16405073,-0.304133,-0.0063915867
356,1747533035740,-0.27346614,0.29433302,0.73229375,0.0567253305,-0.190948655,-0.14887071
357,1747533035750,-0.34460883,0.29811592,0.757309625,0.0274305605,-0.033289518,-0.2793656
358,1747533035760,-0.454068515,0.2844487249999999,0.7700006100000001,0.0186421285,0.0905474769999999,-0.33635725
359,1747533035770,-0.527041615,0.274808465,0.7729293100000001,0.0037284255,0.10759171,-0.274571915
360,1747533035780,-0.5646264249999999,0.27358818,0.7885489750000001,-0.018908444,0.064714816,-0.1603223
361,1747533035790,-0.5736565549999999,0.26724269,0.81612745,-0.035420042,-0.0338221465,-0.016245285
362,1747533035800,-0.53094655,0.26907312,0.857007025,-0.0029294769999999,-0.2575276825,0.1984055099999999
363,1747533035810,-0.4650511,0.28737742,0.88531765,0.08042747,-0.50600064,0.4016047
364,1747533035820,-0.429906845,0.31141706,0.888368375,0.098536965,-0.53795857,0.4189152499999999
365,1747533035830,-0.41880223,0.32532832,0.8871481,0.11664646,-0.5699165,0.4362258
366,1747533035840,-0.456020985,0.37792264,0.8551766000000001,0.1768339,-0.56965013,0.48389639
367,1747533035850,-0.47652179,0.39512868,0.80380255,0.231162385,-0.483630035,0.57790597
368,1747533035860,-0.454556625,0.3958608649999999,0.76255685,0.262587675,-0.38589205,0.6727145
369,1747533035870,-0.40550111,0.3954947749999999,0.750842115,0.238619225,-0.355265695,0.6972156
370,1747533035880,-0.37926495,0.39342028,0.74437463,0.21571605,-0.35153726,0.6988135
371,1747533035890,-0.321911515,0.3747498999999999,0.748889655,0.10120012,-0.3552657,0.6844323999999999
372,1747533035900,-0.32557238,0.38121742,0.76792613,-0.04687164,-0.408528925,0.6977481999999999
373,1747533035910,-0.35742184,0.387929005,0.8019721200000001,-0.190416025,-0.4934837549999999,0.73449985
374,1747533035920,-0.37633628,0.38756293,0.82125264,-0.2660498,-0.580302805,0.776844125
375,1747533035930,-0.4080637,0.37926495,0.86152214,-0.29987195,-0.63223445,0.79894835
376,1747533035940,-0.48701622,0.42734425,0.936081575,-0.345412,-0.739293545,0.8756474000000001
377,1747533035950,-0.5261874,0.45687518,0.9825745,-0.34408042,-0.76059884,0.908138
378,1747533035960,-0.60892283,0.465173115,1.0208915,-0.278832975,-0.70600402,1.02078965
379,1747533035970,-0.701298505,0.479938585,1.0617711,-0.17390443,-0.6101302150000001,1.2205267000000002
380,1747533035980,-0.672011645,0.50056143,1.03211815,-0.0820253675,-0.525708015,1.45595015
381,1747533035990,-0.63308454,0.51471674,0.9999026,-0.0215716055,-0.470580575,1.6516925
382,1747533036000,-0.5399766500000001,0.52997032,0.9437694,-0.011451593,-0.455666875,1.72466315
383,1747533036010,-0.490677085,0.54278335,0.91460455,-0.01438107,-0.4577974,1.7622137000000002
384,1747533036020,-0.46761367,0.54912883,0.9017916,-0.01917476,-0.4628574,1.7741979
385,1747533036030,-0.45345837,0.5954997,0.84858704,-0.04261058,-0.49321744,1.7992316
386,1747533036040,-0.44052333,0.6428468,0.82076454,-0.129962265,-0.472977415,1.92067185
387,1747533036050,-0.433201625,0.6854348,0.8083176000000001,-0.14221281,-0.378967825,1.92599815
388,1747533036060,-0.44772301,0.711792975,0.78525418,-0.1547296699999999,-0.259125575,1.91028545
389,1747533036070,-0.45907166,0.748645605,0.7409578,-0.149669655,-0.007723165,1.84051065
390,1747533036080,-0.4473569349999999,0.76475338,0.70971847,-0.144609645,0.2460761,1.7235979
391,1747533036090,-0.4139211,0.7607264300000001,0.70813209,-0.17257284,0.33342778,1.5861788
392,1747533036100,-0.39415246,0.7746377,0.70825412,-0.22450448,0.30200246,1.40535015
393,1747533036110,-0.3995217,0.8266219,0.70923036,-0.28336033,0.083090626,1.171791
394,1747533036120,-0.39964373,0.87677565,0.73619868,-0.266316105,-0.073236932,1.0452908
395,1747533036130,-0.390979705,0.944989675,0.77073278,-0.21092236,-0.296942475,0.8482168
396,1747533036140,-0.370967015,0.973056275,0.78586433,-0.11797804,-0.406664715,0.695883975
397,1747533036150,-0.362058925,0.98916405,0.77488175,-0.0106526464999999,-0.4239752599999999,0.519582725
398,1747533036160,-0.370722965,0.99038435,0.7182605,0.0833569435,-0.1845570724999999,0.179230735
399,1747533036170,-0.38194959,0.980499985,0.666520365,0.1118527675,0.2082592025,-0.2346244999999999
400,1747533036180,-0.38402407,0.966710715,0.659198615,0.0878843175,0.5091964,-0.527838535
401,1747533036190,-0.38268176,0.94120675,0.6822620500000001,0.0727043,0.69854715,-0.7619304
402,1747533036200,-0.38268176,0.89996107,0.7164300800000001,0.074568515,0.7816377999999999,-0.96273275
403,1747533036210,-0.38768494,0.8478548699999999,0.74974388,0.092678008,0.7864315,-1.12811505
404,1747533036220,-0.426123945,0.8005077700000001,0.769634515,0.099069593,0.712661925,-1.2921658
405,1747533036230,-0.472860915,0.788670975,0.774149565,0.077764305,0.63969129,-1.4066817
406,1747533036240,-0.4940939,0.7998976250000001,0.784277975,0.0529969069999999,0.63063654,-1.44583015
407,1747533036250,-0.49897503,0.81027008,0.809903975,0.050600062,0.64555025,-1.47752185
408,1747533036260,-0.51361848,0.83748248,0.86872178,0.1717738899999999,0.741424055,-1.5363777
409,1747533036270,-0.54717635,0.852614015,0.922658415,0.3797667799999999,0.88230528,-1.5819177
410,1747533036280,-0.57963595,0.833943635,0.940596585,0.57870491,0.99415805,-1.57632505
411,1747533036290,-0.61026515,0.80343649,0.935105325,0.785366205,1.08364025,-1.54223655
412,1747533036300,-0.5970860499999999,0.7197248350000001,0.8570070249999999,0.970988525,1.1291803,-1.47246175
413,1747533036310,-0.522770615,0.613926015,0.7586519700000001,1.11533185,1.0460897,-1.3401027
414,1747533036320,-0.442719845,0.54595607,0.6920243500000001,1.14302875,0.86552735,-1.22052675
415,1747533036330,-0.392444045,0.5014156200000001,0.61343788,1.01919178,0.6591323499999999,-1.1456919
416,1747533036340,-0.3638893549999999,0.47652178,0.53655985,0.8186557299999999,0.46418898,-1.0663297
417,1747533036350,-0.35119838,0.46712556,0.5042223,0.7094661,0.38775626,-1.0301107
418,1747533036360,-0.317030375,0.451749965,0.485917985,0.1081243349999999,0.25406558,-0.983771725
419,1747533036370,-0.293478845,0.475179465,0.554009975,-0.361657295,0.2793656049999999,-1.005875925
420,1747533036380,-0.293112755,0.52545524,0.67957741,-0.58562913,0.39388153,-1.0660634
421,1747533036390,-0.314589785,0.5736565499999999,0.819544235,-0.6652576299999999,0.5456817150000001,-1.1315772000000002
422,1747533036400,-0.37072295,0.59830635,0.94706415,-0.43888895,0.728108255,-1.1350392500000002
423,1747533036410,-0.4361302999999999,0.5858594,0.976595085,-0.091879064,0.82451467,-1.0418286
424,1747533036420,-0.4663934,0.5496169,0.902767785,0.118776986,0.7789746,-0.896153725
425,1747533036430,-0.4574853,0.498120835,0.81917817,0.253532935,0.6578008,-0.7403588
426,1747533036440,-0.41331094,0.431859285,0.74608299,0.300670895,0.4436826499999999,-0.5869607
427,1747533036450,-0.30763416,0.36035052,0.652120945,0.164583366,0.0021305199999999,-0.40986049
428,1747533036460,-0.190486685,0.34936795,0.6163665949999999,-0.088416944,-0.3632551699999999,-0.33023198
429,1747533036470,-0.16766733,0.39952173,0.67725887,-0.30173615,-0.410126805,-0.408262595
430,1747533036480,-0.2306340899999999,0.43185932,0.7576757249999999,-0.44661212,-0.333694085,-0.5179848300000001
431,1747533036490,-0.3886611749999999,0.42563583,0.8759214550000001,-0.39281626,-0.0231694999999999,-0.58935755
432,1747533036500,-0.5278958499999999,0.41123645,0.94962678,-0.22077605,0.29774142,-0.57391122
433,1747533036510,-0.5576707999999999,0.40989414,0.94779638,-0.0916127415,0.4066647,-0.485760585
434,1747533036520,-0.5504711,0.40049795,0.942061005,0.0101200115,0.392017315,-0.357928865
435,1747533036530,-0.5405868,0.3912238,0.93840015,0.054328486,0.34567833,-0.283893
436,1747533036540,-0.537170025,0.303363155,0.8207644999999999,0.12703279,0.070041134,0.0042610574999999
437,1747533036550,-0.54461375,0.22489876,0.7050814,0.082824313,-0.205329721,0.275370865
438,1747533036560,-0.5376581250000001,0.18084642,0.6261289,-0.072171667,-0.3882889,0.5083974600000001
439,1747533036570,-0.50702895,0.17120615,0.5953777,-0.269511905,-0.339819375,0.573112285
440,1747533036580,-0.4850638,0.197686365,0.60550605,-0.44821,-0.218379215,0.54408385
441,1747533036590,-0.4807928,0.23417294,0.66346962,-0.5573996,-0.076166405,0.46951532
442,1747533036600,-0.52118425,0.2624835749999999,0.8139308999999999,-0.4484763349999999,0.046072688,0.40266997
443,1747533036610,-0.57402265,0.270903545,0.93278683,-0.19920446,0.0250337145,0.456199515
444,1747533036620,-0.57573107,0.25674823,0.952311435,0.02370214,-0.1531317635,0.654072365
445,1747533036630,-0.53997667,0.239298125,0.916556985,0.21704764,-0.368048865,0.91293165
446,1747533036640,-0.42356135,0.20903503,0.8072193249999999,0.326237245,-0.527305905,1.20934145
447,1747533036650,-0.302142865,0.1509494075,0.705203425,0.31585092,-0.54221961,1.37632165
448,1747533036660,-0.21635675,0.0937179775,0.66603225,0.22210765,-0.39734365,1.33983635
449,1747533036670,-0.13764829,0.019036465,0.680187565,0.0865527415,-0.196807615,1.2149341
450,1747533036680,-0.14228538,-0.10897156,0.746083015,-0.0817590485,-0.03435478,1.08550455
451,1747533036690,-0.210011265,-0.25491779,0.86481685,-0.25379925,0.0543284849999999,1.0564761
452,1747533036700,-0.22977989,-0.40220635,1.0687267,-0.466852125,-0.050600065,1.2903016
453,1747533036710,-0.17376875,-0.49165335,1.2559186,-0.651142895,-0.2948119449999999,1.63704515
454,1747533036720,-0.0152535799999999,-0.45980385,1.41602015,-0.72011878,-0.70307453,2.03838355
455,1747533036730,0.171816305,-0.385732465,1.5400013,-0.69535138,-1.05727492,2.3760724
456,1747533036740,0.3075121349999999,-0.314467775,1.55488875,-0.586428105,-1.1291803,2.46475565
457,1747533036750,0.456875185,-0.2421047949999999,1.5165717,-0.433296335,-1.10947295,2.43759135
458,1747533036760,0.63174221,-0.18231076,1.4448189,-0.26578349,-1.025050715,2.2674153
459,1747533036770,0.8035585,-0.107507218,1.2946017,-0.0990695975,-0.83223784,1.7113473
460,1747533036780,0.85175979,-0.037096703,1.1291309,-0.0266316125,-0.625576555,1.038899175
461,1747533036790,0.766217715,-0.001220286,1.03614505,-0.0913464299999999,-0.45193845,0.532898545
462,1747533036800,0.63235233,0.026358183,0.99014025,-0.19201392,-0.250869775,0.0860201029999999
463,1747533036810,0.503856195,0.058207654,0.9947774,-0.265783475,-0.0513990079999999,-0.262055067
464,1747533036820,0.33679901,0.09872116,1.0771467,-0.242347655,0.210922367,-0.70946615
465,1747533036830,0.141919295,0.119343995,1.1630548,-0.11504856,0.407463655,-1.06180235
466,1747533036840,0.0622346,0.11665936,1.1805049,-0.03781689,0.44421527,-1.133974
467,1747533036850,-0.05662128,0.11519502,1.1653733,0.13901702,0.4463458,-1.1712582
468,1747533036860,-0.169985875,0.1171474825,1.0832481,0.34115095,0.389354165,-1.1124024
469,1747533036870,-0.209889235,0.095304355,0.98977417,0.4359595,0.38083204,-1.03943177
470,1747533036880,-0.21477037,0.07199689,0.89507994,0.4652542699999999,0.42690472,-1.00560962
471,1747533036890,-0.20549619,0.0654073424999999,0.84992932,0.42237737,0.48016794,-1.0418286
472,1747533036900,-0.218675285,0.0650412549999999,0.83345543,0.35606465,0.51638692,-1.0908308
473,1747533036910,-0.262117485,0.0669937175,0.840045005,0.284691925,0.5227785,-1.1132014
474,1747533036920,-0.31495589,0.0688241474999999,0.895568075,0.206661305,0.4399542,-1.02052337
475,1747533036930,-0.32825701,0.080660922,0.9652464,0.15632756,0.30626353,-0.86685897
476,1747533036940,-0.3128814,0.14106509,1.0006347,0.16058862,0.199470775,-0.73955987
477,1747533036950,-0.3000683899999999,0.16107778,1.0044176,0.20905815,0.094808538,-0.6125270700000001
478,1747533036960,-0.26236155,0.19097479,0.9829406,0.30093721,0.0199737091,-0.53103435
479,1747533036970,-0.234539025,0.200370995,0.94352535,0.364586765,0.0146473861,-0.536627
480,1747533036980,-0.23026801,0.19585594,0.9213161,0.37071204,0.064182185,-0.5917543999999999
481,1747533036990,-0.234783075,0.191829,0.9148486,0.35420044,0.13768543,-0.64901235
482,1747533037000,-0.25967692,0.192561165,0.929736075,0.325438295,0.202133925,-0.6828345
483,1747533037010,-0.32349789,0.20281156,0.964392155,0.28842035,0.255130835,-0.6218481
484,1747533037020,-0.355469385,0.208546905,1.00039063,0.2775013899999999,0.252467675,-0.501473235
485,1747533037030,-0.3319178499999999,0.20049303,1.0141799,0.30439932,0.175768635,-0.41332261
486,1747533037040,-0.32545033,0.214648355,0.99258085,0.332628825,0.08309063,-0.345412
487,1747533037050,-0.335456685,0.25345345,0.955118075,0.350738325,0.0111852775,-0.288952975
488,1747533037060,-0.3619369,0.273954255,0.92607525,0.350738325,0.0045273735,-0.23116238
489,1747533037070,-0.3886611599999999,0.26724269,0.913018175,0.33981936,0.061252704,-0.177899165
490,1747533037080,-0.3897594199999999,0.2593108349999999,0.90728285,0.3339604,0.132359113,-0.143544385
491,1747533037090,-0.373895705,0.252721285,0.89410375,0.331563565,0.184557075,-0.122505415
492,1747533037100,-0.36291313,0.24723,0.8859278,0.330232,0.20240025,-0.11611383
493,1747533037110,-0.313369515,0.245765655,0.81966625,0.256462405,0.14221281,-0.110254875
494,1747533037120,-0.31495588,0.297505775,0.7750038,0.12357068,0.128897,-0.12197278
495,1747533037130,-0.31825066,0.3275248,0.750232,0.0809601,0.15286545,-0.139283325
496,1747533037140,-0.28188613,0.35620154,0.73278188,0.0005326324999999,0.1970739249999999,-0.19041602
497,1747533037150,-0.264558065,0.360838635,0.7784205500000001,-0.0612527075,0.22956449,-0.266049795
498,1747533037160,-0.270415425,0.34936795,0.84358385,-0.082824315,0.2479403,-0.35473306
499,1747533037170,-0.283594515,0.3295993149999999,0.88653795,-0.0727043,0.242347665,-0.38695731
500,1747533037180,-0.300068375,0.3321619249999999,0.8945917999999999,-0.07536746,0.21118868,-0.33742252
501,1747533037190,-0.3001903999999999,0.337165085,0.88031443,-0.10972224,0.181893905,-0.2764361349999999
502,1747533037200,-0.255283885,0.3115390799999999,0.8873921650000001,-0.20532972,0.155794925,-0.2585929449999999
503,1747533037210,-0.22624107,0.303241145,0.895568105,-0.30892669,0.14247912,-0.2945456199999999
504,1747533037220,-0.2573583499999999,0.336921035,0.88592782,-0.35686359,0.16405073,-0.348075165
505,1747533037230,-0.3087324,0.3593743,0.8832431999999999,-0.369913075,0.2034655149999999,-0.389886795
506,1747533037240,-0.3355787,0.36266908,0.8849516,-0.3669836,0.22423817,-0.40586576
507,1747533037250,-0.39403042,0.340459855,0.8958121299999999,-0.27137612,0.204530775,-0.3800330899999999
508,1747533037260,-0.41294485,0.325694385,0.90349995,-0.196274975,0.1158475099999999,-0.31664986
509,1747533037270,-0.4147752799999999,0.32496222,0.9025237,-0.18801918,0.0151800199999999,-0.259391895
510,1747533037280,-0.430516985,0.32972134,0.8917852,-0.21891185,-0.094009585,-0.19467708
511,1747533037290,-0.44833317,0.33594479,0.8777519,-0.2748382299999999,-0.1866875949999999,-0.1315601599999999
512,1747533037300,-0.47286093,0.339971735,0.8715284,-0.365119395,-0.2034655149999999,-0.056725331
513,1747533037310,-0.49616838,0.3526627249999999,0.871772475,-0.44581318,-0.129429633,0.0085221155
514,1747533037320,-0.4865281,0.36694008,0.881046655,-0.48283112,-0.0149137005,0.037284255
515,1747533037330,-0.4549227,0.376580325,0.90484223,-0.492951135,0.1025317024999999,0.0471379515
516,1747533037340,-0.4169718,0.4023283549999999,0.9357155,-0.4159857799999999,0.1853560149999999,0.051931642
517,1747533037350,-0.40659937,0.43442193,0.94254905,-0.22796659,0.15978967,0.08948222
518,1747533037360,-0.419046295,0.419900515,0.933274895,-0.15819177,0.112119085,0.12436963
519,1747533037370,-0.44760099,0.382437715,0.90044922,-0.030360037,0.00612527,0.2183792199999999
520,1747533037380,-0.47334903,0.345341,0.8328453499999999,0.050866378,-0.10785803,0.34674358
521,1747533037390,-0.443452025,0.316420215,0.73009722,-0.01864213,-0.23009713,0.49561428
522,1747533037400,-0.34460884,0.2962855,0.6884855,-0.27803403,-0.31638354,0.54435015
523,1747533037410,-0.33753118,0.3037292499999999,0.7175283,-0.369646765,-0.29534457,0.492152185
524,1747533037420,-0.343754635,0.33692104,0.78134925,-0.4974785,-0.242081345,0.390685735
525,1747533037430,-0.376946425,0.377678605,0.8544444,-0.52490905,-0.1731054699999999,0.30972564
526,1747533037440,-0.4194124,0.401352155,0.917411175,-0.47564056,-0.11504856,0.272175075
527,1747533037450,-0.46871196,0.4069654649999999,0.932664775,-0.351803585,-0.126233835,0.34408042
528,1747533037460,-0.47639975,0.38744089,0.91130975,-0.269245595,-0.1992044499999999,0.48869008
529,1747533037470,-0.442719865,0.380973365,0.8749452,-0.309725645,-0.28415929,0.610929195
530,1747533037480,-0.434788005,0.41245675,0.83504185,-0.460726875,-0.382696255,0.766724125
531,1747533037490,-0.44760099,0.4362523499999999,0.81991032,-0.5981460000000001,-0.448742665,0.920654815
532,1747533037500,-0.45028563,0.4529702599999999,0.82125267,-0.6431534350000001,-0.466585835,1.026382315
533,1747533037510,-0.441621605,0.49311766,0.82198485,-0.673513485,-0.488423735,1.1150656
534,1747533037520,-0.437472635,0.5422952,0.82881845,-0.6857640300000001,-0.5265069499999999,1.181112
535,1747533037530,-0.483843525,0.623566285,0.84895317,-0.60693443,-0.5957491500000001,1.28124685
536,1747533037540,-0.5392445,0.68567887,0.8604238200000001,-0.44394895,-0.6375607750000001,1.3994912
537,1747533037550,-0.546810275,0.69214636,0.83504185,-0.2777677,-0.641022875,1.485245
538,1747533037560,-0.52533323,0.693610695,0.77012265,-0.11664646,-0.6977481999999999,1.5464977
539,1747533037570,-0.466393395,0.67433017,0.665422075,0.0015978965,-0.8617989500000001,1.5662051
540,1747533037580,-0.436130315,0.6556598,0.574510755,0.01997370815,-1.06313395,1.5542209
541,1747533037590,-0.4783522,0.66395775,0.53436333,-0.03781688835,-1.2128036,1.5398398
542,1747533037600,-0.55535227,0.6848246499999999,0.51178805,-0.109988555,-1.29456265,1.53664395
543,1747533037610,-0.64443317,0.7082541499999999,0.498853035,-0.168844415,-1.26979525,1.54916085
544,1747533037620,-0.71423355,0.737541,0.511421985,-0.19441076,-1.05381287,1.5334482500000002
545,1747533037630,-0.7165521,0.75950615,0.5465662250000001,-0.17630126,-0.76752305,1.45009125
546,1747533037640,-0.66517805,0.7732954000000001,0.5908625750000001,-0.1081243375,-0.54221963,1.2775184
547,1747533037650,-0.624420465,0.7997756,0.6271051,-0.013315806,-0.36591836,1.06313395
548,1747533037660,-0.603187465,0.8240593,0.65663607,0.0897485315,-0.267115075,0.872185275
549,1747533037670,-0.57914785,0.8214967,0.68018757,0.25885926,-0.1989381399999999,0.671382925
550,1747533037680,-0.53265495,0.797945175,0.6703032,0.39601205,-0.157925455,0.524110115
551,1747533037690,-0.45931573,0.77500379,0.63162013,0.39760995,-0.13582122,0.42876895
552,1747533037700,-0.41733786,0.76511943,0.60819066,0.37550572,-0.12197278,0.37124467
553,1747533037710,-0.26626645,0.7780545000000001,0.61453615,0.1283643675,-0.04021373225,0.081492735
554,1747533037720,-0.20854692,0.8407772,0.7226535000000001,-0.1736380975,0.1225054127499999,-0.372043615
555,1747533037730,-0.2430810199999999,0.90398802,0.8681116,-0.35846148,0.3091930149999999,-0.8431568
556,1747533037740,-0.3122712399999999,0.94633202,1.0122274,-0.265517165,0.433296325,-1.0631339
557,1747533037750,-0.4288086,0.9706156,1.1709867,-0.054328485,0.5289037999999999,-1.1867046
558,1747533037760,-0.4537024349999999,0.94730817,1.1506079,0.21864554,0.5584648999999999,-1.22532045
559,1747533037770,-0.471884685,0.8965442699999999,1.09325445,0.56245965,0.569383875,-1.21573305
560,1747533037780,-0.45943776,0.8383366,1.0196712,0.793355715,0.584031255,-1.22212465
561,1747533037790,-0.45028563,0.780128975,0.958168735,0.818123115,0.596281795,-1.28470895
562,1747533037800,-0.44686884,0.75267255,0.93327487,0.8127968,0.60507023,-1.3289174
563,1747533037810,-0.497510685,0.69287852,0.8637186,0.7041398,0.609597585,-1.4034859000000002
564,1747533037820,-0.5294822,0.6645679,0.8446821,0.6186522999999999,0.59068915,-1.3904364
565,1747533037830,-0.5288720499999999,0.6533412700000001,0.8434618,0.582167025,0.56059543,-1.3387711
566,1747533037840,-0.52252655,0.64589752,0.83967895,0.551540675,0.54142068,-1.2817794500000002
567,1747533037850,-0.51093385,0.630643915,0.82649985,0.5091964,0.5273059,-1.2218583
568,1747533037860,-0.4580954499999999,0.6083126649999999,0.8118564,0.3779025649999999,0.5563343350000001,-1.1430287
569,1747533037870,-0.38243769,0.59501155,0.81551727,0.2234392149999999,0.611461785,-1.09402655
570,1747533037880,-0.3335042299999999,0.59379125,0.83077082,0.133690685,0.640223915,-1.09189605
571,1747533037890,-0.300190415,0.59891645,0.8573731,0.066046395,0.634631265,-1.09242865
572,1747533037900,-0.275540635,0.607458465,0.9024017,0.0231695015,0.583232275,-1.09402655
573,1747533037910,-0.28615712,0.618441065,0.96414815,0.0178431795,0.47004795,-1.0631339
574,1747533037920,-0.32984336,0.61734282,0.9894081,0.041012681,0.3765709849999999,-0.984038025
575,1747533037930,-0.36828238,0.59427942,0.94352535,0.054861118,0.364320445,-0.8791095
576,1747533037940,-0.3824377049999999,0.55986735,0.8679896,0.031957933,0.395213115,-0.774979875
577,1747533037950,-0.346073175,0.50959155,0.7623128,-0.125168582,0.52277853,-0.720651375
578,1747533037960,-0.3099527,0.4790844,0.6980037,-0.30972564,0.6942861,-0.765658825
579,1747533037970,-0.292990725,0.4942159299999999,0.7831797300000001,-0.36964675,0.801078875,-0.87351685
580,1747533037980,-0.36596384,0.4942159299999999,0.8643287749999999,-0.34061831,0.847684205,-0.93104115
581,1747533037990,-0.47505742,0.48713828,0.914604545,-0.2300971299999999,0.825846255,-0.86632635
582,1747533038000,-0.55120328,0.4455265,0.86737947,-0.03408846,0.63170181,-0.56272596
583,1747533038010,-0.5490068,0.38780696,0.74620505,0.0833569475,0.382163635,-0.22876554
584,1747533038020,-0.5155709749999999,0.33887349,0.6324743500000001,0.0109189625,0.1970739325,-0.060720074
585,1747533038030,-0.497144625,0.29091623,0.5444917,-0.14594123,0.0503337453,0.040213734
586,1747533038040,-0.460902125,0.326792635,0.604041675,-0.323307755,0.0420779478,0.049801114
587,1747533038050,-0.448089105,0.38451217,0.7581638399999999,-0.38722363,0.18508971,-0.029827404
588,1747533038060,-0.457729355,0.38731885,0.8903208650000001,-0.260457165,0.302535125,-0.07590009
589,1747533038070,-0.4372285449999999,0.39171189,1.00246515,-0.0327568779999999,0.253799265,-0.017576862
590,1747533038080,-0.425879895,0.389759425,1.0610388999999998,0.206394992,0.0790958834999999,0.129962263
591,1747533038090,-0.366696025,0.33740916,1.02064745,0.4479437149999999,-0.2932140315,0.483630075
592,1747533038100,-0.2607751749999999,0.2633377799999999,0.9203399,0.56139438,-0.590689115,0.7616641
593,1747533038110,-0.196100005,0.215258495,0.83138102,0.49481534,-0.60107544,0.75926725
594,1747533038120,-0.1732806499999999,0.185239455,0.7562113699999999,0.35579832,-0.497478485,0.668986085
595,1747533038130,-0.187191915,0.16717922,0.7098405,0.1784317899999999,-0.32650355,0.545948035
596,1747533038140,-0.257480395,0.15033927,0.69348868,-0.0860201,-0.071372715,0.425306835
597,1747533038150,-0.33570074,0.1441158049999999,0.69531913,-0.3281014399999999,0.1091896099999999,0.376038345
598,1747533038160,-0.36083864,0.13655003,0.7059356,-0.45113948,0.1145159325,0.42184472
599,1747533038170,-0.338751465,0.10982576,0.732903915,-0.5475459,0.0340884625,0.50200586
600,1747533038180,-0.28713335,0.078220345,0.79001334,-0.6005427999999999,-0.096939065,0.5555354
601,1747533038190,-0.259432835,0.0278225241,0.85346821,-0.5976133299999999,-0.22077606,0.58562915
602,1747533038200,-0.272367875,-0.0729731159,0.895323985,-0.55766593,-0.34461306,0.71639035
603,1747533038210,-0.297383755,-0.17926005,0.9067947,-0.54834487,-0.418915255,0.91133375
604,1747533038220,-0.29042813,-0.2668766,0.9070388,-0.60293967,-0.434095265,1.0889666
605,1747533038230,-0.25430766,-0.35986241,0.91887555,-0.6926882,-0.47137952,1.2820458
606,1747533038240,-0.135085687,-0.45297025,0.9493827,-0.9193232,-0.55899751,1.55848195
607,1747533038250,0.021843128,-0.49104319,0.99441125,-1.1699267,-0.62211443,1.76354535
608,1747533038260,0.1247132599999999,-0.473227,1.0526189,-1.29110055,-0.60773338,1.8032264
609,1747533038270,0.222824275,-0.444794335,1.12424975,-1.3347764,-0.56432383,1.8034927
610,1747533038280,0.36523167,-0.353028815,1.18428785,-1.2191952,-0.51718587,1.6860473
611,1747533038290,0.5014156000000001,-0.234172925,1.21345265,-1.024518075,-0.47457531,1.4729944
612,1747533038300,0.5580369000000001,-0.148142755,1.2334653,-0.858070495,-0.41731734,1.22878255
613,1747533038310,0.55083723,-0.0827354085,1.2643385500000002,-0.6783071199999999,-0.34301515,0.93982955
614,1747533038320,0.466515435,-0.050763907,1.28361905,-0.49188586,-0.271908755,0.674845
615,1747533038330,0.377068445,-0.0418558185,1.2581151,-0.252467685,-0.252733995,0.42663839
616,1747533038340,0.36083864,-0.0181822665,1.2130866,-0.0838895779999999,-0.28735509,0.18801917
617,1747533038350,0.35693373,0.01769415,1.1973449,-0.0295610885,-0.3073288,-0.0436758399999999
618,1747533038360,0.29774985,0.0312393279999999,1.2030802500000002,0.0599211245,-0.2849582499999999,-0.2844256
619,1747533038370,0.1537560685,0.028676728,1.19844315,0.28868666,-0.16618126,-0.56565541
620,1747533038380,0.0175721225,0.029042813,1.16415305,0.541420665,-0.0114515939999999,-0.79042623
621,1747533038390,-0.052838396,0.0308732415,1.11082655,0.689758745,0.114782246,-0.887365315
622,1747533038400,-0.08542004,0.03099527,1.0814177,0.81093258,0.261256105,-0.964596965
623,1747533038410,-0.15082738,-0.0137892335,1.00222107,0.88337055,0.3981425899999999,-1.03197495
624,1747533038420,-0.180846415,-0.0756577475,0.93766792,0.8428905,0.519849045,-1.1369034999999998
625,1747533038430,-0.214892405,-0.12190659,0.88385333,0.71399352,0.5888249299999999,-1.2381036
626,1747533038440,-0.25601605,-0.1238590424999999,0.869087905,0.557665945,0.5848302,-1.26952895
627,1747533038450,-0.28798755,-0.1031141825,0.8971544499999999,0.395213115,0.5664543799999999,-1.2615395
628,1747533038460,-0.292746665,-0.069922401,0.972812125,0.2798982399999999,0.55233963,-1.2282499
629,1747533038470,-0.289817985,-0.0135451775,1.1077758,0.325171975,0.54328488,-1.13051185
630,1747533038480,-0.2809098949999999,0.0450285635,1.2090596,0.501739575,0.523044855,-1.00481068
631,1747533038490,-0.262727625,0.069190235,1.2156491,0.699878765,0.481233225,-0.90334423
632,1747533038500,-0.23527119,0.063820975,1.18733845,0.902545315,0.4319647399999999,-0.8114652
633,1747533038510,-0.20781475,0.044784505,1.12656825,1.0575413,0.38482678,-0.75314198
634,1747533038520,-0.1906087149999999,0.0106164895,1.0167425,1.1153319,0.36005938,-0.73343456
635,1747533038530,-0.1917069699999999,-0.021843124,0.93644765,0.965129565,0.275637175,-0.748081985
636,1747533038540,-0.2091570649999999,-0.031483385,0.9376679,0.82344943,0.25699505,-0.749946175
637,1747533038550,-0.23258656,-0.0217210945,0.9691513,0.6886934650000001,0.238885555,-0.728640875
638,1747533038560,-0.283594525,0.057597512,1.01344775,0.6479471,0.2636529549999999,-0.6641924
639,1747533038570,-0.3316738,0.13057063,1.0324842,0.71346085,0.352868855,-0.5970807499999999
640,1747533038580,-0.33618885,0.13630597,1.0117393,0.79149147,0.46205848,-0.5709817500000001
641,1747533038590,-0.32764685,0.1416752299999999,0.97073765,0.84502102,0.5518069999999999,-0.5757754500000001
642,1747533038600,-0.322155565,0.1319129399999999,0.91362825,0.871120015,0.5917543999999999,-0.5914881000000001
643,1747533038610,-0.319470945,0.106408955,0.8335775249999999,0.8538094650000001,0.531566965,-0.57923755
644,1747533038620,-0.337409155,0.101039703,0.7559673499999999,0.7882956750000001,0.38482678,-0.522245915
645,1747533038630,-0.35461518,0.107385196,0.72655845,0.74675035,0.30466563,-0.48309743
646,1747533038640,-0.352418675,0.165592845,0.6519989100000001,0.49934272,0.023702135,-0.2974751
647,1747533038650,-0.324962215,0.20024898,0.62710508,0.31558459,-0.0617853399999999,-0.25060346
648,1747533038660,-0.2839606,0.242348855,0.6544395000000001,0.0492684799999999,-0.0143810709999999,-0.33156357
649,1747533038670,-0.26651052,0.28627916,0.7219213250000001,-0.171241255,0.1257012039999999,-0.49215217
650,1747533038680,-0.28798756,0.29897014,0.797335025,-0.234358175,0.271908755,-0.6210491499999999
651,1747533038690,-0.323863965,0.291160305,0.86859975,-0.228499225,0.413588925,-0.7073356
652,1747533038700,-0.35852009,0.28017773,0.90996745,-0.135288585,0.4604605499999999,-0.68816085
653,1747533038710,-0.3623029749999999,0.26663254,0.8999611000000001,-0.0436758415,0.37310887,-0.5970807
654,1747533038720,-0.346927375,0.262483565,0.8479768999999999,-0.0314253015,0.221575005,-0.51185954
655,1747533038730,-0.33899553,0.26687661,0.79416228,-0.05352954,0.0535295365,-0.43169841
656,1747533038740,-0.34607318,0.27041544,0.74766938,-0.100667495,-0.1158475085,-0.358461485
657,1747533038750,-0.35461517,0.28579104,0.7196028,-0.20399815,-0.29854037,-0.27350665
658,1747533038760,-0.363157185,0.30787822,0.724361925,-0.312388805,-0.401871025,-0.2316950199999999
659,1747533038770,-0.3992776649999999,0.33277207,0.74925575,-0.371244665,-0.363255185,-0.256728735
660,1747533038780,-0.459925885,0.35925227,0.778054475,-0.40240365,-0.2719087599999999,-0.2916161499999999
661,1747533038790,-0.506174735,0.36022849,0.8236931999999999,-0.3914846899999999,-0.139815964,-0.3150519699999999
662,1747533038800,-0.5380242,0.36035052,0.8819009,-0.2934803649999999,0.006391586,-0.305730905
663,1747533038810,-0.56755515,0.37035687,0.89996115,-0.170442315,0.05060006,-0.25992453
664,1747533038820,-0.5874458,0.36938065,0.87287077,-0.09773801,-0.025300032,-0.17896443
665,1747533038830,-0.59501155,0.3579099599999999,0.826377835,-0.051665325,-0.160854932,-0.06338323665
666,1747533038840,-0.58878812,0.3605945849999999,0.756577465,-0.0431432115,-0.415453125,0.16698019835
667,1747533038850,-0.5864695950000001,0.4006199849999999,0.7225315,-0.0508663785,-0.64075655,0.40293628
668,1747533038860,-0.600990975,0.451383875,0.74791345,-0.0250337147499999,-0.706802975,0.545149105
669,1747533038870,-0.6255187,0.482013045,0.779396835,0.0545948052499999,-0.70973245,0.6769755749999999
670,1747533038880,-0.63833175,0.4864061,0.7962367850000001,0.174437053,-0.65567025,0.8013452
671,1747533038890,-0.6068484000000001,0.482501195,0.7421781000000001,0.319845655,-0.5427522300000001,0.9619338
672,1747533038900,-0.52081819,0.460902125,0.65382935,0.37923415,-0.4716458449999999,1.08656975
673,1747533038910,-0.4199004899999999,0.431859285,0.6078245499999999,0.29774141,-0.490021665,1.11639715
674,1747533038920,-0.34887984,0.42954074,0.56901945,0.13688648,-0.5387575,1.1084076500000002
675,1747533038930,-0.32386398,0.43539813,0.5449798,0.03781689,-0.5704491,1.0988203
676,1747533038940,-0.24369117,0.46370879,0.6222239700000001,-0.44315,-0.727309275,1.0937603500000002
677,1747533038950,-0.18816814,0.530336425,0.7169182000000001,-0.764593545,-0.8495484,1.0823087500000002
678,1747533038960,-0.208546915,0.614658175,0.81368688,-0.86446212,-0.9201222,1.04822025
679,1747533038970,-0.2975057849999999,0.672743795,0.938278085,-0.8599347500000001,-0.9829728,1.0458234000000002
680,1747533038980,-0.428564535,0.7091083499999999,1.036999235,-0.7568703800000001,-1.0263823,1.1134677000000002
681,1747533038990,-0.56645687,0.734734355,1.065554,-0.5829659699999999,-1.0655307500000002,1.2503542
682,1747533039000,-0.635281,0.74413055,1.056768,-0.48203218,-1.0892329,1.3342438
683,1747533039010,-0.61478023,0.7160639799999999,0.92741752,-0.1379517499999999,-1.2455605,1.7915085
684,1747533039020,-0.56401631,0.69727155,0.829428555,-0.13502227,-1.3113406,1.90975285
685,1747533039030,-0.513496455,0.6922684,0.742300135,-0.193345495,-1.3635385,1.96408135
686,1747533039040,-0.434055825,0.6844586,0.7064237,-0.2844256,-1.4120080499999998,1.980593
687,1747533039050,-0.40245039,0.720335,0.73607665,-0.42583946,-1.3946975,1.8788602
688,1747533039060,-0.48262319,0.7767122,0.7825695500000001,-0.5302354,-1.3156016,1.7196031500000002
689,1747533039070,-0.5895203,0.79001332,0.809415835,-0.53902383,-1.2144015,1.640241
690,1747533039080,-0.6384538,0.78757274,0.82149667,-0.52011538,-1.0993529,1.6186694
691,1747533039090,-0.68653303,0.77170897,0.8336995,-0.5070659,-1.0466223,1.619202
692,1747533039100,-0.64174855,0.806975285,0.8555426500000001,-0.48203215,-0.8231831000000001,1.5547535
693,1747533039110,-0.5843950849999999,0.854444415,0.9132622,-0.391484675,-0.655936565,1.4152039
694,1747533039120,-0.5764632350000001,0.86896583,0.9414508,-0.105194858,-0.480966895,1.21173835
695,1747533039130,-0.5703618,0.85590878,0.9088692,0.212786577,-0.287355095,1.02638228
696,1747533039140,-0.544491735,0.83028278,0.8371164,0.37097836,-0.1334243735,0.92225268
697,1747533039150,-0.50226985,0.7980672,0.76377715,0.44794372,0.0165116015,0.81066623
698,1747533039160,-0.4416216,0.7698785850000001,0.7124031,0.46152582,0.157659145,0.67644293
699,1747533039170,-0.359130235,0.758285885,0.6823840649999999,0.4423510499999999,0.29854037,0.47377638
700,1747533039180,-0.3116611,0.7570656,0.66993713,0.4197142,0.4173173599999999,0.23142871
701,1747533039190,-0.30507155,0.7515743,0.6571241299999999,0.37390784,0.514789045,-0.0697748199999999
702,1747533039200,-0.296651585,0.755357165,0.63857579,0.2908172,0.58003649,-0.32463935
703,1747533039210,-0.283472505,0.7648753800000001,0.643212875,0.18695391,0.60373862,-0.4623248
704,1747533039220,-0.27212384,0.76511943,0.6535853,0.128897,0.6135923,-0.531567
705,1747533039230,-0.261873425,0.7617027,0.81991033,-0.1105211869999999,0.7518103700000001,-0.943557965
706,1747533039240,-0.30616981,0.8023382,0.90484223,-0.1070590774999999,0.857537895,-1.11852765
707,1747533039250,-0.3662079,0.8487090500000001,0.9874556,-0.0143810674999999,0.966993825,-1.2466257500000002
708,1747533039260,-0.415995585,0.87165045,1.053107,0.14833808,1.03703495,-1.3044164
709,1747533039270,-0.45699722,0.8661592,1.0626252,0.4604605499999999,1.005343325,-1.295628
710,1747533039280,-0.47762007,0.856641,1.0470055,0.6764429,0.94968325,-1.2708606
711,1747533039290,-0.486284085,0.82210687,0.95060295,0.7869641,0.893490555,-1.2141352
712,1747533039300,-0.4949481,0.78757274,0.8542004,0.8974853,0.83729786,-1.1574098
713,1747533039310,-0.48274526,0.75389284,0.76072645,0.8740495,0.809601,-1.144094
714,1747533039320,-0.46395281,0.6969055,0.6942208249999999,0.6753776499999999,0.8767126249999999,-1.20108565
715,1747533039330,-0.4578514,0.6539514,0.6822620749999999,0.49747851,0.89695265,-1.2498215
716,1747533039340,-0.45174997,0.646629675,0.6977597,0.3818973,0.8724516,-1.24050045
717,1747533039350,-0.44406216,0.662127345,0.7363207,0.283892965,0.831971565,-1.2048141
718,1747533039360,-0.3961049199999999,0.68702117,0.7944063,0.21278657,0.763794615,-1.11692975
719,1747533039370,-0.31605413,0.68921765,0.83919082,0.176567585,0.67005135,-1.0415622999999998
720,1747533039380,-0.261263275,0.6710354000000001,0.84590242,0.153930715,0.5531385799999999,-1.0213223
721,1747533039390,-0.2355152449999999,0.661517175,0.82979465,0.09800433,0.4319647399999999,-0.99202755
722,1747533039400,-0.2173329749999999,0.657490225,0.8134428,-0.0106526424999999,0.321443545,-0.936367465
723,1747533039410,-0.19414754,0.65675805,0.83992303,-0.1680454625,0.25752768,-0.87085369
724,1747533039420,-0.18231077,0.6587105,0.86933196,-0.25513083,0.24767399,-0.83996105
725,1747533039430,-0.20854692,0.65029055,0.91228603,-0.21997711,0.4263721,-0.8886968799999999
726,1747533039440,-0.245399565,0.60672635,0.89068696,-0.16618126,0.55313855,-0.920654805
727,1747533039450,-0.288963775,0.55205755,0.8391908299999999,-0.129429635,0.6519418299999999,-0.925448475
728,1747533039460,-0.317274425,0.4772539799999999,0.744740685,-0.177366535,0.66579028,-0.8777779
729,1747533039470,-0.31666428,0.43027295,0.6910481150000001,-0.28282772,0.60240705,-0.829042075
730,1747533039480,-0.32703671,0.4441842,0.722043365,-0.33342777,0.51771853,-0.8157262750000001
731,1747533039490,-0.36974673,0.4477230199999999,0.756455435,-0.30519826,0.43329633,-0.77604517
732,1747533039500,-0.4458925849999999,0.408429805,0.7775664,-0.186953915,0.3038667,-0.63276707
733,1747533039510,-0.5297262349999999,0.37060094,0.77146495,-0.064448501,0.19068235,-0.4564658
734,1747533039520,-0.5637722,0.36462155,0.7573096,-0.029294772,0.1667139,-0.3898868
735,1747533039530,-0.600258825,0.368648485,0.72753465,0.0543284849999999,0.193611815,-0.1672465169999999
736,1747533039540,-0.596109825,0.35034418,0.69275647,0.0849548374999999,0.223439215,-0.0303600355
737,1747533039550,-0.50068343,0.34314449,0.65334122,0.0348874105,0.21624868,0.0753674615
738,1747533039560,-0.36254704,0.37365166,0.673475965,-0.0439421569999999,0.137152797,0.091346427
739,1747533039570,-0.287499445,0.41465328,0.7604823650000001,-0.066845342,-0.0412789929999999,0.058056912
740,1747533039580,-0.278225275,0.43576423,0.84980732,-0.0322242486499999,-0.26791401,0.090813795
741,1747533039590,-0.30922054,0.4356422,0.90886917,0.06018744085,-0.4588626799999999,0.21012341
742,1747533039600,-0.288719725,0.369868765,0.8771417,0.1755023175,-0.57231334,0.42690473
743,1747533039610,-0.19219508,0.2997023,0.79587065,0.190682335,-0.540089085,0.5502090850000001
744,1747533039620,-0.1010397,0.2893298549999999,0.74681517,0.054861117,-0.34914043,0.425573135
745,1747533039630,-0.0932298725,0.25613807,0.7376630200000001,-0.109722238,-0.11984225,0.230097115
746,1747533039640,-0.1875579975,0.18890031,0.761824685,-0.225303425,0.0591221799999999,0.135022265
747,1747533039650,-0.313979655,0.101039699,0.8040466,-0.30652985,0.0894822174999999,0.3107909
748,1747533039660,-0.337043065,0.032825699,0.8350418500000001,-0.36991309,-0.0681769275,0.60427125
749,1747533039670,-0.30165476,0.01586372,0.83858067,-0.42344262,-0.30120352,0.7768440999999999
750,1747533039680,-0.134963655,0.0161077775,0.94572182,-0.44661212,-0.50706589,0.87005475
751,1747533039690,-0.08603018,-0.049299563,1.03980585,-0.39760995,-0.65646925,0.92118743
752,1747533039700,-0.08139309,-0.14960709,1.0820278,-0.215183415,-0.7749798999999999,1.01919173
753,1747533039710,-0.096158552,-0.2063504,1.031507975,-0.084688525,-0.809334665,1.1579424
754,1747533039720,-0.097134784,-0.22502078,0.99136055,-0.09054748,-0.78723043,1.220793
755,1747533039730,0.032825699,-0.26150735,0.8934936,-0.264984525,-0.6612629000000001,1.28391
756,1747533039740,0.12093036,-0.27297804,0.848587075,-0.4418184349999999,-0.5672533150000001,1.2117383
757,1747533039750,0.178161785,-0.29408899,0.8744570899999999,-0.74595145,-0.409327865,0.99309275
758,1747533039760,0.184507275,-0.31007473,0.978791565,-1.02718125,-0.28362666,0.773381965
759,1747533039770,0.13520771,-0.30043447,1.10228455,-1.1297129,-0.25726136,0.695617665
760,1747533039780,0.08603018,-0.288841755,1.23383145,-1.1134676,-0.31079089,0.70999875
761,1747533039790,0.11629328,-0.214160235,1.3706255500000002,-0.99122855,-0.434361575,0.766724085
762,1747533039800,0.1500952099999999,-0.13288918,1.44884585,-0.7126619000000001,-0.61732076,0.790692535
763,1747533039810,0.132157005,-0.0993313,1.44005975,-0.39894151,-0.769120925,0.80241045
764,1747533039820,0.142041325,-0.0562551914999999,1.3974718,-0.17070862,-0.7893609500000001,0.8064051999999999
765,1747533039830,0.174744995,-0.0152535776499999,1.35049075,0.03914847,-0.753940925,0.7637946
766,1747533039840,0.201591285,0.03172744035,1.25677275,0.255130845,-0.630103925,0.5677859199999999
767,1747533039850,0.200248965,0.044662475,1.1570754,0.409327865,-0.42504052,0.267914005
768,1747533039860,0.170107895,0.0178161796,1.09935585,0.4554005399999999,-0.2362224,-0.004527375
769,1747533039870,0.118977905,-0.0003660859,1.04859195,0.47750479,-0.07430219945,-0.264185585
770,1747533039880,0.050275793,-0.005857374,1.00014658,0.483097435,0.05006743055,-0.487624795
771,1747533039890,-0.029042812,-0.0007321718,0.94315923,0.45140581,0.126766475,-0.64262077
772,1747533039900,-0.127275855,0.0400253902,0.871894515,0.290550875,0.216781325,-0.7392935
773,1747533039910,-0.18279888,0.07565775,0.83150303,0.1587244,0.2775014,-0.777643
774,1747533039920,-0.18792409,0.091033354,0.86347455,0.029827405,0.35313517,-0.8021441
775,1747533039930,-0.19683217,0.119343995,1.003441385,-0.009321063,0.4508731849999999,-0.8679242
776,1747533039940,-0.2280714999999999,0.145702175,1.09959995,0.0487358495,0.46392266,-0.863929475
777,1747533039950,-0.248572305,0.168033415,1.13706275,0.1006674925,0.4050668,-0.784567275
778,1747533039960,-0.255771995,0.188412195,1.17049855,0.146740175,0.333427775,-0.67377975
779,1747533039970,-0.243569135,0.19732028,1.21186625,0.203731825,0.267115065,-0.5592638
780,1747533039980,-0.1727925324999999,0.176575415,1.261776,0.348874105,0.236755025,-0.47564055
781,1747533039990,-0.0878606104999999,0.144847975,1.2792261,0.5163869249999999,0.261788745,-0.47404268
782,1747533040000,-0.0420998755,0.12861817,1.25347805,0.6154565249999999,0.3078614349999999,-0.5435511799999999
783,1747533040010,-0.0187924075,0.1180016775,1.2167474,0.6793724,0.3720436099999999,-0.63915867
784,1747533040020,-0.027212385,0.1050666425,1.17062055,0.700944,0.41278997,-0.69295454
785,1747533040030,-0.03929322,0.09567044,1.1448725,0.68549765,0.46631952,-0.810932575
786,1747533040040,-0.0507639084999999,0.0699224049999999,1.1370627,0.67218185,0.429035265,-0.828243125
787,1747533040050,-0.061258371,0.07016646,1.11582975,0.646615525,0.38589205,-0.8346347
788,1747533040060,-0.0757797779999999,0.081027005,1.0847125000000002,0.605869175,0.35579832,-0.82051995
789,1747533040070,-0.0762678904999999,0.11336459,1.044321,0.53636065,0.35952675,-0.79948098
790,1747533040080,-0.067847915,0.13886857,1.0221118,0.496146915,0.392549965,-0.822916805
791,1747533040090,-0.07748818,0.1450920399999999,1.0051498,0.5201153650000001,0.42077947,-0.869255825
792,1747533040100,-0.09701276,0.124591225,0.98318465,0.5510080500000001,0.41998051,-0.88177268
793,1747533040110,-0.10860548,0.11592719,0.9664667,0.5629923,0.40959418,-0.87831056
794,1747533040120,-0.094206095,0.093473926,0.89056486,0.55553544,0.34887412,-0.8591358
795,1747533040130,-0.130082515,0.0966466649999999,0.8476108499999999,0.331030935,0.21385184,-0.88257162
796,1747533040140,-0.170107905,0.11580516,0.833089415,0.22583607,0.231695025,-0.8988168999999999
797,1747533040150,-0.2197735499999999,0.130082515,0.83552998,0.1488707125,0.27510456,-0.91799165
798,1747533040160,-0.30299706,0.126665715,0.84980735,0.1001348575,0.31824775,-0.92678008
799,1747533040170,-0.374871925,0.13508569,0.8468786349999999,0.0535295385,0.3390204,-0.834901005
800,1747533040180,-0.382681765,0.173646735,0.82357113,0.0079894835,0.3355583,-0.6993461249999999
801,1747533040190,-0.366573985,0.2180651599999999,0.8063651300000001,-0.02609898,0.32490565,-0.62371235
802,1747533040200,-0.35583547,0.23746772,0.7997756,-0.04261058,0.3174488,-0.5933523
803,1747533040210,-0.35193056,0.264802115,0.7839118700000001,-0.0474042665,0.264185595,-0.5440838
804,1747533040220,-0.3643774899999999,0.277859185,0.77793248,-0.022636869,0.23382555,-0.5235774799999999
805,1747533040230,-0.36962471,0.282130185,0.77951888,-0.00213052915,0.216248685,-0.51478903
806,1747533040240,-0.381339445,0.281398,0.7791528,0.00985369635,0.17603495,-0.49055426
807,1747533040250,-0.38951537,0.2818861,0.7748818,0.013315806,0.15233281,-0.47137952
808,1747533040260,-0.45358041,0.2737101899999999,0.75901802,0.02024002475,0.116646462,-0.33742252
809,1747533040270,-0.485307855,0.25272127,0.7470592,0.033555831,0.098536962,-0.2181129
810,1747533040280,-0.49995128,0.242348855,0.71984683,0.0367516244999999,0.083356945,-0.1307612075
811,1747533040290,-0.4960463499999999,0.2422268249999999,0.68018755,0.0194410765,0.0450074245,-0.0380832059999999
812,1747533040300,-0.460536025,0.2472299949999999,0.64687374,-0.0255663465,-0.0143810705,0.0450074235
813,1747533040310,-0.4116025399999999,0.273466155,0.62100367,-0.1549959765,-0.084688525,0.104662232
814,1747533040320,-0.386708705,0.3111729949999999,0.6142921,-0.282561385,-0.1302285799999999,0.121706465
815,1747533040330,-0.39390841,0.3305755299999999,0.62686105,-0.323041435,-0.137951745,0.1174454075
816,1747533040340,-0.4164837,0.342656375,0.63101005,-0.338754105,-0.1568601849999999,0.1296959475
817,1747533040350,-0.457607345,0.35290678,0.6418706000000001,-0.331030935,-0.238352925,0.200536035
818,1747533040360,-0.48225713,0.35534734,0.6543175,-0.31957933,-0.30253512,0.26045716
819,1747533040370,-0.495802285,0.354493145,0.66017485,-0.315051955,-0.370712045,0.354733065
820,1747533040380,-0.51886572,0.367184125,0.67506233,-0.304665625,-0.465254265,0.494016385
821,1747533040390,-0.5215503699999999,0.37914293,0.696905465,-0.28549087,-0.52517538,0.59095545
822,1747533040400,-0.5061747400000001,0.39158985,0.715331765,-0.24873925,-0.65353975,0.7384946
823,1747533040410,-0.48774843,0.418680205,0.72070101,-0.219977115,-0.8098673249999999,0.882837925
824,1747533040420,-0.46370879,0.439425085,0.72582623,-0.2119876299999999,-0.931307475,0.969124325
825,1747533040430,-0.43600826,0.45223809,0.7379070750000001,-0.204797085,-1.03090965,1.03064335
826,1747533040440,-0.412334695,0.43613029,0.750353975,-0.2277002699999999,-1.06526445,1.0873686500000002
827,1747533040450,-0.38512233,0.4075756,0.76353307,-0.310524585,-1.0423613,1.1273161
828,1747533040460,-0.36401138,0.403426635,0.7800069700000001,-0.445280555,-1.008539115,1.1467572499999998
829,1747533040470,-0.35998443,0.40659937,0.7890371,-0.52464277,-0.99229383,1.1590078
830,1747533040480,-0.43332364,0.50324603,0.82979465,-0.844488425,-0.96859172,1.3036174
831,1747533040490,-0.507395015,0.5765852499999999,0.92790565,-0.929176925,-1.01972445,1.50149025
832,1747533040500,-0.555840375,0.63345058,1.0217456500000002,-0.87378317,-1.0860371,1.71454315
833,1747533040510,-0.5502270499999999,0.66859483,1.0550595,-0.72437984,-1.1267834,1.8394454
834,1747533040520,-0.52777377,0.69751563,1.06055085,-0.553671195,-1.1523498,1.93984655
835,1747533040530,-0.49092112,0.722409455,1.0441989500000002,-0.39521311,-1.165932,2.0162793
836,1747533040540,-0.435520135,0.732415795,0.99697385,-0.236222395,-1.1904331,2.0604878
837,1747533040550,-0.412334725,0.740835785,0.92949205,-0.1520665,-1.22478785,2.067412
838,1747533040560,-0.43820479,0.7660957150000001,0.868721765,-0.16112125,-1.21839625,2.0588899
839,1747533040570,-0.447356935,0.78732868,0.824059265,-0.18322549,-1.15607825,2.0383836
840,1747533040580,-0.439547125,0.809415845,0.7918437300000001,-0.21411816,-1.0548781,1.98565295
841,1747533040590,-0.431371215,0.8722605649999999,0.76450935,-0.24794031,-0.82611255,1.8255969
842,1747533040600,-0.421242825,0.927173435,0.77036672,-0.2471413599999999,-0.57950385,1.63091985
843,1747533040610,-0.39171188,0.948040335,0.804900815,-0.18881813,-0.4346279,1.4876418
844,1747533040620,-0.343388555,0.976351,0.838092615,-0.096140122,-0.31638354,1.3289174
845,1747533040630,-0.2928687,1.0022211,0.8692099,0.035686358,-0.24154871,1.1174624
846,1747533040640,-0.25284331,1.0255286,0.8838533,0.26418558,-0.25193504,0.7874967500000001
847,1747533040650,-0.239054085,1.0284573,0.8766536300000001,0.489489,-0.29800772,0.48869007
848,1747533040660,-0.239786255,1.0029533,0.85773921,0.6266418,-0.3158509,0.302801415
849,1747533040670,-0.23893205,0.9663447,0.8139309299999999,0.7238472,-0.31558459,0.12250541
850,1747533040680,-0.2333187299999999,0.912164,0.7238738,0.7451525,-0.266316105,-0.148071755
851,1747533040690,-0.22111587,0.857861235,0.654683565,0.68816085,-0.1717738899999999,-0.42850262
852,1747533040700,-0.2106214049999999,0.828330285,0.650900665,0.58296598,-0.0213052899999999,-0.6657903000000001
853,1747533040710,-0.22233616,0.81441903,0.6789673,0.41065946,0.25033715,-1.0247844
854,1747533040720,-0.2289257,0.811978465,0.694708975,0.3600593949999999,0.345412,-1.1203919
855,1747533040730,-0.226607155,0.80673123,0.772319125,0.257527685,0.5653891,-1.36593535
856,1747533040740,-0.220749785,0.80294833,0.86701335,0.22849922,0.71319455,-1.639442
857,1747533040750,-0.2613853,0.7900133,0.94620997,0.26924559,0.688160825,-1.6777915
858,1747533040760,-0.28200815,0.7763460799999999,0.952921535,0.36831519,0.606135475,-1.7267936499999998
859,1747533040770,-0.33972769,0.7326598449999999,0.9310784,0.541953295,0.41225736,-1.67113355
860,1747533040780,-0.39073564,0.67799103,0.870552185,0.675643985,0.230097125,-1.5646071
861,1747533040790,-0.41099238,0.627227115,0.8047787550000001,0.6804376999999999,0.146740175,-1.4911039499999998
862,1747533040800,-0.41697178,0.58012407,0.73900532,0.6245113,0.096939065,-1.43784075
863,1747533040810,-0.413677015,0.54327142,0.6843365,0.51478903,0.125701205,-1.4168017
864,1747533040820,-0.41074833,0.5274077,0.6616392,0.44741106,0.16618125,-1.4157364
865,1747533040830,-0.47310498,0.55584038,0.688607515,0.0724379817499999,0.572047,-1.54170395
866,1747533040840,-0.48640612,0.5673110800000001,0.746205035,-0.00639158675,0.71505875,-1.5454324
867,1747533040850,-0.487260315,0.56645685,0.816737625,-0.0149137025,0.76246305,-1.4982945
868,1747533040860,-0.46920006,0.5625519,0.870918305,0.0295610909999999,0.6655239749999999,-1.3829796
869,1747533040870,-0.419900475,0.562918,0.90118138,0.102531705,0.3265035475,-1.1584751
870,1747533040880,-0.37426178,0.5631621,0.8965443,0.1387506949999999,-0.0537958575,-0.9302422
871,1747533040890,-0.34961201,0.56072153,0.8585934,0.112119085,-0.282561395,-0.77950725
872,1747533040900,-0.32252164,0.54449171,0.80807355,0.03781688825,-0.42557314,-0.6607302749999999
873,1747533040910,-0.30031243,0.51483877,0.75096412,-0.09187905675,-0.445280535,-0.5917544100000001
874,1747533040920,-0.2496705599999999,0.50593069,0.7375409900000001,-0.35952674,-0.13528858,-0.655403935
875,1747533040930,-0.22062774,0.5264314999999999,0.794162305,-0.60054282,0.360059395,-0.85567365
876,1747533040940,-0.26919513,0.53741405,0.88043651,-0.6295713000000001,0.707069265,-1.02078965
877,1747533040950,-0.32496223,0.53289898,0.968053025,-0.5416869900000001,0.92198635,-1.07112345
878,1747533040960,-0.374993965,0.52508913,1.0288233,-0.40373524,0.9904296,-1.0223876
879,1747533040970,-0.40440285,0.5191097,1.0474937,-0.330232,0.9821738,-0.9720538
880,1747533040980,-0.295187235,0.483721465,1.01576628,-0.087618005,0.384027845,-0.446079515
881,1747533040990,-0.218309205,0.46456297,0.96170758,-0.0703074575,0.064182185,-0.305198265
882,1747533041000,-0.19036464,0.45687518,0.9247329,-0.075101145,-0.08948222,-0.2545982
883,1747533041010,-0.2241665849999999,0.37108903,0.769146415,-0.318514065,-0.324106725,-0.17976338
884,1747533041020,-0.25284332,0.3248402,0.69458693,-0.60134178,-0.21491711,-0.208791835
885,1747533041030,-0.27480845,0.388295065,0.721067135,-0.7853662299999999,0.05512743,-0.340618315
886,1747533041040,-0.3252062799999999,0.435154065,0.820276385,-0.871386345,0.37923415,-0.499609035
887,1747533041050,-0.403182585,0.45541083,0.96793105,-0.783502015,0.70147665,-0.619717595
888,1747533041060,-0.52155037,0.4246596299999999,1.0819058,-0.3930825825,0.9456885,-0.55633436
889,1747533041070,-0.58256465,0.37670237,1.083004,0.0159789675,0.9805759,-0.320111965
890,1747533041080,-0.5368039,0.330087425,1.01234945,0.2031992,0.80773677,-0.0551274325
891,1747533041090,-0.452848225,0.270537465,0.954263835,0.329433035,0.5382248700000001,0.2002697125
892,1747533041100,-0.278103225,0.2267292,0.8819008349999999,0.4000068,0.041545315,0.4599279149999999
893,1747533041110,-0.0929858065,0.222214135,0.83845865,0.39627838,-0.377636235,0.5803028
894,1747533041120,-0.0145214061,0.243691165,0.84492615,0.354200435,-0.4767058349999999,0.5107943
895,1747533041130,-0.0013423148,0.251989115,0.84858705,0.331030935,-0.431964725,0.40240365
896,1747533041140,-0.0349001832,0.23722365,0.86152213,0.332362515,-0.235689753,0.28735509
897,1747533041150,-0.125689478,0.213916175,0.83906883,0.33289514,0.2665824169999999,0.1901497
898,1747533041160,-0.17779571,0.181090475,0.789037075,0.31345406,0.75553878,0.15526229
899,1747533041170,-0.12813006,0.100673615,0.759262125,0.275104535,0.8644620999999999,0.18908444
900,1747533041180,-0.026846295,-0.025503985,0.725460185,0.200269715,0.7534083149999999,0.24074976
901,1747533041190,0.06919023,-0.131180775,0.6426027350000001,-0.11877699,0.37151099,0.29720877
902,1747533041200,0.0921316125,-0.18548351,0.5740226500000001,-0.567785965,-0.02689793,0.36405413
903,1747533041210,0.057841571,-0.212817915,0.58463915,-0.919589525,-0.23755397,0.4466121349999999
904,1747533041220,0.0367306175,-0.219651525,0.643579,-1.2247878,-0.3664509649999999,0.520914325
905,1747533041230,0.0338019289999999,-0.2013472399999999,0.72826682,-1.4444986,-0.36911413,0.53636065
906,1747533041240,0.032581643,-0.2135501,0.88165677,-1.56434085,-0.25566347,0.492951115
907,1747533041250,0.037950901,-0.25796852,1.05408325,-1.53557875,0.0559263799999999,0.3456783049999999
908,1747533041260,0.0339239555,-0.29604145,1.1521943,-1.4125407,0.34141725,0.2082592
909,1747533041270,0.026114125,-0.3145898,1.1853861,-1.3534185,0.39787626,0.18535602
910,1747533041280,0.00207448625,-0.35449315,1.1940501,-1.2793826,0.45007423,0.24767399
911,1747533041290,0.06430908675,-0.345463035,1.1840438,-1.3185311,0.40559943,0.380832045
912,1747533041300,0.18487337,-0.28469277,1.22943845,-1.4032196,0.21971079,0.335824625
913,1747533041310,0.23429495,-0.203055625,1.3120518,-1.40748065,0.0210389749999999,0.1973402449999999
914,1747533041320,0.18096844,-0.143505665,1.38136405,-1.2594089,-0.074302195,0.076432723
915,1747533041330,0.12093037,-0.091033355,1.43127375,-0.98084225,-0.1520665,-0.031158985
916,1747533041340,0.0590618559999999,-0.0441743625,1.45677775,-0.64688185,-0.22849922,-0.1014664379999999
917,1747533041350,-0.0733392039999999,-0.01354517635,1.44750355,-0.20746026,-0.368315175,-0.049801113
918,1747533041360,-0.225752955,0.0064675171499999,1.3991801499999998,0.18056233,-0.5067995750000001,0.124902257
919,1747533041370,-0.29323478,0.0256260124999999,1.3359693,0.381897315,-0.5510080500000001,0.340884625
920,1747533041380,-0.26895108,0.024283698,1.27458895,0.562193305,-0.5427522300000001,0.5211806299999999
921,1747533041390,-0.1475326025,-0.0073217164999999,1.2035683499999998,0.810133605,-0.4969458599999999,0.5701828
922,1747533041400,-0.065163285,-0.029530926,1.1607363,0.97258645,-0.46552056,0.5502091
923,1747533041410,0.00890808875,-0.0266022395,1.0271149,1.1254518999999998,-0.3597930649999999,0.36884782
924,1747533041420,0.0510079634999999,-0.0196466085,0.91789927,1.1190603,-0.244478185,0.1933454949999999
925,1747533041430,0.0575975085,-0.027212385,0.8184459500000001,0.8988168750000001,-0.107325391,-0.125434895
926,1747533041440,0.0096402605,-0.04807928,0.76243483,0.597347035,0.0125168565,-0.443948955
927,1747533041450,-0.025137896,-0.05686534,0.754625,0.48149952,0.051665325,-0.53529537
928,1747533041460,-0.111046048,-0.052960425,0.7685363000000001,0.2484729275,0.1334243725,-0.6354302350000001
929,1747533041470,-0.23051207,-0.0307512145,0.806365175,-0.0830906275,0.25672873,-0.75021248
930,1747533041480,-0.28774349,0.0047591165,0.870918305,-0.245809775,0.34328147,-0.76272935
931,1747533041490,-0.30580373,0.039781331,1.02028133,-0.32650356,0.4391552749999999,-0.7464840699999999
932,1747533041500,-0.28615713,0.063576915,1.17037655,-0.242347665,0.5171859,-0.6921555699999999
933,1747533041510,-0.2657783449999999,0.084809895,1.2302926,-0.0535295385,0.51905011,-0.62131547
934,1747533041520,-0.2731000449999999,0.1149509599999999,1.24420385,0.2316950115,0.36778255,-0.50253849
935,1747533041530,-0.29103826,0.120198193,1.22846215,0.522512195,0.155794925,-0.3568636
936,1747533041540,-0.299458255,0.107263158,1.1908773,0.69029133,-0.00772317,-0.234624505
937,1747533041550,-0.294333045,0.106408955,1.1327916999999998,0.8034757,-0.143810705,-0.1118527725
938,1747533041560,-0.26614443,0.10921562,1.0814176999999998,0.844222075,-0.221042375,-0.0175768634999999
939,1747533041570,-0.212695895,0.09225364,1.040172,0.7952199,-0.157126505,-0.0303600359999999
940,1747533041580,-0.17084007,0.06357691,1.0188169500000002,0.708400845,0.00905475,-0.1328917399999999
941,1747533041590,-0.163396325,0.047225077,1.01710855,0.6327670700000001,0.170176,-0.2444781999999999
942,1747533041600,-0.1658369,0.0462488469999999,1.00990885,0.55500277,0.304665645,-0.35420044
943,1747533041610,-0.16608095,0.0626006799999999,1.0031973,0.481765835,0.39041943,-0.444481595
944,1747533041620,-0.1637624,0.07492557,1.001855,0.44687843,0.41918156,-0.48309743
945,1747533041630,-0.174500935,0.093473925,0.99733993,0.3408846199999999,0.44661212,-0.57151435
946,1747533041640,-0.173158625,0.0896910425,0.98818775,0.31984564,0.43169841,-0.5800365000000001
947,1747533041650,-0.183042945,0.0990872455,0.961097415,0.30146983,0.40266996,-0.57071545
948,1747533041660,-0.223434425,0.1165373399999999,0.926075215,0.287088765,0.36298887,-0.5368933
949,1747533041670,-0.2518671,0.122516744,0.9093573,0.28176245,0.34248254,-0.5134575
950,1747533041680,-0.27615078,0.1300825099999999,0.898618785,0.26551716,0.2793656,-0.379234135
951,1747533041690,-0.280177715,0.14130915,0.88385332,0.253266625,0.29960562,-0.343547775
952,1747533041700,-0.265534285,0.152047675,0.8704302049999999,0.22983081,0.3408846199999999,-0.342748835
953,1747533041710,-0.26040909,0.178161795,0.85322417,0.1488707125,0.400539435,-0.411991035
954,1747533041720,-0.27273397,0.20366577,0.854200375,0.062850604,0.437823695,-0.484695335
955,1747533041730,-0.29299071,0.21599066,0.873480925,0.0308926684999999,0.43489422,-0.49667956
956,1747533041740,-0.31776252,0.225264835,0.8930055,0.0215716045,0.4037352349999999,-0.475374265
957,1747533041750,-0.36303515,0.236979585,0.90069325,0.0338221475,0.345678315,-0.4181163
958,1747533041760,-0.3930542,0.262361535,0.8872701,0.0631169199999999,0.251668725,-0.25885927
959,1747533041770,-0.369990785,0.28835363,0.86896583,0.086286422,0.183491795,-0.10652645
960,1747533041780,-0.331917855,0.293478845,0.86213225,0.0905474795,0.17550231,-0.0793622029999999
961,1747533041790,-0.31605414,0.29042813,0.86152214,0.090014845,0.1736381,-0.083090626
962,1747533041800,-0.34558505,0.281398,0.8355300000000001,0.08841695,0.22716765,-0.14034859
963,1747533041810,-0.364133405,0.2534534499999999,0.798921415,0.0641821834999999,0.276702445,-0.14407702
964,1747533041820,-0.351930545,0.22868164,0.761458615,0.0053263224999999,0.292415085,-0.11691278
965,1747533041830,-0.312881395,0.22538687,0.7465711349999999,-0.075633776,0.259658205,-0.098270648
966,1747533041840,-0.263215745,0.22428861,0.756577465,-0.17124126,0.21252026,-0.100667493
967,1747533041850,-0.26223951,0.2413726149999999,0.80185008,-0.276702435,0.1177117239999999,-0.13156016
968,1747533041860,-0.31910485,0.2731000649999999,0.8454143000000001,-0.322775125,0.0133158065,-0.133957003
969,1747533041870,-0.389759435,0.293478845,0.8620102000000001,-0.26951191,-0.0524642745,-0.05060006125
970,1747533041880,-0.45406854,0.298115935,0.8632305,-0.1866876,-0.079894832,0.08122641675
971,1747533041890,-0.477376,0.30128867,0.8479769,-0.11611383,-0.0575242775,0.21012341
972,1747533041900,-0.438936965,0.3083663199999999,0.81600538,-0.07137272,0.0079894849999999,0.330764605
973,1747533041910,-0.37621425,0.307756185,0.7939182300000001,-0.0663127125,0.0617853405,0.401604695
974,1747533041920,-0.32618251,0.305315615,0.7898913000000001,-0.0937432725,0.090813798,0.42024682
975,1747533041930,-0.288597685,0.3252062799999999,0.7895251999999999,-0.14088122,0.13235911,0.42610578
976,1747533041940,-0.280299735,0.365475715,0.7895251999999999,-0.19813918,0.15126755,0.4114584049999999
977,1747533041950,-0.337775225,0.378166685,0.7946504,-0.237287655,0.0857537875,0.449275285
978,1747533041960,-0.399521725,0.35656763,0.800141665,-0.243146615,-0.0199737075,0.565921735
979,1747533041970,-0.417337915,0.354127065,0.77976289,-0.2537992599999999,-0.102531705,0.70653665
980,1747533041980,-0.42587993,0.36437747,0.76121455,-0.26897928,-0.14274544,0.78083885
981,1747533041990,-0.376214235,0.4318592999999999,0.762922975,-0.3768373,-0.283626665,0.974717
982,1747533042000,-0.34412071,0.4704203449999999,0.8153952250000001,-0.40080574,-0.36671729,1.0546118
983,1747533042010,-0.3593743,0.4860400099999999,0.8578612,-0.327036185,-0.40852892,1.08923285
984,1747533042020,-0.378654825,0.494704035,0.89190725,-0.208259205,-0.43462791,1.1334413
985,1747533042030,-0.401840255,0.51630312,0.9022797,-0.0545948049999999,-0.47031427,1.20241725
986,1747533042040,-0.458705605,0.52887207,0.880680635,0.160322295,-0.5946838999999999,1.3696638
987,1747533042050,-0.50324607,0.5274077,0.85908157,0.28868666,-0.69135666,1.4929681
988,1747533042060,-0.5560844549999999,0.50141562,0.796236815,0.3773699299999999,-0.8349010299999999,1.6644757
989,1747533042070,-0.63759957,0.4599259049999999,0.6853127800000001,0.473243735,-1.0351707,1.93105815
990,1747533042080,-0.67237775,0.43649641,0.5857374,0.450074225,-1.1222560499999998,2.10522885
991,1747533042090,-0.6823840999999999,0.452482165,0.48726029,0.27510454,-1.11000555,2.2519691
992,1747533042100,-0.7015425500000001,0.49909709,0.43844885,0.0500674314999999,-1.027447565,2.3257387
993,1747533042110,-0.71740625,0.5333871,0.46175632,-0.0990695935,-0.951813785,2.3568976
994,1747533042120,-0.6962953000000001,0.5742667,0.5236248099999999,-0.19201392,-0.893756895,2.4117586500000003
995,1747533042130,-0.65675805,0.64089435,0.590008365,-0.2165150049999999,-0.8857674,2.47088085
996,1747533042140,-0.56267401,0.73778505,0.643334895,-0.18322549,-0.931307425,2.49911045
997,1747533042150,-0.44027929,0.82967262,0.6588325500000001,-0.14434334,-0.95261272,2.42827035
998,1747533042160,-0.36352328,0.886538,0.64016217,-0.14913703,-0.92038849,2.24344695
999,1747533042170,-0.311295025,0.930590305,0.6275932200000001,-0.1816275949999999,-0.859934745,1.98245715
1000,1747533042180,-0.2928687049999999,0.969517425,0.628325405,-0.228499235,-0.7760451749999999,1.6791231
