id,timestamp,acc_x,acc_y,acc_z,gyro_x,gyro_y,gyro_z
1,1747533805580,0.065407342,0.162786186,0.7990434500000001,-0.34914042,0.7475493489999999,0.819987315
2,1747533805590,-2.097428,-1.1931958,2.728804,5.162804,1.8823223,6.38413
3,1747533805600,-2.1296434,-1.1997855,2.6570513,5.496232,2.262089,6.427806
4,1747533805610,-2.000049,-1.2895985,2.3802903,6.191317,3.1217575,6.6158247
5,1747533805620,-1.910236,-1.3313323,2.1306198,6.399576,3.5452,6.6706862
6,1747533805630,-1.836775,-1.3506129,1.8870505,6.4730797,3.9302933,6.754309
7,1747533805640,-1.78308235,-1.36562235,1.79650535,6.45497015,4.03921665,6.8035775
8,1747533805650,-1.3867333,-1.479719,1.308635,6.0730724,4.2701125,6.8267474
9,1747533805660,-1.2532339,-1.4977793,1.1221752,5.5825186,4.1433463,6.703709
10,1747533805670,-1.1711087,-1.39027215,0.97476465,5.138836,3.9382827,6.7015786
11,1747533805680,-1.1412116,-1.3364575,0.9230245,4.698349,3.8040593,6.6227493
12,1747533805690,-1.13694065,-1.32095985,0.90264572,4.472513,3.76278035,6.57720915
13,1747533805700,-1.1650073,-1.27861595,0.90838107,3.88475325,3.6021917,6.49305315
14,1747533805710,-1.291551,-1.2542102,1.0504224,3.3742251,3.4578483,6.522082
15,1747533805720,-1.2773956,-1.2666571,1.2410312,3.4232273,3.4780884,6.6158247
16,1747533805730,-1.227364,-1.2778838,1.2942356,3.5963328,3.3838124,6.706905
17,1747533805740,-1.1370627,-1.2354177,0.7797629,3.4189663,3.2634377,6.7484503
18,1747533805750,-1.1251038,-1.2095478,0.6377216,3.0423954,3.2463934,6.735667
19,1747533805760,-1.1390152,-1.227852,0.63015586,2.650378,3.1579764,6.695187
20,1747533805770,-1.2046666,-1.2439598,0.63406074,2.2876554,3.1041806,6.653109
21,1747533805780,-1.2683655,-1.2388345,0.73632073,1.9323897,2.727077,6.6323366
22,1747533805790,-1.17916255,-1.27166025,0.7437644649999999,1.3331785,2.0751352,6.4341974
23,1747533805800,-1.04310065,-1.3334068,0.7925759,1.27272475,2.00749085,6.3375247
24,1747533805810,-0.8712844,-1.4379853,0.86249834,1.1872373,1.8695391,5.9068913
25,1747533805820,-0.7136234,-1.5009521,0.85542065,1.1451592,1.8418423,5.576659
26,1747533805830,-0.66139513,-1.5558649,0.9257092,1.0679276,1.8413097,5.2490907
27,1747533805840,-0.70166457,-1.6854594,1.0665302,0.9938917,1.4189322,4.799549
28,1747533805850,-0.76121455,-1.7786893,1.2454242,1.1510183,0.829841,4.743623
29,1747533805860,-0.65114474,-1.8450727,1.1521943,1.3784522,0.118776985,4.878911
30,1747533805870,-0.36266908,-2.0183535,0.916679,1.6474315,-0.4415521,5.050419
31,1747533805880,0.4556549,-2.3441699,0.26504618,2.253567,-0.5070659,4.7841024
32,1747533805890,0.9442575,-2.5294094,-0.061502427,2.3957798,-0.17896444,4.393151
33,1747533805900,1.3152245,-2.6912193,-0.3121492,2.4208136,0.23382555,3.9345543
34,1747533805910,1.7406163,-2.8320403,-0.5105677,2.4240093,0.74461985,3.4413369
35,1747533805920,2.4586327,-3.2330263,-0.5764632,2.44638,1.1771172,2.873551
36,1747533805930,2.659736,-3.405087,-0.6765267,2.2594259,1.1739215,1.4141386
37,1747533805940,2.7273398,-3.3982532,-0.73619868,1.8615496,0.75580513,0.65034395
38,1747533805950,2.8337487,-3.3488314,-0.836140095,1.5499598,0.45433529,0.3166498595
39,1747533805960,2.865232,-3.248402,-0.8361401,0.47510794,-0.6487461,-0.74302197
40,1747533805970,2.8056822,-3.193489,-0.80343646,-0.0037284256,-1.099353,-1.2591426
41,1747533805980,2.7741988,-3.1280818,-0.7468152,-0.7163904,-1.4402375,-2.1598237
42,1747533805990,2.7461321,-3.051936,-0.6548056,-0.9076053,-1.3582122,-2.602441
43,1747533806000,2.68267725,-2.98555235,-0.6144141249999999,-0.95634115,-1.29269845,-2.79711815
44,1747533806010,2.4620495,-2.771758,-0.5432714,-1.1190603,-1.1520835,-3.3246903
45,1747533806020,2.293894,-2.5735836,-0.5091034,-1.3496901,-1.2298478,-3.6464002
46,1747533806030,2.1418464,-2.497438,-0.47737598,-2.2445123,-1.7747306,-4.4922204
47,1747533806040,1.8990095,-2.4288578,-0.40391475,-2.6844664,-1.9190739,-4.8783784
48,1747533806050,1.6486067,-2.4149466,-0.25333142,-3.0706248,-2.0341225,-5.2624063
49,1747533806060,1.3762388,-2.39591,0.056377225,-3.3944652,-2.1022995,-5.6373796
50,1747533806070,0.7997756,-2.4317863,0.2277054,-3.8035266,-2.1108215,-6.398511
51,1747533806080,0.49250755,-2.4727879,0.41684976,-3.8983352,-2.1236048,-6.806507
52,1747533806090,0.19500175,-2.5054917,0.5342413,-3.9617186,-2.1555626,-7.209177
53,1747533806100,-0.14350566,-2.5030513,0.6135599,-4.00885655,-2.1923143,-7.3892069
54,1747533806110,-0.297749845,-2.50097665,0.64077228,-4.1827609500000005,-2.30123765,-7.7505979
55,1747533806120,-1.1755017,-2.6299609000000004,0.97171395,-4.807006,-2.5411885,-8.44808
56,1747533806130,-1.3171769,-2.6626647,1.0338265,-5.002482,-2.551841,-8.671785
57,1747533806140,-1.4851493,-2.6824943250000004,1.0934985,-5.07518625,-2.51096145,-8.718923
58,1747533806150,-1.6531217,-2.7023239500000003,1.1531705,-5.1478905,-2.4700819000000003,-8.766061
59,1747533806160,-2.520379,-2.7144046,1.4445748,-5.643771,-2.4351945,-8.739429
60,1747533806170,-2.6450925,-2.7248993,1.4719093,-5.956959,-2.56782,-8.645154
61,1747533806180,-2.6160498,-2.7810323,1.5512279,-6.338856,-2.824016,-8.590825
62,1747533806190,-2.5948167,-2.8998883,1.7984579,-6.7479177,-3.212305,-8.597217
63,1747533806200,-2.5965252,-2.9618788,2.0381222,-6.87788,-3.507383,-8.590293
64,1747533806210,-2.8213017,-2.8213017,2.1694248,-6.792126,-3.6677055,-8.086423
65,1747533806220,-2.7139168,-2.818617,2.1447752,-6.755907,-3.597398,-7.7503314
66,1747533806230,-2.6253238,-2.8657203,2.2704647,-6.655772,-3.4573157,-7.4722977
67,1747533806240,-2.617514,-2.8466837,2.46327,-6.3468456,-3.2980587,-7.218765
68,1747533806250,-2.591644,-2.7783477,2.54991,-5.8557587,-3.0525153,-6.983874
69,1747533806260,-2.5267248,-2.5008545,2.4488704,-4.574778,-2.3180156,-6.408098
70,1747533806270,-2.497926,-2.3480747,2.2687562,-4.1236386,-1.9781961,-6.0981064
71,1747533806280,-2.3871238,-2.2436182,2.0234787,-3.87703,-1.7465011,-5.8472366
72,1747533806290,-2.3749209,-2.20530125,1.9129207,-3.84294155,-1.6431703999999998,-5.7329868
73,1747533806300,-2.2240937,-2.1542933,1.6761851,-3.8056574,-1.381648,-5.5473647
74,1747533806310,-2.1882172,-2.0608194,1.4928981,-3.9036615,-0.8026768,-6.0570936
75,1747533806320,-2.4400845,-1.7528191,1.5802706,-3.7955372,-0.054328486,-6.203035
76,1747533806330,-2.706595,-1.4182167,1.8494658,-3.3619747,0.8527442,-6.255233
77,1747533806340,-2.9131893,-1.19807702,2.00261175,-2.89006255,1.29056785,-6.1732075
78,1747533806350,-3.2709771,-0.79147762,2.17198745,-2.0815268,1.73824525,-5.9156798
79,1747533806360,-3.6262023,-0.21818718,1.9280523,-1.5025555,1.3299826,-5.2464275
80,1747533806370,-3.9586084,0.47444725,1.1019185,-2.5662222,-0.13422333,-4.1326933
81,1747533806380,-4.092352,0.7175283,0.8815348,-3.7848847,-0.912399,-3.5723643
82,1747533806390,-4.2217026,0.8561529,1.0484699,-5.0157976,-1.8492991,-3.0786142
83,1747533806400,-4.267341,1.1958805,1.5024164,-5.38251495,-2.25196905,-2.8328044
84,1747533806410,-3.8474406,2.07619495,1.94062115,-5.932458,-3.0439932,-2.0777984
85,1747533806420,-3.4956322,2.4874313,2.0308003,-5.5702677,-2.64878,-1.1824435
86,1747533806430,-3.0768297,2.7773714,2.1899257,-5.326322,-2.111354,-1.0743192
87,1747533806440,-2.88792935,2.9604144,2.39017465,-5.0839745,-1.72226625,-1.098554
88,1747533806450,-2.7209942,3.5114956,3.1095333,-3.8173752,0.16298546,-1.274589
89,1747533806460,-3.1783576,3.734076,3.7445705,-2.3755398,2.3489082,-1.4620755
90,1747533806470,-4.966565,3.6996639,4.9795,1.164334,5.8094196,-1.5078819
91,1747533806480,-5.506785799999999,3.68514245,4.96095165,2.5683527,6.053898,-1.0125339
92,1747533806490,-7.59042435,3.5106417,3.7499397,2.9763489,4.819789,0.09960223
93,1747533806500,-7.802754,3.4070394,3.6637876,1.2676647,1.0972224,2.3552997
94,1747533806510,-7.613122,2.5860306,3.94018225,0.4644553,-0.8990832,3.759851
95,1747533806520,-7.3707733,2.2270224,4.075512,0.17470337,-2.6855316,4.991297
96,1747533806530,-6.4313965,1.3318204,4.113341,0.35952675,-4.048005,5.8227353
97,1747533806540,-5.4616349,0.71289122,3.8158352,0.8319715249999999,-4.51219385,6.09650815
98,1747533806550,-3.7235816,-0.30970863,3.3408997,1.8919097,-4.6008773,6.1875887
99,1747533806560,-3.2303417,-0.5937913,3.3294291,2.773416,-3.8173752,5.871205
100,1747533806570,-2.924782,-0.8551766,3.4795241,3.6677055,-3.0578415,5.622998
101,1747533806580,-2.7351494,-1.2503053,3.7448142,5.8781295,-1.4460965,5.194762
102,1747533806590,-2.664617,-1.3884417,3.6694007,6.9732213,-0.60773337,5.03444
103,1747533806600,-2.6704745,-1.5236495,3.436082,7.8781633,0.16298546,4.922587
104,1747533806610,-2.6497297,-1.6442136,3.1951976,8.7101345,0.8245147,4.902347
105,1747533806620,-2.6389909,-1.7228,2.8979359,9.287508,1.3166668,4.964665
106,1747533806630,-2.5416121,-1.7852788,2.1943188,9.661948,1.9052255,5.275722
107,1747533806640,-2.52611445,-1.76306955,2.00139155,9.5527585,2.02586675,5.44057175
108,1747533806650,-2.4303222,-1.7074246,1.564407,9.15222,2.4005735,5.9260664
109,1747533806660,-2.3761413,-1.7476939,1.4094306,8.8193245,2.6999128,6.23233
110,1747533806670,-2.3158593,-1.7830821,1.3291358,8.468852,2.952913,6.5146246
111,1747533806680,-2.2626548,-1.7869871,1.2610438,8.103999,3.1547806,6.7537766
112,1747533806690,-2.2502078,-1.7882074499999998,1.1836777,7.577492149999999,3.0791468,6.94525795
113,1747533806700,-2.2526484,-1.79284455,1.09252235,6.357498,2.6226811,7.3204975
114,1747533806710,-2.28425385,-1.79809175,1.07690265,6.033924,2.42906925,7.42409445
115,1747533806720,-2.2106707,-1.8482454,1.0982577,4.9944925,1.7086842,7.7444725
116,1747533806730,-2.0017576,-2.0244548,1.2044226,4.270645,1.4807175,7.800399
117,1747533806740,-1.96075595,-2.06692075,1.26885365,4.172108,1.7555559,7.7327547
118,1747533806750,-1.8575197,-2.170401,1.4653198,4.2429485,2.12467,7.6230326
119,1747533806760,-1.8706989,-2.1938305,1.5590377,4.397412,2.6141589,7.456851
120,1747533806770,-1.9429398,-2.220677,1.6376241,4.535896,3.1276164,7.2619076
121,1747533806780,-2.0203059,-2.1049938,1.7149903,4.5369616,3.0072415,6.935937
122,1747533806790,-2.00285585,-2.08815385,1.71120745,4.3446813,2.1475732,6.7351346
123,1747533806800,-1.9558747,-2.0100555,1.5878365,4.1934137,1.4791197,6.5593657
124,1747533806810,-1.9885784,-1.88461,1.376971,4.0149817,1.0045444,6.5236797
125,1747533806820,-1.9202425,-1.6303024,0.9969738,3.6069853,0.9177253,6.838465
126,1747533806830,-1.6959538,-1.6390884,0.89398164,3.409379,1.1792477,6.942861
127,1747533806840,-1.4892373,-1.7362232,0.83858067,3.2415998,1.4977618,6.888
128,1747533806850,-1.223459,-1.8611807,0.7987994,3.06157,1.7907095,6.643522
129,1747533806860,-1.0247964,-1.8941283,0.84761083,2.9097698,2.0138824,6.246711
130,1747533806870,-1.0123495,-1.7044959,0.85444444,2.9097699,2.449043,5.2799832
131,1747533806880,-1.0001466,-1.6061407,0.76243484,2.8756814,2.469283,5.152684
132,1747533806890,-0.9449896,-1.5607461,0.68409246,2.6993802,2.4074976,4.934838
133,1747533806900,-0.8643287,-1.5009521,0.52252658,2.4650218,2.328668,4.796886
134,1747533806910,-0.7730513,-1.58881275,0.5077611,1.8311896,1.97153825,4.7036753
135,1747533806920,-0.7653635,-1.6603215,0.5593792,1.5025555,1.6964337,4.694088
136,1747533806930,-0.63113207,-1.8528826,0.6631035,1.3864417,1.2868395,4.935903
137,1747533806940,-0.27017137,-2.1076784,0.6321083,1.5488945,0.8346347,5.3593454
138,1747533806950,0.9346172,-2.8497344,-0.068580075,1.7017599,0.6109292,5.426457
139,1747533806960,1.5461026,-3.1654224,-0.45174995,1.6346483,0.5470133,5.1510863
140,1747533806970,1.9365941,-3.359692,-0.63381666,0.8612663,0.4926848,4.115649
141,1747533806980,2.4356914,-3.6259587,-0.6999562,0.4644553,0.23116238,3.7012613
142,1747533806990,2.9738376,-3.9464056,-0.78415596,0.113983296,-0.2231729,3.2719598
143,1747533807000,3.534437,-4.2173095,-0.8876362,-0.15339808,-0.65513766,2.6168222
144,1747533807010,4.1714263,-4.7859626,-1.1160738,-0.3334278,-0.9347696,1.8050907
145,1747533807020,4.353249,-4.924099,-1.1861182,-0.32330775,-0.9502159,-0.34301516
146,1747533807030,4.352029,-4.979012,-1.2739788,-0.276968755,-0.843955765,-0.88922953
147,1747533807040,4.2940653,-4.948748800000001,-1.2983845500000002,-0.22849923,-0.666056615,-1.9598203
148,1747533807050,4.063309,-4.8047547,-1.359399,-0.3339604,-0.6823019,-3.4679685
149,1747533807060,3.372383,-4.378387,-1.4526287,-0.5800365,-0.8580705,-4.3830304
150,1747533807070,3.11295015,-4.24500965,-1.45555745,-0.93503585,-0.9635317,-5.1646682
151,1747533807080,2.5846883,-3.97886525,-1.4368871,-1.49057125,-1.0556771,-6.2320632
152,1747533807090,2.06972755,-3.74432625,-1.3624496,-1.97659815,-1.02531705,-6.82008935
153,1747533807100,1.3154685,-3.4692738,-1.1246158,-2.7718182,-1.0349044,-7.5708346
154,1747533807110,0.8891005,-3.3457806,-0.9279056,-3.2820797,-1.0487529,-8.010789
155,1747533807120,-0.030507157,-3.1434574,-0.39756927,-4.063984,-0.87511474,-8.75168
156,1747533807130,-0.4373506,-3.1031878,-0.035876416,-4.279167,-0.86499476,-9.069661
157,1747533807140,-0.7264364,-3.0922053,0.1317909119999999,-4.32816925,-0.93184008,-9.1817805
158,1747533807150,-1.25360005,-2.98884705,0.40269445,-4.36465475,-1.0596718,-9.3189335
159,1747533807160,-2.2697322,-2.502807,0.6106312,-4.1705103,-1.2106731,-8.847554
160,1747533807170,-2.37004,-2.3546643,0.5891542,-4.2083273,-1.1840415,-8.443819
161,1747533807180,-2.313907,-2.3395329,0.5876899,-4.4293694,-1.3544837,-8.26805
162,1747533807190,-2.31817785,-2.31891005,0.578781765,-4.6315032,-1.5174692,-8.222243500000001
163,1747533807200,-2.3532,-2.2182362,0.5452239,-5.4083476,-2.0762005,-8.073107
164,1747533807210,-2.2631428,-2.279739,0.5964759,-6.947122,-2.9422605,-7.866978
165,1747533807220,-2.2399576,-2.4354472,0.75389284,-7.7620497,-3.3428,-7.822237
166,1747533807230,-2.2611904,-2.5447848,1.0221118,-8.384164,-3.6788907,-7.7300916
167,1747533807240,-2.2365407,-2.5810274,1.1326697,-8.587097,-3.85998585,-7.6552568
168,1747533807250,-2.2065215,-2.706107,1.3413386,-9.185776,-4.3947487,-7.288007
169,1747533807260,-2.3258655,-2.6782842,1.9287844,-9.093098,-4.3872914,-6.456568
170,1747533807270,-2.2868164,-2.5684586,2.1484358,-8.511995,-4.190218,-6.0182114
171,1747533807280,-2.211891,-2.4112856,2.13184,-7.7812243,-3.742274,-5.6112804
172,1747533807290,-2.14087025,-2.3383125,2.00932325,-7.4762924,-3.4384073,-5.428853950000001
173,1747533807300,-1.8919317,-2.177723,1.615415,-6.787865,-2.4096282,-5.0003514
174,1747533807310,-1.6046765,-2.1416023,1.3005811,-6.401174,-0.93849796,-4.9960904
175,1747533807320,-1.6317668,-2.1425786,1.240543,-6.280267,0.08894958,-5.118063
176,1747533807330,-1.7943089,-2.045688,1.3742863,-6.0661483,0.8202536,-5.0626693
177,1747533807340,-1.9219507,-1.965637,1.7159665,-5.596367,1.2841763,-4.899684
178,1747533807350,-1.9193882,-1.93342145,1.7967495,-5.3225940000000005,1.2972258,-4.8426925
179,1747533807360,-2.0522776,-1.5522041,1.6857034,-4.7116647,0.9917612,-4.6813045
180,1747533807370,-2.0903504,-1.2593354,1.5507398,-4.778776,0.16618125,-4.0677123
181,1747533807380,-2.0098114,-0.99184865,1.445063,-5.0988884,-0.21997711,-3.6256275
182,1747533807390,-1.7467177,-0.55791485,1.6110219,-5.46054555,-0.7310377050000001,-3.27488925
183,1747533807400,-1.8455609,-0.42392743,1.667155,-6.153500149999999,-1.93185705,-2.39045345
184,1747533807410,-1.9832093,-0.228803655,1.61993,-6.2488413,-2.1134846,-2.1774006
185,1747533807420,-2.006883,-0.15302388,1.5983309,-6.4075656,-2.3888555,-1.6847157
186,1747533807430,-1.922195,0.08078295,1.6625179,-6.5551047,-2.431466,-1.0871024
187,1747533807440,-1.5436621,-0.07785426,2.0481284,-6.741526,-2.6695528,-0.13582122
188,1747533807450,-1.2091816,-0.18048033,2.3527118,-6.699448,-2.6780748,0.055926383
189,1747533807460,-1.0994779,-0.13447554,2.4757166,-6.4400563,-2.501241,0.10066749
190,1747533807470,-0.9994144,0.0353883,2.5848103,-6.0512347,-1.969674,0.18056233
191,1747533807480,-1.0287013,0.13691612,2.9728613,-5.3273873,-0.5800365,0.32117724
192,1747533807490,-1.0008788,0.22794947,3.158833,-5.083975,-0.27324033,0.3584615
193,1747533807500,-1.0391958,0.30677995,3.2576761,-5.1127367,-0.077231675,0.43729106
194,1747533807510,-1.18465385,0.268340945,4.0745356,-4.865595300000001,0.16564862,0.749679875
195,1747533807520,-1.1707426,0.24478942,4.4062095,-4.658934,0.1587244,0.8692558
196,1747533807530,-0.77122086,0.051496077,4.8064637,-3.610714,0.360592,0.9150622
197,1747533807540,-0.6037976,-0.035144243,4.910432,-3.107909,0.8048073,0.63010395
198,1747533807550,-0.63406074,-0.07980672,5.111291,-2.8202877,1.3896375,0.36005938
199,1747533807560,-0.86567104,-0.16913168,5.5544987,-2.4309335,1.9270633,0.108124346
200,1747533807570,-1.69754015,-0.37365164,6.791381149999999,-0.8942895,2.1140172,-0.267914
201,1747533807580,-1.8643533,-0.35998443,6.9898,0.10173275,1.7385116,-0.3552657
202,1747533807590,-2.00627265,-0.319959045,7.026530299999999,0.5912217750000001,1.3877733,-0.35446675
203,1747533807600,-2.3302586,-0.13020454,6.807855,1.9094865,-0.0063915867,-0.25353295
204,1747533807610,-2.3331873,-0.08664032,6.691318,3.05997205,-2.77314965,-0.0111852775
205,1747533807620,-2.1933424,0.03636453,5.4947047,3.5313516,-4.137487,0.07669904
206,1747533807630,-2.2048132,0.12471326,4.8657694,3.746535,-4.5960836,0.30679616
207,1747533807640,-2.1474597,0.115072995,4.611827849999999,3.80778775,-4.6687879500000005,0.42397523
208,1747533807650,-1.8933961,-0.0034168016,4.011325,3.9542618,-4.785701,0.6828345
209,1747533807660,-1.7323183,-0.13349932,3.764095,4.0112534,-4.8522797,0.7259777
210,1747533807670,-1.5839316,-0.3619369,3.3662815,4.0309606,-5.032842,0.76272935
211,1747533807680,-1.5273103,-0.49616838,3.2925763,4.074104,-5.0898337,0.7637946
212,1747533807690,-1.50339265,-0.603553565,3.29806755,4.15533025,-5.099421,0.7443535299999999
213,1747533807700,-1.4824038,-0.99209267,3.3921516,4.714328,-5.075985,0.65726817
214,1747533807710,-1.6098017,-1.5063213,3.3538346,6.0560284,-5.011004,0.62051654
215,1747533807720,-1.67106,-1.7201155,3.0973306,6.7175574,-5.0317764,0.6556703
216,1747533807730,-1.658369,-1.9448922,2.7217264,7.16923,-5.0797133,0.64395237
217,1747533807740,-1.636892,-2.1433108,2.279739,7.389207,-5.1681304,0.55979645
218,1747533807750,-1.6224926,-2.271685,1.9446481,7.4264913,-5.2901034,0.44315
219,1747533807760,-1.5783182,-2.4825501,1.5902771,7.44247,-5.258678,0.32756883
220,1747533807770,-1.4970472,-2.5945725,1.5302389,8.194015,-3.9068575,0.1470065
221,1747533807780,-1.458242,-2.6956124,1.4753261,8.742625,-3.125486,0.11345066
222,1747533807790,-1.4748379,-2.736858,1.3340169,9.153817,-2.624279,0.17417073
223,1747533807800,-1.4712991,-2.74247125,1.22687575,9.25528375,-2.4197482,0.2237055299999999
224,1747533807810,-1.4820376,-2.71440455,1.05042238,9.39403475,-2.05489515,0.3451456899999999
225,1747533807820,-1.5209647,-2.5828578,0.8473667,9.129849,-1.7385116,0.77231675
226,1747533807830,-1.518036,-2.549178,0.86884385,8.844891,-1.7859159,0.9624664
227,1747533807840,-1.5138872,-2.56675,0.89032084,8.598282,-1.9062908,1.1307782
228,1747533807850,-1.6139506,-2.6111686,0.8422416,8.212124,-2.052232,1.3523532
229,1747533807860,-1.6980282999999998,-2.8914683,0.854566465,6.9583073,-2.7095,1.649562
230,1747533807870,-1.6160251,-2.95455705,1.0238201500000002,6.2946477,-3.274623,1.6160061
231,1747533807880,-1.5561091,-2.9792068,1.1277885,5.8317904,-3.7800908,1.4929681
232,1747533807890,-1.47557015,-3.0053209,1.25201365,5.7857177,-3.9185754,1.36939745
233,1747533807900,-1.2246792,-3.0211847,1.5436621,6.008624,-4.0155144,0.9400959
234,1747533807910,-1.1565872,-2.9599264,1.5336558,7.1607075,-3.3305492,0.41438788
235,1747533807920,-1.232001,-2.8364334,1.2495731,7.8243675,-2.8463867,0.3435478
236,1747533807930,-1.1866064,-2.6997612,0.87616557,8.108793,-2.5033715,0.35260254
237,1747533807940,-1.19075535,-2.6310592,0.722775535,8.161523500000001,-2.3584955,0.387489945
238,1747533807950,-1.1473131,-2.383219,0.281398,8.218248500000001,-2.06181935,0.504935355
239,1747533807960,-1.1526824,-2.12403,-0.34070393,7.822237,-1.6357136,1.0146644
240,1747533807970,-1.1902672,-1.9387908,-0.64260274,7.4163713,-1.6074841,1.3054816
241,1747533807980,-1.1812371,-1.8436085,-0.85444444,6.853379,-1.9185413,1.6160061
242,1747533807990,-1.1132670999999998,-1.8282329,-0.97549682,6.4949175,-2.21015745,1.73504945
243,1747533808000,-0.82808626,-1.7967494,-1.2969202,5.3955646,-3.0679617,1.9254655
244,1747533808010,-0.36096066,-1.7911361,-1.892908,4.3856936,-3.3214946,1.8796592
245,1747533808020,-0.15619664,-1.7054721,-2.2631428,4.2488074,-2.7105653,1.8290591
246,1747533808030,-0.13691612,-1.7022992,-2.523064,4.1007357,-1.9702066,1.7816548
247,1747533808040,-0.186093645,-1.69595375,-2.6238596000000003,3.96571335,-1.78564955,1.79363905
248,1747533808050,-0.29262465,-1.6722802,-2.988481,3.3310819,-1.850897,1.8141453
249,1747533808060,-0.2489384,-1.6271297,-3.744082,1.9755329,-3.178749,1.7869811
250,1747533808070,-0.041977845,-1.6273737,-4.3747263,1.3534185,-3.4663706,1.6985642
251,1747533808080,0.13862452,-1.7001028,-5.0021977,0.6924219,-2.9694247,1.4066817
252,1747533808090,0.2046420099999999,-1.71974935,-5.13642905,0.2743056,-2.0527647,1.0349044
253,1747533808100,0.28396062,-1.7778350500000002,-5.2844496,0.1331580584999999,-1.5973641,0.8322378500000001
254,1747533808110,0.24478942,-1.8379952,-5.2716365,-0.2444782,-0.50120693,0.2428803
255,1747533808120,-0.0273344125,-1.6000393,-5.4255145,-1.0439591,0.46179214,-0.16724652
256,1747533808130,-0.0302631,-1.577586,-5.461513,-1.7385116,0.6609966,-0.34780884
257,1747533808140,-0.12910628,-1.5190123,-5.3348475,-3.8152447,1.0913634,-0.8809737
258,1747533808150,-0.3431445,-1.5185242,-4.8291607,-4.9044776,1.6932379,-1.0620687
259,1747533808160,-0.571338,-1.5490314,-4.117734,-5.43711,2.1555626,-1.0982877
260,1747533808170,-0.78415596,-1.5705084,-3.581296,-5.7907777,2.6818032,-1.0210559
261,1747533808180,-0.8829991,-1.6176114,-3.0973306,-6.0427127,3.2341428,-0.9310411
262,1747533808190,-0.89422575,-1.66483645,-2.8686489,-6.250972,3.6804886,-0.9171927
263,1747533808200,-0.873725,-2.075707,-1.7520871,-6.8278127,4.102866,-1.24849
264,1747533808210,-0.95377576,-2.1686926,-1.3269392,-7.066432,4.1614556,-1.5174692
265,1747533808220,-1.10753175,-2.25838375,-0.83626215,-7.33834055,4.21951245,-1.8546254
266,1747533808230,-1.1734272,-2.2875485,-0.6889736,-7.4206324,4.2557316,-1.9611518
267,1747533808240,-1.2854495,-2.3856597,-0.0976229,-7.490140699999999,4.1950113,-2.0999025
268,1747533808250,-1.3074148,-2.4478943,0.034168016,-7.725298,3.9100533,-2.4250746
269,1747533808260,-1.4348125,-2.4488704,0.11592719,-7.916513,3.7854173,-2.5225463
270,1747533808270,-1.6603215,-2.4447215,0.18938842,-8.089086,3.8152447,-2.4527714
271,1747533808280,-2.0117638,-2.5206234,0.33191785,-8.284029,4.456534,-1.8956381
272,1747533808290,-2.0581348,-2.698541,0.4327135,-8.41186,4.7638626,-1.7214674
273,1747533808300,-2.0781474,-2.855958,0.60843474,-8.649415,4.844823,-1.6905746
274,1747533808310,-2.0759509,-3.00947,0.9257092,-8.783638,4.6557384,-1.7928401
275,1747533808320,-2.0969398,-3.039733,1.1866064,-8.8193245,4.287689,-1.8977686
276,1747533808330,-2.1081665,-3.0236251,1.3210819,-8.810269,3.9265647,-1.9499665
277,1747533808340,-2.16552,-2.9003763,1.3635478,-8.831042,3.5089812,-1.7379789
278,1747533808350,-2.1015768,-2.9269786,1.4399377,-8.861935,3.37316,-1.5638082
279,1747533808360,-2.0735104,-2.9106266,1.5480552,-8.815596,3.2597091,-1.3507553
280,1747533808370,-2.0046864,-2.8898818,1.616147,-8.667524,3.235208,-1.081776
281,1747533808380,-1.883878,-2.9140434,1.6406748,-8.387093499999999,3.4104441000000003,-0.8580704800000001
282,1747533808390,-1.5576954,-3.00068375,1.7666083499999998,-7.8217044,3.8051245,-0.55340487
283,1747533808400,-1.44884585,-3.0116664,1.8824136,-7.2533858,4.105263,-0.655936565
284,1747533808410,-1.4101628,-2.9997077,1.9407433,-7.042996,4.20886,-0.71479243
285,1747533808420,-1.3642801,-2.7392986,2.2089622,-6.1444454,4.511395,-1.000816
286,1747533808430,-1.3371897,-2.548934,2.3549085,-5.7449713,4.4714475,-1.154214
287,1747533808440,-1.3356032999999998,-2.4485043500000003,2.41470245,-5.550826799999999,4.344947250000001,-1.21786355
288,1747533808450,-1.3410946,-2.0752187,2.5215995,-4.9960904,3.755057,-1.3225259
289,1747533808460,-1.2978964,-1.7662423,2.4686391,-4.6291065,2.9891322,-1.2564794
290,1747533808470,-1.1783084,-1.2566508,2.2780304,-4.2269692,1.7805896,-0.93157375
291,1747533808480,-1.0338265,-1.0631135,2.2138433,-4.0687776,1.2495552,-0.7190535
292,1747533808490,-0.87640953,-0.9586569,2.2121348,-3.95958795,1.03437178,-0.63569655
293,1747533808500,-0.73412424,-0.9061846,2.1391618,-3.6144423,0.4346279,-0.42770368
294,1747533808510,-0.6562699,-0.8969103,1.9856498,-3.426423,0.17789917,-0.33129725
295,1747533808520,-0.53643787,-1.0438329,1.6527556,-3.351322,0.14221281,-0.30200246
296,1747533808530,-0.42636803,-1.0523748,1.6320108,-3.4269557,0.330232,-0.49481535
297,1747533808540,-0.41880223,-0.93254274,1.7328066,-3.41443885,0.49348377,-0.593086005
298,1747533808550,-0.54888475,-0.7668279,1.9971205,-3.1707597,1.1531488,-0.8127968
299,1747533808560,-0.70947443,-0.1487528920499999,2.38565955,-2.7180223,1.5217303,-0.9012137
300,1747533808570,-0.74242216,0.0039049159,2.3385565,-2.0991037,1.7182716,-0.8516789
301,1747533808580,-0.75901806,0.11312053795,2.3143948,-2.14783955,1.7174726,-0.78350198
302,1747533808590,-0.82198483,0.24661986,2.3047545,-2.35050605,1.6860473,-0.62664181
303,1747533808600,-0.87396896,0.29116032,2.4708354,-2.944391,1.6080167,-0.40213734
304,1747533808610,-0.9637821,0.52033,3.312345,-3.3790188,2.056493,-0.3435478
305,1747533808620,-1.2429836,0.72021294,3.8177874,-3.080212,2.5843315,-0.1454086
306,1747533808630,-1.5007081,0.8820229,4.2580667,-2.7201529,2.999252,0.22423817
307,1747533808640,-1.5927176,0.85127175,4.700299,-2.5044367,3.1356058,0.54648066
308,1747533808650,-1.5841756,0.56523657,5.46493,-2.3276029,2.9278793,0.5683186
309,1747533808660,-2.161371,0.22135992,6.972227,-1.4242586,1.2804478,0.47244477
310,1747533808670,-2.2731493,0.0924977,7.435448,-0.5587312,0.04474111,0.6247776
311,1747533808680,-2.1923664,-0.030019043,7.460098,0.6562029,-1.2298478,0.7142598
312,1747533808690,-2.16552,-0.1415532,7.136478,1.5712651,-1.8865833,0.7824367
313,1747533808700,-2.1015768,-0.22648512,6.7372,2.3419838,-2.4586303,0.9257148
314,1747533808710,-1.5312152,-0.45467865,5.794163,3.3641052,-3.649596,0.75154406
315,1747533808720,-1.5146193,-0.42478165,5.2228252,3.51750325,-3.840811,0.64688183
316,1747533808730,-1.4980234,-0.39488465,4.6514874,3.9164448,-4.0703754,0.48682585
317,1747533808740,-1.47447185,-0.401230125,4.46954255,4.01098705,-3.99660585,0.497212175
318,1747533808750,-1.4162643,-0.46614933,4.044517,4.238687,-3.7209687,0.515588
319,1747533808760,-1.432128,-0.6726217,4.0642853,4.4176517,-3.3443978,0.628506
320,1747533808770,-1.3947871,-0.882511,4.165325,5.053082,-3.2597091,0.62264705
321,1747533808780,-1.3523211,-1.0789771,4.1789923,5.4999604,-3.4290862,0.5699165
322,1747533808790,-1.334261,-1.2163813,4.004247,5.909022,-3.5531895,0.50600064
323,1747533808800,-1.34182675,-1.2664130500000002,3.901377,6.2483087,-3.542537,0.4628574
324,1747533808810,-1.441158,-1.649583,3.6176605,7.0014505,-3.5494611,0.39787626
325,1747533808820,-1.462635,-1.8362867,3.4739108,7.454188,-3.6378782,0.350472
326,1747533808830,-1.4897255,-1.9600239,3.1778693,7.9708414,-3.6586509,0.34780884
327,1747533808840,-1.496559,-2.0354373,2.7680972,8.324509,-3.518036,0.41971418
328,1747533808850,-1.458242,-2.1037736,2.3946898,8.637164,-3.2304144,0.52144694
329,1747533808860,-1.3789234,-2.2443504,1.8392154,8.895491,-2.824016,0.6375608
330,1747533808870,-1.3474401,-2.357837,1.7140139,9.161274,-2.1917815,0.80533993
331,1747533808880,-1.3340169,-2.4654663,1.6058967,9.232114,-1.9265308,0.94728645
332,1747533808890,-1.3659884,-2.6153173,1.6083373,9.313607,-1.7752632,1.0365024
333,1747533808900,-1.3659884,-2.6153173,1.6083373,9.313607,-1.7752632,1.0365024
334,1747533808910,-1.3042419,-2.77908,1.5321914,9.460081,-1.5611451,1.3448963
335,1747533808920,-1.3037539,-2.7781038,1.4257824,9.343967,-1.4711303,1.5052186
336,1747533808930,-1.312784,-2.7573588,1.4392056,9.157546,-1.4343786,1.6916399
337,1747533808940,-1.33853205,-2.7485727,1.4285891,9.008675,-1.5198661,1.7888453
338,1747533808950,-1.4094307,-2.7006155,1.3723339,8.600146,-1.7795242999999998,1.99177825
339,1747533808960,-1.6041883,-2.7600434,1.3911263,7.0419307,-2.8975194,2.4394555
340,1747533808970,-1.6083373,-2.8889058,1.6017478,6.621684,-3.3545177,2.4479778
341,1747533808980,-1.6010156,-2.9726174,1.7577002,6.44485,-3.8397458,2.3707461
342,1747533808990,-1.60321205,-2.96395325,1.7313421,6.412093199999999,-4.0482714,2.29298175
343,1747533809000,-1.569044,-2.9062338,1.6227367,6.375608,-4.440555,2.0836573
344,1747533809010,-1.5321914,-2.873286,1.6005274,6.486928,-4.485296,1.8445054
345,1747533809020,-1.5321914,-2.873286,1.6005274,6.486928,-4.485296,1.8445054
346,1747533809030,-1.6827747,-2.7336853,1.3921026,7.2150364,-3.2868736,2.4437168
347,1747533809040,-1.2849613,-2.4439893,0.42587993,7.124489,-2.747317,2.509763
348,1747533809050,-1.1071657,-2.5368531,0.15936939,6.85444415,-2.1947112,2.2751385
349,1747533809060,-1.02687085,-2.56516365,0.0375848146,6.6488483,-2.0093551,1.90043175
350,1747533809070,-1.1905112999999998,-2.53721905,-0.0412456754,6.72022115,-1.84690225,1.5454324000000002
351,1747533809080,-1.3569584,-2.5074441,-0.08078295,6.868293,-1.7214674,1.4050838
352,1747533809090,-1.77563855,-2.5467373,-0.93437315,7.288273,-1.6855147,1.60988095
353,1747533809100,-1.75135485,-2.50939655,-1.75452745,7.2781532,-1.6588831000000002,1.8474349
354,1747533809110,-1.52743235,-2.442769,-2.63471995,6.83873155,-1.75688745,2.1052288
355,1747533809120,-0.98452695,-2.3974964,-3.83499345,6.5002437,-1.8572886,2.214152
356,1747533809130,-0.6157564,-2.3651588,-4.5955977,3.9388154,-1.9803267,2.1214743
357,1747533809140,-0.38194957,-2.5064678,-4.906283,2.8911278,-1.5835156,2.0330572
358,1747533809150,-0.07834238,-2.655587,-4.970226,2.1326594,-1.1424961,1.8551581
359,1747533809160,0.0713867449999999,-2.75821305,-5.01427825,1.814678,-0.98457065,1.6839168
360,1747533809170,0.22111587,-2.8608391,-5.0583305,1.4966966,-0.8266452,1.5126755
361,1747533809180,0.76756,-2.873286,-5.451995,-0.71106404,-0.09427591,0.04261058
362,1747533809190,0.7641432,-2.7373462,-5.4898233,-1.6282567,0.23702134,-0.18429075
363,1747533809200,0.83833665,-2.681701,-5.3348475,-3.21017445,0.8130630750000001,-0.525175375
364,1747533809210,0.8700641,-2.66901,-5.014156,-3.7982004,1.045557,-0.68176925
365,1747533809220,0.42441556,-2.4749845,-3.66244495,-5.23950325,2.4229441,-1.155812
366,1747533809230,0.31532198,-2.460585,-3.3923957,-5.428055,2.646117,-1.2234563
367,1747533809240,0.121052395,-2.4543617,-2.6560750000000004,-5.91088625,2.78886235,-1.57046615
368,1747533809250,0.06809197,-2.4574125,-2.4122617,-6.075736,2.7100327,-1.7081516
369,1747533809260,-0.020256752,-2.468883,-1.9124327,-6.372945,2.4074976,-2.0394487
370,1747533809270,-0.3162982,-2.272173,-1.4062579,-6.623282,2.1885858,-2.3137543
371,1747533809280,-0.43027294,-2.2492316,-1.2068632,-7.016897,2.3702135,-2.5161545
372,1747533809290,-0.4656612,-2.3514917,-0.93888825,-7.276289,2.6306705,-2.67914
373,1747533809300,-0.55108124,-2.4691272,-0.6982478,-7.532485,2.769155,-2.8932583
374,1747533809310,-0.90093735,-2.651682,-0.29579739,-8.1585942,2.6780748,-3.1531829
375,1747533809320,-1.19258575,-2.8139801,-0.09859913,-8.707737999999999,2.55237365,-3.20032085
376,1747533809330,-1.2695858,-2.8893938,-0.04637088,-8.905078,2.501241,-3.1867387
377,1747533809340,-1.3413386,-3.0939138,0.0690682,-9.741311,2.3268038,-3.18620595
378,1747533809350,-1.3962514,-3.2950168,0.28579104,-9.98792,2.2658174,-3.1947281
379,1747533809360,-1.7550156,-3.62571445,0.910699635,-10.371948,2.4021714000000003,-2.95850575
380,1747533809370,-1.8311615,-3.6591504,1.0196712,-10.416689,2.4991105,-2.8549087
381,1747533809380,-1.9597796,-3.7377367,1.1329137,-10.363958,2.6956518,-2.620018
382,1747533809390,-2.1015768,-3.782643,1.193928,-10.42094975,2.7973845,-2.49538205
383,1747533809400,-2.229707,-3.8695276,1.3286476,-10.775682,2.9987195,-2.1049626
384,1747533809410,-2.2624106,-4.2517214,1.9797924,-11.3437345,2.556102,-1.61227775
385,1747533809420,-2.1357448,-4.393275,2.2619226,-11.350392,2.422944,-1.5547534
386,1747533809430,-2.0437355,-4.4281745,2.4012792,-11.135209,2.2764702,-1.4658039
387,1747533809440,-1.990287,-4.396203,2.4288578,-10.681407,2.4964473,-1.3097427
388,1747533809450,-1.8943723,-4.3634996,2.4727879,-10.245713,2.8405278,-1.2500879
389,1747533809460,-1.7926004,-4.337385,2.4971936,-9.83612,3.0525153,-1.27885
390,1747533809470,-1.8511742,-4.1990048,2.5046375000000003,-9.558352,3.1720912500000003,-1.23330995
391,1747533809480,-1.9280523,-3.9066243,2.7000053,-9.084576,3.333745,-1.0423613
392,1747533809490,-1.8397036,-3.8351157,2.9801831,-8.783106,3.2559807,-0.9768475
393,1747533809500,-1.7755165,-3.7050328,3.223752,-8.3239765,3.090865,-0.96140116
394,1747533809510,-1.6852154,-3.4385226,3.3655493,-7.752462,2.871953,-0.89588743
395,1747533809520,-1.4182167,-2.7925029,3.18812,-6.595585,2.194445,-0.70680296
396,1747533809530,-1.3157127,-2.4808419,3.0370483,-6.2328625,1.8722023,-0.60507023
397,1747533809540,-1.28044635,-2.3141507,2.9851861,-6.05895805,1.73398425,-0.535828035
398,1747533809550,-1.1831895,-1.7767367,2.8213017,-5.5521584,1.3805827,-0.27537087
399,1747533809560,-0.9947773,-1.3901501,2.7087913,-5.244297,1.2042814,-0.098004326
400,1747533809570,-0.74535084,-0.9169231,2.5377073,-4.802745,0.6860303,0.21571605
401,1747533809580,-0.7307074,-0.6787232,2.4293458,-4.7020774,0.4165184,0.5086638
402,1747533809590,-0.70752197,-0.59366925,2.4179971,-4.6277752,0.33768884,0.7645935500000001
403,1747533809600,-0.33533466,-0.48201308,2.527945,-4.4581318,0.22610239,1.1262508
404,1747533809610,0.18841219,-0.28359452,2.792747,-3.6621128,0.67804083,0.8612663
405,1747533809620,0.22477673,-0.007321717,2.9609025,-3.4487936,0.96406436,0.7781757
406,1747533809630,0.11568313,0.20451997,3.1834826,-2.9449236,1.6303873,0.7254451
407,1747533809640,0.106897075,0.21940746,3.2477918,-2.7459855,1.88977915,0.6929545500000001
408,1747533809650,0.0976229,0.25699228,3.440475,-2.290851,2.560363,0.48469532
409,1747533809660,0.00097622897,0.35583547,3.6000884,-2.141714,2.8746161,0.27483824
410,1747533809670,-0.780007,0.56767714,4.538489,-1.6415725,3.807788,0.2615224
411,1747533809680,-1.155367,0.5435155,5.337044,-1.1323761,3.8354847,0.5139901
412,1747533809690,-1.3459758,0.36950266,5.9454784,-0.68656296,3.1521175,0.72491246
413,1747533809700,-1.3974718,0.22306833,6.2937484,-0.34567833,1.9052255,0.8069378
414,1747533809710,-1.62798385,-0.2051301175,6.347075,0.05965481,-0.78563255,1.0689929
415,1747533809720,-1.6517794,-0.34241232,6.344024,0.32756883,-1.7955033,1.2500879
416,1747533809730,-1.5807588,-0.74339837,6.307904,0.69135666,-2.7201529,1.3677995
417,1747533809740,-1.457998,-1.2227268,6.2134533,1.2969595,-3.5942023,1.206412
418,1747533809750,-1.37001535,-1.4558014,6.15073065,1.6511599499999998,-3.77796045,1.01599597
419,1747533809760,-1.4043053,-1.9575832,5.462489,3.8354847,-3.415238,0.17150758
420,1747533809770,-1.3989362,-2.033485,5.1193447,4.93244065,-2.4812672,-0.11451592615
421,1747533809780,-1.355494,-2.1164646,4.876996,5.226187,-2.2130868,-0.22370553
422,1747533809790,-1.71791895,-2.04068475,4.77485815,6.02939675,-2.2993732500000004,-0.7044061500000001
423,1747533809800,-1.8294531,-1.9888225,4.7796173,6.1535,-2.4122913,-0.7414241
424,1747533809810,-2.0788796,-1.8831457,4.71543,6.3218117,-2.7931235,-0.69987875
425,1747533809820,-2.3514917,-1.8226196,4.6678386,6.409696,-3.4754252,-0.4926848
426,1747533809830,-2.4515553,-1.8414118,4.6883397,6.5252776,-4.145477,-0.31851408
427,1747533809840,-2.4930449,-2.118661,4.47601,7.0701604,-5.144162,-0.19813919
428,1747533809850,-2.430078,-2.207742,4.267585,7.5191693,-5.2379055,-0.20026971
429,1747533809860,-2.3553965,-2.3151271,3.951775,8.09388,-4.9918294,-0.19068234
430,1747533809870,-2.2585058,-2.4164107,3.597648,8.715994,-4.509797,-0.1917476
431,1747533809880,-2.2284868,-2.5272126,2.9406457,9.606022,-3.5649076,-0.06924219
432,1747533809890,-2.229707,-2.5884712,2.6621764,9.800433,-3.4471958,0.08468852
433,1747533809900,-2.2192125,-2.6546109,2.391029,9.8323905,-3.50525275,0.141413855
434,1747533809910,-2.2175043,-2.706595,2.1379416,9.870208,-3.7417414,0.34194988
435,1747533809920,-2.144043,-2.7961638,1.8968128,9.8680775,-3.8245657,0.414121555
436,1747533809930,-1.9924834,-2.8603508,1.6913167,9.93146,-3.9936764,0.57311225
437,1747533809940,-1.5792944,-2.9918978,1.1868503,10.065151,-3.778493,0.6823019
438,1747533809950,-1.47630225,-3.013741,1.0609168,10.0907175,-3.59446865,0.65859975
439,1747533809960,-1.3268172,-2.9805492,0.7861084,10.1082945,-3.12921445,0.6402239249999999
440,1747533809970,-1.2244352,-2.7292922,0.39366436,9.894709,-1.8636801,0.87618
441,1747533809980,-0.9349833,-2.6504617,0.4419877,9.370066,-0.71319455,1.2144015
442,1747533809990,-0.94352525,-2.6072636,0.5127643,9.214804,-0.60347231,1.2857742
443,1747533810000,-0.989041975,-2.57089905,0.5171573,8.622783,-0.4101268,1.5451661
444,1747533810010,-1.05005635,-2.52062325,0.5480305249999999,7.9905486,-0.680704,1.6841831
445,1747533810020,-0.96817505,-2.395666,0.737541,7.166567,-1.4002901,1.6841831
446,1747533810030,-0.9642702,-2.307073,0.82027644,5.610215,-3.0956585,1.4652712
447,1747533810040,-0.8659151,-2.3046324,0.91619086,5.1004863,-3.583017,1.3006879
448,1747533810050,-0.7643873000000001,-2.32830605,0.92680738,5.011004,-3.60245805,1.1992215000000002
449,1747533810060,-0.6216138,-2.3292825,0.85908157,4.863465,-3.2820797,0.9667275
450,1747533810070,-0.45248213,-2.1774788,0.71777236,4.9247174,-2.6913908,0.9938917
451,1747533810080,-0.29482117,-2.2655835,0.7038611,5.139901,-1.4849787,0.9896307
452,1747533810090,-0.20012695,-2.48133,0.83809257,5.273059,-1.1052119,0.7717841
453,1747533810100,-0.23478307,-2.5318499,0.92863786,5.5351143,-0.93157375,0.49481535
454,1747533810110,-0.37072295,-2.4874313,0.84907514,5.8152785,-0.8697884,0.34194988
455,1747533810120,-0.63113207,-2.3517356,0.3943965,6.049637,-0.968858,0.23861924
456,1747533810130,-0.6811638,-2.2365406,0.1244692,5.8674765,-1.0306433,0.2593919
457,1747533810140,-0.6643238,-2.1306198,-0.10640897,5.6086173,-0.99442434,0.2444782
458,1747533810150,-0.68201798,-2.07875755,-0.18438525,5.49330235,-0.972053795,0.26152243
459,1747533810160,-0.69117016,-1.9844296,-0.45297024,5.2970276,-0.93636745,0.33449304
460,1747533810170,-0.50690687,-1.9197543,-1.3423148,5.496232,-0.6306366,0.32597092
461,1747533810180,-0.29774985,-1.9558747,-1.9304928,5.572931,-0.31158987,0.14327806
462,1747533810190,-0.20281157,-1.9336655,-2.5547912,5.49783,0.1635181,-0.10652645
463,1747533810200,-0.13447554,-1.83287,-3.153952,5.1691957,0.65673554,-0.35473305
464,1747533810210,-0.09835507,-1.5080298,-4.198761,4.710067,0.8825716,-0.46232477
465,1747533810220,-0.065163285,-1.3323085,-4.531899,3.0434606,1.2234563,-0.28229508
466,1747533810230,0.0012202862,-1.3142483,-4.6695476,1.995773,1.2053467,-0.16777915
467,1747533810240,0.027334413,-1.3093672,-4.61317,0.87831056,1.1393003,-0.03888215
468,1747533810250,0.13886857,-1.4206573,-4.3966913,-0.056991648,0.95607483,0.10918961
469,1747533810260,0.44223174,-1.5275543,-4.1172457,-1.2751216,0.9901633,0.17470337
470,1747533810270,0.52350282,-1.55513275,-4.0601363500000005,-1.58271665,1.0543455,0.129962265
471,1747533810280,0.74486274,-1.6561725,-3.8736768,-2.4122913,1.2516857,-0.08681905
472,1747533810290,0.75950617,-1.7164546,-3.6689126,-2.9332056,1.3257216,-0.26418558
473,1747533810300,0.75950617,-1.756236,-3.4014258,-3.396063,1.2500879,-0.41438788
474,1747533810310,0.7648754,-1.7359792,-2.9311275,-4.0719733,1.0359697,-0.6103965
475,1747533810320,0.83101493,-1.7586764,-2.8283794,-4.398477,0.87511474,-0.7707188
476,1747533810330,0.8502955,-1.7730759,-2.762972,-4.817126,0.7669904,-0.9709886
477,1747533810340,0.79513854,-1.7845466,-2.6529024,-5.289038,0.71532506,-1.1675298
478,1747533810350,0.6604189,-1.7938206,-2.4891398,-5.873868,0.7930894,-1.31933
479,1747533810360,0.34582913,-1.9117005,-1.9929714,-6.6930566,1.3171995,-1.4088123
480,1747533810370,0.23112221,-1.9973645,-1.6822866,-7.0158315,1.7337179,-1.4503576
481,1747533810380,0.16107778,-2.1279352,-1.3518331,-7.2619076,2.1486385,-1.5781893
482,1747533810390,0.08615221,-2.3119543,-0.89349353,-7.3886743,2.5145566,-1.8258632
483,1747533810400,-0.05515694,-2.4283698,-0.528628,-7.423828,2.8772793,-2.1310616
484,1747533810410,-0.44808912,-2.5765123,0.07834238,-7.207579,3.5697012,-2.7899277
485,1747533810420,-0.6643238,-2.6187344,0.21599068,-7.1575117,3.8360174,-3.1361384
486,1747533810430,-0.86225426,-2.7183096,0.2757847,-7.297594,3.9318912,-3.4029872
487,1747533810440,-1.0897156,-2.8171527,0.34387666,-7.586281,3.9340217,-3.6171055
488,1747533810450,-1.3994243,-2.8549817,0.4527262,-7.918111,3.963849,-3.667173
489,1747533810460,-1.8372629,-2.9411337,0.8583493,-8.309063,4.058125,-3.4434674
490,1747533810470,-1.897789,-3.0280182,1.0294335,-8.417187,4.033091,-3.3396041
491,1747533810480,-1.8411678,-3.159321,1.2129645,-8.533301,3.7758298,-3.3593116
492,1747533810490,-1.816518,-3.2081325,1.2834971,-8.591091500000001,3.57263065,-3.4104443
493,1747533810500,-1.8004103,-3.2964811,1.5229172,-8.6483495,3.12868165,-3.5039212
494,1747533810510,-1.75550375,-3.31832425,1.64738635,-8.225972500000001,2.7702201,-3.6610477
495,1747533810520,-1.7318302,-3.317958,1.6429933,-8.14448,2.828277,-3.7097836
496,1747533810530,-1.7825942,-3.2984335,1.6337193,-8.005995,3.033873,-3.7758298
497,1747533810540,-1.9239032,-3.2300978,1.688632,-7.8270307,3.3688989,-3.7406762
498,1747533810550,-1.9782061,-3.00654115,1.89034545,-7.1953287,3.8860848,-3.496198
499,1747533810560,-1.9505056,-2.9828675,1.8872948,-6.8959894,3.8488004,-3.456783
500,1747533810570,-1.8977892,-2.8635237,1.82798875,-6.6483154,3.5675707,-3.4993937
501,1747533810580,-1.900718,-2.800801,1.8023627,-6.540191,3.2069786,-3.5324168
502,1747533810590,-1.9048668,-2.7119641,1.7594087,-6.5226145,2.7803402,-3.5361454
503,1747533810600,-1.8284769,-2.6123888,1.7938206,-6.499711,2.3531692,-3.5595813
504,1747533810610,-1.78344825,-2.1395279,1.9029144,-6.2568307,2.1949775,-3.465838
505,1747533810620,-1.7703912,-2.0212822,1.9700302,-5.939382,2.3675501,-3.3305492
506,1747533810630,-1.7606289,-1.8187146,2.0869334,-5.5143414,2.5523736,-3.1680965
507,1747533810640,-1.75403945,-1.7066923,2.1355008,-5.041364,2.7361317,-2.9720879
508,1747533810650,-1.78466865,-1.3761168,2.2035928,-5.041364,2.7361317,-2.9720879
509,1747533810660,-1.8911997,-1.0526189,2.1337924,-3.904194,2.2407837,-2.3872576
510,1747533810670,-1.990287,-0.9808661,2.0842488,-3.90739,1.6698021,-2.2295985
511,1747533810680,-2.267536,-0.43368974,2.2279985,-3.973969,1.071656,-2.0905814
512,1747533810690,-2.4317863,-0.067847915,2.2565534,-4.0575924,-0.04474111,-1.4013554
513,1747533810700,-2.4967055,0.11202228,2.191878,-4.203001,-0.51665324,-0.8522116
514,1747533810710,-2.313907,0.15473229,2.1879733,-4.456534,-0.82877576,-0.35952675
515,1747533810720,-1.93256735,0.14033292,2.4653443,-4.634433,-0.506000615,-0.0013315799999999
516,1747533810730,-1.8555672,0.14497001,2.6018944,-4.6136603,-0.16405073,0.09054748
517,1747533810740,-1.9256116,0.15546446,3.4568267,-3.6069853,1.8642128,0.113983296
518,1747533810750,-1.9663693,0.21501444,3.9129696,-3.0232205,2.7089674,-0.007989483
519,1747533810760,-2.0495927,0.31776255,4.4535565,-2.4106934,3.1286817,-0.24660872
520,1747533810770,-2.4147024,0.4424758,4.8113446,-1.8530275,3.235741,-0.41864893
521,1747533810780,-3.0619423,0.86201024,5.130572,-1.0524813,3.5542548,-0.31957933
522,1747533810790,-3.1993464,0.88129072,5.263461,-0.8969526999999999,3.6019254,-0.24687503
523,1747533810800,-3.6808712,0.7797629,5.7614594,-0.330232,3.3518546,-0.0058589545
524,1747533810810,-3.9656863,0.7663397,6.0992346,0.084155895,2.7249465,0.16884442
525,1747533810820,-4.692733,0.7473033,6.41114,1.0498182,0.58056915,1.0902982
526,1747533810830,-4.648314,0.68360436,6.283742,1.4311827,-0.85594,1.7044232
527,1747533810840,-4.2961397,0.39830142,5.9496274,1.7193369,-2.2583606,2.1784658
528,1747533810850,-4.0947923500000005,0.261751395,5.791722549999999,2.07912995,-3.2549156000000004,2.46315775
529,1747533810860,-3.4336414,-0.114462845,5.2738333,2.438923,-4.2514706,2.7478497
530,1747533810870,-2.5176947,-0.54937285,4.5602098,2.9513152,-4.5667887,2.8160267
531,1747533810880,-2.1367211,-0.7180164,4.2551384,4.214186,-3.8461373,2.572081
532,1747533810890,-1.9880903,-0.82100856,4.1448245,4.83417,-3.1606395,2.4346619
533,1747533810900,-1.9265879,-0.9525554,4.1448245,5.5516257,-2.4932516,2.3515713
534,1747533810910,-1.9075515,-1.1175382,4.114561,6.299974,-1.959554,2.2919164
535,1747533810920,-2.272417,-1.376971,3.7201645,7.2794847,-1.969674,2.4192157
536,1747533810930,-2.3416073,-1.4544592,3.602041,7.326090049999999,-2.2895196,2.4748757
537,1747533810940,-2.5508864,-1.6905845,3.29941,7.428089,-3.274623,2.6519759
538,1747533810950,-2.6048229,-1.8604484,3.1922688,7.706123,-3.8599858,2.884736
539,1747533810960,-2.5738277,-2.3483188,2.7429593,8.439558,-3.6213665,3.2719598
540,1747533810970,-2.29255175,-2.73246485,2.5950606,9.281383,-2.5286715,3.48128425
541,1747533810980,-2.2416658,-2.8727977,2.541368,9.582054,-2.0996363,3.5377433
542,1747533810990,-2.186997,-3.0868359,2.3348956,10.11149,-1.2138689,3.6400087
543,1747533811000,-2.1845565,-3.1554163,2.0981603,10.398579,-0.582167,3.7806234
544,1747533811010,-2.1838243,-3.0904968,1.6268855,10.406569,-0.2396845,3.9281626
545,1747533811020,-2.3556406,-2.9997077,1.5038807,9.53465,-0.7233146,4.40114
546,1747533811030,-2.413482,-2.9743257,1.534632,9.073923,-1.230913,4.6541405
547,1747533811040,-2.4344710000000003,-2.9765222500000004,1.5418317,8.917329,-1.5169365,4.79076055
548,1747533811050,-2.451067,-2.9811594,1.394055,8.4917555,-2.2173479,5.2405686
549,1747533811060,-2.336848,-3.013131,1.1953924,8.151937,-2.3856597,5.510613
550,1747533811070,-2.0259192,-3.047787,1.1314493,7.480287,-2.4762073,5.630988
551,1747533811080,-1.98699205,-3.03485195,1.1146094,7.3449983,-2.55184105,5.65761965
552,1747533811090,-1.88351175,-3.0148392,1.06933685,7.084008450000001,-2.6929885,5.70795345
553,1747533811100,-1.6388444,-2.9943383,0.99184865,6.723417,-2.8245487,5.732721
554,1747533811110,-1.32157,-3.0753655,0.83125895,6.1753383,-2.9656963,5.414739
555,1747533811120,-1.2180897,-3.1837268,0.7390053,5.8456388,-2.884736,5.139901
556,1747533811130,-1.0897156,-3.3013625,0.76926845,5.573996,-2.7483823,4.699947
557,1747533811140,-1.0711672,-3.235711,0.8581053,5.4562845,-2.5550368,4.228567
558,1747533811150,-1.0843463,-3.0885444,0.9459658,5.471198,-2.3963125,3.794472
559,1747533811160,-1.2493291,-2.8247187,1.0789771,5.9010324,-2.2194786,3.2256207
560,1747533811170,-1.2332213,-2.702934,0.93205464,6.1833277,-2.2764702,3.1318774
561,1747533811180,-0.9938011,-2.6426518,0.6155124,6.237656,-2.4580977,3.0248184
562,1747533811190,-0.9938011,-2.6426518,0.6155124,6.237656,-2.4580977,3.0248184
563,1747533811200,-0.55779284,-2.53343615,0.0927417593,5.97959565,-2.045574,2.4964472
564,1747533811210,-0.44320798,-2.5262365,0.0036608586,6.060822,-1.5520903,2.3297334
565,1747533811220,-0.26797485,-2.5464933,-0.1871919,6.4315343,-0.76912093,2.0415792
566,1747533811230,-0.246009705,-2.5237961,-0.34204623,6.61422715,-0.335291985,1.91880755
567,1747533811240,-0.19280523,-2.5540593,-0.67042523,6.9580413,0.41838261,1.71427685
568,1747533811250,0.047347106,-2.7676091,-1.3720899,7.310377,0.9289106,1.4519554
569,1747533811260,0.38097337,-2.745888,-3.082443,6.263755,0.7099988,0.8133294
570,1747533811270,0.27846932,-2.5186708,-3.795578,5.0552125,0.33289513,0.8016115
571,1747533811280,0.28127597,-2.38370715,-4.0101045,3.510579,-0.2759035,1.0290455
572,1747533811290,0.388295085,-2.19358655,-4.253796,2.71828855,-0.6447513500000001,1.15208355
573,1747533811300,0.8358961,-2.238493,-4.242935,0.52837116,-1.635181,1.4498249
574,1747533811310,1.6246891,-2.6782842,-4.378631,-1.5611451,-2.2642195,1.4269217
575,1747533811320,2.0012693,-2.8415585,-4.433056,-2.3813987,-1.9931098,1.0807108
576,1747533811330,2.0702155500000003,-2.89098015,-4.338483849999999,-2.71083175,-1.530785,0.76699041
577,1747533811340,2.0988922,-2.9137995,-3.904672,-3.281547,-0.21731395,-0.017576864
578,1747533811350,1.965149,-2.8449752,-3.5420027,-3.4045851,0.54168695,-0.39468047
579,1747533811360,1.8109047,-2.6807246,-2.92527,-3.730556,1.1622036,-1.0588728
580,1747533811370,1.71633255,-2.53697515,-2.6055552,-4.0788975,0.99229383,-1.4556838
581,1747533811380,1.6703278,-2.4827945,-2.5103729,-4.5066013,0.7653925,-1.8551581
582,1747533811390,1.6024799,-2.43495915,-2.41030945,-4.72338265,0.67644293,-2.0330572
583,1747533811400,1.3667207,-2.336604,-2.0698495,-5.141499,0.53076802,-2.3616912
584,1747533811410,0.9364477,-2.3478308,-1.4143118,-5.997439,0.57098174,-3.0109699
585,1747533811420,0.72021294,-2.340265,-1.1192465,-6.127934,0.74461985,-3.1515849
586,1747533811430,0.58256465,-2.374189,-0.90496427,-6.2525697,0.8564726,-3.3198967
587,1747533811440,0.32557237,-2.5684586,-0.53131264,-6.605705,0.91452956,-3.9760995
588,1747533811450,0.32557237,-2.5684586,-0.53131264,-6.605705,0.91452956,-3.9760995
589,1747533811460,-0.102259986,-2.7183096,-0.24869433,-7.073356,1.0913634,-4.630172
590,1747533811470,-0.298482,-2.8081229,-0.111290105,-7.30079,1.202151,-4.947621
591,1747533811480,-0.55913514,-2.899156,0.03099527,-7.620902,1.391768,-5.3178
592,1747533811490,-0.8053889,-2.9948266,0.16571487,-7.8962727,1.5659387,-5.5431037
593,1747533811500,-1.1326697,-3.2562118,0.60038084,-8.282963500000001,1.9877834,-6.02087465
594,1747533811510,-1.3474401,-3.3584719,0.80392456,-8.309595,2.0682108,-6.0997043
595,1747533811520,-1.7105973,-3.34212,0.9515792,-8.297345,2.3094933,-6.069344
596,1747533811530,-1.86764815,-3.44767465,1.06823855,-8.311726,2.5651568,-5.9540293
597,1747533811540,-2.1167085,-3.747987,1.3762388,-8.395882,2.9134984,-5.869607
598,1747533811550,-2.2394693,-3.952751,1.615903,-8.428372,2.9265478,-6.1726749000000005
599,1747533811560,-2.44240295,-4.0857625,2.10206505,-8.399077,2.886334,-6.2807994
600,1747533811570,-2.4901161,-4.082834,2.2514281,-8.214254,2.6013758,-6.4666877
601,1747533811580,-2.4088452,-3.943721,2.5735836,-7.5836177,1.4796523,-6.829943
602,1747533811590,-2.3882222,-3.8646465,2.4847468,-7.47735765,1.2623383499999998,-6.87468425
603,1747533811600,-2.2831554,-3.675746,2.2355645,-7.3082466,0.7552725,-6.9386
604,1747533811610,-2.2650955,-3.5993564,2.1347687,-7.345531,0.5970807,-6.876815
605,1747533811620,-2.2243378,-3.4717143,2.178211,-7.282148,0.68176925,-6.751646
606,1747533811630,-2.1208575,-3.415337,2.212867,-6.4102287,1.9180087,-6.4352627
607,1747533811640,-2.016645,-3.423147,2.2309272,-5.8983693,2.6402578,-6.519951
608,1747533811650,-2.09279095,-3.3821452,2.4443553500000004,-5.0416305,3.36410505,-6.84459045
609,1747533811660,-2.1642997,-3.3382149,2.5379512,-4.738829,3.4812841,-6.9524484
610,1747533811670,-2.4352033,-2.7800562,2.723923,-3.752394,2.694054,-6.9844065
611,1747533811680,-2.5164742,-2.3495393,2.6704745,-3.381682,2.1534321,-6.761766
612,1747533811690,-2.5250163,-1.892664,2.6123888,-3.0189595,1.7235979,-6.386793
613,1747533811700,-2.5279449,-1.7042518,2.5626012,-2.81576025,1.4530207,-6.0653495
614,1747533811710,-2.4454536,-1.1224194,2.3859036,-2.3446472,0.6380934,-5.208078
615,1747533811720,-2.1381855,-0.55010504,1.8877828,-2.2498386,-0.082558,-4.7638626
616,1747533811730,-2.1813836,-0.37755656,1.8077321,-2.5465147,-1.1350393,-4.0485377
617,1747533811740,-2.1176848,-0.31898284,1.8609366,-2.6136262,-1.5313177,-3.635215
618,1747533811750,-2.1293995,-0.4148973,1.8326257,-2.6114957,-1.7720674,-3.3475935
619,1747533811760,-2.313907,-0.33484653,1.8170061,-2.641856,-1.8817897,-3.1409323
620,1747533811770,-2.591888,-0.1261776,2.003466,-2.489523,-1.4136059,-2.7782097
621,1747533811780,-3.0243573,0.1581491,2.0532537,-2.367284,-1.149154025,-2.572081
622,1747533811790,-3.16456815,0.2721238299999999,2.04580985,-2.2157501,-0.6823018949999999,-2.1800637
623,1747533811800,-3.45341,0.53912246,2.0581348,-2.273807,-0.28229508,-1.7188042
624,1747533811810,-3.9066243,0.71093875,2.0622838,-2.5523736,-0.3882889,-1.5350461
625,1747533811820,-4.1448245,0.8922733,2.3356278,-3.1537154,-0.23009712,-1.1739215
626,1747533811830,-4.3569098,1.0238202,2.8115394,-2.9678268,0.42876893,-1.0860372
627,1747533811840,-4.7044473,1.1656175,3.2903795,-2.427205,1.2080098,-1.0263823
628,1747533811850,-5.157662,1.3325526,3.5834925,-1.780057,1.8967034,-0.83037364
629,1747533811860,-6.2820334,1.40699,4.284669,-0.34887412,2.380866,0.21411815
630,1747533811870,-6.732807,1.3964956,4.472349,0.20559604,1.7294569,1.0258497
631,1747533811880,-7.036659,1.2481087,4.454289,0.60240704,0.7094661,2.0240026
632,1747533811890,-6.7464745,0.81698165,4.25587025,0.8245147,-0.40373522,3.033873
633,1747533811900,-6.538049,0.6377216,4.1877785,0.89109373,-1.5398397,3.9542618
634,1747533811910,-5.272613,-0.2562601,4.139943,0.9576728,-3.6591835,5.352954
635,1747533811920,-4.0144975,-0.92497692,4.239396299999999,1.1664646,-4.328702,5.6251287
636,1747533811930,-3.594963,-1.1287647,4.2958956,1.8114822,-4.3457465,5.5084825
637,1747533811940,-3.3732371,-1.25164755,4.4021826,2.6860642,-3.7385457,5.2709284
638,1747533811950,-2.7302682,-1.7191393,4.8101244,3.7896783,-2.9438584,5.073322
639,1747533811960,-2.5899355,-1.854103,4.7586284,5.9106197,-1.7251958,4.760134
640,1747533811970,-2.53307,-1.9985847,4.7142096,6.831541,-1.3145363,4.5758433
641,1747533811980,-2.6241035,-2.097184,4.6280575,7.7189064,-0.9108011,4.497014
642,1747533811990,-2.749549,-2.16552,4.416216,8.697351,-0.34461305,4.5641255
643,1747533812000,-2.8830483,-2.229219,4.0740476,9.480321,0.17736652,4.7809067
644,1747533812010,-2.9523606,-2.4627817,3.28257,10.286726,0.624245,5.449893
645,1747533812020,-2.894763,-2.5848103,2.8781672,10.2592955,0.56192701,5.620868
646,1747533812030,-2.8378976500000004,-2.63935715,2.7056186,10.1546335,0.5193164100000001,5.957758
647,1747533812040,-2.6829213000000003,-2.775419,2.4366675,10.012687,0.6516755000000001,6.25443415
648,1747533812050,-2.3529558,-3.056573,2.195539,9.893111,1.1824435,6.5369954
649,1747533812060,-2.3497832,-3.1463861,2.1367211,9.743442,2.1076257,6.809703
650,1747533812070,-2.425929,-3.0934255,2.0930347,9.5469,2.3249397,7.0856066
651,1747533812080,-2.4605851000000003,-3.06718935,2.0459317500000003,9.010539,2.1497037,7.494668
652,1747533812090,-2.4881636,-3.0425396,1.97308075,8.712264999999999,1.93159075,7.6264945
653,1747533812100,-2.4056723,-3.051936,1.9502616,7.847803,1.0871024,7.9330244
654,1747533812110,-2.2048132,-2.9982433,1.6366479,6.753244,-0.049002163,8.1684475
655,1747533812120,-2.088642,-3.0726807,1.5492754,6.240852,-0.06551377,8.175372
656,1747533812130,-2.0193298,-3.1751847,1.6937572,5.9068913,0.2396845,8.070976
657,1747533812140,-1.9026704,-3.214966,1.8131012,5.7588196,0.5725796,7.8653803
658,1747533812150,-1.8688684,-3.2126475,1.77917725,5.6743975,0.72038505,7.75192955
659,1747533812160,-1.6525116,-3.312833,1.8536148,5.235775,0.9667275,6.706905
660,1747533812170,-1.6344513,-3.2220438,1.9351299,4.808071,0.64075655,6.2483087
661,1747533812180,-1.6908286,-3.0670674,1.9517258,4.7217846,0.31052458,5.994776
662,1747533812190,-1.6407969,-2.979939,2.016645,4.8203216,-0.111852765,5.8557587
663,1747533812200,-1.5041249,-2.8086107,1.8362867,4.974252,-0.51984906,5.7673416
664,1747533812210,-1.3454876,-2.5262365,1.0977695,4.9092712,-0.7946873,5.8301926
665,1747533812220,-1.104603,-2.5306296,0.83833665,4.7036753,-0.82078624,5.7732005
666,1747533812230,-0.8061211,-2.55772,0.68384844,4.501275,-0.74035877,5.400891
667,1747533812240,-0.58329684,-2.494021,0.47493544,4.4879594,-0.33182988,4.996623
668,1747533812250,-0.47127452,-2.4376438,0.40171823,4.673315,0.34088463,4.5854306
669,1747533812260,-0.28969595,-2.2653394,0.2933568,5.426457,1.4578145,4.0197754
670,1747533812270,-0.0623566295,-2.14343275,-0.1073851949999999,5.6256614,1.7502295,3.7721014
671,1747533812280,0.008786061,-2.0752187,-0.2774931,5.528723,1.8594191,3.55532
672,1747533812290,0.1701079,-1.9939476,-0.5710939,5.1393685,1.7907095,3.3827472
673,1747533812300,0.30897647,-2.0752187,-0.810026,4.6093993,1.5291871,3.1723576
674,1747533812310,0.8673795,-2.5396597,-1.2212625,3.4977958,0.5635249,2.6152241
675,1747533812320,0.8358961,-2.8583984,-1.5734371,3.2421324,0.36112466,2.245045
676,1747533812330,1.15341455,-2.7777375,-2.0173773,2.3004386500000003,0.79388833,1.92653085
677,1747533812340,1.470933,-2.6970766,-2.4613175,1.3587449,1.226652,1.6080167
678,1747533812350,3.3457806,-3.734076,-0.58085626,2.088451,0.588026,-0.76912093
679,1747533812360,2.0093234,-2.9926298,-3.1663988,1.0684602,0.2876214,0.023435818
680,1747533812370,1.0665302,-2.5223315,-3.124421,-0.27217507,1.7614148,0.69348717
681,1747533812380,2.1999321,-3.090619,-1.99248345,-1.5792545,0.8245147,1.4221281
682,1747533812390,2.3395329,-3.5437112,-2.0515454,-2.564624,-0.28122982,0.6530071
683,1747533812400,2.3395329,-3.5437112,-2.0515454,-2.564624,-0.28122982,0.6530071
684,1747533812410,2.3500273,-3.1944652,-1.2290722,-3.3103094,-1.454086,-0.6668556
685,1747533812420,2.2536247,-3.0114224,-1.1436522,-3.0301447,-1.4791197,-0.89588743
686,1747533812430,2.4417927,-2.745156,-1.5836874,-2.99818685,-1.500425,-1.182443565
687,1747533812440,2.4100654,-2.5999417,-1.8694785,-3.5191011,-1.7385116,-1.897236
688,1747533812450,2.2829115,-2.4571683,-1.9173138,-4.2770367,-1.9707392,-2.3009713
689,1747533812460,2.0613074,-2.3732128,-1.7201155,-5.138836,-2.0639498,-2.718555
690,1747533812470,1.906087,-2.3893204,-1.3928347,-5.6198025,-1.9371834,-3.037069
691,1747533812480,1.6090695,-2.4818182,-0.7321718,-5.9287295,-1.0950918,-3.7912762
692,1747533812490,1.424074,-2.5423443,-0.41855815,-5.8791947,-0.52464277,-4.220045
693,1747533812500,1.2195541,-2.6043348,-0.153512,-5.8008976,0.0037284256,-4.6797066
694,1747533812510,1.0055158,-2.6665695,0.0039049159,-5.807289,0.46498793,-5.1707935
695,1747533812520,0.38121742,-2.83082,0.33020946,-6.162022,1.0945592,-6.0224724
696,1747533812530,-0.037828874,-2.9765222,0.61819696,-6.5135593,1.2612731,-6.370281
697,1747533812540,-0.195611887,-3.0632846,0.79196575,-6.7452545,1.2804478,-6.630206
698,1747533812550,-0.6428468,-3.350662,1.3608632,-6.867227,1.2522184,-6.9306107
699,1747533812560,-0.92229235,-3.5629916,1.7879633,-6.8437915,1.196292,-7.27043
700,1747533812570,-1.5441502,-3.76019,2.3885884,-6.6717515,1.0242518,-7.6640453
701,1747533812580,-1.7423246,-3.76922,2.4352033,-6.3116918,0.3371562,-8.1727085
702,1747533812590,-1.906087,-3.7950902,2.3971303,-6.3255405,-0.11025487,-8.3532715
703,1747533812600,-2.0627718,-3.8358479,2.3978624,-6.460296,-0.4282363,-8.461928
704,1747533812610,-2.1330605,-3.9249287,2.523064,-6.53593,-0.53263223,-8.665394
705,1747533812620,-2.69561235,-3.88209655,3.039855,-6.036853499999999,0.24820662,-9.2667355
706,1747533812630,-2.8461957,-3.8399966,3.2027633,-5.823268,0.41172472,-9.370599
707,1747533812640,-3.1429691,-3.610339,3.4128966,-5.2347097,0.588026,-9.407351
708,1747533812650,-3.2779331,-3.3062434,3.4595115,-4.568919,0.56245965,-9.286976
709,1747533812660,-3.1549282,-3.1219804,3.260849,-4.0336237,0.25566345,-9.170329
710,1747533812670,-2.996779,-2.78811,2.497926,-3.7151098,-0.43409526,-8.899752
711,1747533812680,-2.8957393,-2.693904,2.1769907,-3.830691,-0.56672066,-8.600945
712,1747533812690,-2.796896,-2.7053747,1.8987653,-4.02883,-0.505468,-8.438493
713,1747533812700,-2.774443,-2.6587596,1.833358,-4.1870217,-0.25672874,-8.323443
714,1747533812710,-3.010446,-2.3793142,1.9612441,-4.204599,0.00958738,-8.200406
715,1747533812720,-3.0865919,-2.2619226,2.1053599,-4.0820935,0.1725728399999999,-8.0073268
716,1747533812730,-3.234979,-1.9553868,2.5633333,-3.669836,0.18375812,-7.6693716
717,1747533812740,-3.4468203,-1.6127303,2.718798,-3.320962,-0.13102753,-7.3561835
718,1747533812750,-3.4983163,-1.1997855,2.7615077,-2.9177594,-0.54648066,-6.820356
719,1747533812760,-3.316738,-0.73729694,2.2792506,-2.3334618,-1.7305222,-5.6128783
720,1747533812770,-3.2340026,-0.49446,1.8753358,-2.3835292,-2.1513016,-5.1340423
721,1747533812780,-3.2020311,-0.20818083,1.5453705,-2.576342,-2.4277377,-4.713795
722,1747533812790,-3.2536492,-0.090179152,1.4162642,-2.7467844,-2.56728735,-4.4823665
723,1747533812800,-3.4463322,0.27261195,1.0814177,-3.3198967,-2.9774141,-3.772634
724,1747533812810,-3.51296,0.65993077,0.989164,-4.0533314,-3.3374736,-2.8288097
725,1747533812820,-3.551521,0.707766,0.94352525,-4.4783716,-3.5233622,-2.3659523
726,1747533812830,-3.5998445,0.6892177,1.0933765,-4.922587,-3.5238948,-1.804558
727,1747533812840,-3.5849571,0.6240544,1.5221851,-4.9806437,-3.3103094,-1.4386396
728,1747533812850,-3.5136921,0.5703618,1.8985213,-4.7159257,-2.926814,-1.2969595
729,1747533812860,-3.858057,0.9030118,2.4066484,-3.3246903,-0.531567,-1.5547534
730,1747533812870,-4.5638704,1.214917,2.7229466,-2.193912,1.2479573,-1.659682
731,1747533812880,-4.5638704,1.214917,2.7229466,-2.193912,1.2479573,-1.659682
732,1747533812890,-5.600015750000001,1.7049839,2.9762780500000003,-0.347276225,3.4418694,-1.51374085
733,1747533812900,-7.3222055,2.32855,2.600674,0.9805759,3.8115163,-0.18535602
734,1747533812910,-7.8979363,2.3600335,2.6170259,0.8511463,2.931075,0.63915867
735,1747533812920,-7.9970236,2.2785184,2.5694346,0.6327671,1.7454358,1.7971011
736,1747533812930,-7.9970236,2.0534978,2.4879196,0.33289513,0.660464,3.141465
737,1747533812940,-7.9970236,1.6473864,2.5008545,0.05006743,-0.22583607,4.3702474
738,1747533812950,-7.048861,0.5679212,2.8832924,-0.15020229,-1.7273263,6.336193
739,1747533812960,-6.328892,0.047347106,3.0839074,0.05965481,-2.1353226,6.983874
740,1747533812970,-5.601846,-0.4471129,3.239616,0.44581318,-2.2082932,7.352455
741,1747533812980,-4.9824286,-0.8717725,3.5368774,0.98750013,-1.9659456,7.4909396
742,1747533812990,-4.463807,-1.23615,4.025724,2.038916,-1.4604776,7.4994617
743,1747533813000,-4.082834,-1.500464,4.340558,3.123888,-0.9720538,7.440872
744,1747533813010,-3.33638465,-1.85642145,4.157515,5.82060515,0.5267732749999999,7.18520885
745,1747533813020,-3.2352228,-1.8894912,4.029141,6.284528,0.85540736,7.133011
746,1747533813030,-3.1628598,-1.90145005,3.8319427,6.6451198,1.16539933,7.1324783
747,1747533813040,-3.0516918,-1.9228051,3.4435257000000004,7.2488583,1.75821895,7.17109395
748,1747533813050,-2.9486997,-1.9927274,2.5848103,7.6501965,2.68473265,7.56657335
749,1747533813060,-2.9311275,-2.0359256,2.2624106,7.546866,2.8362665,7.7924094
750,1747533813070,-2.8496125,-2.144531,2.115,7.326889,2.8218856,8.010789
751,1747533813080,-2.78872015,-2.21006035,2.0502029000000004,7.1873393,2.71242965,8.102402000000001
752,1747533813090,-2.6248357,-2.391029,1.8528826,6.6792083,2.233327,8.339955
753,1747533813100,-2.5416121,-2.4715676,1.7232883,6.228069,1.7172064,8.462994
754,1747533813110,-2.1564898,-2.620931,1.5663594,5.289571,0.7030745,8.49069
755,1747533813120,-1.91926615,-2.68035865,1.61968595,4.9550776,0.4101268,8.412394
756,1747533813130,-1.850442,-2.6995173,1.6434816,4.779309,0.27217507,8.330368
757,1747533813140,-1.5070535,-2.843511,1.688632,4.639227,0.4777711,8.040084
758,1747533813150,-1.5070535,-2.843511,1.688632,4.639227,0.4777711,8.040084
759,1747533813160,-1.3925906,-3.0199645,1.8314055,4.523113,1.2735237,7.6214347
760,1747533813170,-1.3764828,-3.0643828,2.0308003,4.549212,1.5451661,7.354053
761,1747533813180,-1.3152245,-2.8662083,2.2441063,4.785701,1.5345135,6.6829367
762,1747533813190,-1.3276714,-2.6741354,2.1799192,4.882107,1.3225259,6.4267406
763,1747533813200,-1.2886223,-2.5298975,1.9888225,4.9034123,1.0562097,6.266418
764,1747533813210,-1.168302,-2.4276376,1.7752724,4.8006144,0.74941355,6.0752034
765,1747533813220,-1.0777569,-2.4054282,1.4809394,4.6189866,0.6423545,5.9106197
766,1747533813230,-0.93010225,-2.3946897,1.36428,4.196077,0.721184,5.334312
767,1747533813240,-0.763533125,-2.3329432,1.24042095,4.173706,0.8378305,4.9971557
768,1747533813250,-0.78806084,-2.1389177,1.1429201,4.262123,1.0391655,4.7345676
769,1747533813260,-0.81832397,-2.0012693,1.0326062,4.414456,1.3907027,4.5524077
770,1747533813270,-0.76341105,-1.876068,0.91472656,4.595551,1.7571537,4.4022055
771,1747533813280,-0.6657882,-1.7606289,0.46492904,4.6232476,2.2759376,4.1827607
772,1747533813290,-0.5852493,-1.7755165,0.2591888,4.53749395,2.31002605,4.14121555
773,1747533813300,-0.48176903,-1.8445847,0.1300825,4.238687,2.2200112,3.9867523
774,1747533813310,-0.37023485,-1.8384832,0.040513504,4.055462,2.1214743,3.8594532
775,1747533813320,-0.076389916,-1.8382392,0.017816179,3.973969,1.8263959,3.6005938
776,1747533813330,0.26675457,-1.9175578,-0.15936938,3.9169774,1.66394305,3.52149795
777,1747533813340,0.465661235,-1.95367825,-0.28664524,3.7678404,1.33131425,3.32309245
778,1747533813350,1.0003906,-1.9937036,-0.7968469,3.4040525,0.902279,2.8730183
779,1747533813360,1.0550594,-1.9548985,-1.5878365,1.9361181,0.75420725,2.343582
780,1747533813370,0.99355704,-2.0151806,-1.6837509,1.0663297,0.88843054,2.3467777
781,1747533813380,1.0089327,-2.2236056,-1.5221851,0.26312032,0.9353022,2.3861923
782,1747533813390,1.1075317999999998,-2.3174456,-1.39161445,-0.30573089,0.4495416035,2.385926
783,1747533813400,1.6642264,-2.6011622,-1.0755602,-0.8745821,-0.036218993,2.3856597
784,1747533813410,2.3090258,-2.804462,-1.0177187,-1.1622036,-0.69721556,2.082592
785,1747533813420,2.938205,-2.9823797,-1.2971642,-1.6197346,-1.6623452,1.077515
786,1747533813430,3.0675557,-2.988481,-1.3945432,-1.8535602,-1.6841831,0.38456047
787,1747533813440,3.0468106,-2.9340563,-1.376971,-1.9281287,-1.4556838,-0.11345066
788,1747533813450,2.9318597,-2.898912,-1.2971642,-1.9547603,-1.1994878,-0.515588
789,1747533813460,2.8408263,-2.8325286,-1.2627522,-1.9989687,-1.0002834,-0.8580705
790,1747533813470,2.8100753,-2.7566266,-1.2554306,-2.5971148,-1.2463595,-1.6660736
791,1747533813480,2.77065995,-2.7341733,-1.20051765,-2.8474519000000003,-1.44077025,-1.93638445
792,1747533813490,2.5965252,-2.6660812,-0.99087244,-3.6000612,-2.05383,-2.770753
793,1747533813500,2.3907847,-2.6143413,-0.8090498,-4.011786,-2.390986,-3.315103
794,1747533813510,1.9258556,-2.4696152,-0.5549862,-4.6695867,-2.5683527,-4.428304
795,1747533813520,1.6910727,-2.4610732,-0.48957884,-4.9721217,-2.505502,-4.9034123
796,1747533813530,1.54158765,-2.4824282,-0.44918737,-5.166798849999999,-2.454103,-5.1225905
797,1747533813540,1.22565555,-2.5568658,-0.337775235,-5.836584,-2.3622239,-5.711948
798,1747533813550,0.7165521,-2.788598,-0.11348662,-6.4017067,-2.3707461,-6.041115
799,1747533813560,0.440767395,-2.98298965,0.109459665,-7.020093,-2.3702135,-6.3383236
800,1747533813570,-0.07980672,-3.4202182,0.73632073,-7.8680434,-1.9707392,-6.9870696
801,1747533813580,-0.559623275,-3.55444975,1.20674105,-7.754859,-1.11559818,-7.5194355
802,1747533813590,-0.74291027,-3.568117,1.3237665,-7.645403,-0.76485986,-7.687481
803,1747533813600,-1.0816617,-3.5507889,1.4267586,-7.5540567,-0.0964064299999999,-7.91038765
804,1747533813610,-1.6761851,-3.5359015,1.4177285,-7.628359,0.07403588,-7.9575253
805,1747533813620,-1.9197543,-3.610827,1.462635,-7.994277,-0.018109497,-7.889881
806,1747533813630,-1.9668574,-3.833407,1.6271297,-8.441689,-0.26312032,-7.93622
807,1747533813640,-2.0281157,-4.1130967,1.880217,-8.828912,-0.4958806,-8.1727085
808,1747533813650,-2.2094502,-4.2358575,2.2553332,-8.926916,-0.54807854,-8.396415
809,1747533813660,-2.80104505,-4.0176705,2.7766392,-7.7412767,-0.11611383,-8.506137
810,1747533813670,-2.8422906,-3.926881,2.7095234,-7.076817999999999,-0.0300937214,-8.381501
811,1747533813680,-2.857422,-3.8312109,2.4583888,-6.9535136,-0.060720075,-8.345282
812,1747533813690,-2.85107665,-3.77422345,2.34892905,-6.9585735500000006,-0.1360875325,-8.32664
813,1747533813700,-2.9299073,-3.567873,1.9793042,-7.10025375,-0.320644605,-8.3061335
814,1747533813710,-3.0003178,-3.5324845,2.0647242500000003,-8.04328,-0.45060685,-8.1684475
815,1747533813720,-3.1439455,-3.4936798,2.4959733,-8.061389,-0.20026971,-7.9937444
816,1747533813730,-3.1439455,-3.4936798,2.4959733,-8.061389,-0.20026971,-7.9937444
817,1747533813740,-3.07085025,-3.4191201,2.77566305,-7.42649125,0.2354234435,-7.8006654
818,1747533813750,-2.9255142,-3.2803736,2.9272225,-6.4267406,0.799481,-7.718374
819,1747533813760,-2.9965348,-2.740763,2.7522335,-4.914065,1.4429007,-7.506386
820,1747533813770,-3.0690198,-2.3546643,2.5938404,-4.359062,1.7369137,-7.1772194
821,1747533813780,-3.0983067,-1.9175578,2.5826137,-3.8786278,1.8620822,-6.761766
822,1747533813790,-3.1146586,-1.5761217,2.549178,-3.4258904,1.7576864,-6.3122244
823,1747533813800,-3.1998346,-1.227608,2.404208,-3.0695596,1.4956313,-5.7992997
824,1747533813810,-3.12625135,-0.2330746739999999,1.77307585,-3.0967238000000004,-0.189084425,-4.3348275
825,1747533813820,-3.1117299,-0.028554698,1.5863721,-3.2943304,-0.62264705,-4.058125
826,1747533813830,-2.9918978,0.19353738,1.3796556,-3.8679752,-1.4876418,-3.4823494
827,1747533813840,-2.86767265,0.19854056,1.3163228,-4.443218,-2.1758027,-3.018427
828,1747533813850,-2.69854105,-0.12300485,1.2967982,-5.058941,-2.457565,-2.2865902
829,1747533813860,-2.7009816,-0.33460248,1.4414021,-5.251754,-2.466087,-1.9323897
830,1747533813870,-2.5992098,-0.53033644,1.6437255,-5.3407035,-2.5049694,-1.7374463
831,1747533813880,-2.5596724,-0.635281,1.8973011,-5.4317837,-2.4666197,-1.5824504
832,1747533813890,-2.5374632000000004,-0.67555045,2.12964355,-5.1691957,-2.1273332,-1.4929681
833,1747533813900,-2.5340464,-0.73729694,2.7534537,-4.677576,-1.4727281,-1.5723304
834,1747533813910,-3.2466936,-0.5962319,3.3828776,-3.0967238,1.3363743,-1.911617
835,1747533813920,-3.9190712,-0.38341394,3.8392644,-1.8876486,2.812298,-1.9504992
836,1747533813930,-4.23939635,-0.15094941,4.0298732,-1.256745735,3.335343,-1.86874015
837,1747533813940,-4.7708311000000005,0.24247087,4.218163499999999,0.2828277,4.0442767,-1.5201324
838,1747533813950,-5.4590726,0.6164886,4.036951,0.6918893,3.4072483,-1.2133362
839,1747533813960,-6.9623428,0.950358895,3.69087775,0.6668556,0.8165252,-0.111852765
840,1747533813970,-7.291454,0.96817505,3.6672041,0.7888283,-0.056459017,0.9816412
841,1747533813980,-6.9775968,0.26992732,3.7848399,1.4508902,-1.4721955,3.3332124
842,1747533813990,-6.18941375,-0.4429638999999999,3.6058238,2.20163535,-2.60190845,4.291684200000001
843,1747533814000,-5.9225373,-0.66017485,3.469518,2.459163,-2.9134984,4.55081
844,1747533814010,-5.4317384,-0.9789136,3.214966,2.988067,-3.1419976,4.9380336
845,1747533814020,-4.910432,-1.2937474,2.9865284,3.5377433,-2.961435,5.2016864
846,1747533814030,-4.034266,-1.8253042,2.8076346,4.9103365,-1.0780476,5.3060822
847,1747533814040,-3.7489634,-1.9849175,2.959438,5.626194,-0.08628642,5.347095
848,1747533814050,-3.5908144,-2.0622838,3.0712163,6.4017067,0.6759103,5.468535
849,1747533814060,-3.4329093,-2.059111,2.9657836,7.0904,1.3028184,5.6799903
850,1747533814070,-3.0208186,-1.97076225,2.2456927,7.7162433,1.820537,6.221677
851,1747533814080,-2.8957393,-1.9671015,2.0927908,7.5665736,1.7353158,6.433665
852,1747533814090,-2.809587,-1.98540575,2.0472742,7.4890753,1.68684625,6.50716815
853,1747533814100,-2.66900995,-2.0104215,1.97369105,7.378554,1.60322295,6.68080615
854,1747533814110,-2.4759607,-2.0517893,1.820667,7.3082466,1.5680692,7.1069117
855,1747533814120,-2.2741253,-2.1623473,1.6600775,7.2208953,1.6729978,7.316769
856,1747533814130,-2.0830286,-2.2668037,1.3364575,6.6786757,1.8594191,7.6443377
857,1747533814140,-2.02262445,-2.289623,1.3191294,6.4789386,1.83598325,7.67816
858,1747533814150,-1.8472692,-2.3690639,1.3420708,5.9505672,1.6990968,7.7077208
859,1747533814160,-1.7484262,-2.3985946,1.3223021,5.7039585,1.635181,7.661915
860,1747533814170,-1.7547716,-2.379558,1.2402989,5.465872,1.6112125,7.658186
861,1747533814180,-1.7386639,-2.4286137,1.330112,5.051484,1.8556907,7.734885
862,1747533814190,-1.6979064,-2.4669306,1.4648316,4.9396315,1.8290591,7.692807
863,1747533814200,-1.6940014,-2.4483821,1.4824038,4.78357,1.5973641,7.636881
864,1747533814210,-1.7379317,-2.3427055,1.4406699,4.5657234,1.293231,7.607586
865,1747533814220,-1.8538588,-2.1359892,1.3589108,4.101801,0.7685883,7.778561
866,1747533814230,-1.7638018,-2.1245184,1.3318204,3.9143143,0.37390783,7.8456726
867,1747533814240,-1.6288381,-2.1293995,1.2251674,3.6767602,-0.05006743,7.8328896
868,1747533814250,-1.5490314,-2.131108,1.1155857,3.417901,-0.42717105,7.7721696
869,1747533814260,-1.3341389,-2.2713188,0.952433425,2.98114255,-0.62264705,7.357248999999999
870,1747533814270,-1.2229708,-2.2919416,0.9408407,2.7798076,-0.62264705,7.051518
871,1747533814280,-1.1673259,-2.250696,1.0116173,2.7462518,-0.36645097,6.658968
872,1747533814290,-1.05335115,-2.1889495,1.1960025,2.871953,-0.013848438,6.194513
873,1747533814300,-1.0282133,-2.161127,1.2551864,3.0823426,0.30146983,5.7098174
874,1747533814310,-1.0887394,-1.8582519,1.2900866,3.5979307,0.75580513,5.0339074
875,1747533814320,-1.1654954,-1.84128985,1.22089635,3.8658447,1.00800655,4.85227965
876,1747533814330,-1.1734272,-1.8538588,1.2429836,3.9590554,1.0764498,4.809669
877,1747533814340,-1.1260802,-1.8428763,1.2703179,4.2828956,1.186172,4.6919575
878,1747533814350,-1.1129011,-1.7835704,1.1690342,4.5279064,1.3683321,4.634433
879,1747533814360,-1.0565238,-1.7252407,1.0355349,4.7276435,1.5845809,4.6035404
880,1747533814370,-0.60013676,-1.8038272,0.7687803,4.989699,1.856756,4.406999
881,1747533814380,-0.41672774,-1.87619015,0.73327,5.1436296,1.8141453,4.1417484
882,1747533814390,-0.1148289307,-1.9544105,0.59049653,5.22698645,1.77499685,4.0080576
883,1747533814400,0.281398,-1.9614881,0.065163285,5.313539,1.7390442,3.6970003
884,1747533814410,0.5630400799999999,-2.2264122,-0.4978768075,4.9417617,2.07193935,3.38354625
885,1747533814420,0.84468216,-2.4913363,-1.0609169,4.5699844,2.4048345,3.0700922
886,1747533814430,1.0816617,-2.4349592,-1.4052817,4.023504,2.4889903,3.1334753
887,1747533814440,1.428467,-2.4657104,-1.5914973,3.171825,2.2295985,3.05145
888,1747533814450,2.1375754,-2.5250163,-1.62188235,1.1464909399999998,0.8628642,2.4311998
889,1747533814460,2.455216,-2.5340464,-1.5675796,0.17310548,0.1257012,2.0516994
890,1747533814470,2.5657737,-2.5233078,-1.3989362,-0.4607269,-0.36005938,1.7976338
891,1747533814480,2.7571146,-2.6324015,-1.291795,-0.79415464,-0.72437984,1.6096146
892,1747533814490,3.0560849,-2.7800562,-1.398448,-1.0647318,-0.86499476,1.2245215
893,1747533814500,3.6164403,-2.9013526,-1.6105338,-1.2996227,-0.799481,0.7163904
894,1747533814510,3.7438383,-2.830088,-1.5744133,-1.73212,-0.67697555,-0.43888897
895,1747533814520,3.755065,-2.7248993,-1.5043689,-1.8540928,-0.6673882,-1.000816
896,1747533814530,3.74273995,-2.6624205,-1.4731295,-1.9169434,-0.7115966650000001,-1.27645315
897,1747533814540,3.684288,-2.5103729,-1.3955194,-2.1443772,-0.8479505,-2.1715417
898,1747533814550,2.97383765,-2.1935866,-1.1579296,-2.55423785,-0.62850602,-3.6826192
899,1747533814560,2.5656519,-2.08144225,-0.96707685,-2.6280074,-0.509729,-3.959588
900,1747533814570,2.3610098,-2.0342171,-0.8598137,-2.751578,-0.4048005,-4.3137884
901,1747533814580,2.2135992,-2.0207939,-0.773173365,-2.83972865,-0.4037352349999999,-4.49754645
902,1747533814590,2.0661886,-2.0073707,-0.68653303,-2.9278793,-0.40266997,-4.6813045
903,1747533814600,1.0816617,-2.0154247,-0.15082738,-3.6048548,-0.50173956,-5.862683
904,1747533814610,0.72216535,-2.038366,0.042465962,-3.7364151,-0.5022722,-6.1689463
905,1747533814620,0.4036707,-2.0664327,0.18816814,-3.8376153,-0.4628574,-6.445915
906,1747533814630,0.10909359,-2.1157322,0.3162982,-3.9292278,-0.45007423,-6.7116985
907,1747533814640,-0.10933765,-2.2114027,0.3939084,-4.1049967,-0.5704491,-7.0611053
908,1747533814650,-0.3277689,-2.336116,0.46492904,-4.3095274,-0.6993461,-7.3940005
909,1747533814660,-0.70874226,-2.6306932,0.67481834,-4.7260456,-0.90920323,-8.132762
910,1747533814670,-0.86310848,-2.67511155,0.7707327900000001,-4.77025415,-0.956873815,-8.265919499999999
911,1747533814680,-1.5058333,-2.6499736,1.0240642,-4.7723846,-1.0040118,-8.4161215
912,1747533814690,-1.6582469999999998,-2.6336218,1.078611,-4.71113205,-0.947552765,-8.34394975
913,1747533814700,-1.9292725,-2.686094,1.2124764,-4.535896,-0.8452873,-8.170578
914,1747533814710,-2.1496563,-2.710988,1.3325526,-4.54069,-1.2548815,-8.099206
915,1747533814720,-2.2411778,-2.6504617,1.3991802,-4.616856,-1.617604,-8.002267
916,1747533814730,-2.0735104,-2.6106803,1.3694052,-4.9263153,-2.373942,-7.86325
917,1747533814740,-1.9107243,-2.6377707,1.2952118,-5.144695,-2.634399,-7.878696
918,1747533814750,-1.8091964,-2.6892667,1.2688537,-5.3391056,-2.7451866,-7.9111867
919,1747533814760,-1.8196908,-2.7312446,1.2937474,-5.38091705,-2.6943202,-7.91624665
920,1747533814770,-2.0046864,-2.6719387,1.3279155,-5.3902383,-2.2935145,-7.7620497
921,1747533814780,-2.10560375,-2.6098262,1.3960075,-5.10261685,-1.2887037,-7.247793
922,1747533814790,-2.1259825,-2.613121,1.4306636,-4.94336,-0.783502,-6.984939
923,1747533814800,-2.0896182,-2.6306932,1.5888127,-4.7031426,-0.4261058,-6.8113008
924,1747533814810,-1.9735689,-2.5923761,1.78942775,-4.345214,-0.21891184,-6.6776104
925,1747533814820,-1.9148731,-2.5762684,1.8480015,-3.8850195,-0.14753912,-6.7958546
926,1747533814830,-1.7462295,-2.578953,1.7323183,-2.9928606,-0.25513083,-6.876815
927,1747533814840,-1.78076365,-2.502075,1.7323183,-2.9928606,-0.25513083,-6.876815
928,1747533814850,-2.016889,-2.0371459,1.2346857,-2.641856,-0.46658584,-6.5774755
929,1747533814860,-2.004198,-1.8299413,0.9606094,-2.7324033,-0.37284255,-6.320214
930,1747533814870,-2.0143264,-1.7491583,0.86884385,-2.8583708000000003,-0.18881812,-6.208095
931,1747533814880,-2.2148197,-1.4604386,1.1629328,-2.9896648,0.6034723,-5.8024955
932,1747533814890,-2.352468,-1.3120518,1.4126034,-2.7244139,0.5422196,-5.564409
933,1747533814900,-2.460097,-1.1636649,1.5639188,-2.4857945,0.19760656,-5.22672
934,1747533814910,-2.5125692,-1.1285207,1.5317032,-2.57367895,-0.741157725,-4.71699085
935,1747533814920,-2.5899355,-1.147069,1.428467,-2.6951191,-1.0833739,-4.564658
936,1747533814930,-3.0431497,-0.85224795,1.5043689,-3.3662357,-2.0154803,-4.060788
937,1747533814940,-3.733588,-0.48103684,1.6315227,-3.3747578,-2.044775,-3.5782232
938,1747533814950,-4.252209,-0.1342315,1.6561725,-3.283145,-2.2285333,-2.9017804
939,1747533814960,-4.447943,0.10640897,1.4682485,-3.3342776,-2.590723,-2.2381206
940,1747533814970,-4.072095,0.2962855,1.0594525,-4.2051315,-3.5489285,-1.4737934
941,1747533814980,-3.78606,0.35559142,1.0221118,-4.8421597,-3.8168426,-1.3257216
942,1747533814990,-3.5307763,0.43930307,1.198077,-5.3508234,-3.6767602,-1.2777847
943,1747533815000,-3.3265002,0.4829893,1.6005274,-5.404619,-2.8352013,-1.4556838
944,1747533815010,-3.3755558,0.6257628,2.1284232,-4.873052,-1.0439591,-1.8759307
945,1747533815020,-5.265291,1.0616491,3.231562,-3.3491914,2.167813,-2.3515713
946,1747533815030,-5.93461815,1.1237616,3.3732372,-1.784584255,4.38596,-2.1270668
947,1747533815040,-7.6975656,1.4191929,3.5046623,0.7584683,6.984939,-1.0721886
948,1747533815050,-7.9970236,1.6173674,3.2225318,0.7595336,5.718872,-0.0793622
949,1747533815060,-7.9970236,1.4082103,2.916728,-0.049002163,3.1286817,0.85753787
950,1747533815070,-7.9970236,1.1373067,3.1576126,-1.9611518,-2.9358687,3.093528
951,1747533815080,-7.6601026,0.8631084299999999,3.3166158,-1.97313605,-3.85306135,3.62189925
952,1747533815090,-6.228829,-0.09200958,3.6425543,-1.0546118,-5.429653,5.073322
953,1747533815100,-5.196711,-0.58183247,3.605702,0.16724652,-4.8698564,5.4349794
954,1747533815110,-4.2768593,-0.9178993,3.3865383,1.4658039,-3.798733,5.451491
955,1747533815120,-3.3018506,-1.0992339,2.8715775,3.3934,-1.4173343,5.13564
956,1747533815130,-3.2452292,-1.1312053,2.8256948,4.1135187,-0.48203218,5.101019
957,1747533815140,-3.2830582,-1.142676,2.7768834,4.805408,0.37071204,5.2448297
958,1747533815150,-3.287939,-1.2044226,2.6565633,5.4307184,1.1733888,5.4823837
959,1747533815160,-3.0912292,-1.4479916,2.3307467,6.2472434,2.4250746,6.0762687
960,1747533815170,-3.0023923,-1.5556209,2.1682045,6.4150224,2.6711507,6.3543024
961,1747533815180,-2.923806,-1.624201,2.0254312,6.4821343,2.8394625,6.699448
962,1747533815190,-2.868893,-1.7513548,1.9431838,6.520484,2.9763489,7.0589747
963,1747533815200,-2.847416,-1.8409238,1.90462275,6.5135595,3.0123016,7.2448635
964,1747533815210,-2.4969497,-2.3388004,1.6730124,6.438991,3.075951,7.7359505
965,1747533815220,-2.3151271,-2.4574125,1.5270662,6.005961,2.755839,8.122642
966,1747533815230,-2.1379416,-2.5611367,1.4055257,5.6070194,2.3531692,8.184959
967,1747533815240,-1.9705181,-2.60824,1.3235224,5.041364,1.726261,8.1476755
968,1747533815250,-1.8306733,-2.6038468,1.2852055,4.6552057,1.2777847,8.073639
969,1747533815260,-1.7606289,-2.6282525,1.1844097,4.160923,1.0823087,7.9143825
970,1747533815270,-1.7530633,-2.6306932,1.2625082,4.0762343,1.3848438,7.836618
971,1747533815280,-1.7542835,-2.5748038,1.3830724,4.1380196,1.7646105,7.7966704
972,1747533815290,-1.7403722,-2.6145853,1.43200595,4.2125883,2.1518342,7.781757
973,1747533815300,-1.7284133,-2.6587596,1.4521407,4.0757017,2.845854,7.5724325
974,1747533815310,-1.7215798,-2.668766,1.5653832,3.9851544,2.9539783,7.3236933
975,1747533815320,-1.786499,-2.6036026,1.6132184,3.9473374,2.8868666,7.225689
976,1747533815330,-1.80846415,-2.5759022,1.62773975,3.94787,2.8333371,7.23687415
977,1747533815340,-1.7884516,-2.561625,1.6810663,3.9803607,2.5875273,7.254451
978,1747533815350,-1.61151,-2.5301414,1.4123594,3.8013961,1.9622171,7.3487267
979,1747533815360,-1.4140676,-2.6275203,1.3223021,3.6266928,1.6319852,7.2757564
980,1747533815370,-1.1058234,-2.6665695,1.2629962,3.5020568,1.347027,6.997722
981,1747533815380,-0.9669548,-2.6109245,1.1346222,3.4274883,1.2767195,6.6349998
982,1747533815390,-0.98574716,-2.4962175,1.0140579,3.4365432,1.6053536,6.2861257
983,1747533815400,-0.87299275,-2.2751017,0.92937,3.48714325,1.79150855,6.175870700000001
984,1747533815410,-0.86298645,-2.1357448,0.81734776,3.6730318,2.5614283,5.662413
985,1747533815420,-0.84517026,-1.97784,0.6872652,3.5915391,2.7872643,5.5745287
986,1747533815430,-0.80062978,-1.9193883,0.65212095,3.4013894,2.862898,5.503689
987,1747533815440,-0.70142055,-1.7652661,0.614048,3.1819448,2.8485172,5.446697
988,1747533815450,-0.6465077,-1.6542201,0.59135073,2.9928606,2.789395,5.4461646
989,1747533815460,-0.25137895,-1.683507,0.5874458,2.5731463,2.251969,5.461611
990,1747533815470,0.08005078,-1.7667305,0.5854933,2.4522388,1.6506273,5.340171
991,1747533815480,0.24564362,-1.83384625,0.530702475,2.4045682,1.33291215,5.22432335
992,1747533815490,0.8107582,-2.0400746,0.33631086,2.3132217,0.39894155,4.817126
993,1747533815500,1.7594087,-2.3707721,-0.38585448,2.267948,-0.13475595,4.51246
994,1747533815510,2.1430666,-2.502563,-0.7700006,1.9142802,-0.30786142,3.636813
995,1747533815520,2.2531364,-2.5120814,-0.9886759,1.7182716,0.13582122,3.0924628
996,1747533815530,2.19492875,-2.44020655,-1.06604205,1.57499355,0.35473308,2.9241509
997,1747533815540,2.0597211,-2.24801135,-1.18941295,1.139833,0.7960188699999999,2.7393275
998,1747533815550,2.4071367,-2.12403,-1.1126571,-0.31691617,0.9358348,2.4213462
999,1747533815560,2.677308,-2.1667402,-0.9696394,-0.8873653,0.6737798,2.0378509
1000,1747533815570,2.9045253,-2.2782743,-0.7585299,-1.3065468,0.14807177,1.5968314
