id,timestamp,acc_x,acc_y,acc_z,gyro_x,gyro_y,gyro_z
1,1747532988070,-0.464929055,0.197442315,0.932054625,-1.1006845215,1.00268017,1.43730802
2,1747532988080,-0.55413197,-0.448089105,0.45431256,-0.86153265,0.66179555,1.72572835
3,1747532988090,-0.5313125999999999,-0.93059028,-0.0530824475,0.3619236,-0.5661880499999999,0.60267335
4,1747532988100,-0.44613665,-0.87079626,0.08346757,0.200269715,-0.833036815,0.47271111
5,1747532988110,-0.422219,-0.878118,0.08102701,0.113983296,-1.0679276,0.3190467
6,1747532988120,-0.3975692349999999,-0.87616555,0.070532548,0.090281163,-1.09855395,0.2876214
7,1747532988130,-0.345096945,-0.86933195,0.0420998765,0.020772658,-1.1387677,0.222906585
8,1747532988140,-0.28969595,-0.8629864700000001,0.0184263215,-0.078030622,-1.1337077,0.14993597
9,1747532988150,-0.20732663,-0.87043017,0.066505603,-0.207460265,-1.05194865,-0.02130529
10,1747532988160,-0.15326795,-0.89080894,0.21330604,-0.288686685,-0.95714012,-0.22823291
11,1747532988170,-0.17425688,-0.899595,0.25870067,-0.27217507,-0.87511474,-0.4362258
12,1747532988180,-0.18633771,-0.90276775,0.256626185,-0.257794,-0.82398207,-0.5041363999999999
13,1747532988190,-0.215746605,-0.9076489,0.25479575,-0.233026605,-0.7499462,-0.608266
14,1747532988200,-0.3048275,-0.9266854,0.29116032,-0.18056233,-0.69029135,-0.65513766
15,1747532988210,-0.31312545,-0.92558712,0.2981159399999999,-0.169110735,-0.66472501,-0.6293049799999999
16,1747532988220,-0.32679266,-0.92082804,0.3099527,-0.13848437,-0.5587312,-0.5305017
17,1747532988230,-0.33289409,-0.92912597,0.31312545,-0.1190432999999999,-0.52011536,-0.4940164
18,1747532988240,-0.347415495,-0.9532876,0.3265485999999999,-0.0580569145,-0.46152581,-0.43169843
19,1747532988250,-0.38011916,-0.9831846,0.3704789,0.1195759255,-0.46259108,-0.35579833
20,1747532988260,-0.4249037,-0.9608534,0.39586085,0.4293016,-0.45167214,-0.20719394
21,1747532988270,-0.41745994,-0.93962045,0.3575438749999999,0.473243735,-0.4175836699999999,-0.170442315
22,1747532988280,-0.36840442,-0.87799598,0.278103235,0.50120692,-0.283892975,-0.0751011445
23,1747532988290,-0.32581642,-0.8437059,0.29140437,0.45220476,-0.25353295,0.017044231
24,1747532988300,-0.34119204,-0.8427297,0.3360668,0.4250405,-0.31318775,0.04261058
25,1747532988310,-0.3527847549999999,-0.83845865,0.35119837,0.41598575,-0.32410671,0.05486112
26,1747532988320,-0.366329935,-0.82991665,0.37377368,0.40639838,-0.34301515,0.086819055
27,1747532988330,-0.34607319,-0.80843965,0.39085768,0.40346891,-0.3528688399999999,0.129962265
28,1747532988340,-0.30470547,-0.79062345,0.39622694,0.38136468,-0.2993393,0.17390442
29,1747532988350,-0.2511349,-0.7907455,0.3917119,0.35659728,-0.19893813,0.186154965
30,1747532988360,-0.22258021,-0.8049008,0.38170552,0.3435478,-0.10918961,0.12410331
31,1747532988370,-0.20549619,-0.8175918,0.36242503,0.32650355,-0.08948222,0.06338324
32,1747532988380,-0.20549619,-0.8175918,0.36242503,0.32650355,-0.08948222,0.06338324
33,1747532988390,-0.222946295,-0.8227169999999999,0.34717144,0.2809635,-0.10040118,0.0247674009999999
34,1747532988400,-0.25796852,-0.85175985,0.31483385,0.24820662,-0.22796659,-0.043675844
35,1747532988410,-0.2585786599999999,-0.84492621,0.31519994,0.25672874,-0.255130835,-0.05699165
36,1747532988420,-0.23917611,-0.810025985,0.346439265,0.27803403,-0.2684466399999999,-0.085221158
37,1747532988430,-0.217943135,-0.7806171,0.37255339,0.32543829,-0.299871935,-0.10918961
38,1747532988440,-0.25162303,-0.7905014,0.36144876,0.37550572,-0.43569317,-0.08522116
39,1747532988450,-0.30214286,-0.79562664,0.33704305,0.37071204,-0.48363006,0.014913702
40,1747532988460,-0.3328941,-0.7968469,0.3082443,0.34807517,-0.4631237299999999,0.097205381
41,1747532988470,-0.29555333,-0.8161274,0.31361356,0.2146508,-0.36645097,0.5400891
42,1747532988480,-0.25882271,-0.80136197,0.32227759,0.17496969,-0.332895145,0.5946838999999999
43,1747532988490,-0.1809684449999999,-0.77427164,0.34436476,0.0921453714999999,-0.27537086,0.6543387
44,1747532988500,-0.05027579,-0.74242216,0.39024755,-0.06977482,-0.19867182,0.48735848
45,1747532988510,-0.0025626,-0.7369308800000001,0.4094060499999999,-0.116113825,-0.18881813,0.362722545
46,1747532988520,0.08688438,-0.7399815999999999,0.44699085,-0.2450108299999999,-0.124635948,-0.0804274699999999
47,1747532988530,0.13642801,-0.7577977499999999,0.4696881499999999,-0.360592025,-0.0487358495,-0.5584648999999999
48,1747532988540,0.1330112,-0.7922098,0.47884035,-0.44847634,-0.03089267,-1.0088054
49,1747532988550,0.095304355,-0.815151185,0.48030469,-0.45646582,-0.095074855,-1.12758245
50,1747532988560,-0.0345341,-0.875311315,0.503124015,-0.4447479,-0.25566347,-1.30601425
51,1747532988570,-0.17962612,-0.9159469,0.5188657,-0.29241508,-0.330232,-1.2490226
52,1747532988580,-0.188900305,-0.915214715,0.5194758500000001,-0.251402405,-0.279898245,-1.1369034999999998
53,1747532988590,-0.18938842,-0.9071608,0.47444725,-0.16724652,-0.11132014,-0.80374205
54,1747532988600,-0.19390348,-0.90362195,0.478596255,-0.15339808,-0.09054748,-0.682834525
55,1747532988610,-0.21672285,-0.90740484,0.5710939,-0.05486112,-0.10865697,-0.082025364
56,1747532988620,-0.22062775,-0.9313224,0.6252747,0.025566347,-0.108124346,0.13422333
57,1747532988630,-0.20403186,-0.9342511,0.6274712,0.0708400885,-0.122505413,0.230097125
58,1747532988640,-0.10933765,-0.9269294,0.6118515,0.18429075,-0.18695392,0.4575311
59,1747532988650,-0.0483233369999999,-0.89837473,0.57988002,0.17603495,-0.19307919,0.49614692
60,1747532988660,0.0212329809999999,-0.854078355,0.54168507,0.13528858,-0.20772657,0.51718587
61,1747532988670,0.020988923,-0.8268659,0.53814626,0.12037488,-0.22423817,0.4809669
62,1747532988680,0.0168399495,-0.826987975,0.5387564,0.114515925,-0.211721315,0.4546016
63,1747532988690,0.030019043,-0.82344913,0.4915313,0.055926383,-0.11451593,0.37284255
64,1747532988700,0.12837411,-0.8407772,0.45052966,-0.041545313,-0.027696876,0.294013
65,1747532988710,0.13655003,-0.8494412499999999,0.47566758,-0.1408812215,0.018109492,0.16484968
66,1747532988720,0.1408210349999999,-0.8756774,0.537414075,-0.25406557,0.12516858,-0.118776985
67,1747532988730,0.12507934,-0.90655065,0.6118515250000001,-0.217580265,0.13688649,-0.1904160275
68,1747532988740,0.102504045,-0.9288819,0.6696931,-0.0990695955,0.14913703,-0.340352
69,1747532988750,0.0643090885,-0.93473927,0.6727438,0.0468716344999999,0.16245283,-0.4601942449999999
70,1747532988760,0.014033293,-0.92534307,0.6498024,0.192280225,0.180562325,-0.50626693
71,1747532988770,-0.050763905,-0.9059405,0.6282034,0.32756883,0.17257284,-0.45220476
72,1747532988780,-0.0546688215,-0.8888564999999999,0.5951336,0.33129725,0.21278658,-0.4082626099999999
73,1747532988790,-0.026602242,-0.83150303,0.48689422,0.2727077,0.40266997,-0.2609898
74,1747532988800,0.04344219,-0.86201024,0.46492904,0.033023197,0.6098639,-0.1257012
75,1747532988810,0.051740136,-0.8978866,0.54888475,-0.04261058,0.6530071,-0.1123854
76,1747532988820,0.037584815,-0.89349353,0.61819696,-0.036751624,0.68176925,-0.104928546
77,1747532988830,0.0259920965,-0.890808915,0.614292055,-0.0053263219999999,0.731037725,-0.101466436
78,1747532988840,0.014399378,-0.8881243,0.61038715,0.08282431,0.814394675,-0.094808533
79,1747532988850,-0.0076878033,-0.92131608,0.653829335,0.25486451,0.84502104,-0.124103305
80,1747532988860,-0.014399378,-0.8942258,0.6518769,0.4293016,0.8708537,-0.21784659
81,1747532988870,-0.015131549,-0.872992825,0.63369465,0.436758435,0.8916263499999999,-0.253532945
82,1747532988880,-0.019036464,-0.8332114500000001,0.6144141,0.429834205,0.919855865,-0.3254383
83,1747532988890,-0.04783522,-0.78513217,0.6474839,0.37017938,0.9171927,-0.41758367
84,1747532988900,-0.0850539525,-0.760970505,0.66530008,0.3360909199999999,0.93290535,-0.40107207
85,1747532988910,-0.1244691974999999,-0.72619232,0.6954411300000001,0.2830940199999999,0.94728643,-0.352336215
86,1747532988920,-0.12666571,-0.7155758,0.707766,0.26418558,0.94595486,-0.32011196
87,1747532988930,-0.124591227,-0.7216772650000001,0.7451068000000001,0.233026595,0.893756895,-0.268712955
88,1747532988940,-0.105920847,-0.732659865,0.80807355,0.183758115,0.81359574,-0.205329725
89,1747532988950,-0.04234393115,-0.73009725,0.91960765,0.15126755,0.740625125,-0.18722023
90,1747532988960,0.01586372,-0.70239675,1.0967933,0.18162759,0.37710363,-0.12197278
91,1747532988970,0.0,-0.68311626,1.1744035,0.2775014,0.24980451,-0.07137272
92,1747532988980,-0.001586372,-0.682872205,1.19173155,0.36645098,0.20905815,-0.0258326635
93,1747532988990,0.0035388302499999,-0.6801875749999999,1.18758255,0.52011536,0.15313177,0.0631169214999999
94,1747532989000,0.03172744,-0.64138246,1.0333383,0.60240704,-0.006924219,0.2609898
95,1747532989010,0.043198135,-0.6230781,1.0111293,0.49428272,-0.10333065,0.3190467
96,1747532989020,0.037584815,-0.5959878,1.0418804,0.36911413,-0.20612867,0.37284255
97,1747532989030,0.05662128,-0.5854933,1.0416363,0.1635181,-0.40373522,0.4032026
98,1747532989040,0.063943,-0.5759751,1.0223558,0.08575379,-0.53795856,0.3616573
99,1747532989050,0.0535705675,-0.57743945,1.006248,0.0439421595,-0.5888249299999999,0.34115095
100,1747532989060,0.016839951,-0.62259,0.9454777,-0.12250541,-0.6823019,0.28122982
101,1747532989070,0.0203787805,-0.6903159,0.9154587,-0.1659149349999999,-0.7022756,0.269245595
102,1747532989080,0.0474691325,-0.79404025,0.8855617,-0.24341293,-0.74994615,0.184290755
103,1747532989090,0.1089715625,-0.85017343,0.88861238,-0.25806032,-0.7787082999999999,0.029294775
104,1747532989100,0.186459745,-0.86445081,0.8766535799999999,-0.20612867,-0.76113147,-0.16405073
105,1747532989110,0.249914625,-0.84175345,0.86432875,-0.13209279,-0.72091772,-0.407197335
106,1747532989120,0.263581825,-0.7770782700000001,0.8668914,-0.0170442315,-0.64874605,-0.7632619650000001
107,1747532989130,0.25333142,-0.7292431,0.8668914,0.056459017,-0.598146,-0.98750013
108,1747532989140,0.18780205,-0.663225565,0.7854983,-0.07084008,-0.48203218,-1.123854
109,1747532989150,0.09005712,-0.6472398,0.6919023,-0.21891184,-0.42983422,-1.041296
110,1747532989160,0.025381953,-0.6665203,0.68994987,-0.2876213999999999,-0.41918157,-0.9590043
111,1747532989170,-0.0205008085,-0.704837325,0.7032509849999999,-0.44767738,-0.4127899849999999,-0.6415555
112,1747532989180,-0.07614586,-0.76450935,0.73143957,-0.5523396,-0.4261057849999999,-0.2790992949999999
113,1747532989190,-0.09469421,-0.80294836,0.7746377,-0.53742594,-0.47031426,0.108124346
114,1747532989200,-0.09152147,-0.81197846,0.788793,-0.47351006,-0.48469532,0.34194988
115,1747532989210,-0.0857861249999999,-0.8164935099999999,0.7915996750000001,-0.430366845,-0.480167945,0.4452805399999999
116,1747532989220,-0.0014643435,-0.85444444,0.7438865,-0.27696875,-0.3818973,0.8697884
117,1747532989230,0.02684629825,-0.863596585,0.735100435,-0.28336035,-0.35579832,0.89189265
118,1747532989240,0.1044565,-0.87299275,0.71118283,-0.31158987,-0.2972088,0.90973586
119,1747532989250,0.12227268,-0.867257445,0.704471265,-0.321976185,-0.27989825,0.88523478
120,1747532989260,0.16107778,-0.82442534,0.67018116,-0.39468047,-0.16937704,0.70627034
121,1747532989270,0.14692247,-0.818568,0.6545615,-0.45327002,-0.112918034,0.6269081
122,1747532989280,0.1441158049999999,-0.8274760999999999,0.64662965,-0.48815741,-0.0817590485,0.5693838499999999
123,1747532989290,0.1466784,-0.86274236,0.65993077,-0.56938386,-0.034621093,0.36005938
124,1747532989300,0.14179726,-0.8927614,0.6970275,-0.5613944,-0.041012682,0.14913702
125,1747532989310,0.076633975,-0.9515792,0.7653635,-0.30466563,0.017044231,-0.09374327
126,1747532989320,0.051496077,-0.954996,0.7597502,-0.09427591,0.11717909,-0.1555286
127,1747532989330,0.0422219035,-0.9486505,0.750232,0.015712645,0.165115995,-0.1699096749999999
128,1747532989340,0.00976229025,-0.92497695,0.720335,0.2231729,0.245543465,-0.175768635
129,1747532989350,-0.04100161475,-0.85127168,0.61319385,0.3653857,0.311057225,-0.145674915
130,1747532989360,-0.06199054,-0.73436826,0.48835856,0.20612867,0.3818973,-0.08894958
131,1747532989370,-0.05735345,-0.66749656,0.4751795,-0.02130529,0.34621096,-0.06391586
132,1747532989380,-0.060770255,-0.63711143,0.46822385,-0.1944107699999999,0.34141727,-0.0378168845
133,1747532989390,-0.07089863,-0.619295275,0.45248214,-0.491885855,0.347276225,-0.00319579335
134,1747532989400,-0.09493827,-0.746083,0.47469133,-0.673779755,0.38535942,0.00452737395
135,1747532989410,-0.10933765,-0.90130347,0.6665203,-0.600276515,0.41678472,0.0295610878
136,1747532989420,-0.15107143,-0.9276616,0.6635916,-0.3214435399999999,0.4263721,0.086819055
137,1747532989430,-0.163274295,-0.93254275,0.63479288,-0.0181094899999999,0.459927915,0.155262295
138,1747532989440,-0.16717921,-0.9237567,0.5171573,0.37124467,0.5725796,0.2727077
139,1747532989450,-0.16425052,-0.8258897,0.34753752,0.39521313,0.7163904,0.46232477
140,1747532989460,-0.1769415,-0.7743936,0.31654227,0.2545982,0.7025419,0.49801114
141,1747532989470,-0.179748165,-0.7585299000000001,0.318494725,0.0777643,0.64555025,0.49055427
142,1747532989480,-0.186703795,-0.73192767,0.33399235,-0.00905475,0.62664181,0.484162685
143,1747532989490,-0.18255483,-0.716308,0.33826336,-0.25406557,0.59228706,0.4628574
144,1747532989500,-0.15375607,-0.77317333,0.34070393,-0.48735848,0.55606806,0.3584615
145,1747532989510,-0.14716652,-0.804656715,0.343144505,-0.51185959,0.55633438,0.3273025149999999
146,1747532989520,-0.138014375,-0.87079625,0.356811705,-0.52411014,0.5858955,0.23489082
147,1747532989530,-0.13276714,-0.9230245,0.38463423,-0.47777112,0.57923755,0.206394995
148,1747532989540,-0.1248352775,-0.94303715,0.419534415,-0.2284992235,0.55473645,0.075101147
149,1747532989550,-0.1103138774999999,-0.9265633,0.41026023,0.075101145,0.5763081,-0.12942964
150,1747532989560,-0.06833603,-0.8673795,0.29555333,0.06178534,0.62531024,-0.21891184
151,1747532989570,-0.0708986325,-0.85651893,0.250402735,0.015446335,0.67804082,-0.237021335
152,1747532989580,-0.09628059,-0.84016703,0.1935374,-0.090014845,0.7821704,-0.23329291
153,1747532989590,-0.1587592425,-0.83443165,0.1892664,-0.19787287,0.873516825,-0.167512835
154,1747532989600,-0.3031191,-0.83675025,0.19426957,-0.27244138,0.953944295,0.04048005
155,1747532989610,-0.48909074,-0.8510276,0.1637624,-0.2977414,1.031176,0.4063984
156,1747532989620,-0.50373417,-0.867379425,0.13227902,-0.324373015,1.02584965,0.4892227
157,1747532989630,-0.4940939,-0.915458725,0.066749654,-0.40080574,0.9968212,0.5848301650000001
158,1747532989640,-0.42197498,-0.97683915,0.034900184,-0.499076375,0.92411692,0.556334345
159,1747532989650,-0.21672285,-1.0518868,0.14252943,-0.51825115,0.76672407,0.3281014499999999
160,1747532989660,-0.16351835,-1.0218678,0.17059602,-0.39947418,0.619451275,0.0210389724999999
161,1747532989670,-0.1261776,-0.9654905,0.13886857,-0.206128675,0.544882775,-0.2229065875
162,1747532989680,-0.094206095,-0.83443177,-0.08712844,-0.027164245,0.4735100399999999,-0.5829659699999999
163,1747532989690,-0.09322987,-0.76926845,-0.24405725,-0.070307456,0.49801114,-1.0338391
164,1747532989700,-0.120442255,-0.737052875,-0.343510575,-0.232493963,0.58935757,-1.12997925
165,1747532989710,-0.19707623,-0.72131117,-0.499707225,-0.71159667,0.7185209,-1.3187973
166,1747532989720,-0.315443985,-0.7795188399999999,-0.57743946,-0.858336835,0.69641665,-1.3140037
167,1747532989730,-0.5061747249999999,-0.882388945,-0.539732605,-1.19309615,0.7155914000000001,-1.1233214
168,1747532989740,-0.65138876,-1.0064921,-0.41538543,-1.4056164,0.83516735,-0.6668556
169,1747532989750,-0.64333488,-1.0251625,-0.388661165,-1.3741911,0.849282075,-0.53955647
170,1747532989760,-0.6296677,-1.0821499,-0.3109289,-1.2828447,0.8562063,-0.299072995
171,1747532989770,-0.6412604150000001,-1.12046685,-0.280299735,-1.1547467,0.8604674,-0.084155893
172,1747532989780,-0.65285313,-1.1587838,-0.24967057,-1.0865698,0.871919,0.017576864
173,1747532989790,-0.65712415,-1.21821175,-0.16095575,-0.6181197,1.05594335,0.4609931849999999
174,1747532989800,-0.68604493,-1.2822767,-0.060038086,-0.3645867499999999,1.0008159,0.5629922700000001
175,1747532989810,-0.724850015,-1.3007031,-0.043564221,-0.0673779774999999,0.839162075,0.6487460700000001
176,1747532989820,-0.84834296,-1.3288918,-0.020012695,0.2428802975,0.623978675,0.755006195
177,1747532989830,-0.84834296,-1.3288918,-0.020012695,0.39574575,0.5118596,0.81705785
178,1747532989840,-0.8699420499999999,-1.20234805,-0.111412135,0.8133294,0.1182443545,1.2412994
179,1747532989850,-0.81734776,-1.1070436,-0.10201593,0.88470215,-0.23489082,1.4828482
180,1747532989860,-0.7455949,-1.0323621,-0.1044565,0.8522116,-0.48149952,1.6160061
181,1747532989870,-0.6161225349999999,-0.97488665,-0.142773485,0.73103775,-0.55793224,1.60162505
182,1747532989880,-0.42185296,-0.9114318,-0.174500925,0.5320996,-0.701742945,1.4956312500000002
183,1747532989890,-0.318860775,-0.90264575,-0.14619029,0.38349521,-0.8127967650000001,1.26526785
184,1747532989900,-0.24454537,-0.89300543,-0.03929322,0.23062976,-0.8745821,0.8042747
185,1747532989910,-0.22794947,-0.8944698,0.012935034,0.22050974,-0.8655274,0.4564658
186,1747532989920,-0.23502712,-0.9408407,0.019036464,0.27696875,-0.87511474,-0.21891184
187,1747532989930,-0.26565631,-0.960731375,0.0140332915,0.28842035,-0.898017945,-0.339553035
188,1747532989940,-0.336432915,-0.990262325,0.017938209,0.3057309099999999,-0.952080125,-0.53929013
189,1747532989950,-0.408063725,-0.99648575,0.0412456755,0.3169161849999999,-0.98936438,-0.634631315
190,1747532989960,-0.43954712,-0.9930689,0.055645052,0.3222425,-0.99548966,-0.6508766
191,1747532989970,-0.46724761,-0.9349833,0.078098319,0.336090935,-0.927579015,-0.5179848499999999
192,1747532989980,-0.44918736,-0.92021785,0.080538892,0.314785645,-0.89029475,-0.434627905
193,1747532989990,-0.44369608,-0.91204196,0.10396838,0.24554345,-0.88949585,-0.29507825
194,1747532990000,-0.4656612,-0.916435,0.12202863,0.2066613,-0.8948221,-0.18801917
195,1747532990010,-0.47981656,-0.9308343,0.22135992,0.23009712,-0.8277105,0.1555286
196,1747532990020,-0.4584615549999999,-0.93168852,0.2702934099999999,0.260190845,-0.8191883799999999,0.222640275
197,1747532990030,-0.4111144399999999,-0.91972974,0.3469274,0.325171975,-0.79655148,0.33555831
198,1747532990040,-0.32117933,-0.869576,0.38951537,0.41971418,-0.7344999,0.4149205
199,1747532990050,-0.25089085,-0.8439499,0.36779428,0.4463458,-0.66579026,0.37017938
200,1747532990060,-0.16620298,-0.8495633,0.31141704,0.37550572,-0.59601545,0.08468852
201,1747532990070,-0.161077775,-0.8561528300000001,0.29897012,0.338487775,-0.600276525,0.000798947
202,1747532990080,-0.16144386,-0.86713538,0.272978025,0.260989785,-0.5850965,-0.156593873
203,1747532990090,-0.1867038,-0.8922733,0.25406358,0.15925704,-0.46498793,-0.34301516
204,1747532990100,-0.2336848,-0.925831165,0.302386925,0.157925455,-0.397609965,-0.38429415
205,1747532990110,-0.312881375,-0.966344685,0.3771904849999999,0.28282771,-0.345412,-0.42077945
206,1747532990120,-0.363767325,-0.95914497,0.4137990649999999,0.5550028,-0.32011196,-0.32863408
207,1747532990130,-0.385732485,-0.91826533,0.41392109,0.6005428500000001,-0.31957933,-0.271376115
208,1747532990140,-0.3807293,-0.8295506,0.38219365,0.6593987,-0.3616573,-0.09960223
209,1747532990150,-0.34241232,-0.7470592,0.39195594,0.4809669,-0.36645097,0.123038046
210,1747532990160,-0.32227759,-0.73937145,0.39586085,0.41172472,-0.351803585,0.167779153
211,1747532990170,-0.25479576,-0.73778504,0.38902727,0.268180335,-0.320910915,0.2482066299999999
212,1747532990180,-0.237711755,-0.749499795,0.3887832049999999,0.103596968,-0.282827715,0.31158985
213,1747532990190,-0.1952458,-0.7883049,0.39195594,-0.103863284,-0.19228023,0.32969934
214,1747532990200,-0.204886065,-0.8246694699999999,0.435642195,-0.121706462,-0.164849675,0.26418558
215,1747532990210,-0.21562459,-0.879094245,0.491531325,-0.09241169,-0.1246359425,0.1523328175
216,1747532990220,-0.23344076,-0.912774075,0.5088593800000001,0.02396845,-0.1408812275,0.059122178
217,1747532990230,-0.271513685,-0.933885025,0.51630308,0.167512835,-0.23169503,-0.0194410765
218,1747532990240,-0.3128814,-0.927295505,0.5100796000000001,0.29134983,-0.33129725,-0.056991647
219,1747532990250,-0.31446778,-0.864938855,0.4268561,0.34834148,-0.3587277949999999,-0.043942157
220,1747532990260,-0.25357547,-0.77659017,0.3397277,0.14168017,-0.34408042,0.030360037
221,1747532990270,-0.240884495,-0.761946735,0.362180965,0.078296936,-0.34594463,0.020506341
222,1747532990280,-0.217943115,-0.73265985,0.40525708,-0.035420044,-0.33981936,0.001864213
223,1747532990290,-0.17206036,-0.7072779,0.43466598,-0.1555286,-0.30839407,-0.0479369
224,1747532990300,-0.09615856,-0.74437463,0.44613665,-0.25566345,-0.23435818,-0.20772657
225,1747532990310,-0.07516963,-0.7834238,0.45223808,-0.28815404,-0.18908444,-0.3206446
226,1747532990320,-0.072973115,-0.7967249000000001,0.46248847,-0.29001825,-0.15739282,-0.37523941
227,1747532990330,-0.08871481,-0.8334555,0.48408754,-0.263652955,-0.15259913,-0.47990166
228,1747532990340,-0.1530239,-0.8794603000000001,0.491287245,-0.161653882,-0.24181503,-0.566454385
229,1747532990350,-0.2362474,-0.88226694,0.46883395,0.07350325,-0.21678132,-0.48735848
230,1747532990360,-0.26797485,-0.8588374,0.48054874,0.13848437,-0.28229508,-0.38935417
231,1747532990370,-0.27566266,-0.83711632,0.48518582,0.15020228,-0.3067961649999999,-0.33742252
232,1747532990380,-0.2826182849999999,-0.7870846199999999,0.4795724799999999,0.14993597,-0.352336215,-0.224238165
233,1747532990390,-0.26175139,-0.73595462,0.44149953,0.0948085375,-0.36724992,-0.10892329
234,1747532990400,-0.10543273,-0.6892177,0.383658,-0.27537087,-0.26738137,0.024501082
235,1747532990410,-0.06199054,-0.7070338,0.4166057,-0.4250405,-0.29241508,-0.010652645
236,1747532990420,-0.048079278,-0.7238738,0.44821113,-0.4695152999999999,-0.307595105,-0.0490021675
237,1747532990430,-0.0349001865,-0.7791528,0.50946951,-0.49960902,-0.32969934,-0.14168017
238,1747532990440,-0.0329477285,-0.8389468,0.5426612799999999,-0.43516053,-0.29800773,-0.2034655149999999
239,1747532990450,-0.026602242,-0.8876362,0.55401,-0.28122982,-0.30040458,-0.3339604
240,1747532990460,-0.019646609,-0.891907225,0.551813465,-0.23222765,-0.305997225,-0.368315185
241,1747532990470,0.0043930304,-0.8673795,0.53253293,-0.146207545,-0.28442562,-0.43382895
242,1747532990480,0.00292868695,-0.8339436499999999,0.492019415,-0.084688525,-0.1613875699999999,-0.499875335
243,1747532990490,-0.01269097775,-0.7919658,0.43783869,-0.093210635,-0.0178431825,-0.52544167
244,1747532990500,-0.0573534545,-0.7839119,0.412944855,-0.170708625,0.0519316425,-0.48522795
245,1747532990510,-0.13374338,-0.80172807,0.3951287,-0.30519825,0.09374327,-0.34780884
246,1747532990520,-0.150339265,-0.825157555,0.4294187299999999,-0.352602525,0.072970615,-0.2042644575
247,1747532990530,-0.158393145,-0.85493252,0.473837155,-0.39308259,0.045806373,0.0095873775
248,1747532990540,-0.1367940799999999,-0.862132225,0.48738234,-0.362988875,0.034088463,0.13795174
249,1747532990550,-0.12373702,-0.86298645,0.49079913,-0.33981937,0.02876214,0.19600865
250,1747532990560,-0.082491346,-0.8621322549999999,0.4610241499999999,-0.27483822,0.0386158355,0.293480355
251,1747532990570,-0.0352662735,-0.87457917,0.43857089,-0.2444782,0.09853696,0.23062976
252,1747532990580,-0.0140332915,-0.896544285,0.4197784799999999,-0.24367925,0.13076121,0.213052895
253,1747532990590,-0.018792408,-0.90496427,0.40903994,-0.2428803,0.16298546,0.19547603
254,1747532990600,-0.0259920955,-0.9429152,0.404524875,-0.25592978,0.235956065,0.159523355
255,1747532990610,-0.010006348,-0.9798898,0.40611124,-0.29667616,0.29454562,0.12037488
256,1747532990620,-0.014521406,-0.98306255,0.43808274,-0.30120353,0.32091091,0.0958738
257,1747532990630,-0.019036464,-0.9862353,0.47005424,-0.3057309,0.3472762,0.07137272
258,1747532990640,-0.064919226,-0.98013395,0.4893348,-0.21358553,0.4878911,0.07829694
259,1747532990650,-0.069922398,-0.987943775,0.50361212,-0.15339808,0.4889564,0.08522116
260,1747532990660,-0.107385185,-0.9714699,0.52960422,-0.07989483335,0.49215219,0.147539125
261,1747532990670,-0.1398448,-0.9471862,0.541319,-0.0063915867,0.49534798,0.20985709
262,1747532990680,-0.136916115,-0.92802765,0.50873735,0.02290318665,0.56006279,0.28442561
263,1747532990690,-0.108727505,-0.921438125,0.47786408,0.0271642445,0.6548713500000001,0.369114135
264,1747532990700,-0.05662128,-0.92400074,0.42978483,-0.096939065,0.76912093,0.3435478
265,1747532990710,-0.032703668,-0.9596331,0.5549862,-0.18588865,0.8005462,0.23755397
266,1747532990720,-0.029286868,-0.959511065,0.60038085,-0.19307918,0.7853662,0.09933591
267,1747532990730,-0.022697324,-0.9523114,0.7070338,-0.080960095,0.7547399,-0.1736381
268,1747532990740,-0.029042812,-0.93181056,0.7402256,0.039947417,0.783502,-0.21891184
269,1747532990750,-0.0336798995,-0.92131608,0.7433983500000001,0.13741912,0.8026768,-0.21411815
270,1747532990760,-0.045882765,-0.90447617,0.77683425,0.1933455,0.7488809,-0.1587244
271,1747532990770,-0.0364865605,-0.89898485,0.79940951,0.1821602199999999,0.73210298,-0.133690685
272,1747532990780,-0.020866895,-0.879460265,0.861033935,0.15606124,0.69109033,-0.064448497
273,1747532990790,-0.009274175,-0.8471227,0.9818423,0.11984225,0.60560286,0.09054748
274,1747532990800,-0.014643435,-0.83845865,1.0394398,0.125168575,0.56192703,0.14487597
275,1747532990810,-0.049787678,-0.81295466,1.2664131,0.27537087,0.2647182,0.42237735
276,1747532990820,-0.04148973,-0.81295466,1.2764194,0.33449304,0.1587244,0.48629323
277,1747532990830,-0.031483384,-0.81478508,1.2667791,0.34967306,0.0870853675,0.496146935
278,1747532990840,-0.00768780335,-0.81417495,1.232367,0.36112465,-0.0588558624999999,0.4940164099999999
279,1747532990850,0.06833603,-0.77659017,1.0494461,0.21518342,-0.36432046,0.33289513
280,1747532990860,0.13447554,-0.7917217,0.97403246,0.10705908,-0.43569317,0.15978967
281,1747532990870,0.160101555,-0.8049008,0.9741545,0.05832323,-0.467651095,0.0508663785
282,1747532990880,0.201469265,-0.8258897000000001,0.99660777,-0.015712651,-0.52810486,-0.1728391565
283,1747532990890,0.21818718,-0.83687234,1.0587204,-0.026631612,-0.5954828,-0.50387007
284,1747532990900,0.14887492,-0.8498074,1.0301657,0.06657903,-0.55287224,-0.819721
285,1747532990910,0.1147069,-0.85859346,0.97598493,0.062850605,-0.55047539,-0.8524779
286,1747532990920,0.07516963,-0.87323684,0.9437694,0.041012682,-0.5949502,-0.91346425
287,1747532990930,0.047713191,-0.881412745,0.931200415,0.0370179395,-0.61545655,-0.90014845
288,1747532990940,-0.03904916,-0.90374404,0.85639685,0.048469532,-0.61572284,-0.7041398
289,1747532990950,-0.022453265,-0.91155386,0.83174706,0.07137272,-0.60933125,-0.62264705
290,1747532990960,0.011714748,-0.91814333,0.8542004,0.113983296,-0.60720074,-0.57364494
291,1747532990970,0.04637088,-0.9022797,0.9034999,0.160854933,-0.5811017700000001,-0.5472796200000001
292,1747532990980,0.05613317,-0.87994845,0.921194075,0.2639192649999999,-0.52224591,-0.49987535
293,1747532990990,0.025381953,-0.8166155,0.8712844,0.5523396,-0.41545314,-0.36272255
294,1747532991000,0.0051252014999999,-0.81332075,0.8401671,0.5757754500000001,-0.40293628,-0.31318775
295,1747532991010,-0.041733786,-0.7912336,0.7524285,0.5837649,-0.36432046,-0.13741912
296,1747532991020,-0.055645053,-0.779884935,0.7257042499999999,0.55979645,-0.34807517,-0.060720077
297,1747532991030,-0.083955695,-0.759506165,0.6899498850000001,0.51026166,-0.30945933,0.098270648
298,1747532991040,-0.1165373399999999,-0.742544205,0.6718896350000001,0.4293016,-0.24501082,0.34408042
299,1747532991050,-0.11226633,-0.7465711,0.6406503,0.18056233,-0.21411815,0.5608617
300,1747532991060,-0.09176553,-0.77512586,0.6367454,0.1105211884999999,-0.23382555,0.56805225
301,1747532991070,-0.09664667,-0.81978834,0.61819696,-0.068176925,-0.27803403,0.5550028
302,1747532991080,-0.08236932,-0.84846507,0.60587208,-0.1046622325,-0.2506034649999999,0.5214469500000001
303,1747532991090,-0.0366085861,-0.92436685,0.62649493,-0.15526229,-0.19707392,0.42610578
304,1747532991100,0.09518232,-0.95670444,0.68653303,-0.0644485,-0.1107875,0.07243799
305,1747532991110,0.08688438,-0.92156017,0.70264083,0.06657903,-0.039414786,-0.036218993
306,1747532991120,0.079562664,-0.8891005,0.6806757,0.21358553,0.035153728,-0.12996227
307,1747532991130,0.087494522,-0.8737249,0.6568801200000001,0.25353295,0.065247449,-0.187220235
308,1747532991140,0.090057123,-0.8457803500000001,0.6085567700000001,0.28043087,0.11478225,-0.31425302
309,1747532991150,0.0269683265,-0.82894045,0.5605995,0.2314287,0.159789675,-0.41571945
310,1747532991160,-0.09176553,-0.7992875,0.5205741,0.15180019,0.20932446,-0.36432046
311,1747532991170,-0.119954145,-0.7835458,0.49519215,0.11531488,0.23489081,-0.286023515
312,1747532991180,-0.17803976,-0.76768205,0.434299875,0.0026631599999999,0.348607795,0.0053263199999999
313,1747532991190,-0.17669745,-0.76926845,0.36730617,-0.1470065,0.5406217,0.41225734
314,1747532991200,-0.1497291225,-0.779152775,0.3806072849999999,-0.17763285,0.5816343749999999,0.45966162
315,1747532991210,-0.1000634675,-0.7946504000000001,0.422585125,-0.216515,0.6546050050000001,0.5102617
316,1747532991220,-0.061136335,-0.8049008,0.478352205,-0.19707392,0.6988135,0.4921522
317,1747532991230,-0.038316987,-0.80685323,0.45980385,-0.006924219,0.7504788,0.31638354
318,1747532991240,-0.0408795884999999,-0.8069752649999999,0.439913185,0.0013315805,0.7621967199999999,0.27244138
319,1747532991250,-0.0562551949999999,-0.80721935,0.40598923,0.0029294772,0.788828345,0.208259195
320,1747532991260,-0.0984771,-0.81380892,0.38121742,0.0063915866999999,0.8194547,0.198139185
321,1747532991270,-0.20476402,-0.84468216,0.328257,0.13901702,0.91825795,0.3190467
322,1747532991280,-0.18694785,-0.83626218,0.286645245,0.131560165,0.960335925,0.3257046
323,1747532991290,-0.13227904,-0.7968469,0.17718557,-0.015446335,1.0753845,0.26045716
324,1747532991300,-0.09615856,-0.7592621,0.14204131,-0.1035969675,1.10121715,0.20506341
325,1747532991310,-0.09005712,-0.72875494,0.17572121,-0.34088463,1.1526161,0.04580637
326,1747532991320,-0.2877435,-0.77366143,0.2238005,-0.33609092,1.1973573,0.068176925
327,1747532991330,-0.4463807,-0.83809257,0.21208574,-0.23276028,1.2037488,0.22690132
328,1747532991340,-0.536926,-0.8947139,0.16693515,-0.13369069,1.1558119,0.4181163
329,1747532991350,-0.5776835,-0.9237567,0.11568313,-0.07563378,1.0594054,0.5906891
330,1747532991360,-0.53009235,-0.9301022,0.074925573,-0.1091896099999999,0.9480853,0.62584285
331,1747532991370,-0.39464056,-0.9369358,0.043198135,-0.19973709,0.64341974,0.4809669
332,1747532991380,-0.35400503,-0.9215602,0.0388051025,-0.210389735,0.60054284,0.376304675
333,1747532991390,-0.23014598,-0.8756774,-0.0134231495,-0.23009712,0.56672066,0.014913702
334,1747532991400,-0.15790504,-0.8861718,-0.06809197,-0.21758026,0.57044911,-0.125967519
335,1747532991410,-0.15375607,-0.8776299,-0.13276714,-0.111852765,0.55606806,-0.76592517
336,1747532991420,-0.16608096,-0.86640325,-0.157538955,-0.1086569725,0.58483018,-0.8466189500000001
337,1747532991430,-0.184385245,-0.83992305,-0.202323465,-0.118244355,0.64182182,-0.978711715
338,1747532991440,-0.20769271,-0.81600545,-0.242959,-0.15046861,0.6817692550000001,-1.0684602
339,1747532991450,-0.27248991,-0.813320815,-0.276638895,-0.183225495,0.700411385,-1.11879395
340,1747532991460,-0.5964759,-0.88007045,-0.32557237,-0.25885928,0.7499462,-0.85700524
341,1747532991470,-0.6688388999999999,-0.90093735,-0.330453515,-0.282028765,0.69348718,-0.7350324699999999
342,1747532991480,-0.78940318,-0.93425116,-0.321057305,-0.340884625,0.574976505,-0.4703142649999999
343,1747532991490,-0.87079626,-0.9684192,-0.27090356,-0.46711847,0.42184472,-0.05006743
344,1747532991500,-0.8139309299999999,-0.99709595,-0.2453995749999999,-0.515321685,0.37923415,0.05299691
345,1747532991510,-0.7126471750000001,-1.04029405,-0.213061975,-0.64235445,0.205063415,0.23782029
346,1747532991520,-0.624420475,-1.0654319,-0.197076225,-0.7350324500000001,0.0332895155,0.30732879
347,1747532991530,-0.54034275,-1.0820278,-0.17779571,-0.7406250999999999,0.0282295104999999,0.2684466399999999
348,1747532991540,-0.44223174,-1.104603,-0.1513155,-0.6785734,0.18642128,0.20985709
349,1747532991550,-0.44015726,-1.11656185,-0.062722716,-0.53529535,0.2420813399999999,0.1808286399999999
350,1747532991560,-0.46078009,-1.12778855,0.046370879,-0.28549087,0.2745719,0.14487597
351,1747532991570,-0.50239185,-1.12180915,0.0605262,-0.0884169555,0.20240024,0.13608754
352,1747532991580,-0.5310685749999999,-1.1104604500000002,0.0362425019999999,0.0623179695,0.070041137,0.1320928
353,1747532991590,-0.539122475,-1.08703095,-0.000366085,0.143011755,-0.094009588,0.1379517499999999
354,1747532991600,-0.48006064,-0.98111016,-0.025137896,0.10066749,-0.39361522,0.2860235
355,1747532991610,-0.459681855,-0.96732093,-0.0085420035,0.07536746,-0.4048004899999999,0.34727621
356,1747532991620,-0.41794805,-0.9545079,0.01073851925,0.0266316117,-0.38216361,0.456199495
357,1747532991630,-0.38341394,-0.967931,0.01635183525,-0.0237021348,-0.3169161649999999,0.543018535
358,1747532991640,-0.364011375,-1.0199152,0.0791965805,-0.0633832345,-0.283892975,0.59921123
359,1747532991650,-0.353883,-1.06945885,0.169375735,-0.051132693,-0.30519827,0.57604173
360,1747532991660,-0.344974925,-1.08044145,0.207570695,0.0087884319999999,-0.36272255,0.4809669
361,1747532991670,-0.338995525,-1.078367,0.20232346,0.10279802,-0.45593318,0.29880667
362,1747532991680,-0.336066835,-1.0717774,0.169863845,0.112918033,-0.476173205,0.2348908049999999
363,1747532991690,-0.3214234,-1.0653099,0.12837411,0.108124346,-0.515588,0.050600063
364,1747532991700,-0.30677995,-1.0433447,0.16083373,0.072970614,-0.5699165,-0.18695392
365,1747532991710,-0.32020313,-1.0213796,0.14960709,0.07563378,-0.53316486,-0.2545982
366,1747532991720,-0.32581642,-0.9994144,0.10836142,0.05006743,-0.44315,-0.2860235
367,1747532991730,-0.328501045,-0.995509485,0.10470056,0.032490566,-0.41465419,-0.295610875
368,1747532991740,-0.3470493999999999,-0.99184862,0.1093376425,-0.0058589545,-0.3717773,-0.31638354
369,1747532991750,-0.43710655,-0.9791577,0.15546446,0.0053263223,-0.3685815,-0.23595607
370,1747532991760,-0.4429639,-0.9693954,0.16400647,0.028229509,-0.40906155,-0.16564862
371,1747532991770,-0.44186565,-0.964392215,0.16290821,0.0428768945,-0.440220535,-0.13289174
372,1747532991780,-0.4447943399999999,-0.953165565,0.16119981,0.0689758749999999,-0.4916195599999999,-0.072437985
373,1747532991790,-0.46785772,-0.9445015,0.13349932,0.098004326,-0.5699165,0.0031957934
374,1747532991800,-0.45760733,-0.943647315,0.125445427,0.082291678,-0.641555525,0.0402137342
375,1747532991810,-0.416971805,-0.938644165,0.093107837,0.0279631924999999,-0.711330325,0.0793622025
376,1747532991820,-0.340459855,-0.93327492,0.052594335,-0.061252705,-0.7020092499999999,0.0601874399999999
377,1747532991830,-0.25967691,-0.94682012,0.08310149,-0.1680454675,-0.6663228999999999,-0.052197955
378,1747532991840,-0.220871815,-0.96658875,0.167789355,-0.205862355,-0.631968135,-0.192546545
379,1747532991850,-0.20818083,-0.9610975,0.24137263,-0.091080114,-0.5725796,-0.34514567
380,1747532991860,-0.2022014349999999,-0.94694213,0.251500985,-0.050600063,-0.5472796,-0.374174135
381,1747532991870,-0.197930435,-0.918997555,0.2701713599999999,0.028762139,-0.501206935,-0.4146542
382,1747532991880,-0.2184312299999999,-0.89678836,0.27773714,0.103330655,-0.45966162,-0.41918157
383,1747532991890,-0.297505765,-0.8843414199999999,0.27126963,0.194677085,-0.4937500849999999,-0.333161455
384,1747532991900,-0.41001618,-0.8690878,0.25699228,0.28122982,-0.6040049,-0.10066749
385,1747532991910,-0.41611759,-0.8633525,0.24906042,0.28522456,-0.6221144,-0.0085221149999999
386,1747532991920,-0.41538543,-0.85542065,0.2323425,0.27537087,-0.680704,0.2695119
387,1747532991930,-0.3128814,-0.869576,0.15741692,0.08735169,-0.5161206,0.60773337
388,1747532991940,-0.20329969,-0.88641596,0.19256116,-0.04261058,-0.4383563,0.62371236
389,1747532991950,-0.13789235,-0.8922733,0.29701766,-0.11611383,-0.41065946,0.5342301
390,1747532991960,-0.1217845675,-0.8880022750000001,0.34765954,-0.109988557,-0.4159857799999999,0.452737385
391,1747532991970,-0.0923756675,-0.87421304,0.430150895,-0.059122177,-0.43116579,0.27057718
392,1747532991980,-0.078708465,-0.867135415,0.4429638999999999,0.081492725,-0.45353634,-0.028229505
393,1747532991990,-0.08444381,-0.87177248,0.3924440449999999,0.18402443,-0.4612595,-0.29827404
394,1747532992000,-0.1044565,-0.87116233,0.33142973,0.169377055,-0.437024735,-0.40906155
395,1747532992010,-0.139356685,-0.872260635,0.3018988,0.1241033149999999,-0.386691,-0.455134245
396,1747532992020,-0.27505252,-0.90642864,0.3738957,0.104129603,-0.372043615,-0.370445715
397,1747532992030,-0.29750578,-0.90118137,0.398789525,0.124635943,-0.3834952,-0.19947077
398,1747532992040,-0.33142975,-0.88031447,0.44882128,0.18162759,-0.3797668,0.037284255
399,1747532992050,-0.31507793,-0.84785485,0.44955346,0.21411815,-0.39521313,0.17257284
400,1747532992060,-0.27798122,-0.821496695,0.417581945,0.21278657,-0.390419425,0.242880295
401,1747532992070,-0.18938842,-0.78757274,0.36218095,0.1470065,-0.37710363,0.29827404
402,1747532992080,-0.16486066,-0.7883049200000001,0.35900821,0.100667493,-0.372576255,0.25939189
403,1747532992090,-0.114218794,-0.79513854,0.37706846,-0.039947417,-0.36005938,0.09321064
404,1747532992100,-0.107629254,-0.8019721,0.3900035,-0.0623179685,-0.352602525,0.04607268775
405,1747532992110,-0.14008886,-0.8437059,0.4327135,-0.08735169,-0.3371562,-0.14594123
406,1747532992120,-0.15546447,-0.85639685,0.4414995499999999,-0.067910611,-0.33688989,-0.155794925
407,1747532992130,-0.17767368,-0.87616547,0.45516675,-0.02343581765,-0.3398193699999999,-0.16564862
408,1747532992140,-0.19646609,-0.8844635,0.4458926,0.055926383,-0.3520699,-0.15819177
409,1747532992150,-0.20988922,-0.88104665,0.41416514,0.082025364,-0.37337518,-0.1454086
410,1747532992160,-0.21635675,-0.872748725,0.40916197,0.072704302,-0.3936152149999999,-0.1163801449999999
411,1747532992170,-0.21745501,-0.8599357249999999,0.393054185,0.0404800519999999,-0.414920505,-0.0636495535
412,1747532992180,-0.1998828799999999,-0.852858075,0.370844975,-0.0023968454999999,-0.4061320699999999,-0.021038973
413,1747532992190,-0.15619664,-0.85322416,0.35022214,-0.06338324,-0.35739622,0.036218993
414,1747532992200,-0.1330112,-0.8502955,0.34949,-0.10226539,-0.30466563,0.06657903
415,1747532992210,-0.11861181,-0.85542065,0.38731885,-0.128897,-0.2146508,0.08468852
416,1747532992220,-0.1223947049999999,-0.8639626499999999,0.3997657599999999,-0.114782245,-0.2146508,0.068709555
417,1747532992230,-0.131668885,-0.8799484049999999,0.410504285,-0.083889575,-0.22583607,0.0245010822
418,1747532992240,-0.117635585,-0.90398806,0.36413342,-0.05273059,-0.21784659,-0.0777643
419,1747532992250,-0.0844438035,-0.89996108,0.325572375,-0.101732755,-0.15978967,-0.15606124
420,1747532992260,-0.060282141,-0.8923953149999999,0.302508965,-0.16218651,-0.084422205,-0.2593919
421,1747532992270,-0.087250465,-0.886782015,0.33777523,-0.16751283,-0.0516653265,-0.2862898299999999
422,1747532992280,-0.12495731,-0.8766537,0.33704305,-0.15978967,0.011185277,-0.25885928
423,1747532992290,-0.1403329,-0.88373125,0.3436326,-0.16245283,0.06018744,-0.23489082
424,1747532992300,-0.17816179,-0.88324314,0.38853914,-0.120907515,0.028229509,-0.18535602
425,1747532992310,-0.16742326,-0.8944698,0.37487194,-0.0958738,0.027696876,-0.17789917
426,1747532992320,-0.1568067799999999,-0.90227965,0.361448795,-0.093476957,0.00958738,-0.169643365
427,1747532992330,-0.13874655,-0.9182654,0.330209465,-0.101200127,-0.0125168574999999,-0.142745435
428,1747532992340,-0.113974735,-0.9349833,0.298482,-0.1222390999999999,0.0151800185,-0.093476955
429,1747532992350,-0.12398108,-0.9442575,0.3900035,-0.006924219,0.14114754,0.02609898
430,1747532992360,-0.136428,-0.9237567,0.43613032,0.103863284,0.1917476,0.0479369
431,1747532992370,-0.13618394,-0.9110657,0.44894331,0.154729662,0.2082591999999999,0.051132693
432,1747532992380,-0.12996048,-0.8751893,0.44345202,0.232760285,0.2508697749999999,0.058589543
433,1747532992390,-0.1166593649999999,-0.8273541,0.39085768,0.25992453,0.27696875,0.0628506
434,1747532992400,-0.10030753,-0.797091,0.3404598599999999,0.07190535,0.5049353,0.08894958
435,1747532992410,-0.09042321,-0.806731235,0.36083865,0.0260989785,0.4796353,0.0655137635
436,1747532992420,-0.095060295,-0.8280861850000001,0.43259146,-0.0338221465,0.429301575,0.013315806
437,1747532992430,-0.11592719,-0.8302827,0.487870425,-0.0420779465,0.404534175,-0.027696876
438,1747532992440,-0.13179092,-0.79587066,0.4807928,-0.0015978967,0.4564658,0.019707393
439,1747532992450,-0.14350566,-0.78464407,0.44882128,-0.004261058,0.50173956,0.10173275
440,1747532992460,-0.15766099,-0.7905014,0.45419052,-0.013315806,0.59122175,0.2050634
441,1747532992470,-0.15522041,-0.802338175,0.48713826,-0.0055926385,0.6170544250000001,0.25539715
442,1747532992480,-0.150217235,-0.8329674,0.55828095,0.0418116295,0.652474485,0.34860779
443,1747532992490,-0.11726951,-0.851149675,0.6578563,0.247940305,0.636761835,0.433562625
444,1747532992500,-0.029530926,-0.8288184,0.70020026,0.5070659,0.6460829,0.4575311
445,1747532992510,0.041977845,-0.80172807,0.6643238,0.47670585,0.793622,0.4250405
446,1747532992520,0.12398108,-0.77512586,0.67506236,0.34141725,0.94488955,0.38456047
447,1747532992530,0.16046764,-0.773783505,0.71777238,0.25859294,0.969124325,0.352336215
448,1747532992540,0.23771177,-0.80685323,0.88836837,0.03089267,0.99069595,0.24660872
449,1747532992550,0.2403964,-0.9015475,1.2061309,-0.05752428,1.0104034,0.23062976
450,1747532992560,0.23161033,-0.9474302,1.4086984,0.020772656,1.0002834,0.2743056
451,1747532992570,0.21916342,-0.9798898,1.6005274,0.23595607,0.8516789,0.32330775
452,1747532992580,0.19134088,-0.99184865,1.7459855,0.348607785,0.760066175,0.32304144
453,1747532992590,0.12886222,-0.9442575,1.7130377,0.932639,0.283893,0.24181503
454,1747532992600,0.09054524,-0.9059405,1.5885686,1.1121361,0.10652645,0.19387813
455,1747532992610,0.080294835,-0.886782,1.509372,1.1480888,0.0324905685,0.170176
456,1747532992620,0.06345488,-0.8031924,1.2368821,1.1147993,-0.12357068,0.09853696
457,1747532992630,0.052472305,-0.73510045,1.0279691,0.7302388,-0.2615224,-0.036218993
458,1747532992640,0.0319715,-0.7402256,1.0118613,0.4825648,-0.35153726,-0.12783173
459,1747532992650,0.004148973,-0.7695125,1.0196712,0.20932446,-0.44741106,-0.2444782
460,1747532992660,-0.032703668,-0.8156393,1.0194272,0.056991648,-0.5028048,-0.32330775
461,1747532992670,-0.0707766,-0.9264413,0.9689073,-0.026631612,-0.5363607,-0.36272255
462,1747532992680,-0.06882414,-0.99550945,0.93888825,-0.0058589545,-0.61891866,-0.34408042
463,1747532992690,-0.06882414,-0.99550945,0.93888825,-0.0058589545,-0.61891866,-0.34408042
464,1747532992700,-0.06882414,-1.02674885,0.92607523,0.238352915,-0.6143913,-0.245543465
465,1747532992710,-0.078708458,-1.0125935,0.90008313,0.47404267,-0.55447015,-0.16698021
466,1747532992720,-0.0940840655,-0.9541418,0.8728707499999999,0.851945235,-0.448476325,-0.0996022299999999
467,1747532992730,-0.122272685,-0.8097819,0.7792748,1.1749867,-0.39521313,-0.06924219
468,1747532992740,-0.15326795,-0.7285109,0.699224,1.1366372,-0.3787015,-0.058589544
469,1747532992750,-0.19158493,-0.6655441,0.63454884,0.98803276,-0.3254383,-0.021837922
470,1747532992760,-0.21379416,-0.6233222,0.59794027,0.757403,-0.2695119,0.03355583
471,1747532992770,-0.22892569,-0.6208816,0.63503695,0.1949434,-0.28655612,0.12783173
472,1747532992780,-0.23026801,-0.635281,0.653219195,0.0846885265,-0.29454562,0.14194649
473,1747532992790,-0.24161668,-0.6760386,0.72558224,-0.13262543,-0.34301516,0.19600865
474,1747532992800,-0.245887675,-0.693488675,0.7558453350000001,-0.131560165,-0.35420043,0.216514995
475,1747532992810,-0.19744232,-0.7560893,0.77244115,-0.049534798,-0.3818973,0.26844665
476,1747532992820,-0.16937573,-0.76048235,0.745228775,-0.0186421285,-0.36724992,0.23222765
477,1747532992830,-0.08419975,-0.7807391,0.69214636,-0.017576864,-0.36432046,0.10546118
478,1747532992840,-0.053204484,-0.77951884,0.67530644,-0.06711166,-0.3888215,0.017576864
479,1747532992850,-0.056377228,-0.7746377,0.66688645,-0.0996022249999999,-0.377636235,-0.016245283
480,1747532992860,-0.076389916,-0.7421781,0.6804316,-0.29507825,-0.3110572,-0.16085494
481,1747532992870,-0.0741934029999999,-0.73180565,0.6845806000000001,-0.337688835,-0.313986685,-0.18295917
482,1747532992880,-0.070410515,-0.7100845499999999,0.6812858,-0.42956791,-0.303067735,-0.21092236
483,1747532992890,-0.07028849,-0.7158199,0.65285313,-0.5933523,-0.20453078,-0.19600865
484,1747532992900,-0.05418071,-0.7665838,0.64772797,-0.61385863,-0.1898833899999999,-0.189883385
485,1747532992910,0.004881145,-0.86933196,0.6452874,-0.5747102,-0.2247708,-0.24021713
486,1747532992920,0.052472305,-0.8815348,0.65846646,-0.47297743,-0.18748654,-0.29188246
487,1747532992930,0.0712647125,-0.866891375,0.6740861300000001,-0.32437304,-0.15819177,-0.3387541
488,1747532992940,0.07175283,-0.80416864,0.7058135,-0.14594123,-0.11611383,-0.32650355
489,1747532992950,0.03075121275,-0.77402757,0.67908925,-0.0719053505,-0.043675845,-0.27031085
490,1747532992960,-0.09139943725,-0.71948077,0.584273025,0.025566346,0.136087535,0.0146473899999999
491,1747532992970,-0.24698594,-0.6975156,0.45419052,0.007989483,0.25592979,0.35766254
492,1747532992980,-0.26419197,-0.7026408,0.43527609,-0.0913464285,0.27590349,0.566454375
493,1747532992990,-0.2815200249999999,-0.7154538,0.402694465,-0.2183792199999999,0.2743055949999999,0.7219829799999999
494,1747532993000,-0.20574026,-0.75486904,0.38902727,-0.56725335,0.2263687,0.79894835
495,1747532993010,-0.10543273,-0.7746377,0.40562314,-0.6759103,0.2231729,0.68336713
496,1747532993020,-0.0580856245,-0.78134927,0.413188905,-0.7054714,0.25566347,0.585629115
497,1747532993030,0.0261141255,-0.79538257,0.447967085,-0.732369335,0.34940675,0.365918325
498,1747532993040,0.08395569,-0.8009959,0.5186216,-0.6354303,0.47351006,0.002130529
499,1747532993050,-0.02318544,-0.77683425,0.4385709,-0.30253512,0.7030745,-0.43303
500,1747532993060,-0.11861181,-0.77781045,0.37584817,-0.22264028,0.79042625,-0.5022722
501,1747532993070,-0.178039765,-0.7750037750000001,0.357543885,-0.216248685,0.799480975,-0.49108692
502,1747532993080,-0.35315084,-0.77292925,0.3275248,-0.23648871,0.7552725,-0.38562572
503,1747532993090,-0.47151858,-0.75364876,0.27846932,-0.29348037,0.67963874,-0.23542345
504,1747532993100,-0.5320448,-0.79538256,0.14082102,-0.5544701,0.69295454,0.077231675
505,1747532993110,-0.43051702,-0.86225426,0.12324891,-0.73769563,0.69135666,0.12144015
506,1747532993120,-0.36132677,-0.8743351100000001,0.14228538,-0.829042045,0.6769755799999999,0.0852211565
507,1747532993130,-0.247474045,-0.88922258,0.208424895,-0.97258643,0.67111662,-0.0444747935
508,1747532993140,-0.200615055,-0.8845855,0.302020845,-0.8972189799999999,0.74142407,-0.302268795
509,1747532993150,-0.24796216,-0.8973985,0.32923323,-0.5438175,0.79042625,-0.6466155
510,1747532993160,-0.32239962,-0.90472025,0.24308102,-0.38935417,0.72917354,-0.7909589
511,1747532993170,-0.34412073,-0.902401675,0.172914558,-0.39228365,0.67537767,-0.83809685
512,1747532993180,-0.37413977,-0.8961782,0.0392932145,-0.466585845,0.562725935,-0.92118745
513,1747532993190,-0.38756293,-0.9344952,-0.15595257,-0.74302197,0.45220476,-1.0167949
514,1747532993200,-0.36352329,-0.9329088,-0.181456555,-0.972586485,0.42770368,-1.03090965
515,1747532993210,-0.28749946,-0.9288819,-0.25674823,-1.3800501,0.5251754,-1.0386329
516,1747532993220,-0.27932353,-0.93071232,-0.274198325,-1.43544385,0.5419533,-1.03064335
517,1747532993230,-0.27822525,-0.931566535,-0.304339395,-1.50468605,0.5360943499999999,-0.9970875
518,1747532993240,-0.42392743,-1.0777569,-0.31751847,-1.3619406,0.5944176,-0.79894835
519,1747532993250,-0.45370242,-1.2036903,-0.30019042,-1.2117383,0.5832323,-0.71479243
520,1747532993260,-0.46200036,-1.23944465,-0.2882316099999999,-1.12145715,0.5419533000000001,-0.683100815
521,1747532993270,-0.4862840499999999,-1.2831309,-0.2735881799999999,-0.8229168,0.47031426,-0.5704491
522,1747532993280,-0.5527897,-1.2690977,-0.2831064,-0.6103965,0.49321744,-0.4362258
523,1747532993290,-0.62551874,-1.2056428,-0.3316738,-0.34834146,0.47830373,-0.1933455
524,1747532993300,-0.6665203,-1.1780643,-0.3116611,-0.047404267,0.45220476,0.27324033
525,1747532993310,-0.69214636,-1.1421878,-0.2506468,0.09534117,0.4463458,0.51931643
526,1747532993320,-0.6999562,-1.0855666,-0.17962612,0.25353295,0.43782368,0.7520767
527,1747532993330,-0.7063017,-0.9596331,-0.097134784,0.5811018,0.3339604,1.1462245
528,1747532993340,-0.69409883,-0.91545874,-0.1295944,0.67537767,0.2545982,1.303351
529,1747532993350,-0.6655441,-0.88739216,-0.16766733,0.68176925,0.13848437,1.4173343
530,1747532993360,-0.63845375,-0.8834872549999999,-0.17242645,0.6532734250000001,0.0450074189999999,1.44290065
531,1747532993370,-0.51386253,-0.8678676249999999,-0.164616615,0.49747849,-0.268180316,1.3558153
532,1747532993380,-0.302631,-0.83101493,-0.122272685,0.298007725,-0.56086172,1.1291802999999998
533,1747532993390,-0.2549177999999999,-0.82222885,-0.0972568175,0.092145376,-0.77231675,0.74089146
534,1747532993400,-0.15668476,-0.80343646,-0.023429496,-0.013848438,-0.8543421,0.47244477
535,1747532993410,-0.14899695,-0.80685328,-0.0134231488,-0.057524282,-0.8506136799999999,0.359526745
536,1747532993420,-0.154976345,-0.84053318,-0.0021965152849999,-0.158990723,-0.83037363,0.0964064325
537,1747532993430,-0.208913,-0.9059405,-0.015375607,-0.257794,-0.80374205,-0.13635385
538,1747532993440,-0.22062775,-0.92412275,-0.0178161795,-0.27856666,-0.7720504100000001,-0.174703375
539,1747532993450,-0.21208574,-0.9698835,-0.026114125,-0.34674358,-0.67963874,-0.283893
540,1747532993460,-0.1696198,-0.97134787,-0.00707766,-0.4133226,-0.6247776,-0.37337518
541,1747532993470,-0.1748670199999999,-0.968175135,0.04698102,-0.44235106,-0.6119944500000001,-0.4591289899999999
542,1747532993480,-0.20574025,-0.97903565,0.11360865,-0.45060687,-0.6127933999999999,-0.5600628000000001
543,1747532993490,-0.25906675,-1.0114952,0.1228828275,-0.40426786,-0.6410229000000001,-0.5629922650000001
544,1747532993500,-0.31776255,-1.0526189,0.119343996,-0.32384038,-0.68389976,-0.46924898
545,1747532993510,-0.32410803,-1.0772687,0.13667206,-0.19760656,-0.6556703,-0.20772657
546,1747532993520,-0.306047795,-1.07665855,0.130814685,-0.149935975,-0.599211285,-0.132625425
547,1747532993530,-0.266998635,-1.06945885,0.130936715,-0.0623179725,-0.511326955,-0.0276968755
548,1747532993540,-0.2294138,-1.053107,0.15180361,0.0644485,-0.4383563,0.0031957934
549,1747532993550,-0.234539015,-1.0450531,0.156928815,0.10679276,-0.414654175,-0.0066579027999999
550,1747532993560,-0.264558065,-1.0202813,0.17035196,0.189350755,-0.376038355,-0.0221042375
551,1747532993570,-0.304827515,-0.99819415,0.17145021,0.22876554,-0.38722363,-0.011451593
552,1747532993580,-0.35705575,-0.9825745,0.14179726,0.2231729,-0.4495416,0.061252706
553,1747532993590,-0.39293218,-0.9964857,0.102504045,0.23222765,-0.49801114,0.12996227
554,1747532993600,-0.40562314,-1.00893265,0.0938400125,0.247407675,-0.535561695,0.17283916
555,1747532993610,-0.38316986,-1.0548154,0.1552204,0.33981937,-0.7099988,0.42876893
556,1747532993620,-0.335090595,-1.0412702500000002,0.159369375,0.35446675,-0.704938775,0.435959465
557,1747532993630,-0.236003365,-1.00844455,0.1574169249999999,0.383761525,-0.6913566250000001,0.4087952299999999
558,1747532993640,-0.12324891,-0.9498709,0.15692882,0.41065946,-0.6199839,0.2625877
559,1747532993650,-0.1054327325,-0.931810625,0.18292091,0.40160471,-0.5406217,0.145941236
560,1747532993660,-0.1020159274999999,-0.918387425,0.232830615,0.39947417,-0.44315,-0.0793622
561,1747532993670,-0.1398448,-0.92485495,0.26785283,0.405599445,-0.455666865,-0.1193096199999999
562,1747532993680,-0.21647878,-0.9193637,0.24942651,0.39148468,-0.45327002,-0.21784659
563,1747532993690,-0.24991462,-0.90740484,0.20598431,0.34834146,-0.4426174,-0.23222765
564,1747532993700,-0.3031191,-0.9100895,0.14985114,0.21092236,-0.57364494,-0.22370553
565,1747532993710,-0.31837267,-0.930346225,0.15314592,0.1776328449999999,-0.615456555,-0.205596035
566,1747532993720,-0.3219115,-0.9876996,0.18011424,0.11558119,-0.6769755500000001,-0.15472966
567,1747532993730,-0.29591941,-0.997706,0.19524579,0.0665790275,-0.690291345,-0.0846885235
568,1747532993740,-0.233806845,-1.00990895,0.23222046,0.044208476,-0.66073028,-0.0237021335
569,1747532993750,-0.1366720599999999,-0.9969739,0.30202084,0.0878843185,-0.552872265,-0.0404800475
570,1747532993760,-0.0546688264999999,-0.9609754,0.35876416,0.16165388,-0.42290999,-0.1560612375
571,1747532993770,-0.00073217176,-0.8759214,0.35583547,0.21731395,-0.30839407,-0.376571
572,1747532993780,0.00390491612,-0.8544444,0.349856065,0.218112895,-0.282295085,-0.45540055
573,1747532993790,-0.003660858,-0.8293065500000001,0.33179583,0.204264455,-0.244211875,-0.59734705
574,1747532993800,-0.063943,-0.8516378,0.28835364,0.1107875,-0.227700275,-0.693487175
575,1747532993810,-0.14191929,-0.903866035,0.269683255,0.002929475,-0.26791401,-0.704672425
576,1747532993820,-0.1926832,-0.939742415,0.29897013,-0.023169502,-0.34967306,-0.63516393
577,1747532993830,-0.224776725,-0.949748755,0.314711835,0.005592638,-0.3882889,-0.51505538
578,1747532993840,-0.21647878,-0.93156654,0.31995904,0.21837921,-0.2263687,-0.04261058
579,1747532993850,-0.20281157,-0.92900392,0.34839171,0.273772955,-0.222373955,0.0253000299999999
580,1747532993860,-0.177551645,-0.909723365,0.39512867,0.3837615,-0.215716055,0.14008228
581,1747532993870,-0.151315495,-0.8744570899999999,0.40537908,0.482298475,-0.2151834249999999,0.2069276199999999
582,1747532993880,-0.1154390775,-0.844071955,0.37755655,0.54967645,-0.22343922,0.217313945
583,1747532993890,-0.018304294,-0.7907455,0.31776255,0.536893275,-0.234624495,0.14061491
584,1747532993900,-0.004881145,-0.7602383,0.32215557,0.4079963,-0.25246766,-0.0063915867
585,1747532993910,-0.013911263,-0.72485006,0.32557237,0.30200246,-0.23808661,-0.07190535
586,1747532993920,-0.027578468,-0.71557588,0.326060485,0.24820661,-0.219444485,-0.084688525
587,1747532993930,-0.0595499664999999,-0.71594197,0.328134965,0.133690687,-0.19281287,-0.09400959
588,1747532993940,-0.12593354,-0.7878168,0.3436326,-0.02130529,-0.22956449,-0.0777643
589,1747532993950,-0.12642165,-0.80624315,0.33533465,-0.19600865,-0.33449304,-0.07350325
590,1747532993960,-0.10543273,-0.85273606,0.28359452,-0.28975195,-0.31851408,-0.06018744
591,1747532993970,-0.05051985,-0.89300543,0.26870704,-0.38296258,-0.2743056,-0.068176925
592,1747532993980,-0.029530927,-0.91802129,0.27395426,-0.41065944,-0.27830034,-0.0854874725
593,1747532993990,0.019768637,-0.99502134,0.3077562,-0.43356264,-0.30146983,-0.15233281
594,1747532994000,0.017572122,-1.01881697,0.330941625,-0.33529199,-0.226102375,-0.18402443
595,1747532994010,0.0053692596499999,-1.0427346,0.372309325,-0.16085493,-0.1257012049999999,-0.219444475
596,1747532994020,-0.02953092685,-1.0341926,0.41148053,-0.00319579,-0.0910801099999999,-0.217313945
597,1747532994030,-0.087860613,-1.0066141,0.42929672,0.14168017,-0.061252706,-0.182426535
598,1747532994040,-0.17328064,-0.95328766,0.39659303,0.28442562,-0.026631612,-0.05912218
599,1747532994050,-0.18694785,-0.90374404,0.30092257,0.20719394,-0.051665325,0.14274544
600,1747532994060,-0.16034561,-0.88324314,0.28335047,0.082025364,-0.07882957,0.20453078
601,1747532994070,-0.11373068,-0.8727487,0.272123835,-0.050866378,-0.0663127125,0.20266657
602,1747532994080,-0.016351834,-0.88275504,0.26992732,-0.255663475,-0.032490566,0.16005599
603,1747532994090,-0.0014643435,-0.9225364,0.3077562,-0.3787015,0.020772656,0.040480047
604,1747532994100,-0.01012837575,-0.943037225,0.324962235,-0.3787015,0.020772656,0.040480047
605,1747532994110,-0.027822526,-1.00576,0.37194324,-0.2892193,0.09374327,-0.113983296
606,1747532994120,-0.014155320245,-1.01552225,0.4122126849999999,-0.22929817,0.096140115,-0.162985463
607,1747532994130,0.017694150755,-1.00246515,0.46590529,-0.0098536899999999,0.151267555,-0.304399315
608,1747532994140,0.042221904,-0.94877255,0.470786435,0.21864553,0.250603475,-0.4282363
609,1747532994150,0.051252022,-0.87079626,0.439059,0.38083205,0.3834952,-0.5070659
610,1747532994160,0.042954076,-0.827354,0.422219,0.41225734,0.4628574,-0.53795856
611,1747532994170,-0.0032947735,-0.7786646,0.40684342,0.37790257,0.546480675,-0.5078648299999999
612,1747532994180,-0.0850539515,-0.7180164,0.39171189,0.30519827,0.639691325,-0.42290999
613,1747532994190,-0.133987435,-0.7030069,0.39024754,0.2037318249999999,0.6458166000000001,-0.31025827
614,1747532994200,-0.146556385,-0.70410515,0.40000983,0.06977482275,0.6301039500000001,-0.22583606
615,1747532994210,-0.11641531,-0.74620503,0.49409391,-0.0711064022499999,0.55926385,-0.2367550299999999
616,1747532994220,-0.061746485,-0.7892811550000001,0.604529825,-0.14434333,0.48016795,-0.313720385
617,1747532994230,-0.00268463,-0.790379405,0.635891175,-0.141147535,0.47058056,-0.39095205
618,1747532994240,0.0541807049999999,-0.77451566,0.6249085750000001,-0.13076121,0.5083974450000001,-0.451672115
619,1747532994250,0.11617125,-0.75047606,0.60306543,-0.14594123,0.57417756,-0.46232477
620,1747532994260,0.10457853,-0.73131755,0.622467995,-0.166181255,0.59468388,-0.43569316
621,1747532994270,0.0738273175,-0.70923037,0.6469957550000001,-0.21891184,0.636229185,-0.283360345
622,1747532994280,0.0517401375,-0.72607032,0.64418909,-0.27696876,0.650876585,-0.0974716975
623,1747532994290,0.10860548,-0.8256457,0.61941725,-0.4346279,0.58962387,0.017576864
624,1747532994300,0.17620933,-0.88836837,0.64357895,-0.62317973,0.5320996,0.0037284256
625,1747532994310,0.22148195,-0.948406435,0.721311175,-0.7155914000000001,0.483896385,-0.0268979271999999
626,1747532994320,0.292502615,-1.0334604,0.86371855,-0.728907185,0.41332261,-0.090281163
627,1747532994330,0.33069758,-1.0782449,0.98940805,-0.520381675,0.397876275,-0.129695948
628,1747532994340,0.34680536,-1.09484075,1.0695809,-0.245543455,0.4546016,-0.09933591
629,1747532994350,0.3499781,-1.0665302,1.108508,0.16831179,0.6103965,0.06657903
630,1747532994360,0.3231318,-1.0089327,1.2368821,0.58909124,0.5539375,0.37230992
631,1747532994370,0.30690199,-0.979523775,1.28264285,0.65993132,0.52411011,0.43622581
632,1747532994380,0.29067218,-0.921072025,1.3459757,0.76832198,0.46046057,0.54594805
633,1747532994390,0.30189882,-0.8642067,1.3568362500000002,0.8133294,0.36884781,0.5981460000000001
634,1747532994400,0.275662675,-0.7846440800000001,1.28752405,0.74861457,0.1491370132499999,0.55447015
635,1747532994410,0.14692247,-0.73632073,1.1138773,0.5432849,-0.10972224,0.49215218
636,1747532994420,0.12837412,-0.759506165,1.05078845,0.45007425,-0.15020229,0.48576059
637,1747532994430,0.126909775,-0.819056125,0.934129075,0.23595608,-0.23009712,0.44261738
638,1747532994440,0.176331355,-0.8963002250000001,0.874213075,0.0029294749999999,-0.304665635,0.318780395
639,1747532994450,0.3270367,-1.056768,1.0660421,-0.20453078,-0.37763625,-0.27377295
640,1747532994460,0.3441207,-1.0611609,1.1580516,-0.04527374,-0.36005938,-0.54275227
641,1747532994470,0.330331485,-1.0542053,1.1733052000000002,0.0849548399999999,-0.34008567,-0.663393435
642,1747532994480,0.28798756,-1.02882335,1.15914995,0.382163635,-0.2945456199999999,-0.8924253
643,1747532994490,0.17620933,-0.9540198,1.0025872,0.70680296,-0.23009712,-1.0807108
644,1747532994500,0.06760386,-0.8417535,0.81271064,0.68816084,-0.20559604,-1.026915
645,1747532994510,0.04356422,-0.8119785,0.78952517,0.63170182,-0.19947077,-0.97045595
646,1747532994520,-0.010128376,-0.7595061700000001,0.7680481299999999,0.511060615,-0.21092236,-0.8245146999999999
647,1747532994530,-0.079806721,-0.7227755499999999,0.76011631,0.378435195,-0.255929775,-0.61598918
648,1747532994540,-0.17742962,-0.780251,0.6804316,0.16138756,-0.32384038,-0.24501082
649,1747532994550,-0.15766099,-0.8605459,0.6867771,-0.06764429,-0.44528055,0.17257284
650,1747532994560,-0.1402108925,-0.89080895,0.69556315,-0.082824308,-0.468716365,0.25965821
651,1747532994570,-0.0972568125,-0.94974875,0.723629735,-0.064714813,-0.49854374,0.382163625
652,1747532994580,-0.050641878,-0.99258085,0.7631670349999999,0.045806373,-0.515587975,0.4247742
653,1747532994590,-0.022697324,-1.0094208,0.8195442,0.230896073,-0.536626975,0.422643665
654,1747532994600,-0.027090355,-0.98367273,0.7549911,0.507864825,-0.47936901,0.397077325
655,1747532994610,0.0036608586,-0.9188756,0.5610876,0.6689861,-0.34461305,0.32969934
656,1747532994620,0.036852647,-0.878362,0.5122762,0.55127436,-0.35579833,0.21997711
657,1747532994630,0.0495436235,-0.8534681799999999,0.50104955,0.459395305,-0.3688478149999999,0.14674018
658,1747532994640,0.087372495,-0.800263705,0.483965535,0.25592979,-0.3834952,-0.012516855
659,1747532994650,0.116659365,-0.713989475,0.489090735,-0.090813795,-0.29880668,-0.219710795
660,1747532994660,0.0732171755,-0.6665203500000001,0.4868942,-0.37603836,-0.1621865125,-0.315051965
661,1747532994670,-0.0228193515,-0.724972025,0.47847423,-0.43862265,-0.049801112,-0.231695015
662,1747532994680,-0.110313877,-0.8315030050000001,0.51349643,-0.417849985,0.0300937204999999,-0.08468852
663,1747532994690,-0.179504105,-0.92741753,0.5554742699999999,-0.306796165,0.0279631914999999,0.10945592
664,1747532994700,-0.1415532,-0.9928249,0.4334457,0.11451593,0.058056913,0.360592
665,1747532994710,-0.0728510865,-0.98074405,0.410016185,0.135821215,0.071106404,0.277235065
666,1747532994720,0.059305911,-0.9399865,0.38561045,0.126233835,0.0644485025,0.02769688
667,1747532994730,0.1690096525,-0.86042385,0.380973365,0.047670585,0.047936902,-0.2934803549999999
668,1747532994740,0.2408845149999999,-0.76328905,0.36559775,-0.059921125,0.097471697,-0.6000101999999999
669,1747532994750,0.29018408,-0.6160005,0.3355787,-0.4181163,0.3749731,-1.1638014
670,1747532994760,0.244179285,-0.6146581499999999,0.3216674499999999,-0.5571333,0.48629323,-1.1840415
671,1747532994770,0.1119002505,-0.6288134649999999,0.29762783,-0.60773335,0.5632585649999999,-1.1230551
672,1747532994780,0.025626011,-0.64431113,0.28749946,-0.6583334,0.6402239,-1.0620687
673,1747532994790,-0.201591285,-0.8327233,0.273100065,-0.5765744,0.7036072,-0.5153217
674,1747532994800,-0.307024,-0.9952655,0.28164205,-0.22956449,0.6034723,0.16937704
675,1747532994810,-0.29128231,-0.99733995,0.272367875,-0.13076121,0.5826996499999999,0.27750138
676,1747532994820,-0.16961978,-0.93071232,0.21123154,-0.03195793,0.561927,0.38562572
677,1747532994830,-0.0057353449999999,-0.829550595,0.1164153075,0.023435815,0.6149239,0.515587975
678,1747532994840,0.09823305,-0.769390475,0.0586957689999999,-0.15339809,0.72118405,0.49428271
679,1747532994850,0.166447055,-0.72497205,0.0420998744999999,-0.381897315,0.8077367799999999,0.42583947
680,1747532994860,0.14008886,-0.7197248,0.059794027,-0.6876282,0.96406436,0.3552657
681,1747532994870,0.14008886,-0.7197248,0.059794027,-0.6876282,0.96406436,0.3552657
682,1747532994880,-0.0772441199999999,-0.84004502,0.0677258885,-0.6828345,1.04289388,0.4974785
683,1747532994890,-0.32337585,-0.99831612,0.0741934049999999,-0.63037023,1.0676613,0.6695187
684,1747532994900,-0.353272865,-1.05640175,0.065407342,-0.54221961,0.958205425,0.6844323999999999
685,1747532994910,-0.321057315,-1.0759264,0.0595499685,-0.47004793,0.8322378749999999,0.60879862
686,1747532994920,-0.213550095,-1.019183125,0.0749255735,-0.380033085,0.6375607999999999,0.36165727
687,1747532994930,-0.114950965,-0.926685395,0.058207652,-0.3206446,0.504935365,0.080693781
688,1747532994940,-0.067725885,-0.8633525200000001,-0.0172060349999999,-0.347009895,0.505734295,-0.108390659
689,1747532994950,-0.0102504045,-0.79318607,-0.13593988,-0.440486865,0.5336974800000001,-0.3006709
690,1747532994960,-0.0015863722499999,-0.781471315,-0.15888127,-0.624244985,0.5691175500000001,-0.531833275
691,1747532994970,0.008297946,-0.788060845,-0.20281158,-0.90334425,0.6072007500000001,-0.921187415
692,1747532994980,0.0010982574999999,-0.836994315,-0.214892405,-1.0993529,0.6234460150000001,-1.3291837000000002
693,1747532994990,-0.0292868695,-0.9105776,-0.203787795,-1.1422298,0.594151265,-1.6426378
694,1747532995000,-0.083101491,-0.99538745,-0.20390982,-1.14888775,0.50173957,-1.94064555
695,1747532995010,-0.23551524,-1.1448725,-0.3180066,-1.2250541,0.20932446,-2.2770028
696,1747532995020,-0.23551524,-1.1448725,-0.3180066,-1.2250541,0.20932446,-2.2770028
697,1747532995030,-0.2702934,-1.1632989,-0.3078782249999999,-1.31320475,0.22796659,-2.1385184
698,1747532995040,-0.323863965,-1.18709455,-0.265534285,-1.40295325,0.24767399,-1.8338528
699,1747532995050,-0.37243137,-1.1790406,-0.16595893,-1.3358417,0.24767399,-1.3496901
700,1747532995060,-0.381095395,-1.17086465,-0.154366205,-1.19522675,0.231162395,-1.0151970499999998
701,1747532995070,-0.39695911,-1.1747695,-0.126665708,-0.9768475,0.2034655149999999,-0.5187838
702,1747532995080,-0.41026023,-1.2307807,-0.08908089,-0.73769563,0.14008227,-0.07190535
703,1747532995090,-0.408551825,-1.24969515,-0.072362971,-0.648479715,0.0966727475,0.0569916499999999
704,1747532995100,-0.37804468,-1.2855716,-0.062722711,-0.36192358,-0.0106526425,0.40746364
705,1747532995110,-0.3256944,-1.30668255,-0.07663397,-0.0657800815,-0.082824312,0.715058745
706,1747532995120,-0.274198315,-1.3075367,-0.07663397,0.1518001785,-0.099868542,0.8743158
707,1747532995130,-0.223312385,-1.2941135,-0.05491288,0.364586755,-0.115314875,0.97498332
708,1747532995140,-0.179504105,-1.26726725,-0.02306341065,0.544083825,-0.1451422849999999,1.0013486500000002
709,1747532995150,-0.13923466,-1.20527675,-0.01818226565,0.6924219,-0.202666565,0.963798065
710,1747532995160,-0.078586435,-1.12400565,-0.0536925925,0.7648598799999999,-0.31691617,0.789094665
711,1747532995170,-0.01854835138,-1.05908645,-0.0817591775,0.72171668,-0.43702474,0.574710185
712,1747532995180,0.00024405724,-1.0301657,-0.08639627,0.6689861,-0.47723848,0.49854377
713,1747532995190,0.0433201605,-0.97171392,-0.043076104,0.4543352899999999,-0.52783856,0.2775014
714,1747532995200,0.04271002,-0.93181056,0.08590815,0.21518342,-0.4362258,-0.0026631611
715,1747532995210,0.02806658475,-0.93644763,0.09750087,0.213585525,-0.4247742,-0.02290318555
716,1747532995220,-0.00500317325,-0.94755225,0.113242562,0.210123415,-0.4098604999999999,-0.050067429
717,1747532995230,-0.0352662715,-0.968663225,0.112144307,0.201068665,-0.400805765,-0.059388494
718,1747532995240,-0.046614934,-1.0033194,0.10006347,0.16724652,-0.40852892,-0.060720075
719,1747532995250,-0.0411236455,-1.01662045,0.09286378,0.08948222,-0.40266997,-0.06498113
720,1747532995260,-0.0289207825,-1.0395618,0.083833663,0.070307457,-0.378168885,-0.068176925
721,1747532995270,-0.022209208,-1.0492021,0.082003236,0.051132694,-0.3536678,-0.07137272
722,1747532995280,-0.0113486619999999,-1.0801974,0.11116808,0.0271642434999999,-0.298806685,-0.1009338049999999
723,1747532995290,-0.0151315495,-1.0894716,0.138868575,0.0479369035,-0.2900182599999999,-0.11930962
724,1747532995300,-0.009518232,-1.0560358,0.18353106,0.14807177,-0.2828277,-0.16564862
725,1747532995310,-0.009030118,-1.05066645,0.18682583,0.174437065,-0.28549087,-0.180562325
726,1747532995320,-0.014033292,-1.0378534,0.18536148,0.221308695,-0.28948562,-0.20266656
727,1747532995330,-0.03014107,-1.02662685,0.1675453,0.25086978,-0.2878877199999999,-0.211188675
728,1747532995340,-0.08542004,-1.0377314,0.09689073,0.24394556,-0.290284555,-0.197340245
729,1747532995350,-0.10982577,-1.044321,0.079318605,0.210656045,-0.29348035,-0.161653885
730,1747532995360,-0.120564285,-1.04749375,0.0765119475,0.15233281,-0.29028457,-0.06924219
731,1747532995370,-0.139356695,-1.0576221,0.082857435,0.147539125,-0.30493195,-0.0362189916999999
732,1747532995380,-0.151925645,-1.0636015,0.09945333,0.14887071,-0.326503565,0.0322242483
733,1747532995390,-0.15607461,-1.05359515,0.13899061,0.24234766,-0.37603834,0.2034655
734,1747532995400,-0.1424074,-1.0359009499999998,0.181090485,0.27723508,-0.388288885,0.21624868
735,1747532995410,-0.109337645,-1.0179627999999998,0.189388425,0.34408042,-0.4114583899999999,0.21997711
736,1747532995420,-0.067847915,-0.99819415,0.17547716,0.39361522,-0.439421575,0.1763012649999999
737,1747532995430,-0.0286767265,-0.97696112,0.14936304,0.41092578,-0.4745753,0.08628642
738,1747532995440,-0.002196515,-0.95938902,0.117879655,0.3888215299999999,-0.5075985,-0.0396811
739,1747532995450,0.007199689,-0.95438587,0.069068202,0.267381375,-0.5347627500000001,-0.272441385
740,1747532995460,0.007565775,-0.9684192,0.008786061,0.1046622315,-0.52970275,-0.49508167
741,1747532995470,-0.0021965152,-0.98062205,0.011714748,-0.072970614,-0.45327002,-0.6423545
742,1747532995480,-0.0057353451,-0.991360525,0.045028564,-0.107059077,-0.43409526,-0.67218188
743,1747532995490,-0.0255039805,-1.0284572,0.17730759,-0.0639158669999999,-0.43063315,-0.75979988
744,1747532995500,-0.061258372,-1.0477377,0.33191785,0.20932446,-0.52624065,-0.83729786
745,1747532995510,-0.058573738,-1.0194272,0.30629185,0.3930826,-0.5502091,-0.8378305
746,1747532995520,-0.0419778455,-1.0047837,0.2618734299999999,0.45486792,-0.55260595,-0.83383575
747,1747532995530,0.040513504,-0.9518233,0.051252022,0.4250405,-0.4990764,-0.809601
748,1747532995540,0.03904916,-0.950359,0.038316987,0.32756883,-0.43782368,-0.7845673
749,1747532995550,0.023673553,-0.950359,0.07297312,0.2561961,-0.38615838,-0.7206514
750,1747532995560,0.003172744,-0.9545079,0.14741059,0.2412824,-0.34621096,-0.6146576
751,1747532995570,-0.0075657749999999,-0.94120675,0.197320295,0.30679616,-0.32410671,-0.48496165
752,1747532995580,-0.018304294,-0.91911955,0.251989115,0.41838261,-0.2793656,-0.27830034
753,1747532995590,-0.0120808339999999,-0.903255875,0.254551715,0.5054679799999999,-0.235423445,-0.1193096174999999
754,1747532995600,-0.0054912881,-0.894347775,0.2408845,0.577905955,-0.231428705,0.0575242775
755,1747532995610,-0.0109825765999999,-0.898740785,0.216966885,0.614391275,-0.27031086,0.230097115
756,1747532995620,-0.0097622904,-0.899472955,0.21171966,0.6079997,-0.313454065,0.46818371
757,1747532995630,0.0068336021,-0.88971067,0.231000185,0.6000102,-0.347542525,0.6961503
758,1747532995640,0.029774986,-0.8747012,0.26968327,0.6103965499999999,-0.3539341099999999,0.8282431
759,1747532995650,0.03819496,-0.86933195,0.278591365,0.62557657,-0.32011196,0.9552759
760,1747532995660,0.06345488,-0.8588374,0.30458343,0.64821345,-0.2609898,1.1206582
761,1747532995670,0.046248846,-0.8511496000000001,0.3154439799999999,0.66579029,-0.281229815,1.18590565
762,1747532995680,0.0229413815,-0.8429736750000001,0.308244305,0.674578695,-0.324106705,1.2636699500000002
763,1747532995690,0.0356323585,-0.842241495,0.25784649,0.62344603,-0.345412,1.2559468
764,1747532995700,0.086518288,-0.84297367,0.20415389,0.51052801,-0.351803585,1.1819109
765,1747532995710,0.1735247,-0.850173375,0.18096845,0.35952676,-0.351803585,1.03437175
766,1747532995720,0.241982765,-0.8646948,0.20024897,0.17044232,-0.328634085,0.65833342
767,1747532995730,0.26370385,-0.8793382249999999,0.24100653,0.0362189925,-0.29507825,0.212786569
768,1747532995740,0.28383857,-0.8947139,0.2933568,-0.0053263223,-0.23222765,-0.28336033
769,1747532995750,0.28359452,-0.8965443,0.298726065,0.0002663161,-0.207460255,-0.445280535
770,1747532995760,0.20915705,-0.8747012,0.31751847,0.03568636,-0.04261058,-1.107875
771,1747532995770,0.1735247,-0.8673795,0.325206285,0.037550573,-0.0295610895,-1.1472898
772,1747532995780,0.062478654,-0.8498074,0.3521746,0.040480047,-0.017044231,-1.1909657
773,1747532995790,-0.002928687,-0.8502955,0.35363895,0.037284255,-0.08841695,-1.1387677
774,1747532995800,-0.043930306,-0.86213223,0.336066825,0.028495824,-0.1387506949999999,-1.0887003000000002
775,1747532995810,-0.09225364,-0.8817788,0.31483385,-0.0122505404999999,-0.27057717,-0.8564726500000001
776,1747532995820,-0.090545237,-0.89215125,0.313979655,-0.044208474,-0.3520699,-0.6743124
777,1747532995830,-0.082003236,-0.93571544,0.33191785,-0.024501082,-0.44368264,-0.26365295
778,1747532995840,-0.045394648,-0.96304995,0.3482697,0.06018744,-0.48043427,-0.0314253
779,1747532995850,0.08322352,-0.95597225,0.34216827,0.1949434,-0.46978164,0.19707392
780,1747532995860,0.13862452,-0.92912596,0.34460884,0.23382555,-0.40426785,0.25885928
781,1747532995870,0.1538781,-0.912652105,0.345218985,0.24181503,-0.378435195,0.27856666
782,1747532995880,0.1637624,-0.856885,0.33509058,0.24554345,-0.31478566,0.32756883
783,1747532995890,0.11177822,-0.8283303,0.3275248,0.21837921,-0.26631612,0.35100463
784,1747532995900,-0.0051252022,-0.83736044,0.30922052,0.05539375,-0.21145499,0.42024684
785,1747532995910,-0.0146434346,-0.8434618700000001,0.318860785,-0.007989485,-0.220243425,0.44394897
786,1747532995920,-0.051496077,-0.86103404,0.336799,-0.20985709,-0.24074976,0.53742594
787,1747532995930,-0.06369894,-0.92937,0.29262465,-0.2362223949999999,-0.189350755,0.55260597
788,1747532995940,0.110557936,-1.120955,0.3184947,-0.33768883,0.047404267,0.25832662
789,1747532995950,0.1415532,-1.1746475,0.40440285,-0.3089267,-0.013315806,-0.060720075
790,1747532995960,0.1338654,-1.1624447,0.454800675,-0.2577939999999999,-0.039947418,-0.2130528874999999
791,1747532995970,0.108605477,-1.1152197,0.515082815,-0.132625422,-0.09454222,-0.4804342499999999
792,1747532995980,0.068702117,-1.04114825,0.4969005399999999,-0.009853697,-0.0950748499999999,-0.6482133999999999
793,1747532995990,-0.036852647,-0.88934463,0.34924594,0.0447411065,-0.0420779445,-0.6940198
794,1747532996000,-0.0492995665,-0.873236865,0.33094165,-0.0806937835,-0.0580569145,-0.54168699
795,1747532996010,-0.05759751,-0.84102124,0.31825066,-0.311589865,-0.1102548724999999,-0.28575719
796,1747532996020,-0.0388051025,-0.83858067,0.33557871,-0.5052017,-0.1235706724999999,-0.051399005
797,1747532996030,0.0080538895,-0.841875465,0.37743452,-0.66499135,-0.131560155,0.19467708
798,1747532996040,0.093840012,-0.879216215,0.45797342,-0.758201975,-0.147539125,0.431165785
799,1747532996050,0.2135501,-0.9693954,0.56011134,-0.69348717,-0.11717909,0.91133374
800,1747532996060,0.2574804,-0.99087245,0.58317477,-0.63329971,-0.123038045,0.97205382
801,1747532996070,0.3014107,-1.0123495,0.6062382,-0.57311225,-0.128897,1.0327739
802,1747532996080,0.4386929149999999,-1.010153,0.651144725,-0.3864246799999999,-0.06498113,1.08257505
803,1747532996090,0.536925945,-0.97769335,0.674086125,-0.2612561,0.017576863,1.06206865
804,1747532996100,0.68214005,-0.84248555,0.77073276,0.02876214,0.21944448,0.9624664
805,1747532996110,0.7353445,-0.7975791,0.75364876,0.06578008,0.18908444,0.92970955
806,1747532996120,0.7631669999999999,-0.7891591,0.71850455,0.0817590475,0.133158055,0.84448842
807,1747532996130,0.804656735,-0.79879938,0.68311627,-0.0079894824999999,0.14114754,0.74967987
808,1747532996140,0.8437059,-0.9364477,0.895446,-0.20026971,0.39148468,0.6631271
809,1747532996150,0.827354,-0.9862353,1.0509106,-0.034621093,0.4676511,0.6695187
810,1747532996160,0.80734135,-0.9995364,1.1407235999999998,0.1667138935,0.5022722,0.664725
811,1747532996170,0.773661485,-1.0088106,1.27422285,0.55606804,0.54594805,0.6325007650000001
812,1747532996180,0.749743885,-0.985991275,1.32156995,0.90494215,0.5510080500000001,0.553404895
813,1747532996190,0.72753465,-0.8268659,1.2036903,1.3885722,0.37124467,0.0793622
814,1747532996200,0.6977597,-0.7280228,1.104115,1.3789848,0.322775135,-0.0727043
815,1747532996210,0.6711574499999999,-0.6884855,1.0695809,1.31427,0.2330265999999999,-0.3834952
816,1747532996220,0.6097770499999999,-0.62088162,1.0041735699999998,1.1664646,0.17603495,-0.695351375
817,1747532996230,0.49885303,-0.5684093,0.9405966,0.8362326,0.16777915,-1.0982877
818,1747532996240,0.4026944649999999,-0.5842730300000001,0.914482485,0.54062171,0.158724405,-1.2213257
819,1747532996250,0.26553428,-0.6258848050000001,0.888246335,0.15126755,0.12144015,-1.3432984499999998
820,1747532996260,0.16937573,-0.728999,0.9391323,-0.03195793,0.051665325,-1.2761868
821,1747532996270,0.16937573,-0.728999,0.9391323,-0.0074568495,0.0058589539999999,-1.149953
822,1747532996280,0.195489855,-0.8910530249999999,0.9565824,0.0751011455,-0.068443241,-0.95634118
823,1747532996290,0.20940112,-0.9096014,0.96304995,0.13315806,-0.096939065,-0.88896316
824,1747532996300,0.2042759149999999,-0.89385972,0.93303087,0.404267865,-0.194677085,-0.63889235
825,1747532996310,0.19121886,-0.86054584,0.8765316000000001,0.56272593,-0.20266657,-0.431964735
826,1747532996320,0.18621568,-0.84199744,0.844194,0.62903863,-0.1965413,-0.32170987
827,1747532996330,0.1799922199999999,-0.7925758949999999,0.785254185,0.579770165,-0.24021715,-0.00905475
828,1747532996340,0.1699858699999999,-0.732171745,0.710694705,0.406931,-0.30360037,0.47830373
829,1747532996350,0.16705718,-0.719724805,0.67066932,0.3352919749999999,-0.309725635,0.551008045
830,1747532996360,0.17706353,-0.769146415,0.6230781700000001,0.1850897,-0.321177225,0.66951871
831,1747532996370,0.19304928,-0.842363595,0.6102651400000001,-0.1107875,-0.24714136,0.7462177
832,1747532996380,0.213672115,-0.88092464,0.63894187,-0.11371698,-0.2255697549999999,0.7134608499999999
833,1747532996390,0.233928875,-0.911187725,0.690315915,-0.073769565,-0.204264465,0.63010395
834,1747532996400,0.21989559,-0.94035256,0.7700006,0.165116,-0.18056233,0.47031426
835,1747532996410,0.206472435,-0.935471445,0.7698785800000001,0.2460761,-0.1635181,0.432497365
836,1747532996420,0.20696054,-0.904354165,0.69214633,0.37417415,-0.16751284,0.282028755
837,1747532996430,0.2314883,-0.85993575,0.569263485,0.37470678,-0.20213393,0.10040117
838,1747532996440,0.24674188,-0.80465674,0.46273252,0.16405073,-0.165116,-0.096939065
839,1747532996450,0.25626012,-0.7946504050000001,0.4573632749999999,0.067644295,-0.1201085725,-0.1600559825
840,1747532996460,0.23502713,-0.7480354600000001,0.4981208649999999,-0.16058861,-0.0181094975,-0.27457191
841,1747532996470,0.141919282,-0.7086201750000001,0.55352185,-0.29081719,0.0644484975,-0.2490055649999999
842,1747532996480,0.021843124,-0.73839517,0.5588911,-0.25806031,0.1217064625,-0.0748348275
843,1747532996490,-0.061624458,-0.81405297,0.5588911,-0.1848233799999999,0.153930715,0.1398159625
844,1747532996500,-0.07907455,-0.8916632,0.5359497,-0.10146644,0.124635942,0.38056572
845,1747532996510,0.015375607,-0.9198518,0.46956614,0.10439592,0.11930962,0.82078624
846,1747532996520,0.0841997435,-0.906672665,0.4711525,0.130228585,0.13448964,0.7936220199999999
847,1747532996530,0.195123755,-0.870308115,0.48128088,0.170442315,0.155794925,0.6838998000000001
848,1747532996540,0.2610192149999999,-0.814175,0.4789623349999999,0.182692855,0.18002969,0.496146925
849,1747532996550,0.23966423,-0.7038611,0.43100512,0.07989483,0.3568636,0.017044231
850,1747532996560,0.20000492,-0.71484368,0.408795895,0.044474789,0.4135889299999999,-0.0079894829999999
851,1747532996570,0.12678774,-0.7521844499999999,0.383657985,-0.02396845,0.5089300800000001,-0.0268979265
852,1747532996580,0.042954076,-0.8334555,0.42685616,-0.08948222,0.5773733,0.02876214
853,1747532996590,0.0236735532,-0.86445075,0.437594665,-0.07616641,0.56778595,0.065247445
854,1747532996600,-0.0029286870499999,-0.904598175,0.422829185,-0.010918959,0.562725975,0.1704423099999999
855,1747532996610,0.00573534525,-0.918997575,0.37389571,0.047936901,0.574710175,0.23755397
856,1747532996620,0.0472250775,-0.925098975,0.35534735,0.0455400564999999,0.577639625,0.210656045
857,1747532996630,0.07785426,-0.906794675,0.385244355,0.020240024,0.5699165,0.1454086
858,1747532996640,0.053936653,-0.83028275,0.41221267,0.033023197,0.6599313,0.16937704
859,1747532996650,0.0064675175,-0.808683695,0.41514136,0.0141147534999999,0.74115775,0.25379925
860,1747532996660,-0.10543273,-0.79709095,0.43491003,-0.03515373,0.8175905,0.3992078449999999
861,1747532996670,-0.131058745,-0.804778755,0.437228575,-0.088150635,0.784300965,0.516386915
862,1747532996680,-0.1696198,-0.835408,0.39268813,-0.14327806,0.7414241,0.6668556
863,1747532996690,-0.04002539,-0.9003272,0.33265,-0.25246766,0.7717841,0.5571333
864,1747532996700,-0.04002539,-0.9003272,0.33265,-0.25246766,0.7717841,0.5571333
865,1747532996710,-0.04002539,-0.9003272,0.33265,-0.25246766,0.7717841,0.5571333
866,1747532996720,0.11568313,-0.88031447,0.234539,-0.4079963,0.84368944,-0.05486112
867,1747532996730,0.1105579375,-0.8649389,0.083589604,-0.52943645,0.956341165,-0.466852155
868,1747532996740,-0.099087246,-0.9803779,-0.0053692595,-0.78989357,1.0902982,-0.7451525
869,1747532996750,-0.20549619,-1.0042956,-0.019768637,-0.8383631,1.0748519,-0.6514092
870,1747532996760,-0.2469859449999999,-1.00661415,-0.0268462969999999,-0.845021,1.06686235,-0.5701828
871,1747532996770,-0.298970135,-1.01222745,-0.0412456744999999,-0.84928208,1.0452907,-0.406132075
872,1747532996780,-0.302630975,-1.0114952499999998,-0.055889111,-0.84715158,0.9984191,-0.262055055
873,1747532996790,-0.22502078,-0.9776934,-0.049543623,-0.89322424,0.7451525,-0.20240025
874,1747532996800,-0.1871919,-0.9794017,-0.059549972,-0.90547477,0.69481875,-0.243412935
875,1747532996810,-0.14887492,-0.9942892,-0.055400997,-0.9289106,0.5858955,-0.39414784
876,1747532996820,-0.135207715,-0.9978281,-0.0604041664999999,-0.9286443,0.58216705,-0.44181843
877,1747532996830,-0.123614995,-1.001489,-0.0984770929999999,-0.93636745,0.61066285,-0.51851746
878,1747532996840,-0.22111587,-1.0836142,-0.23722363,-1.0189254,0.7504788,-0.5123922
879,1747532996850,-0.30116665,-1.1363305,-0.1849954,-1.019458,0.7105314,-0.4101268
880,1747532996860,-0.331917865,-1.1557330499999998,-0.141675235,-0.989098,0.68816083,-0.33662356
881,1747532996870,-0.3698687699999999,-1.1920976,-0.0626006845,-0.89215897,0.63276708,-0.188551808
882,1747532996880,-0.372187315,-1.2240691,-0.006467518,-0.69588399,0.541420665,-0.0274305579999999
883,1747532996890,-0.3441207,-1.2485968,0.04002539,-0.30839407,0.3882889,0.18482338
884,1747532996900,-0.332650015,-1.210768,0.0369746735,-0.057790605,0.34541201,0.31878039
885,1747532996910,-0.31397964,-1.1404796,0.006711574,0.3392867,0.33289513,0.60933125
886,1747532996920,-0.28029974,-1.06933685,-0.0705325445,0.356064625,0.3912183649999999,0.67697555
887,1747532996930,-0.225508895,-1.00185495,-0.1385024899999999,0.3419498749999999,0.5233111500000001,0.79308939
888,1747532996940,-0.1925611749999999,-0.959511,-0.129594398,0.27297401,0.6250439,0.870587365
889,1747532996950,-0.26529023,-0.95572823,0.010982576,0.2514024,0.5752428,0.8346347
890,1747532996960,-0.3184947,-0.95743656,0.00048811449,0.29188246,0.45167214,0.757403
891,1747532996970,-0.33728711,-0.95438588,-0.017938207755,0.28921929,0.3888215299999999,0.7270429650000001
892,1747532996980,-0.36303516,-0.9447456,-0.053814622,0.253266615,0.26551716,0.67191553
893,1747532996990,-0.3699908,-0.938156,-0.071264714,0.21997711,0.2050634,0.64714813
894,1747532997000,-0.284448715,-0.90154745,-0.074071377,-0.064182184,-0.024234766,0.40426786
895,1747532997010,-0.20818083,-0.90325594,-0.020744866,-0.143544385,-0.09667275,0.252201365
896,1747532997020,-0.1732806399999999,-0.91082172,-0.0157416925,-0.20772657,-0.11797804,0.003462115
897,1747532997030,-0.1313028,-0.9261973,-0.011714748,-0.30519825,-0.13475595,-0.33609092
898,1747532997040,-0.15180361,-0.93229866,-0.0024405725,-0.3358246099999999,-0.14247912,-0.37364151
899,1747532997050,-0.167301245,-0.93901026,0.00671157375,-0.392816265,-0.166447575,-0.42291
900,1747532997060,-0.21281794,-0.97037166,0.051740136,-0.44847634,-0.24021713,-0.42557314
901,1747532997070,-0.229413825,-0.99136058,0.081027008,-0.43649212,-0.30333405,-0.36778255
902,1747532997080,-0.252599255,-1.01710865,0.11360865,-0.404534185,-0.39920785,-0.263652955
903,1747532997090,-0.25137897,-1.02577265,0.1115341575,-0.34674358,-0.46232477,-0.11930962
904,1747532997100,-0.22441064,-1.0302876,0.0956704375,-0.34168358,-0.468450035,-0.079362203
905,1747532997110,-0.185361475,-1.0332163,0.07700006,-0.34461306,-0.479369,-0.01331580625
906,1747532997120,-0.11885588,-1.03028765,0.0729731125,-0.40346892,-0.472178465,0.01091896075
907,1747532997130,-0.049055509,-1.0197932,0.0953043525,-0.47430901,-0.443948955,-0.0119842244999999
908,1747532997140,-0.0052472305,-1.0074683,0.13240106,-0.4993427099999999,-0.40293628,-0.0599211234999999
909,1747532997150,0.022941383,-0.9864794,0.18523945,-0.48629323,-0.30945933,-0.13262543
910,1747532997160,-0.019036465,-0.9939232,0.188290165,-0.43169843,-0.2300971249999999,-0.128630685
911,1747532997170,-0.0945721814999999,-1.0190611,0.1742568749999999,-0.348607795,-0.1129180324999999,-0.108390658
912,1747532997180,-0.12813005,-1.0367552,0.15717287,-0.32011196,-0.075101145,-0.092145376
913,1747532997190,-0.2006150649999999,-1.0892275,0.14301754,-0.2431466149999999,-0.082557997,-0.02556634655
914,1747532997200,-0.2305120749999999,-1.10277265,0.138746545,-0.165116,-0.15446335,0.027696876
915,1747532997210,-0.22929179,-1.11692795,0.125567455,-0.119842255,-0.170442315,0.059122178
916,1747532997220,-0.200126945,-1.1362085,0.11861182,-0.049534796,-0.1794970599999999,0.1027980199999999
917,1747532997230,-0.1765754199999999,-1.1413337,0.130936715,0.013848439,-0.16085493,0.1272991
918,1747532997240,-0.16791139,-1.13047315,0.140454945,0.09800433,-0.12383699,0.15020229
919,1747532997250,-0.16778936,-1.1076538,0.106775045,0.177899165,-0.061252705,0.159523355
920,1747532997260,-0.19134088,-1.0843463,0.07980672,0.20559604,0.018642128,0.08628642
921,1747532997270,-0.2164787799999999,-1.0812956,0.0917655199999999,0.20639499,-0.020772656,0.0633832335
922,1747532997280,-0.282252215,-1.0755603,0.120442245,0.235423445,-0.096406435,0.0458063705
923,1747532997290,-0.3943965,-1.0775127,0.14008886,0.34940675,-0.20399815,0.11611383
924,1747532997300,-0.42514772,-1.08349215,0.11604922,0.46392268,-0.3190467,0.4101268
925,1747532997310,-0.46712556,-1.0767806,0.08102701,0.5075985,-0.3882889,0.58056915
926,1747532997320,-0.46041399,-1.0664082,0.065407344,0.53289855,-0.41705104,0.652474495
927,1747532997330,-0.429052635,-1.04322275,0.0240396386,0.57364492,-0.4609932,0.7747135700000001
928,1747532997340,-0.3641334149999999,-1.02296595,-0.0211109524,0.5787049200000001,-0.48442901,0.8383631
929,1747532997350,-0.2583345999999999,-0.99404515,-0.041489733,0.51452275,-0.532099585,0.73689665
930,1747532997360,-0.17633136,-0.9590229,-0.038439016,0.40586576,-0.55553544,0.4889564
931,1747532997370,-0.143505665,-0.9414508,-0.01488749115,0.3701794,-0.54301857,0.41944789
932,1747532997380,-0.117757625,-0.9369358,0.0173280653499999,0.294279305,-0.5331648499999999,0.26631612
933,1747532997390,-0.10055158,-0.92082804,0.032459613,0.175236,-0.545948,0.0127831735
934,1747532997400,-0.14008886,-0.9452337,0.07370529,0.08522116,-0.66632295,-0.31318775
935,1747532997410,-0.19402552,-0.9789136,0.07516963,0.101200126,-0.8346347,-0.45007423
936,1747532997420,-0.19402552,-0.9789136,0.07516963,0.101200126,-0.8346347,-0.45007423
937,1747532997430,-0.19243913,-0.97830345,0.0420998735,0.07909589,-0.90946955,-0.53156698
938,1747532997440,-0.139844795,-0.9647583,0.04527262,0.0535295415,-0.9467538,-0.5683185799999999
939,1747532997450,-0.1053107,-0.947674275,0.05051985,0.017310547,-0.9102685,-0.54967645
940,1747532997460,-0.12202863,-0.9508471,0.08688438,-0.0109189605,-0.82291682,-0.463390035
941,1747532997470,-0.130326575,-0.963416015,0.1132425599999999,-0.0082557993499999,-0.7856325550000001,-0.3629888599999999
942,1747532997480,-0.15107143,-0.96256185,0.19915071,0.03355583,-0.7749799,-0.21997711
943,1747532997490,-0.094206095,-0.88690406,0.18938842,0.10066749,-0.73982614,-0.112918034
944,1747532997500,-0.067725884,-0.87628755,0.1784058399999999,0.0908137924999999,-0.73982614,-0.132359112
945,1747532997510,-0.008053889,-0.8751893,0.14423785,0.0,-0.8314389,-0.28549087
946,1747532997520,-0.0079318604,-0.89361563,0.13838047,-0.041279,-0.88363685,-0.348075165
947,1747532997530,-0.00512520215,-0.92583118,0.135817865,-0.12144015,-0.9558085,-0.45513424
948,1747532997540,0.00744374625,-0.951457185,0.13020455,-0.1880191749999999,-0.96086853,-0.525175375
949,1747532997550,0.0330697575,-0.995387485,0.1582711299999999,-0.21891184,-0.83170523,-0.53263223
950,1747532997560,0.046858992,-1.0609169,0.272856,-0.14274544,-0.62744075,-0.45699844
951,1747532997570,0.0422219035,-1.0636015,0.29640752,-0.081492732,-0.5906891249999999,-0.428236305
952,1747532997580,0.031239327,-1.05859835,0.3347245199999999,0.057524278,-0.531034325,-0.374706775
953,1747532997590,0.024893839,-0.9808661,0.33045352,0.2892193,-0.47830373,-0.31957933
954,1747532997600,0.03172744,-0.94669807,0.29530928,0.46978164,-0.4878911,-0.32597092
955,1747532997610,0.030751213,-0.937057785,0.26577834,0.45140582,-0.51265852,-0.335558295
956,1747532997620,0.02220921,-0.9240007,0.217210945,0.39254995,-0.557665945,-0.339819355
957,1747532997630,-0.0053692595,-0.9135063,0.17376876,0.24767399,-0.5539375,-0.27057716
958,1747532997640,0.00390491575,-0.92583115,0.1978084,0.162985465,-0.4892227,-0.1837581125
959,1747532997650,0.0159857495,-0.94852845,0.26053111,0.0729706149999999,-0.39627839,-0.0564590155
960,1747532997660,0.0302631,-0.98330665,0.37291947,0.12942964,-0.30200246,0.021837922
961,1747532997670,0.0357543865,-0.985259075,0.40135215,0.20879184,-0.277767705,0.01784318
962,1747532997680,0.022697323,-0.97964575,0.441255515,0.370978345,-0.2372876649999999,0.0210389735
963,1747532997690,-0.049543623,-0.9269294,0.37682438,0.64821345,-0.16085494,0.07882957
964,1747532997700,-0.044418417,-0.90130347,0.31361356,0.6135923,-0.14594123,0.08735169
965,1747532997710,-0.024161667,-0.8808026,0.27993366,0.5107943,-0.18482338,0.05965481
966,1747532997720,-0.008053889,-0.8540783000000001,0.297139705,0.38429415,-0.208259205,0.0335558305
967,1747532997730,0.016717921,-0.8274760750000001,0.3258164249999999,0.208791835,-0.20666131,-0.0005326325
968,1747532997740,0.06296677,-0.83736044,0.37267542,0.08948222,-0.15393071,-0.051132694
969,1747532997750,0.08163715,-0.848221005,0.389637395,0.066312715,-0.15286545,-0.099335907
970,1747532997760,0.1342315,-0.8593256,0.4234393,0.027696876,-0.13582122,-0.2428803
971,1747532997770,0.1780397699999999,-0.84468215,0.4139210749999999,0.0,-0.078563255,-0.361657285
972,1747532997780,0.2796896,-0.8078295,0.41001618,-0.046605323,0.0223705519999999,-0.541953285
973,1747532997790,0.304095325,-0.79306403,0.42819844,-0.0748348325,0.111053822,-0.65726817
974,1747532997800,0.326548595,-0.76694988,0.47029832,-0.046871636,0.25033715,-0.78296936
975,1747532997810,0.28554696,-0.74510676,0.545712,0.0039947419999999,0.29268141,-0.79948098
976,1747532997820,0.28554696,-0.74510676,0.545712,0.05486112,0.33502567,-0.8159926
977,1747532997830,0.222458185,-0.715941925,0.595621705,0.352336215,0.4942826999999999,-0.747283015
978,1747532997840,0.18816813,-0.6749403,0.56828727,0.388555215,0.5440838299999999,-0.6524744650000001
979,1747532997850,0.161199805,-0.63564708,0.5419290999999999,0.37124467,0.596281795,-0.532099585
980,1747532997860,0.1485088299999999,-0.6090448500000001,0.52728568,0.303600375,0.6325007650000001,-0.405865755
981,1747532997870,0.17620933,-0.61917322,0.5206961299999999,0.126500156,0.6940198,-0.248206615
982,1747532997880,0.21037735,-0.6518769,0.53558365,-0.067111664,0.78936098,-0.096140121
983,1747532997890,0.22611904,-0.6831162500000001,0.586225515,-0.1768339,0.89881688,0.021038972
984,1747532997900,0.239542185,-0.71179295,0.663713665,-0.246608715,0.99628855,0.148870713
985,1747532997910,0.26651052,-0.7922098,0.89007676,-0.12410331,1.041296,0.40586576
986,1747532997920,0.2634598099999999,-0.79806718,0.922414365,-0.039947418,0.9917612,0.43436158
987,1747532997930,0.27151369,-0.80685323,0.96488032,0.131560157,0.9108011,0.49987535
988,1747532997940,0.304095325,-0.8063651300000001,0.96878526,0.282295085,0.884435825,0.5784386
989,1747532997950,0.352052585,-0.7812272650000001,0.951823275,0.381897315,0.90148005,0.6641923750000001
990,1747532997960,0.36852646,-0.7480355,0.96768695,0.45699844,0.8793758,0.94329166
991,1747532997970,0.369380655,-0.7379071150000001,0.985381075,0.44821002,0.86233155,1.02611593
992,1747532997980,0.37023485,-0.72777873,1.0030752,0.410925765,0.8122641349999999,1.1856393
993,1747532997990,0.41684976,-0.72021294,1.125348,0.2860235,0.66525763,1.3981596
994,1747532998000,0.46736962,-0.7241178,1.2229708,0.22077605,0.592553345,1.42106275
995,1747532998010,0.49201941,-0.7412019,1.2478647,0.13848437,0.44315,1.3624732
996,1747532998020,0.494704035,-0.756821525,1.2388346,0.14833807,0.416252085,1.28417625
997,1747532998030,0.46712556,-0.79562664,1.1695224,0.20719394,0.34248254,1.0098706
998,1747532998040,0.42026657,-0.8031924,1.1014304,0.25086978,0.3089267,0.7771104
999,1747532998050,0.27261195,-0.8122225,0.99136055,0.2527339899999999,0.27004454,0.5158543
1000,1747532998060,0.23319671,-0.809537865,0.967320925,0.22450448,0.210656045,0.106792759
