timestamp,acc_x,acc_y,acc_z,gyro_x,gyro_y,gyro_z,id
1747532972880,-0.18682583,0.1880461,1.039561815,0.128896997,-1.2775184255,-0.039148473,1
1747532972890,0.09152147,0.61624455,-1.0079564,0.15606125,-0.32863408,0.24873926,2
1747532972900,0.060770255,0.6743302,-1.0262607,0.1486044,-0.19068234,0.22264028,3
1747532972910,0.061014313,0.7307074,-1.010397,0.14168017,-0.0015978967,0.21411815,4
1747532972920,0.0928637865,0.73827317,-0.96109745,0.144609645,0.09214537665,0.199737085,5
1747532972930,0.1461903,0.7641432,-0.88739216,0.27643612,0.46392268,0.0127831735,6
1747532972940,0.1313028,0.7912336,-0.91204196,0.3387541,0.5603291,-0.10759171,7
1747532972950,0.06613952,0.7497439,-0.9610975,0.34408042,0.5747102,-0.20612867,8
1747532972960,-0.054424766,0.7136234,-1.0035634,0.30999196,0.4878911,-0.2034655,9
1747532972970,-0.119588055,0.6875093,-1.0631135,0.12357068,0.010120012,0.025566347,10
1747532972980,-0.017084008,0.63943,-1.0733638,0.008522116,-0.1933455,0.06178534,11
1747532972990,0.06028214,0.6379657,-1.0492021,-0.06338324,-0.267914,0.053795855,12
1747532973000,0.10982577,0.6677406,-1.022844,-0.10333065,-0.16245283,0.033023197,13
1747532973010,0.13789235,0.6628595,-1.0047837,-0.15765914,0.06391586,0.0026631611,14
1747532973020,0.08029483,0.6186851,-0.9200958,-0.2000034,0.19467708,-0.0013315806,15
1747532973030,0.059549972,0.5872018,-0.8607899,-0.4048005,0.7366304,0.049534798,16
1747532973040,0.069922401,0.571826175,-0.812100475,-0.4082626099999999,0.73902725,0.066579029,17
1747532973050,0.093717985,0.546078125,-0.71008456,-0.33156356,0.6492787,0.083356943,18
1747532973060,0.2037878,0.5125202,-0.60184515,0.2711098,-0.009054748,-0.040480047,19
1747532973070,0.26455808,0.52399087,-0.6816519,0.5044027,-0.30253512,-0.1454086,20
1747532973080,0.2831064,0.55693865,-0.81685966,0.66206187,-0.5091964,-0.25992453,21
1747532973090,0.2928687,0.6074585,-0.96353805,0.72278196,-0.6247776,-0.36325517,22
1747532973100,0.30433939,0.630155815,-1.013447775,0.7081345649999999,-0.64368605,-0.411991035,23
1747532973110,0.34387666,0.6897058,-1.1475571,0.6002765,-0.6498113,-0.567786,24
1747532973120,0.28383857,0.75438094,-1.232001,0.2972088,-0.41864893,-0.8133294,25
1747532973130,0.13716017,0.7185045,-1.2603117,0.018642128,-0.15393071,-0.8724516,26
1747532973140,0.03099527,0.6662763,-1.2176017,-0.19760656,0.05006743,-0.8159926,27
1747532973150,-0.024649782,0.6257628,-1.1258361,-0.34248254,0.17789917,-0.7233146,28
1747532973160,-0.014643434,0.6045298,-1.00576,-0.37763625,0.19973709,-0.6530071,29
1747532973170,0.10860548,0.56645685,-0.79587066,-0.18216023,-0.101200126,-0.6668556,30
1747532973180,0.14057697,0.5623079,-0.76121455,-0.015446335,-0.27483824,-0.727043,31
1747532973190,0.14692247,0.5435155,-0.7670719,0.15180019,-0.3898868,-0.79042625,32
1747532973200,0.10689708,0.5105677,-0.7995315,0.30999196,-0.4676511,-0.8362326,33
1747532973210,0.03904916,0.5005614,-0.8195442,0.49747851,-0.54435015,-0.8383631,34
1747532973220,0.014643434,0.507395,-0.8393129,0.8181231,-0.7174556,-0.8117315,35
1747532973230,0.0061014313,0.51569295,-0.9022797,0.9720538,-0.76113147,-0.8181231,36
1747532973240,-0.009274175,0.528384,-1.0216236,1.0663297,-0.7765778,-0.809601,37
1747532973250,-0.0482013075,0.5408309,-1.1171720500000002,1.06020445,-0.73609775,-0.7930893999999999,38
1747532973260,-0.16547081,0.55571836,-1.3747745,0.90014845,-0.47723848,-0.6940198,39
1747532973270,-0.16888762,0.49885303,-1.462147,0.3568636,-0.043675844,-0.4165184,40
1747532973280,-0.10860548,0.43515408,-1.3857571,0.128897,0.24767399,-0.25086978,41
1747532973290,-0.061746486,0.36413342,-1.2722704,0.09374327,0.4825648,-0.14434333,42
1747532973300,-0.040513504,0.3219115,-1.1817253,0.14647387,0.572047,-0.05965481,43
1747532973310,-0.03636453,0.2997023,-1.1309613,0.22690132,0.5118596,-0.012250541,44
1747532973320,-0.17767367,0.24991462,-1.1560992,0.3190467,0.10066749,0.099069595,45
1747532973330,-0.200493025,0.23722364,-1.1661055,0.31292143,-0.0205063399999999,0.1683117825,46
1747532973340,-0.22331238,0.22453266,-1.1761118,0.30679616,-0.14168017,0.23755397,47
1747532973350,-0.118855886,0.2186753,-1.1931958,0.267914,-0.46019423,0.5118596,48
1747532973360,-0.07443746,0.20403185,-1.2173575,0.19973709,-0.4660532,0.53263223,49
1747532973370,-0.036120474,0.15180361,-1.2603117,0.07989483,-0.3930826,0.5278385,50
1747532973380,-0.11348662,0.11348662,-1.300337,-0.09054748,-0.18002969,0.5906891,51
1747532973390,-0.22794947,0.07443746,-1.3142483,-0.31851408,0.07669904,0.7882957,52
1747532973400,-0.19134088,-0.009030119,-1.0626253,-0.6562029,0.35792887,1.222391,53
1747532973410,-0.07370529,-0.04905551,-0.89617825,-0.6514092,0.32810146,1.3086774,54
1747532973420,0.053936653,-0.119099945,-0.7524285,-0.535828,0.25353295,1.2905679,55
1747532973430,0.14570218,-0.19597797,-0.6723777,-0.29561087,0.20026971,1.1824435,56
1747532973440,0.15277983,-0.2818861,-0.6787232,0.15606125,0.3850931,1.0626013,57
1747532973450,0.08127106,-0.27651685,-0.7197248,0.32969934,0.46232477,1.1142666,58
1747532973460,0.05759751,-0.23307467,-0.73778504,0.45007423,0.406931,1.186172,59
1747532973470,0.06589546,-0.14301755,-0.73485637,0.5496765,0.1933455,1.2261194,60
1747532973480,0.119099945,-0.046858992,-0.71899265,0.6359629,-0.15606125,1.2000204,61
1747532973490,0.1508273875,-0.063454886,-0.758285875,0.6777745150000001,-0.434361575,1.0844392,62
1747532973500,0.17572121,-0.14252943,-0.8190561,0.7105314,-0.763262,0.8479505,63
1747532973510,0.13496366,-0.23673552,-0.8759214,0.6860303,-0.55766594,0.7584683,64
1747532973520,0.032215554,-0.34851375,-0.94865054,0.6306366,-0.15925704,0.7595336,65
1747532973530,-0.059794028,-0.44906534,-0.99502142,0.565921765,0.06178533,0.810932585,66
1747532973540,-0.18987654,-0.64479923,-1.0262607,0.19867182,0.85540736,1.2058793,67
1747532973550,-0.1701079,-0.7560893,-0.9698835,0.14434333,0.757403,1.3337111,68
1747532973560,-0.09054524,-0.8502955,-0.90520835,0.17789917,0.406931,1.3704628,69
1747532973570,-0.020012695,-0.91570276,-0.90740484,0.2828277,-0.06551377,1.3331785,70
1747532973580,0.0130570625,-1.00514973,-1.01820682,0.32676987,-0.305730885,1.26686575,71
1747532973590,0.051007964,-1.1656175,-1.214917,0.25513083,-0.44208476,1.2612731,72
1747532973600,0.111046046,-1.1775762,-1.2095478,0.11824436,-0.21198763,1.3534185,73
1747532973610,0.23331872,-1.1414558,-1.1109486,0.027696876,0.048469532,1.3891048,74
1747532973620,0.3005565,-1.0989898,-1.03773143,0.032756883,0.129163311,1.35821215,75
1747532973630,0.4887246399999999,-0.96536845,-0.881168695,0.157659145,0.207726565,1.11479925,76
1747532973640,0.65675807,-0.8019721,-0.82857436,0.38456047,0.16085494,0.58749336,77
1747532973650,0.61624455,-0.74413055,-0.90447617,0.43249738,0.20080236,0.29561087,78
1747532973660,0.53033644,-0.7004443,-0.9999026,0.3787015,0.40746364,0.036218993,79
1747532973670,0.490555095,-0.68140782,-1.0350468,0.31398669,0.501739545,-0.0306263534999999,80
1747532973680,0.38585448,-0.56548065,-1.0506665,-0.06018744,0.7946873,-0.33662358,81
1747532973690,0.345341,-0.5271637,-0.98330665,-0.17204021,0.721184,-0.46924898,82
1747532973700,0.3250842499999999,-0.50702896,-0.94889459,-0.207193935,0.62051653,-0.5363606399999999,83
1747532973710,0.27334413,-0.46761367,-0.8668914,-0.27217507,0.23382555,-0.75101143,84
1747532973720,0.16034561,-0.4527262,-0.8432178,-0.28016454,-0.0777643,-0.892159,85
1747532973730,0.10494461,-0.44491637,-0.8673795,-0.23755397,-0.588026,-1.0610034,86
1747532973740,0.056377225,-0.4549227,-0.9220483,-0.221575,-0.6737798,-1.103614,87
1747532973750,0.02745644075,-0.45541082,-0.949260665,-0.2380865999999999,-0.635696565,-1.0972224000000002,88
1747532973760,-0.023673553,-0.44271985,-1.0033194,-0.32170987,-0.46552056,-1.0535465,89
1747532973770,-0.0134231484999999,-0.424293525,-1.0127156,-0.413855255,-0.303866685,-1.0301106999999998,90
1747532973780,0.0,-0.36144876,-0.99453324,-0.59228706,-0.0127831735,-0.9890981,91
1747532973790,0.015375607,-0.34582913,-0.9613415,-0.664725,0.091080114,-0.9890981,92
1747532973800,0.004148973,-0.35412705,-0.942305,-0.68842715,0.139815962,-0.99469075,93
1747532973810,-0.030751213,-0.38121742,-0.92131615,-0.7323693,0.26631612,-0.99495703,94
1747532973820,-0.13789235,-0.39634898,-0.865427,-0.66525763,0.330232,-0.82824314,95
1747532973830,-0.14130914,-0.39488465,-0.8515157,-0.6066681,0.29241508,-0.72171664,96
1747532973840,-0.114218794,-0.345341,-0.8351639,-0.531567,0.18855181,-0.62531024,97
1747532973850,-0.08615221,-0.27651685,-0.8263778,-0.44741106,0.04474111,-0.55979645,98
1747532973860,-0.018792408,-0.11665936,-0.8346757,-0.33449304,-0.3121225,-0.46232477,99
1747532973870,0.0370967,-0.048567392,-0.8690878,-0.3206446,-0.45327002,-0.44421527,100
1747532973880,0.073217176,0.0034168016,-0.921072,-0.3339604,-0.4596616,-0.45007423,101
1747532973890,0.09005712,0.02391761,-0.96768695,-0.40107206,-0.2796319,-0.4527374,102
1747532973900,0.08786061,0.00707766,-1.002099,-0.47990164,-0.029294772,-0.42344263,103
1747532973910,0.053936653,-0.009518232,-1.0079564,-0.54807854,0.25885928,-0.34248254,104
1747532973920,0.12813005,-0.03099527,-0.9349833,-0.59388494,0.5928197,-0.2396845,105
1747532973930,0.17669745,-0.00707766,-0.8710403,-0.5432849,0.5773733,-0.24820662,106
1747532973940,0.20598431,0.032215554,-0.8305268,-0.4543353,0.4676511,-0.29188246,107
1747532973950,0.21135357,0.082735404,-0.8092938,-0.34301516,0.31372038,-0.35153726,108
1747532973960,0.20061506,0.12739788,-0.8188121,-0.24607609,0.16458336,-0.4016047,109
1747532973970,0.17791773,0.12544543,-0.8808026,-0.17097494,0.028229509,-0.48948902,110
1747532973980,0.16058967,0.12715383,-0.8847075,-0.1768339,0.05912218,-0.48682585,111
1747532973990,0.14741059,0.13057062,-0.88885653,-0.18322548,0.14168017,-0.47137952,112
1747532974000,0.14911897,0.114218794,-0.90642864,-0.18748654,0.25832662,-0.46179214,113
1747532974010,0.09664667,0.06687169,-0.9113098,-0.1917476,0.4048005,-0.46658584,114
1747532974020,0.073217176,0.063943,-0.89032084,-0.15925704,0.65513766,-0.3536678,115
1747532974030,0.08371163,0.08932495,-0.86274236,-0.08522116,0.664725,-0.2828277,116
1747532974040,0.102992155,0.12202863,-0.84565836,0.020772656,0.5635249,-0.24021713,117
1747532974050,0.1254454225,0.137282205,-0.8433398000000001,0.090813798,0.4114584,-0.241548715,118
1747532974060,0.16986385,0.17279254,-0.87030816,0.23435818,-0.020772656,-0.28868666,119
1747532974070,0.200371,0.14960709,-0.9628058,0.2247708,-0.3834952,-0.4079963,120
1747532974080,0.19841854,0.12739788,-0.97696114,0.20080236,-0.4048005,-0.44581318,121
1747532974090,0.19622203,0.114828933,-0.97842547,0.20772658,-0.36112465,-0.459128975,122
1747532974100,0.19280522,0.09640261,-0.9898962,0.24607609,-0.17736652,-0.49694586,123
1747532974110,0.17132819,0.10128376,-1.0077124,0.25992453,-0.033023197,-0.51931643,124
1747532974120,0.11006982,0.10372432,-1.0272369,0.2050634,0.18855181,-0.5123922,125
1747532974130,0.073461235,0.13935669,-1.0052718,0.18216023,0.21837921,-0.48043427,126
1747532974140,0.053692598,0.15277983,-0.9886759,0.16990969,0.17630127,-0.4362258,127
1747532974150,0.033679903,0.17132819,-0.97793734,0.15659387,0.06018744,-0.39361522,128
1747532974160,0.039781332,0.15058333,-0.98111016,0.15180019,-0.23755397,-0.3536678,129
1747532974170,0.05051985,0.14179726,-0.97476465,0.17789917,-0.35633096,-0.3334278,130
1747532974180,0.07370529,0.1398448,-0.98208636,0.22956449,-0.4063984,-0.3206446,131
1747532974190,0.099087246,0.10958171,-1.0140579,0.27537087,-0.37550572,-0.32117724,132
1747532974200,0.13032657,0.117879644,-1.0633575,0.29933932,-0.16777915,-0.34248254,133
1747532974210,0.11006982,0.14277348,-1.0867869,0.27324033,-0.018109497,-0.34567833,134
1747532974220,0.07907455,0.13886857,-1.0977695,0.20612867,0.090014845,-0.33129725,135
1747532974230,0.0684580575,0.1334993099999999,-1.09264425,0.16378441,0.1099885575,-0.31345406,136
1747532974240,0.082491346,0.14545812,-1.0416363,0.01438107,0.058589544,-0.25086978,137
1747532974250,0.1050666379999999,0.132401058,-1.03333835,0.0002663159999999,0.0141147535,-0.26897928,138
1747532974260,0.1444819,0.09445015,-1.0079564,-0.012250541,-0.070307456,-0.35100463,139
1747532974270,0.1330112,0.10982577,-0.9884319,0.032490566,-0.054328486,-0.38775626,140
1747532974280,0.11299851,0.12471326,-1.0128375,0.10279802,0.070307456,-0.40053943,141
1747532974290,0.10152781,0.15400012,-1.0633575,0.09374327,0.25193503,-0.4079963,142
1747532974300,0.088348724,0.18426323,-1.0638455,0.06018744,0.22210763,-0.4111921,143
1747532974310,0.07297312,0.21623473,-1.0584763,0.028229509,0.14008227,-0.4133226,144
1747532974320,0.059549972,0.21379416,-1.0643337,-0.022370555,0.036751624,-0.41172472,145
1747532974330,0.048323333,0.18475133,-1.0670183,-0.090014845,-0.058589544,-0.39787626,146
1747532974340,0.050763905,0.12007617,-1.0277251,-0.21038973,-0.12357068,-0.32277513,147
1747532974350,0.0596719925,0.094328125,-1.00759035,-0.2210423799999999,-0.112651715,-0.309193,148
1747532974360,0.07199689,0.020744866,-0.9525554,-0.21891184,-0.034621093,-0.2743056,149
1747532974370,0.063943,-0.0134231495,-0.9230245,-0.18002969,0.07084008,-0.21198763,150
1747532974380,0.11226633,0.01854835,-0.86518294,-0.105993815,0.18056233,-0.13954964,151
1747532974390,0.15936938,0.016595893,-0.84834296,0.077231675,0.29241508,-0.11132014,152
1747532974400,0.17645338,0.042221904,-0.8361401,0.16245283,0.25353295,-0.12942964,153
1747532974410,0.18548352,0.073949344,-0.83809257,0.24767399,0.19920446,-0.14913702,154
1747532974420,0.17718557,0.0982330439999999,-0.8446821600000001,0.28282772,0.18615497,-0.158458085,155
1747532974430,0.13471961,0.1210524,-0.93181056,0.34301516,0.21358553,-0.18908444,156
1747532974440,0.11495096,0.10396838,-0.942305,0.3291667,0.23276028,-0.19547603,157
1747532974450,0.09518232,0.084687866,-0.9298581,0.34567833,0.2657835,-0.18322548,158
1747532974460,0.0690682,0.06296677,-0.925221,0.3850931,0.30626354,-0.14274544,159
1747532974470,0.054912884,0.034900185,-0.9264413,0.42663842,0.34780884,-0.08628642,160
1747532974480,0.10152781,0.07199689,-0.967443,0.5123922,0.32011196,0.056991648,161
1747532974490,0.15863721,0.053936653,-1.0216236,0.5123922,0.29827404,0.08149273,162
1747532974500,0.20915705,0.039537273,-1.0601847,0.47617322,0.165116,0.082025364,163
1747532974510,0.21342806,0.0674818265,-1.07604845,0.47191216,0.10652645,0.084954839,164
1747532974520,0.20012695,0.17303659,-1.1309613,0.4543353,-0.021837922,0.11504856,165
1747532974530,0.29823795,0.34265637,-1.1707426,0.32597092,0.13156016,0.09960223,166
1747532974540,0.35925224,0.4271002,-1.1687901,0.2396845,0.41172472,-0.0127831735,167
1747532974550,0.40391475,0.46688148,-1.1482893,0.16831179,0.7850999,-0.19068234,168
1747532974560,0.3939084,0.49543622,-1.1021625,0.13102753,1.1478225,-0.40107206,169
1747532974570,0.15912533,0.6879974,-1.0411482,0.22583607,1.7997643,-0.73130405,170
1747532974580,0.004881145,0.7975791,-1.0218678,0.2876214,1.9734024,-0.79255676,171
1747532974590,-0.1313028,0.9030118,-1.0030752,0.35792887,1.9968382,-0.8165252,172
1747532974600,-0.27944556,1.018939,-1.002099,0.4543353,1.8796592,-0.81226414,173
1747532974610,-0.44540447,1.1246158,-1.0128375,0.57364494,1.6421051,-0.75420725,174
1747532974620,-0.6540734,1.3157127,-1.1648853,0.7036072,0.783502,-0.535828,175
1747532974630,-0.6379657,1.3142483,-1.2688537,0.6178534,0.2876214,-0.46019423,176
1747532974640,-0.60941098,1.28166665,-1.3165669,0.534230125,0.081759045,-0.4340952649999999,177
1747532974650,-0.48713827,1.1421878,-1.3967396,0.25193503,-0.41705105,-0.3552657,178
1747532974660,-0.29506522,0.9440134,-1.3969837,-0.108124346,-0.72171664,-0.2711098,179
1747532974670,-0.24674188,0.84517026,-1.3879535,-0.2593919,-0.80374205,-0.19973709,180
1747532974680,-0.19841854,0.76267886,-1.3520772,-0.40533313,-0.88896316,-0.118776985,181
1747532974690,-0.18523945,0.7344902799999999,-1.33096625,-0.460460565,-0.91080108,-0.0753674575,182
1747532974700,-0.15058332,0.6895837499999999,-1.27678545,-0.54967645,-0.939030615,0.0061252719999999,183
1747532974710,-0.097012753,0.6382097,-1.19612445,-0.60773337,-0.9310411,0.082558,184
1747532974720,-0.05418071,0.5715821,-1.1060674,-0.5752428,-0.8042747,0.09534117,185
1747532974730,-0.045394648,0.5447358,-1.0726316,-0.5187838,-0.7302388,0.13209279,186
1747532974740,-0.0317274425,0.5288720499999999,-1.06726235,-0.49508166,-0.6972156,0.144609645,187
1747532974750,0.047103047,0.4790844,-1.040172,-0.4442152849999999,-0.65140922,0.1520665,188
1747532974760,0.107873306,0.47127452,-1.036267,-0.34674358,-0.6593987,0.10865697,189
1747532974770,0.14252943,0.46151224,-1.1011863,-0.257794,-0.66845345,0.027164243,190
1747532974780,0.12715383,0.42783237,-1.147069,-0.28549087,-0.67963874,0.018109497,191
1747532974790,0.117513568,0.407331545,-1.16317685,-0.3155846,-0.690824,0.0266316125,192
1747532974800,0.08346757,0.3682824,-1.1690342,-0.41385525,-0.72278196,0.098004326,193
1747532974810,0.102992155,0.3653537,-1.1307173,-0.46232477,-0.7504788,0.18908444,194
1747532974820,0.2677308,0.28505886,-1.0601847,-0.45593318,-0.7025419,0.20879184,195
1747532974830,0.3270367,0.23722363,-1.0367552,-0.40266997,-0.6109292,0.1587244,196
1747532974840,0.34802563,0.2292917749999999,-1.0313859,-0.358727815,-0.5499428,0.117445403,197
1747532974850,0.36974673,0.22599701,-1.0215016,-0.26152243,-0.4159857799999999,0.0253000295,198
1747532974860,0.3128814,0.2550398,-1.0260166,-0.11504856,-0.2082592,-0.0974717,199
1747532974870,0.1683995,0.27993366,-1.0694588,-0.077231675,-0.01438107,-0.11930962,200
1747532974880,0.09225364,0.294089,-1.0777569,-0.12516858,0.068176925,-0.075101145,201
1747532974890,0.010982576,0.32166746,-1.0645777,-0.14594124,0.0860201045,-0.0468716364999999,202
1747532974900,-0.036608588,0.33484653,-1.0479817,-0.20399815,0.08681905,0.034621093,203
1747532974910,-0.067359805,0.32630453,-1.0499343,-0.2514024,0.07084008,0.08894958,204
1747532974920,0.06931226,0.17254847,-1.0299215,-0.37710363,0.08575379,0.19760656,205
1747532974930,0.16620298,0.1147069,-0.99184865,-0.39574575,0.13156016,0.22690132,206
1747532974940,0.2203837,0.1057988149999999,-0.976595075,-0.37257625,0.175236,0.219444475,207
1747532974950,0.3270367,0.08517598,-0.9647583,-0.313454075,0.2809635,0.18322549,208
1747532974960,0.25015867,0.06711575,-0.9784255,-0.18961707,0.5566007,0.041545313,209
1747532974970,0.16986385,0.061258372,-0.9669548,-0.18801917,0.545948,0.025033714,210
1747532974980,0.08322352,0.09274176,-0.93278676,-0.1635181,0.43196473,0.048469532,211
1747532974990,0.013179091,0.1330112,-0.9191196,-0.1107875,0.27696875,0.10173275,212
1747532975000,-0.00097622897,0.19060871,-0.912286,-0.011717909,0.0053263223,0.22956449,213
1747532975010,0.004148973015,0.205130125,-0.92033985,-0.0109189605,-0.04660531885,0.26551716,214
1747532975020,0.020500809,0.25015867,-0.9442575,-0.026631612,-0.123038046,0.3435478,215
1747532975030,0.03172744,0.24600971,-0.954996,-0.060720075,-0.08468852,0.36432046,216
1747532975040,0.073217176,0.16522676,-0.94669807,-0.17417073,0.07669904,0.4245079,217
1747532975050,0.05515694,0.16571487,-0.92400074,-0.18855181,0.19547603,0.5299691,218
1747532975060,0.08664032,0.18987654,-0.9098454,-0.16831179,0.31691617,0.62317973,219
1747532975070,0.102748103,0.200370995,-0.90569645,-0.1523328199999999,0.3898867849999999,0.6463492150000001,220
1747532975080,0.16498269,0.19963883,-0.86201024,-0.11345066,0.56459016,0.67484504,221
1747532975090,0.195245795,0.13825843,-0.8185680500000001,-0.06977482,0.571248055,0.63862604,222
1747532975100,0.20732663,0.0566212799999999,-0.7568215300000001,0.03568636,0.553138555,0.591488095,223
1747532975110,0.15790504,0.019036464,-0.75486904,0.29827404,0.38775626,0.57364494,224
1747532975120,0.124713255,0.0106164895999999,-0.79477237,0.360858335,0.32277513,0.5715144,225
1747532975130,0.0078098318,0.008542004,-0.9081371,0.45806372,0.10333065,0.5917544,226
1747532975140,-0.049787678,-0.019768637,-0.98013395,0.39254996,-0.0974717,0.6348976,227
1747532975150,-0.042954076,-0.06833603,-0.95987713,0.23009712,-0.4543353,0.7174556,228
1747532975160,-0.024405725,-0.08664032,-0.88104665,0.21518342,-0.62584287,0.78723043,229
1747532975170,0.05027579,-0.12642166,-0.7975791,0.26631612,-0.78083885,0.8223842,230
1747532975180,0.200371,-0.2630937,-0.7878168,0.42770368,-0.93903065,0.6711166,231
1747532975190,0.17132819,-0.34851375,-0.82808626,0.47137952,-0.84688526,0.5566007,232
1747532975200,0.09835507,-0.3943965,-0.8505395,0.46498793,-0.6918893,0.54168695,233
1747532975210,0.060038086,-0.42514774,-0.84809893,0.45220476,-0.53476274,0.5683186,234
1747532975220,0.057109397,-0.48567393,-0.81930023,0.4628574,-0.4101268,0.5789712,235
1747532975230,-0.024649782,-0.64309084,-0.8334555,0.5613944,-0.10865697,0.73609775,236
1747532975240,0.05515694,-0.6901939,-0.8256457,0.58962387,-0.07882957,0.8213189,237
1747532975250,0.12154051,-0.77292925,-0.8605459,0.6215818,0.010652645,0.8825716,238
1747532975260,0.13667206,-0.835652,-0.92180425,0.6540724,0.19973709,0.9683254,239
1747532975270,0.11568313,-0.8851956,-0.9601213,0.68389976,0.25033715,1.149953,240
1747532975280,0.28383857,-0.9017916,-1.0379754,0.6775082,-0.006924219,1.3347764,241
1747532975290,0.3785328,-0.856885,-1.0838583,0.668187125,-0.0806937845,1.3254553,242
1747532975300,0.4886026,-0.77951884,-1.1107045,0.6098639,-0.24181503,1.2463595,243
1747532975310,0.626495,-0.6967834,-1.1375508,0.5118596,-0.26205507,1.1206582,244
1747532975320,0.8151512,-0.58305275,-1.138771,0.3616573,-0.18748654,0.93796533,245
1747532975330,0.8417535,-0.5508372,-1.1094842,-0.022903185,0.29241508,0.4878911,246
1747532975340,0.8329674,-0.53302103,-1.0582323,-0.022903185,0.29241508,0.4878911,247
1747532975350,0.81356485,-0.515204845,-1.0040516,-0.3818973,0.96939063,0.02130529,248
1747532975360,0.7158199,-0.46078008,-0.8412653,-0.4063984,1.1568772,-0.17896444,249
1747532975370,0.6169766999999999,-0.444306225,-0.7566994499999999,-0.2870887749999999,1.1219898,-0.36352149,250
1747532975380,0.18938842,-0.36364532,-1.7706354,-0.69135666,-0.07669904,-0.5928197,251
1747532975390,0.34387666,-0.30873242,-0.47884035,-0.4596616,0.4133226,-0.9086706,252
1747532975400,0.4170938,-0.41416514,-0.7294871,0.20133498,0.029827405,-1.0594054,253
1747532975410,0.3487578,-0.44369608,-0.6643238,0.69668293,-0.23489082,-1.1712582,254
1747532975420,0.25857865,-0.41611761,-0.9481624,0.59654808,-0.56272596,-1.26580045,255
1747532975430,0.050763905,-0.3248402,-1.3276714,0.1555286,-0.96566224,-1.274589,256
1747532975440,0.009274175,-0.2889638,-1.3496367,-0.16458336,-0.8724516,-1.1041466,257
1747532975450,0.05832968,-0.28237423,-1.3108315,-0.42077947,-0.7057377,-0.96140116,258
1747532975460,0.10909359,-0.2856690149999999,-1.28532755,-0.512658535,-0.6332997,-0.93237273,259
1747532975470,0.26187342,-0.19988288,-1.2554306,-0.8069378,-0.31798145,-1.0061423,260
1747532975480,0.2306341,-0.1666911,-1.2937474,-0.91825795,-0.20879184,-1.0871024,261
1747532975490,0.15839316,-0.16547081,-1.3149804,-1.0812434,-0.13102753,-1.1222562,262
1747532975500,0.079318605,-0.18523945,-1.2910628,-1.3081448,-0.10546118,-1.0636666,263
1747532975510,-0.023429496,-0.19060871,-1.0801975,-1.4322481,-0.1123854,-0.9337043,264
1747532975520,0.011226633,-0.15766099,-0.9479183,-1.3688648,-0.20559604,-0.6460829,265
1747532975530,0.065407336,-0.14570218,-0.8717725,-1.2149341,-0.24873926,-0.5704491,266
1747532975540,0.13374338,-0.14716652,-0.81295466,-1.0386329,-0.34780884,-0.53795856,267
1747532975550,0.18597162,-0.15204766,-0.78635246,-0.85327685,-0.45007423,-0.5550028,268
1747532975560,0.16473864,-0.16937573,-0.81441903,-0.50600064,-0.376571,-0.5992113,269
1747532975570,0.12813005,-0.1889003,-0.86469483,-0.3568636,-0.11132014,-0.53316486,270
1747532975580,0.12813005,-0.1889003,-0.86469483,-0.3568636,-0.11132014,-0.53316486,271
1747532975590,0.0939620385,-0.175599185,-0.902767765,-0.319313025,0.17230652,-0.4388889549999999,272
1747532975600,0.033435844,-0.10909359,-0.9308343,-0.27483824,0.6673882,-0.23808661,273
1747532975610,0.070532545,-0.05027579,-0.8644508,-0.22210763,0.727043,-0.13209279,274
1747532975620,0.082735404,-0.0046370877,-0.8139309,-0.15339808,0.5949502,-0.12144015,275
1747532975630,0.107629254,0.029530926,-0.8049008,-0.0644485,0.396811,-0.11717909,276
1747532975640,0.13349932,0.020744866,-0.84614646,0.013315806,0.19867182,-0.14114754,277
1747532975650,0.13960074,0.020256752,-0.90520835,0.04580637,0.034088463,-0.16245283,278
1747532975660,0.13935669,0.03929322,-0.9942892,0.0005326322,-0.10705908,-0.18109496,279
1747532975670,0.14130914,0.020744866,-1.0323621,-0.05273059,-0.017044231,-0.18535602,280
1747532975680,0.14082102,-0.004148973,-1.039928,-0.11504856,0.13954964,-0.18429075,281
1747532975690,0.1300825,0.00024405724,-0.9828185,-0.15819177,0.27483824,-0.1555286,282
1747532975700,0.16180995,0.0156196635,-0.88983274,-0.15020229,0.3206446,-0.113983296,283
1747532975710,0.20915705,0.034900185,-0.8293065,-0.08042747,0.3073288,-0.10918961,284
1747532975720,0.2238005,0.10860548,-0.80587703,0.11345066,0.16884442,-0.19441076,285
1747532975730,0.21721096,0.13496366,-0.81295466,0.16245283,-0.026631612,-0.26525086,286
1747532975740,0.20915705,0.14374973,-0.8263778,0.17150758,-0.091879056,-0.3025351149999999,287
1747532975750,0.201347215,0.13276715,-0.8419975,0.1866875949999999,-0.176567575,-0.375239415,288
1747532975760,0.18865626,0.06613952,-0.878362,0.20932446,-0.15978967,-0.45486793,289
1747532975770,0.14545812,0.053692598,-0.9086252,0.294013,0.068176925,-0.4415521,290
1747532975780,0.1147069,0.0741934,-0.93278676,0.330232,0.18588865,-0.3898868,291
1747532975790,0.08346757,0.08346757,-0.99184865,0.33768883,0.22743396,-0.33129725,292
1747532975800,0.032215554,0.14594623,-0.9776934,0.29561087,0.08948222,-0.22849922,293
1747532975810,0.019036464,0.18231077,-0.9623177,0.29561087,-0.0628506,-0.18801917,294
1747532975820,0.04490653,0.16986385,-0.95621634,0.294013,-0.25885928,-0.16724652,295
1747532975830,0.06687169,0.15424417,-0.9545079,0.2977414,-0.44687843,-0.1736381,296
1747532975840,0.08432178,0.16949775,-0.962683835,0.33156355,-0.542219615,-0.193611815,297
1747532975850,0.1018939,0.186459735,-1.000634735,0.37284256,-0.61039655,-0.221042375,298
1747532975860,0.10396838,0.17987019,-1.0736078,0.33768883,-0.4926848,-0.23861924,299
1747532975870,0.10152781,0.17523311,-1.0985017,0.294545615,-0.43116578,-0.24074977,300
1747532975880,0.08151512,0.18816814,-1.0841023,0.16777915,-0.20453078,-0.24181503,301
1747532975890,0.0616244529999999,0.211231545,-1.05115455,0.139549645,-0.044208475,-0.2114549949999999,302
1747532975900,0.0374627855,0.232830605,-1.0172305499999998,0.1057275,0.17204021,-0.16245283,303
1747532975910,0.01952458,0.24308102,-1.010397,0.0777643,0.27856666,-0.08735169,304
1747532975920,0.0024405725,0.2562601,-1.0213796,0.047404267,0.30519825,-0.021837922,305
1747532975930,0.024405725,0.264314,-0.97696114,0.018109497,0.27004454,0.029827405,306
1747532975940,0.0639429975,0.2414946499999999,-0.96341602,-0.0042610575,0.146740179,0.0199737085,307
1747532975950,0.109337645,0.218187185,-0.936081625,-0.01278317375,-0.038349521,-0.019707393,308
1747532975960,0.10665302,0.21184167,-0.9005712,0.06231797,-0.19387813,-0.112918034,309
1747532975970,0.09274176,0.18816814,-0.9059405,0.14434333,-0.24927188,-0.16192019,310
1747532975980,0.06833603,0.16400647,-0.9432813,0.23276028,-0.18855181,-0.17310548,311
1747532975990,0.08151512,0.15448824,-0.95524013,0.24714136,-0.11558119,-0.175236,312
1747532976000,0.09005712,0.14692247,-0.96402615,0.25086978,-0.049002163,-0.17736652,313
1747532976010,0.05662128,0.17035197,-0.9664667,0.26365295,-0.039414786,-0.16458336,314
1747532976020,0.049543623,0.19597797,-0.99502134,0.27057716,-0.07137272,-0.1486044,315
1747532976030,0.043198135,0.15107143,-1.04066,0.19973709,-0.27004454,-0.12037488,316
1747532976040,0.042465962,0.16791138,-1.0367552,0.16937704,-0.38402784,-0.092145376,317
1747532976050,0.082003236,0.15033926,-1.0250404,0.16245283,-0.4575311,-0.08894958,318
1747532976060,0.13935669,0.09615856,-1.0343146,0.15126756,-0.5203817,-0.105993815,319
1747532976070,0.18060236,0.10079564,-1.040416,0.1454086,-0.52144694,-0.14434333,320
1747532976080,0.16180995,0.11348662,-1.0924002,0.15819177,-0.29454562,-0.17257284,321
1747532976090,0.15277983,0.1210524,-1.0931324,0.13262543,-0.19973709,-0.16138756,322
1747532976100,0.15204766,0.13349932,-1.0902036,0.10333065,-0.13102753,-0.1635181,323
1747532976110,0.16571487,0.117391534,-1.0638455,0.07829694,-0.080960095,-0.175236,324
1747532976120,0.14057697,0.12349297,-1.0335824,0.07669904,-0.083090626,-0.16564862,325
1747532976130,0.12398108,0.17035197,-1.0213796,0.07989483,-0.13582122,-0.15020229,326
1747532976140,0.1164153,0.14814276,-1.0333383,0.05486112,-0.14966966,-0.1438107,327
1747532976150,0.12471326,0.13520771,-1.0133257,0.03355583,-0.17576863,-0.12144015,328
1747532976160,0.1330112,0.13764828,-1.0079564,0.03781689,-0.17257284,-0.09534117,329
1747532976170,0.1342315,0.13374338,-1.0311419,0.06018744,-0.12357068,-0.09427591,330
1747532976180,0.12349297,0.1683995,-1.0323621,0.06870956,-0.14221281,-0.09853696,331
1747532976190,0.12581151,0.164494585,-1.03773135,0.06391587,-0.160854935,-0.103596965,332
1747532976200,0.12398108,0.1952458,-1.0372432,0.04527374,-0.1667139,-0.11558119,333
1747532976210,0.12861817,0.25479576,-1.0323621,0.047404267,-0.05539375,-0.14966966,334
1747532976220,0.142407405,0.30629183,-1.04261255,0.038615836,0.21385184,-0.25326663,335
1747532976230,0.119588055,0.422219,-1.0706791,-0.025033714,0.912399,-0.49534798,336
1747532976240,0.0823693225,0.46797975,-1.0612829499999998,-0.0644484989999999,1.1768509,-0.55180699,337
1747532976250,0.01415532,0.5847612,-1.0035634,-0.17470337,2.056493,-0.7318367,338
1747532976260,-0.30360723,0.69507504,-0.93059033,-0.24820662,3.283145,-0.9060074,339
1747532976270,-0.545468,0.72655845,-0.90447617,-0.2977414,3.619236,-0.77391464,340
1747532976280,-0.74486274,0.7133793,-0.8788501,-0.3797668,3.4935348,-0.55979645,341
1747532976290,-0.8459024,0.6919023,-0.83150303,-0.4607269,3.0131006,-0.28655612,342
1747532976300,-0.8471227,0.72655845,-0.7507201,-0.46711847,2.2871227,-0.022903185,343
1747532976310,-0.7570656,0.84883106,-0.686289,-0.30040458,0.7323693,0.40266997,344
1747532976320,-0.6252747,0.8712844,-0.68433654,-0.18482338,0.06391586,0.572047,345
1747532976330,-0.5034901,0.8617661,-0.7143555,-0.047404267,-0.36325517,0.7185209,346
1747532976340,-0.31898284,0.8395569,-0.7336361,0.11345066,-0.61199445,0.813862,347
1747532976350,-0.13032657,0.83077085,-0.7668279,0.2908172,-0.7637946,0.8367652,348
1747532976360,0.18426323,0.8502955,-0.93522733,0.700944,-0.90281165,0.66845345,349
1747532976370,0.24869433,0.8471227,-1.0640897,0.7845673,-0.9464875,0.54168695,350
1747532976380,0.24112856,0.8671354,-1.1909994,0.7653925,-1.0418286,0.4415521,351
1747532976390,0.205496205,0.88861245,-1.2455462,0.7070693,-1.11719605,0.41998051,352
1747532976400,0.09737884,0.9342511,-1.3847809,0.4596616,-1.4215955,0.39787626,353
1747532976410,0.08053889,0.942305,-1.4118712,0.25246766,-1.7102821,0.38083205,354
1747532976420,0.076389916,0.8861718,-1.4062579,-0.0793622,-2.0053604,0.23435818,355
1747532976430,0.07541369,0.8095379,-1.3694052,-0.23861924,-1.9307919,0.12836437,356
1747532976440,0.070654575,0.77561395,-1.342925,-0.285757185,-1.8471686,0.0974717,357
1747532976450,0.066383575,0.70996255,-1.2805684,-0.3571299,-1.6626115,0.0316916183,358
1747532976460,0.06369894,0.55815893,-1.091668,-0.38296258,-1.3635385,-0.10972224,359
1747532976470,0.002928687,0.5051985,-1.0177187,-0.1949434,-1.0343717,-0.30040458,360
1747532976480,-0.07199689,0.48201308,-0.9906283,-0.022903185,-0.86233157,-0.31478566,361
1747532976490,-0.14277348,0.4795725,-0.9967298,0.13954964,-0.6764429,-0.27483824,362
1747532976500,-0.19353738,0.48738232,-1.0845904,0.2743056,-0.5028048,-0.10066749,363
1747532976510,-0.119099945,0.45248213,-1.1329137,0.2743056,-0.5028048,-0.10066749,364
1747532976520,-0.02318544,0.40903994,-1.1731832,0.16724652,-0.5901565,-0.12836437,365
1747532976530,0.020256752,0.36974674,-1.2215066,0.08522116,-0.59388494,-0.18482338,366
1747532976540,0.0187924085,0.36950267,-1.23090275,0.047137954,-0.59095547,-0.183491805,367
1747532976550,0.016351836,0.3292332249999999,-1.24432585,-0.063383236,-0.580569125,-0.108656979,368
1747532976560,0.01952458,0.25552794,-1.2090596,-0.18269286,-0.57098174,0.0628506,369
1747532976570,0.022941383,0.2672427,-1.1453607,-0.18482338,-0.5629923,0.16564862,370
1747532976580,0.0605262,0.29506522,-1.0884954,-0.13795175,-0.5470133,0.22956449,371
1747532976590,0.141065095,0.27968961,-1.06030675,-0.07616641,-0.4942827,0.168844418,372
1747532976600,0.23771176,0.25247723,-1.02845725,0.014647387,-0.35606463,0.0599211275,373
1747532976610,0.25381953,0.24064046,-1.0247964,0.043675844,-0.27057716,0.011717909,374
1747532976620,0.15570852,0.16888762,-1.0550594,0.20133498,0.19600865,-0.06657903,375
1747532976630,0.088836834,0.14594623,-1.1065556,0.24554345,0.37124467,-0.06018744,376
1747532976640,0.005857374,0.17620933,-1.1829455,0.15073492,0.47670585,-0.101200126,377
1747532976650,-0.046614934,0.17645338,-1.2119883,0.02396845,0.43516052,-0.10226539,378
1747532976660,-0.07809832,0.14863087,-1.2078394,-0.15233281,0.43729106,-0.0644485,379
1747532976670,-0.0691902299999999,0.112510393,-1.1833116,-0.21225394,0.44661212,-0.0420779465,380
1747532976680,-0.01952458,0.022941383,-1.0025872,-0.33822146,0.376571,0.10066749,381
1747532976690,-0.012935034,0.025626011,-0.9376679,-0.28016454,0.2657835,0.15339808,382
1747532976700,-0.001708401,0.0191584935,-0.92046192,-0.24074976,0.206395,0.1653822999999999,383
1747532976710,0.009274175,-0.0034168016,-0.88934463,-0.12996227,0.049534798,0.18162759,384
1747532976720,-0.010982576,-0.0043930304,-0.8861718,-0.07989483,-0.027164243,0.20399815,385
1747532976730,-0.024893839,0.07272906,-0.9523114,-0.06551377,-0.06498113,0.24181503,386
1747532976740,-0.05588911,0.11299851,-0.9942892,-0.11265172,0.05352954,0.30972564,387
1747532976750,-0.08688438,0.119099945,-1.0348027,-0.27217507,0.41385525,0.46019423,388
1747532976760,-0.076633975,0.110557936,-1.0133257,-0.4181163,0.63436496,0.5342301,389
1747532976770,-0.0536925939999999,0.093962038,-0.954996025,-0.485760585,0.69322083,0.5643238500000001,390
1747532976780,0.02831064,-0.0043930304,-0.8073414,-0.63223445,0.7462177,0.664725,391
1747532976790,0.10079564,-0.09567044,-0.7285109,-0.5592638,0.57364494,0.66206187,392
1747532976800,0.14008886,-0.14521407,-0.6875093,-0.41864893,0.25726137,0.6487461,393
1747532976810,0.140699,-0.164372565,-0.68994987,-0.32623724,0.076699043,0.630370275,394
1747532976820,0.076633975,-0.22648512,-0.75145227,0.16618125,-0.7366304,0.59601545,395
1747532976830,0.024649782,-0.1889003,-0.77170897,0.30253512,-0.8644621,0.6791061,396
1747532976840,0.025381953,-0.14057697,-0.77659017,0.4149205,-0.9214538,0.7813715,397
1747532976850,0.07614586,-0.094206095,-0.7905014,0.50173956,-0.9443569,0.829841,398
1747532976860,0.13374338,-0.032215554,-0.81246656,0.5683186,-0.948618,0.7957525,399
1747532976870,0.17084008,-0.012690976,-0.84468216,0.6002765,-0.96992326,0.6956177,400
1747532976880,0.2111095,-0.11202228,-0.9711038,0.50600064,-0.932639,0.32437304,401
1747532976890,0.15033926,-0.18377511,-1.0099089,0.38136467,-0.7456851,0.13954964,402
1747532976900,0.050031736,-0.26211748,-0.99404514,0.2806972,-0.53742594,0.09960223,403
1747532976910,-0.0003660844999999,-0.296407525,-0.97122577,0.244211885,-0.41278999,0.13795175,404
1747532976920,-0.09030118,-0.4983649,-0.84907514,0.16245283,0.020240024,0.3334278,405
1747532976930,-0.04783522,-0.5649925,-0.7914777,0.16777915,0.3818973,0.63649553,406
1747532976940,-0.0218431235,-0.57963595,-0.76145865,0.2159823649999999,0.368315175,0.674578715,407
1747532976950,0.0622346,-0.59794027,-0.71167094,0.42557314,0.22690132,0.72437984,408
1747532976960,0.1330112,-0.6101431,-0.7407138,0.60720074,0.06231797,0.6716492,409
1747532976970,0.23697957,-0.6462636,-0.8749452,0.87351686,-0.3190467,0.4213121,410
1747532976980,0.21647878,-0.635281,-0.9340071,0.912399,-0.34993938,0.3637878,411
1747532976990,0.16351835,-0.6238103,-0.9928249,0.90920323,-0.25406557,0.39254996,412
1747532977000,0.11006982,-0.6160005,-1.0604287,0.850081,-0.03781689,0.51026165,413
1747532977010,0.14082102,-0.5625519,-1.121687,0.5683186,0.54807854,0.83889574,414
1747532977020,0.24942651,-0.5095915,-1.0850785,0.40266997,0.67005134,0.9177253,415
1747532977030,0.366574,-0.46810177,-1.0396838,0.2796319,0.70200926,0.86499476,416
1747532977040,0.49201941,-0.44516042,-0.98208636,0.22530343,0.62104917,0.6924219,417
1747532977050,0.5657247,-0.4283205,-0.93986446,0.26897928,0.49161956,0.35260254,418
1747532977060,0.511788,-0.36901456,-1.0240642,0.3850931,0.38722363,-0.13475595,419
1747532977070,0.464685,-0.34704942,-1.1229074,0.32277513,0.43089947,-0.30679616,420
1747532977080,0.41050428,-0.32801294,-1.206375,0.14487597,0.54807854,-0.4383563,421
1747532977090,0.36925861,-0.3138576199999999,-1.22907235,0.0178431799999999,0.64102287,-0.478037425,422
1747532977100,0.2562601,-0.28676724,-1.2205303,-0.37017938,0.9582054,-0.53742594,423
1747532977110,0.13862452,-0.29213652,-1.0511546,-0.6599313,1.3507553,-0.4708469,424
1747532977120,0.11665936,-0.302631,-0.96622264,-0.64341974,1.3773869,-0.46339005,425
1747532977130,0.09030118,-0.31556603,-0.8644508,-0.51452273,1.2202604,-0.49321744,426
1747532977140,0.08517598,-0.31825066,-0.8019721,-0.32011196,0.90707266,-0.54435015,427
1747532977150,0.08664032,-0.3287451,-0.7963588,-0.112918034,0.5182512,-0.6130597,428
1747532977160,0.11153416,-0.3270367,-0.8793382,0.21837921,-0.18162759,-0.78083885,429
1747532977170,0.12837411,-0.32557237,-0.97354436,0.29827404,-0.37710363,-0.8357,430
1747532977180,0.09664667,-0.3065359,-1.052863,0.3153183,-0.41225734,-0.83729786,431
1747532977190,0.05662128,-0.25259924,-1.1031388,0.25672874,-0.32277513,-0.777643,432
1747532977200,0.041977845,-0.19963883,-1.1246158,0.13528858,-0.18801917,-0.67324716,433
1747532977210,0.06833603,-0.19353738,-1.0682385,-0.12942964,0.010652645,-0.49481535,434
1747532977220,0.10689708,-0.20085911,-1.0008788,-0.13582122,-0.010652645,-0.46498793,435
1747532977230,0.13691612,-0.22111587,-0.96402615,-0.06338324,-0.05006743,-0.45060685,436
1747532977240,0.16620298,-0.24405725,-0.95938903,0.03089267,-0.06338324,-0.4495416,437
1747532977250,0.21916342,-0.2604091,-0.9808661,0.11717909,-0.051665325,-0.47244477,438
1747532977260,0.23356278,-0.2809099,-1.091424,0.19068234,0.14061491,-0.5432849,439
1747532977270,0.18109047,-0.25796852,-1.1275444,0.16777915,0.3153183,-0.51931643,440
1747532977280,0.11836776,-0.19793043,-1.147069,0.084155895,0.5091964,-0.40426785,441
1747532977290,0.11543907,-0.15107143,-1.1419438,-0.012250541,0.5747102,-0.31691617,442
1747532977300,0.10640897,-0.12324891,-1.1138773,-0.108124346,0.5651228,-0.25193503,443
1747532977310,0.122760795,-0.06589546,-0.99770606,-0.18482338,0.2695119,-0.18535602,444
1747532977320,0.15058333,-0.08346757,-0.97696114,-0.18855181,0.07669904,-0.20133498,445
1747532977330,0.1889003,-0.11568313,-0.9618296,-0.18801917,-0.05965481,-0.24714136,446
1747532977340,0.19548985,-0.18206671,-0.9664667,-0.18162759,-0.01917476,-0.30945933,447
1747532977350,0.19597797,-0.20964517,-0.976229,-0.20293288,0.2231729,-0.29561087,448
1747532977360,0.18963248,-0.24454537,-0.97208,-0.22583607,0.48149952,-0.2561961,449
1747532977370,0.1693757249999999,-0.2391761,-0.952921485,-0.22210764,0.60799971,-0.215982365,450
1747532977380,0.10152781,-0.17328064,-0.8788501,-0.16192019,0.91452956,-0.06231797,451
1747532977390,0.09030118,-0.05222825,-0.8007518,0.007989483,0.80107886,0.12037488,452
1747532977400,0.14716652,-0.0053692595,-0.7895252,0.10333065,0.5496765,0.11771172,453
1747532977410,0.1666910999999999,0.01061649125,-0.7997756,0.14940334,0.382962595,0.0870853685,454
1747532977420,0.22648512,0.034900185,-0.8571291,0.2561961,-0.13901702,-0.048469532,455
1747532977430,0.242592895,0.032703671,-0.8845855300000001,0.2695119,-0.28602351,-0.108124341,456
1747532977440,0.239786235,0.02037878075,-0.99721793,0.23302659,-0.4759069,-0.246342405,457
1747532977450,0.21843124,0.0036608587499999,-1.1087521,0.1118527635,-0.4396879,-0.332362515,458
1747532977460,0.21062139,-0.021477038,-1.1573195,-0.14434333,-0.14913702,-0.33076462,459
1747532977470,0.18304294,-0.03099527,-1.1224194,-0.3190467,0.075101145,-0.28655612,460
1747532977480,0.14911897,0.00097622897,-0.9413288,-0.44847634,0.34834146,-0.11717909,461
1747532977490,0.16400647,-0.005857374,-0.8583493,-0.4101268,0.33182988,-0.07829694,462
1747532977500,0.15912533,-0.008297946,-0.8075854,-0.32863408,0.22050974,-0.05912218,463
1747532977510,0.18841219,-0.0078098318,-0.7678041,-0.1965413,-0.027164243,-0.082558,464
1747532977520,0.21672285,-0.025870068,-0.7480355,-0.07350325,-0.23542345,-0.14327806,465
1747532977530,0.20622836,-0.042221904,-0.80343646,0.14168017,-0.4825648,-0.26525086,466
1747532977540,0.201957365,-0.0333138145,-0.82052046,0.178165485,-0.500940615,-0.280430865,467
1747532977550,0.1803583,-0.0036608586,-0.89105296,0.25832662,-0.4788364,-0.30626354,468
1747532977560,0.16254212,0.051252022,-0.93010217,0.26631612,-0.38242993,-0.30626354,469
1747532977570,0.16107778,0.0976229,-0.93888825,0.23382555,-0.32490566,-0.29188246,470
1747532977580,0.18645974,0.12935033,-0.95426387,0.14594123,-0.3153183,-0.2806972,471
1747532977590,0.19060871,0.13862452,-0.9540198,0.123038046,-0.2860235,-0.31957933,472
1747532977600,0.15912533,0.12471326,-0.97549677,0.11558119,-0.23169503,-0.33182988,473
1747532977610,0.12861817,0.09542638,-1.0101529,0.08575379,-0.1571265,-0.31638354,474
1747532977620,0.11031388,0.06467517,-1.0238202,0.046871636,-0.05006743,-0.29241508,475
1747532977630,0.10152781,0.07297312,-1.0221118,0.010120012,0.104928546,-0.22370553,476
1747532977640,0.1147069,0.0707766,-1.0223558,0.0141147545,0.132092793,-0.22397185,477
1747532977650,0.111046046,0.06980037,-1.0128375,0.03195793,0.17310548,-0.23595607,478
1747532977660,0.07272906,0.09664667,-1.00576,0.0479369,0.13901702,-0.23169503,479
1747532977670,0.028798755,0.11495096,-1.0279691,0.029294772,-0.051132694,-0.20080236,480
1747532977680,0.039537273,0.076389916,-1.0321181,-0.019707393,-0.16937704,-0.19973709,481
1747532977690,0.036120474,0.07443746,-1.0265048,-0.06498113,-0.28708878,-0.18535602,482
1747532977700,0.030507157,0.093717985,-1.0162543,-0.08735169,-0.340352,-0.1555286,483
1747532977710,0.08908089,0.09396204,-0.9442575,-0.084155895,-0.37124467,-0.11930962,484
1747532977720,0.12520137,0.0959145,-0.9225364,-0.023435818,-0.47244477,-0.08894958,485
1747532977730,0.14789869,0.11543907,-0.9098454,0.024501082,-0.5219796,-0.10918961,486
1747532977740,0.1581491,0.14106509,-0.90838104,0.07350325,-0.5278385,-0.15073492,487
1747532977750,0.15546446,0.12813005,-0.94572186,0.111852765,-0.48469532,-0.23222765,488
1747532977760,0.10933765,0.061502427,-0.9872115,0.13954964,-0.29561087,-0.35792887,489
1747532977770,0.055400997,0.058817793,-0.9938011,0.18162759,-0.12197278,-0.36325517,490
1747532977780,0.028066583,0.065407336,-1.0096649,0.21731395,0.06018744,-0.34514567,491
1747532977790,0.029774986,0.060038086,-1.0169866,0.23861924,0.21038973,-0.33822146,492
1747532977800,0.017572122,0.06321083,-1.0167425,0.25193503,0.31851408,-0.3339604,493
1747532977810,-0.050031736,0.06980037,-1.0340706,0.29028457,0.3637878,-0.24501082,494
1747532977820,-0.09005712,0.09396204,-1.052863,0.28655612,0.19600865,-0.11558119,495
1747532977830,-0.088836834,0.08859278,-1.087519,0.24873926,-0.0127831735,-0.015978966,496
1747532977840,-0.05735345,0.035632357,-1.1089962,0.19068234,-0.26631612,0.082025364,497
1747532977850,0.0026846298,0.015375607,-1.0989897,0.14114754,-0.52411014,0.1736381,498
1747532977860,0.15375607,0.051740136,-1.120955,0.12250541,-0.70680296,0.24980451,499
1747532977870,0.24625377,0.03807293,-1.1504859,0.08894958,-0.63915867,0.20559604,500
1747532977880,0.30067852,0.051740136,-1.1729392,0.02876214,-0.51026165,0.13156016,501
1747532977890,0.308854445,0.047225078,-1.1841658000000002,-0.0101200115,-0.39681099,0.09454222,502
1747532977900,0.313857615,0.0123248915,-1.20466655,-0.0969390665,-0.089748523,0.0106526435,503
1747532977910,0.17035197,-0.114218794,-1.1619565,-0.15978967,0.62531024,-0.07882957,504
1747532977920,0.09567044,-0.067847915,-1.1294969,-0.07563378,0.73609775,-0.051132694,505
1747532977930,0.01415532,-0.032459613,-1.1404796,0.017044231,0.7520767,-0.007989483,506
1747532977940,-0.0082979465,0.0045150585,-1.15182825,0.046072688,0.710265075,0.017044232,507
1747532977950,-0.058817793,0.174745,-1.2132086,0.09427591,0.5656554,0.07190535,508
1747532977960,0.009274175,0.33533466,-1.2578712,-0.041545313,0.5390238,0.02130529,509
1747532977970,0.05198419,0.422219,-1.2307807,-0.14221281,0.6450176,-0.070307456,510
1747532977980,0.043930303,0.5298483,-1.1971008,-0.23702134,1.0040118,-0.23382555,511
1747532977990,-0.036120474,0.6118515,-1.1736712,-0.284159295,1.1824436,-0.2892192999999999,512
1747532978000,-0.1552204,0.6677406,-1.1517061,-0.46498793,1.6729978,-0.39041942,513
1747532978010,-0.42661208,0.7917217,-1.0748281,-0.6098639,1.8913771,-0.36751625,514
1747532978020,-0.5523015,0.80392456,-1.0055158,-0.82824314,2.0176108,-0.1667139,515
1747532978030,-0.60941094,0.85175985,-0.9200958,-0.88683265,1.8013622,0.03834952,516
1747532978040,-0.5968419899999999,0.891663195,-0.8822669000000001,-0.889495825,1.6125441,0.14940334,517
1747532978050,-0.48323336,0.9884319,-0.77146494,-0.8543421,0.9960223,0.4165184,518
1747532978060,-0.22282428,1.0260166,-0.6530972,-0.6631271,0.12144015,0.47670585,519
1747532978070,-0.122760795,1.0272369,-0.61770886,-0.5107943,-0.12942964,0.43729106,520
1747532978080,-0.037584815,0.9896521,-0.6238103,-0.3355583,-0.28176245,0.3882889,521
1747532978090,0.030751213,0.921072,-0.6548056,-0.17630127,-0.38775626,0.3472762,522
1747532978100,0.030751213,0.921072,-0.6548056,-0.17630127,-0.38775626,0.3472762,523
1747532978110,0.14594623,0.76072645,-0.8300387,0.076166406,-0.71319455,0.32170987,524
1747532978120,0.20451997,0.73778504,-0.8710403,0.1123854,-0.7957525,0.29134983,525
1747532978130,0.255772,0.7226535,-0.91570276,0.1454086,-0.85966843,0.18855181,526
1747532978140,0.28994003,0.71313524,-1.0218678,0.175236,-0.76912093,-0.08362326,527
1747532978150,0.26187342,0.6967834,-1.0601847,0.1438107,-0.6641924,-0.19387813,528
1747532978160,0.23185438,0.6657882,-1.0762925,0.09853696,-0.5070659,-0.29507825,529
1747532978170,0.183287,0.64309084,-1.0550594,0.07350325,-0.31851408,-0.3669836,530
1747532978180,0.16278619,0.6339387000000001,-1.0380973999999998,0.081492735,-0.2322276549999999,-0.38216362,531
1747532978190,0.1466784,0.53350914,-1.0211354,0.1470065,0.048469532,-0.46871635,532
1747532978200,0.12813005,0.49397188,-1.0262607,0.17097494,0.051665325,-0.49854377,533
1747532978210,0.08322352,0.46541715,-1.0457853,0.20133498,0.039414786,-0.5134575,534
1747532978220,0.009030119,0.4217309,-1.0638455,0.22583607,0.02396845,-0.4878911,535
1747532978230,-0.09835507,0.39342028,-1.0799533,0.24714136,-0.018109497,-0.42290998,536
1747532978240,-0.11348662,0.3943965,-1.1021625,0.23861924,-0.14061491,-0.23489082,537
1747532978250,-0.0690682,0.39268813,-1.138771,0.19228023,-0.24394555,-0.17417073,538
1747532978260,-0.021477038,0.38975942,-1.1741594,0.11771172,-0.35633096,-0.16458336,539
1747532978270,0.025626011,0.33826336,-1.2024701,0.029294772,-0.4293016,-0.2050634,540
1747532978280,0.038316987,0.27334413,-1.1446284,-0.13209279,-0.561927,-0.24234766,541
1747532978290,0.06980037,0.21208574,-1.1290088,-0.16937704,-0.5336975,-0.23861924,542
1747532978300,0.102748096,0.18743597,-1.0902036,-0.17044231,-0.47617322,-0.25300032,543
1747532978310,0.08395569,0.19207305,-1.0523748,-0.1304949,-0.41758367,-0.23222765,544
1747532978320,0.055523023,0.20012694,-1.03077575,-0.087085372,-0.388821525,-0.19254655,545
1747532978330,0.023673553,0.21086545,-0.9930689,0.19813919,-0.33182988,0.054328486,546
1747532978340,0.08005078,0.21599068,-1.0257727,0.32277513,-0.3818973,0.10173275,547
1747532978350,0.12690976,0.23478307,-1.0767806,0.43089947,-0.44794372,0.10279802,548
1747532978360,0.1444819,0.26358184,-1.1578076,0.5294364,-0.46978164,0.07882957,549
1747532978370,0.123004854,0.2933568,-1.2827649,0.5289038,-0.4111921,0.06551377,550
1747532978380,0.0922536405,0.29567535,-1.35939885,0.23808661,-0.17417073,0.07882957,551
1747532978390,0.039537273,0.25845662,-1.4318839,0.004261058,-0.041012682,0.09267801,552
1747532978400,0.014887493,0.20940112,-1.3650122,-0.20559604,0.041012682,0.13315806,553
1747532978410,-0.026358182,0.18279888,-1.258115,-0.33182988,0.05752428,0.21997711,554
1747532978420,0.041245673,0.12178457,-1.1695224,-0.35260254,-0.039947417,0.34461305,555
1747532978430,0.08297946,0.09322987,-1.1600041,-0.35473305,-0.092145376,0.36591834,556
1747532978440,0.10494461,0.05515694,-1.159516,-0.38935417,-0.058589544,0.40426785,557
1747532978450,0.09615856,0.034168016,-1.1624447,-0.43516052,0.06870956,0.46179214,558
1747532978460,0.071020655,0.03465613,-1.150974,-0.4910869,0.25300032,0.54168695,559
1747532978470,0.06284474,0.079684695,-1.1218091,-0.539023815,0.3787015099999999,0.6170544250000001,560
1747532978480,0.06809197,0.18011424,-1.0660421,-0.62903863,0.5070659,0.7281082,561
1747532978490,0.0776102,0.18645974,-1.0648217,-0.69135666,0.43729106,0.7073356,562
1747532978500,0.06296677,0.1637624,-1.0335824,-0.7728494,0.360592,0.6311692,563
1747532978510,0.014643434,0.18938842,-0.8964222,-0.8149273,0.18695392,0.5853628,564
1747532978520,0.08981306,0.05198419,-0.73436826,-0.6215818,-0.34408042,0.53955644,565
1747532978530,0.15912533,-0.014643434,-0.716064,-0.45593318,-0.4910869,0.45593318,566
1747532978540,0.1901206,-0.044662476,-0.7409578,-0.45593318,-0.4910869,0.45593318,567
1747532978550,0.19451363,-0.0776102,-0.8009959,-0.20879184,-0.6961503,0.26684874,568
1747532978560,0.08371163,-0.1615659,-0.86152214,-0.13369069,-0.82078624,0.2034655,569
1747532978570,-0.019036464,-0.19280522,-0.8603018,-0.103863284,-0.86659265,0.3254383,570
1747532978580,-0.08444381,-0.20744865,-0.83687234,-0.044208474,-0.88470215,0.5342301,571
1747532978590,-0.080416863,-0.21794312,-0.82784222,0.015712653,-0.860201075,0.6692524,572
1747532978600,-0.04246596,-0.253819535,-0.8222289,0.128098055,-0.7965515000000001,0.88257162,573
1747532978610,0.12813005,-0.38439015,-0.82491344,0.283893,-0.62584287,1.0157297,574
1747532978620,0.14277348,-0.37413976,-0.7792748,0.44474792,-0.406931,0.9571401,575
1747532978630,0.1181237,-0.34631723,-0.7494998,0.535828,-0.34834146,0.9528791,576
1747532978640,0.14423785,-0.3243521,-0.74242216,0.6450176,-0.32011196,0.93796533,577
1747532978650,0.15839316,-0.28457075,-0.7814713,0.75633776,-0.30200246,0.87511474,578
1747532978660,0.1253234,-0.2745644149999999,-0.8391908,0.87511474,-0.15765914,0.74675035,579
1747532978670,0.05051985,-0.26943922,-0.9440134,0.8271778,-0.041545313,0.7286409,580
1747532978680,0.059549972,-0.31190515,-0.9601213,0.74248934,0.046871636,0.73290193,581
1747532978690,0.09884319,-0.3692586,-0.9659786,0.6578008,0.14008227,0.72278196,582
1747532978700,0.114218794,-0.39781332,-0.9752528,0.6013418,0.24181503,0.70680296,583
1747532978710,0.04637088,-0.36218095,-0.9803779,0.5635249,0.35633096,0.79628515,584
1747532978720,0.073461235,-0.39317623,-0.9989263,0.5273059,0.32650355,0.85061365,585
1747532978730,0.102748096,-0.40147418,-1.0182068,0.46871635,0.22530343,0.86499476,586
1747532978740,0.1057988129999999,-0.39939969,-1.02504045,0.430899475,0.17896443,0.86526108,587
1747532978750,0.13105874,-0.40611124,-1.0157663,0.2892193,0.033023197,0.8644621,588
1747532978760,0.2489384,-0.35607952,-0.9701275,0.15925704,-0.14114754,0.82824314,589
1747532978770,0.32923323,-0.34192422,-0.9693954,0.11451593,-0.18642128,0.7185209,590
1747532978780,0.3699908,-0.3612047,-0.97330034,0.072970614,-0.16085494,0.5858955,591
1747532978790,0.36437747,-0.381461465,-0.97513074,0.045806371,-0.14274544,0.54461647,592
1747532978800,0.34595114,-0.410870375,-0.96719885,-0.006657901,-0.103863283,0.49295112,593
1747532978810,0.3526627,-0.41684976,-0.90691674,-0.05486112,-0.053263225,0.47564057,594
1747532978820,0.37243135,-0.421242815,-0.90288977,-0.02743056,-0.0876180025,0.3944141599999999,595
1747532978830,0.41538543,-0.4288086,-0.88885653,0.06018744,-0.18961707,0.1784318,596
1747532978840,0.41050428,-0.43149322,-0.9061846,0.12410331,-0.20932446,0.053795855,597
1747532978850,0.40733153,-0.4183141,-0.94669807,0.1667139,-0.13475595,-0.054328486,598
1747532978860,0.35876414,-0.358032,-0.98574716,0.128897,0.20186761,-0.17150758,599
1747532978870,0.33875147,-0.33533466,-0.99502134,0.05539375,0.4133226,-0.1917476,600
1747532978880,0.3414361,-0.34680536,-0.9999026,-0.03834952,0.60560286,-0.23169503,601
1747532978890,0.31385764,-0.35193056,-0.9359596,-0.104928546,0.78563255,-0.35579833,602
1747532978900,0.27383223,-0.35485923,-0.912286,-0.014913702,0.7637946,-0.41065946,603
1747532978910,0.25162303,-0.3360668,-0.9022797,0.082558,0.6583334,-0.44687843,604
1747532978920,0.2306341,-0.31385764,-0.9235126,0.17789917,0.5251754,-0.4958806,605
1747532978930,0.19622204,-0.29042813,-0.95279956,0.2428803,0.37923414,-0.54168695,606
1747532978940,0.1415532,-0.26284966,-1.0182068,0.2609898,0.10865697,-0.5613944,607
1747532978950,0.13398743,-0.26199545,-1.03272825,0.22743396,0.007989483,-0.5411543,608
1747532978960,0.12910628,-0.26211748,-1.0562798,0.16884442,-0.06764429,-0.50653327,609
1747532978970,0.12129646,-0.25772443,-1.0470055,0.10439592,-0.11025487,-0.4612595,610
1747532978980,0.21745501,-0.29823795,-0.9706156,0.06551377,-0.19441076,-0.36485308,611
1747532978990,0.256748235,-0.30763416,-0.962927865,0.087618005,-0.209058145,-0.3752394,612
1747532979000,0.3184947299999999,-0.317884565,-0.95524013,0.142745435,-0.210123415,-0.41705103,613
1747532979010,0.35412705,-0.3265486,-0.9901402,0.2396845,-0.08575379,-0.5305017,614
1747532979020,0.34509695,-0.33191785,-1.0289453,0.2561961,0.0777643,-0.5944176,615
1747532979030,0.24478942,-0.25308737,-1.0555476,0.21891184,0.24873926,-0.61199445,616
1747532979040,0.24478942,-0.25308737,-1.0555476,0.21891184,0.24873926,-0.61199445,617
1747532979050,0.20256751,-0.175233105,-1.03773145,0.059921126,0.6431534,-0.50493535,618
1747532979060,0.19451362,-0.1582711299999999,-1.02284395,-0.002396845,0.690025025,-0.494815345,619
1747532979070,0.16815543,-0.14545812,-0.99038434,-0.05912218,0.54648066,-0.5273059,620
1747532979080,0.1598575,-0.1889003,-0.9803779,-0.058589544,0.056991648,-0.6135923,621
1747532979090,0.14521407,-0.2272173,-1.0169866,-0.051132694,-0.16405073,-0.65194184,622
1747532979100,0.107629254,-0.22965786,-1.0804414,-0.05965481,-0.2561961,-0.6593987,623
1747532979110,0.0899351019999999,-0.2208718,-1.09654925,-0.085487475,-0.25752769,-0.6311691850000001,624
1747532979120,0.04515059,-0.19548985,-1.1133891,-0.2050634,-0.19547603,-0.47723848,625
1747532979130,0.09152147,-0.11568313,-1.0345587,-0.40373522,0.05965481,-0.20293288,626
1747532979140,0.119099945,-0.06980037,-0.9693954,-0.42077947,0.15073492,-0.14221281,627
1747532979150,0.14374973,-0.025870068,-0.9183875,-0.40266997,0.19387813,-0.11504856,628
1747532979160,0.15766099,-0.0163518355,-0.9083811,-0.383495215,0.20506341,-0.124369625,629
1747532979170,0.20256752,-0.017084008,-0.90081537,-0.3323625,0.23648871,-0.19281286,630
1747532979180,0.20085911,-0.044174362,-0.9391323,-0.3153183,0.33449304,-0.34461305,631
1747532979190,0.195855935,-0.0524723085,-0.94364737,-0.325171985,0.37151098,-0.3667172749999999,632
1747532979200,0.1718163,-0.052716363,-0.93888825,-0.3616573,0.48203218,-0.3930826,633
1747532979210,0.13374338,-0.026846299,-0.912286,-0.37284255,0.5294364,-0.32969934,634
1747532979220,0.132034975,-0.009762291,-0.88068057,-0.354733065,0.44980789,-0.259125575,635
1747532979230,0.16498269,-0.0039049159,-0.84858704,-0.2977414,0.18748654,-0.1768339,636
1747532979240,0.18792409,-0.011226633,-0.8649389,-0.26045716,0.00479369,-0.2082592,637
1747532979250,0.20134723,-0.0302631,-0.87616557,-0.22903186,-0.17204021,-0.24607609,638
1747532979260,0.20085911,-0.047347106,-0.89032084,-0.20719394,-0.2977414,-0.26684874,639
1747532979270,0.191096825,-0.0336799005,-0.88080262,-0.184823385,-0.2974751,-0.2412823949999999,640
1747532979280,0.17279254,0.012446919,-0.844438,-0.12144015,-0.23009712,-0.16245283,641
1747532979290,0.20451997,0.05344854,-0.8163715,-0.044208474,-0.16937704,-0.1257012,642
1747532979300,0.21037734,0.09127741,-0.8022162,0.036751624,-0.1470065,-0.13422333,643
1747532979310,0.22624107,0.10006347,-0.81271064,0.11984225,-0.16192019,-0.165116,644
1747532979320,0.26651052,0.08395569,-0.8759214,0.25885928,-0.267914,-0.3153183,645
1747532979330,0.29042813,0.076389916,-0.93840015,0.29507825,-0.3089267,-0.41545314,646
1747532979340,0.264314,0.056377225,-1.010397,0.28975195,-0.26844665,-0.49694586,647
1747532979350,0.19890666,0.027090356,-1.0662861,0.23755397,-0.13635385,-0.5251754,648
1747532979360,0.091033354,0.0707766,-1.0477377,0.03355583,0.15765914,-0.3435478,649
1747532979370,0.09640261,0.08956901,-1.0047837,-0.013848438,0.17949706,-0.2545982,650
1747532979380,0.11177822,0.10201593,-0.96304995,-0.011717909,0.12197278,-0.21518342,651
1747532979390,0.117391534,0.11324256,-0.9159469,0.040480047,-0.0010652645,-0.2034655,652
1747532979400,0.12861817,0.1147069,-0.88055855,0.13475595,-0.17150758,-0.19867182,653
1747532979410,0.16083373,0.07980672,-0.9401085,0.25672874,-0.4261058,-0.2514024,654
1747532979420,0.174745,0.060770255,-0.96353805,0.2561961,-0.5075985,-0.27803403,655
1747532979430,0.1769415,0.047103047,-0.9906283,0.23915187,-0.5336975,-0.29667616,656
1747532979440,0.170229925,0.0444184165,-1.0012448,0.2308960749999999,-0.5081311500000001,-0.30519827,657
1747532979450,0.14497001,0.042465962,-1.0172306,0.21198763,-0.41225734,-0.30945933,658
1747532979460,0.10421244,0.08688438,-1.0196712,0.14168017,-0.3392867,-0.23435818,659
1747532979470,0.10494461,0.12056428,-1.0101529,0.09267801,-0.34993938,-0.20186761,660
1747532979480,0.10884953,0.14692247,-1.0025872,0.0766990425,-0.347808855,-0.196274975,661
1747532979490,0.110557936,0.15790504,-0.993313,0.054861119,-0.3318298899999999,-0.1925465499999999,662
1747532979500,0.13398743,0.1466784,-0.9864794,0.04314321,-0.27377295,-0.23276028,663
1747532979510,0.16766733,0.059305906,-0.9786696,0.06231797,-0.07084008,-0.4016047,664
1747532979520,0.1513155,0.023673553,-0.9613415,0.111852765,0.06338324,-0.4527374,665
1747532979530,0.1367940925,0.00951823265,-0.96097545,0.1408812275,0.14008228,-0.455666875,666
1747532979540,0.1110460495,-0.02416166885,-0.965978635,0.188285495,0.2798982399999999,-0.44368264,667
1747532979550,0.079318605,-0.044418417,-0.95719254,0.22423817,0.35313517,-0.36591834,668
1747532979560,0.07370529,0.067847915,-0.933519,0.2444782,0.24394555,-0.29561087,669
1747532979570,0.090789296,0.08932495,-0.94913864,0.29241508,-0.1603223,-0.2711098,670
1747532979580,0.09567044,0.099575356,-0.9791577,0.30360037,-0.3653857,-0.29827404,671
1747532979590,0.09384001,0.094816238,-1.00075675,0.295078245,-0.4327637,-0.31025827,672
1747532979600,0.099209275,0.0732171725,-1.05164265,0.25566346,-0.5171859000000001,-0.32969935,673
1747532979610,0.13471961,0.00048811449,-1.1473131,0.083090626,-0.26312032,-0.35153726,674
1747532979620,0.13618395,-0.03636453,-1.1629328,0.0,-0.075101145,-0.3536678,675
1747532979630,0.10470056,-0.03734076,-1.1336459,-0.06391586,0.1107875,-0.35100463,676
1747532979640,0.03807293,-0.0046370877,-1.0355349,-0.0793622,0.20240025,-0.30839407,677
1747532979650,0.032215554,-0.013179091,-1.0038075,-0.042077947,0.16192019,-0.30999196,678
1747532979660,0.013179091,0.013179091,-0.9794017,0.004261058,0.082558,-0.30679616,679
1747532979670,-0.0036608586,0.04368625,-0.9850151,0.0628506,-0.011185277,-0.28229508,680
1747532979680,-0.002928687,0.023673553,-1.001855,0.0793622,-0.072970614,-0.26312032,681
1747532979690,-0.0026846298,0.051252022,-1.0035634,0.10439592,-0.1272991,-0.22583607,682
1747532979700,0.014643434,0.036852647,-1.0308977,0.11930962,-0.12250541,-0.20453078,683
1747532979710,0.027212383,0.02403964,-1.04969015,0.11584751,-0.1249022549999999,-0.19414445,684
1747532979720,0.053936653,0.016595893,-1.0924002,0.08522116,-0.16777915,-0.1470065,685
1747532979730,0.061502427,0.029530926,-1.1148535,0.044208474,-0.19547603,-0.10013486,686
1747532979740,0.1236149985,0.044906533,-1.07678055,0.0114515919999999,-0.241548715,-0.0804274675,687
1747532979750,0.26406994,0.07468152,-0.98452693,0.03195793,-0.30306774,-0.08841695,688
1747532979760,0.31434575,0.08395569,-0.95060295,0.14487597,-0.21518342,-0.1667139,689
1747532979770,0.35241866,0.07785426,-0.9449896,0.27696875,-0.03089267,-0.2977414,690
1747532979780,0.34656128,0.13081467,-0.9906283,0.3898868,0.21518342,-0.44315,691
1747532979790,0.34656128,0.13081467,-0.9906283,0.3898868,0.21518342,-0.44315,692
1747532979800,0.017084008,0.21818718,-1.1487775,0.3850931,1.1286477,-0.680704,693
1747532979810,-0.12837411,0.2774931,-1.1905112,0.33449305,1.2642026,-0.6945524249999999,694
1747532979820,-0.205252145,0.29018407,-1.20442245,0.22770029,1.51320815,-0.705205055,695
1747532979830,-0.41245672,0.32728076,-1.1870944,0.04474111,1.8482338,-0.6359629,696
1747532979840,-0.41245672,0.32728076,-1.1870944,0.04474111,1.8482338,-0.6359629,697
1747532979850,-0.60721445,0.46444094,-1.0994779,-0.13901702,2.102832,-0.30360037,698
1747532979860,-0.621369775,0.49604637,-1.0794652,-0.1600559899999999,2.12413735,-0.241548715,699
1747532979870,-0.6804316,0.5867136,-1.0330943,-0.22849922,2.1257353,-0.022903185,700
1747532979880,-0.6706693,0.63308454,-0.99770606,-0.3435478,1.748099,0.35313517,701
1747532979890,-0.66029688,0.65504967,-0.98159828,-0.36485309,1.583782,0.439155285,702
1747532979900,-0.64016217,0.7165521,-0.9371798,-0.39095205,0.91133374,0.77604514,703
1747532979910,-0.6106312549999999,0.73302595,-0.916679025,-0.369380445,0.68336715,0.87484842,704
1747532979920,-0.4742032,0.77097684,-0.84614646,-0.26365295,-0.017576864,1.1313108,705
1747532979930,-0.1381364,0.7658516,-0.8002637,0.042077947,-0.9784454,1.2389026,706
1747532979940,0.051252022,0.7917217,-0.8139309,0.27057716,-1.3273195,1.1648667,707
1747532979950,0.20793676,0.7980672,-0.8683557,0.49641323,-1.5451661,1.0242518,708
1747532979960,0.3414361,0.7807391,-0.9679311,0.6583334,-1.6181368,0.8186557,709
1747532979970,0.44394013,0.7158199,-1.1922196,0.75580513,-1.2330436,0.3254383,710
1747532979980,0.430028855,0.69605127,-1.24688845,0.717988265,-1.06313392,0.24421188,711
1747532979990,0.38316986,0.6626154200000001,-1.3334068,0.60906498,-0.717455595,0.1131843499999999,712
1747532980000,0.26406994,0.6343048,-1.3830724,0.36485308,-0.23702134,0.022903185,713
1747532980010,0.20183535,0.6130718,-1.3779472,0.18588865,-0.043675844,0.0026631611,714
1747532980020,0.12471326,0.55523026,-1.3227903,0.024501082,0.01917476,-0.051665325,715
1747532980030,0.103724332,0.5471763599999999,-1.30814685,-0.0761664089999999,-0.07376957,-0.0881506324999999,716
1747532980040,0.09737884,0.48616204,-1.2717823,-0.210389725,-0.25726137,-0.129163315,717
1747532980050,0.123004854,0.43320164,-1.2598236,-0.30626354,-0.5278385,-0.14487597,718
1747532980060,0.15107143,0.3687705,-1.2388345,-0.3685815,-0.6689861,-0.16884442,719
1747532980070,0.161565895,0.30702402,-1.2002735,-0.371244665,-0.6689861,-0.19414445,720
1747532980080,0.13911264,0.21525851,-1.125592,-0.32277513,-0.5752428,-0.19867182,721
1747532980090,0.12861817,0.207936785,-1.1153415999999998,-0.288686665,-0.52304485,-0.169643365,722
1747532980100,0.123004854,0.20476402,-1.0980135,-0.19068234,-0.38456047,-0.08628642,723
1747532980110,0.134719602,0.224410635,-1.0737298,-0.16112125,-0.3536678,-0.0663127125,724
1747532980120,0.20671648,0.25308737,-1.0460293,0.0037284256,-0.42983422,-0.06018744,725
1747532980130,0.27602875,0.25821257,-1.065554,0.09267801,-0.57311225,-0.1603223,726
1747532980140,0.29897013,0.27017137,-1.1238836,0.14647387,-0.62531024,-0.27537087,727
1747532980150,0.29140437,0.272856,-1.1905112,0.16192019,-0.6247776,-0.3834952,728
1747532980160,0.14228538,0.25845662,-1.3159567,0.07190535,-0.41065946,-0.46711847,729
1747532980170,0.024405725,0.26284966,-1.3591548,-0.014913702,-0.22423817,-0.39095205,730
1747532980180,-0.05662128,0.27944556,-1.3733101,-0.13688648,-0.039947417,-0.26738137,731
1747532980190,-0.076633975,0.27993366,-1.36781885,-0.2141181549999999,0.0274305585,-0.1968076,732
1747532980200,-0.094694215,0.26016502,-1.3443893999999998,-0.3797667799999999,0.127565417,-0.06444849555,733
1747532980210,-0.057841565,0.17303659,-1.134134,-0.65194184,0.17204021,0.096939065,734
1747532980220,-0.023673553,0.14960709,-1.0472497,-0.6961503,0.22583607,0.22849922,735
1747532980230,0.065407336,0.114218794,-0.9989263,-0.6380934,0.2657835,0.23861924,736
1747532980240,0.13227904,0.06858008,-0.9874556,-0.60879865,0.30146985,0.223172905,737
1747532980250,0.14911897,0.044174362,-0.98477095,-0.5384912,0.42237735,0.19121496,738
1747532980260,0.15058333,0.046858992,-1.0133257,-0.5267733,0.6034723,0.20559604,739
1747532980270,0.12520137,0.054668825,-1.0208915,-0.5629923,0.6775082,0.21837921,740
1747532980280,0.12520137,0.054668825,-1.0208915,-0.5629923,0.6775082,0.21837921,741
1747532980290,0.07614586,0.066261545,-1.0212576000000002,-0.6178534,0.68389976,0.2514024,742
1747532980300,0.010006348,0.071264714,-1.0299215,-0.7089335,0.62317973,0.26684874,743
1747532980310,-0.047347106,0.03441207,-0.97500867,-0.7946873,0.52837116,0.3174488,744
1747532980320,-0.0156196635,-0.03172744,-0.92546505,-0.8175905,0.46339005,0.39521313,745
1747532980330,0.04881145,-0.12056428,-0.87860614,-0.8069378,0.45593318,0.5113269,746
1747532980340,0.11226633,-0.15717287,-0.8363842,-0.77391464,0.4676511,0.6466155,747
1747532980350,0.19036464,-0.16400647,-0.79782313,-0.71479243,0.47404268,0.7568704,748
1747532980360,0.3014107,-0.18133454,-0.7145996,-0.49747851,0.32969934,0.83037364,749
1747532980370,0.33069757,-0.17816179,-0.67579454,-0.340352,0.20186761,0.8042747,750
1747532980380,0.36681804,-0.15692882,-0.6648119,-0.1438107,0.05539375,0.7504788,751
1747532980390,0.3939084,-0.1044565,-0.7038611,0.053263225,-0.07243799,0.65886605,752
1747532980400,0.38048524,-0.061502427,-0.77854264,0.20612867,-0.10652645,0.5640575,753
1747532980410,0.28164205,-0.0024405725,-0.97549677,0.21784659,0.002130529,0.52144694,754
1747532980420,0.2489384,0.011714748,-1.0294335,0.08948222,0.091080114,0.5502091,755
1747532980430,0.24161668,-0.024893839,-1.04066,-0.08681905,0.18588865,0.5811018,756
1747532980440,0.235027135,-0.0508859345,-0.99575355,-0.173638105,0.2191781549999999,0.60080917,757
1747532980450,0.2355152549999999,-0.116049215,-0.8837313,-0.26977823,0.26684874,0.639691295,758
1747532980460,0.37413976,-0.30214286,-0.630888,0.015446335,0.29348037,0.69721556,759
1747532980470,0.4249037,-0.32581642,-0.5701177,0.2743056,0.24820662,0.69508505,760
1747532980480,0.45467865,-0.3248402,-0.5620638,0.55074173,0.21518342,0.6679208,761
1747532980490,0.464685,-0.25894472,-0.64992446,1.0077401,0.1107875,0.58269966,762
1747532980500,0.464685,-0.25894472,-0.64992446,1.0077401,0.1107875,0.58269966,763
1747532980510,0.44540447,-0.16400647,-0.8161274,1.1659319,0.021837922,0.45060685,764
1747532980520,0.43466598,-0.117635585,-0.9176552,1.1116035,-0.026631612,0.37763625,765
1747532980530,0.4194123899999999,-0.0967686975,-0.9603652,1.055410775,-0.025832663,0.335291995,766
1747532980540,0.334480465,-0.0605262,-1.05847625,0.835167325,0.026631613,0.22610239,767
1747532980550,0.20268955,-0.047591163,-1.1244938,0.5792375399999999,0.13369069,0.15339808,768
1747532980560,0.04148973,-0.07492557,-1.1165619,0.30786142,0.31798145,0.19281286,769
1747532980570,-0.026846299,-0.11373068,-1.0584763,0.15606125,0.38775626,0.28708878,770
1747532980580,-0.07492557,-0.18938842,-0.912286,0.056991648,0.43036684,0.41758367,771
1747532980590,-0.0449065315,-0.20696054,-0.8721386,0.056991648,0.43036684,0.41758367,772
1747532980600,0.08932495,-0.24527754,-0.78586435,0.0647148165,0.174170735,0.75047882,773
1747532980610,0.20354374,-0.260165,-0.77634615,0.17630127,-0.22849922,0.721184,774
1747532980620,0.25821257,-0.26821893,-0.7987994,0.2647182,-0.4926848,0.6178534,775
1747532980630,0.2602870499999999,-0.249548535,-0.84517023,0.2844256,-0.66365975,0.543284875,776
1747532980640,0.275662665,-0.22868163,-0.91118768,0.2716424349999999,-0.867391575,0.4412858,777
1747532980650,0.302631,-0.2349051,-0.93913225,0.18269285,-0.888430525,0.384027835,778
1747532980660,0.272856,-0.2818861,-0.94206095,0.010120012,-0.7259777,0.3222425,779
1747532980670,0.21306199,-0.35412705,-0.8988628,-0.11824436,-0.43569317,0.38242993,780
1747532980680,0.218187185,-0.4106263049999999,-0.8323571999999999,-0.16671389,-0.295610885,0.488157435,781
1747532980690,0.260775165,-0.48970088,-0.74327632,-0.17630127,-0.13475595,0.6215818,782
1747532980700,0.35827604,-0.5344854,-0.6875093,-0.06498113,-0.16245283,0.58429754,783
1747532980710,0.3943965,-0.5422952,-0.66798466,0.11132014,-0.23595607,0.51718587,784
1747532980720,0.412578785,-0.55059315,-0.73363608,0.29960562,-0.31531827,0.415453125,785
1747532980730,0.42002252,-0.55693865,-0.912286,0.58749336,-0.3787015,0.23116238,786
1747532980740,0.42526977,-0.551081275,-0.9639041,0.58483018,-0.337422515,0.19734024,787
1747532980750,0.43173727,-0.528384,-1.120955,0.49321744,-0.123038046,0.113983296,788
1747532980760,0.44101146,-0.4971446,-1.1673259,0.3669836,0.084155895,0.06391586,789
1747532980770,0.4416216,-0.4761556799999999,-1.1766,0.303067735,0.1712412575,0.0359526715,790
1747532980780,0.383658,-0.35607952,-1.1570754,0.0063915867,0.44208476,-0.10173275,791
1747532980790,0.36291313,-0.32850105,-1.1165619,-0.10226539,0.3834952,-0.15659387,792
1747532980800,0.34924594,-0.3053156,-1.0728757,-0.18002969,0.26312032,-0.23276028,793
1747532980810,0.34265637,-0.28725538,-1.0343146,-0.21784659,0.12783173,-0.3339604,794
1747532980820,0.3236199,-0.2809099,-1.0030752,-0.19920446,-0.009054748,-0.45380265,795
1747532980830,0.21501444,-0.2831064,-0.9967298,-0.118776985,-0.05006743,-0.5422196,796
1747532980840,0.16083373,-0.28749946,-1.0089327,-0.10759171,-0.02130529,-0.509729,797
1747532980850,0.110801995,-0.2853029,-1.0162543,-0.12942964,0.010120012,-0.42557314,798
1747532980860,0.08078295,-0.26675457,-1.0072243,-0.15393071,0.0053263223,-0.3174488,799
1747532980870,0.15302388,-0.24747404,-0.9652464,-0.17576863,-0.0974717,-0.19014971,800
1747532980880,0.19304928,-0.23990828,-0.9449896,-0.1486044,-0.21038973,-0.18535602,801
1747532980890,0.24308102,-0.22672918,-0.9371798,-0.0793622,-0.37444046,-0.22264028,802
1747532980900,0.3014107,-0.20598431,-0.9652464,-0.014913702,-0.48735848,-0.2908172,803
1747532980910,0.3316738,-0.19548985,-1.018451,0.02130529,-0.5342301,-0.3787015,804
1747532980920,0.328257,-0.22453266,-1.138039,-0.06018744,-0.3882889,-0.48522797,805
1747532980930,0.30214286,-0.2169669,-1.1590278,-0.16192019,-0.21411815,-0.46392268,806
1747532980940,0.285058855,-0.213061975,-1.16159045,-0.226901325,-0.099069592,-0.431698425,807
1747532980950,0.24747404,-0.18792409,-1.1226633,-0.4165184,0.23276028,-0.31638354,808
1747532980960,0.24845028,-0.18060236,-0.99795,-0.5305017,0.47617322,-0.19867182,809
1747532980970,0.2689511,-0.20403185,-0.93205464,-0.49801114,0.46711847,-0.18482338,810
1747532980980,0.2936009,-0.22648512,-0.89154106,-0.42557314,0.38722363,-0.21038973,811
1747532980990,0.30543766,-0.24137261,-0.8786060499999999,-0.372576235,0.3339604149999999,-0.235689765,812
1747532981000,0.35437113,-0.26480213,-0.8363842,-0.18855181,0.16298546,-0.33822146,813
1747532981010,0.3443648,-0.20256752,-0.8412653,0.10066749,0.02130529,-0.4708469,814
1747532981020,0.31727442,-0.14789869,-0.873725,0.21198763,0.036218993,-0.5001417,815
1747532981030,0.29140437,-0.10518867,-0.9066727,0.2711098,0.050600063,-0.5086638,816
1747532981040,0.264680095,-0.087128435,-0.92522105,0.27563717,0.0548611215,-0.496945885,817
1747532981050,0.21184167,-0.04344219,-0.9686632,0.23489082,0.0031957934,-0.42983422,818
1747532981060,0.25894472,-0.051252022,-1.0011228,0.13209279,-0.25193503,-0.44847634,819
1747532981070,0.26992732,-0.06955632,-1.0377314,0.08948222,-0.3472762,-0.49854377,820
1747532981080,0.27554062,-0.10421244,-1.0755602,0.029827405,-0.36591834,-0.5566007,821
1747532981090,0.26919514,-0.11922197,-1.0891054,-0.008788431,-0.344613045,-0.5736448999999999,822
1747532981100,0.2362474,-0.12861817,-1.0967933,-0.12676647,-0.21944448,-0.58269966,823
1747532981110,0.22062775,-0.07614586,-1.0499343,-0.24021713,0.05219796,-0.51505536,824
1747532981120,0.24308102,-0.064919226,-1.0130817,-0.29028457,0.12037488,-0.5187838,825
1747532981130,0.24552159,-0.073461235,-0.9723241,-0.31052458,0.092145376,-0.55074173,826
1747532981140,0.2349051,-0.07638992,-0.955850225,-0.30839406,0.0519316425,-0.564590165,827
1747532981150,0.19500175,-0.082247294,-0.91253006,-0.28868666,-0.12037488,-0.58056915,828
1747532981160,0.19060871,-0.105676785,-0.9196077,-0.27643612,-0.41065946,-0.5603291,829
1747532981170,0.20122519,-0.1175135575,-0.92558712,-0.28655614,-0.463922665,-0.563791225,830
1747532981180,0.20940112,-0.12544543,-0.925221,-0.30839407,-0.5539375,-0.5704491,831
1747532981190,0.208913,-0.112632422,-0.91460453,-0.307861435,-0.53156695,-0.566454375,832
1747532981200,0.20390983,-0.086030182,-0.89068693,-0.294545625,-0.46205845,-0.5504754249999999,833
1747532981210,0.20281157,-0.0491775375,-0.85725105,-0.241282405,-0.31292143,-0.4969458799999999,834
1747532981220,0.20549619,-0.0156196635,-0.8293065,-0.1784318,-0.14274544,-0.4527374,835
1747532981230,0.18768002,-0.011958805,-0.8195442,-0.15446335,-0.080960095,-0.45007423,836
1747532981240,0.176819475,-0.0161077785,-0.8119784299999999,-0.132891745,-0.0559263824999999,-0.441818435,837
1747532981250,0.17108413,-0.0307512125,-0.80185008,-0.0809601014999999,-0.0231695025,-0.43010053,838
1747532981260,0.19768637,-0.043198135,-0.8332114,0.10333065,0.043675844,-0.5225122,839
1747532981270,0.18377511,-0.020500809,-0.8495633,0.165116,0.060720075,-0.57577544,840
1747532981280,0.11836776,0.021721095,-0.86884385,0.20719394,0.08522116,-0.5784386,841
1747532981290,0.016351834,0.12032023,-0.88641596,0.18535602,0.002130529,-0.44101948,842
1747532981300,0.003172744,0.13252309,-0.8851956,0.14966966,-0.10439592,-0.35952675,843
1747532981310,0.012202863,0.13227904,-0.8588374,0.12996227,-0.24607609,-0.2892193,844
1747532981320,0.051252022,0.12178457,-0.81783587,0.1454086,-0.4165184,-0.23755397,845
1747532981330,0.114462845,0.06321083,-0.85175985,0.19014971,-0.5400891,-0.22370553,846
1747532981340,0.12495731,0.045394648,-0.8991069,0.30466563,-0.43036684,-0.24181503,847
1747532981350,0.1403329,0.030751213,-0.9313224,0.32863408,-0.26525086,-0.23915187,848
1747532981360,0.14631231,0.0346561274999999,-0.943525315,0.31052458,-0.15180019,-0.2396845,849
1747532981370,0.16107778,0.05662128,-0.96622264,0.28442562,-0.055926383,-0.2593919,850
1747532981380,0.15766099,0.036852647,-0.9449896,0.2428803,0.0005326322,-0.3254383,851
1747532981390,0.140943065,0.0297749855,-0.9342511,0.241548715,-0.0141147538999999,-0.32463934,852
1747532981400,0.114462845,0.009030119,-0.91204196,0.24341293,-0.07669904,-0.3009372,853
1747532981410,0.1155611025,-0.008297946,-0.916801065,0.2396845,-0.091612745,-0.291349825,854
1747532981420,0.120808335,-0.0482013055,-0.92156017,0.22796659,-0.131826475,-0.26791401,855
1747532981430,0.16351835,-0.1461903,-0.8793382,0.2657835,-0.34940675,-0.13475595,856
1747532981440,0.20110317,-0.19793043,-0.8754333,0.3472762,-0.406931,-0.10972224,857
1747532981450,0.2186753,-0.18865626,-0.8717725,0.45593318,-0.44101948,-0.09534117,858
1747532981460,0.23527117,-0.13179092,-0.8834872,0.5651228,-0.45912898,-0.10865697,859
1747532981470,0.26284966,-0.017816179,-1.0038075,0.6764429,-0.38083205,-0.30466563,860
1747532981480,0.19378147,0.014643434,-1.0714114,0.64182186,-0.2625877,-0.38296258,861
1747532981490,0.14594623,0.036608588,-1.1280326,0.53795856,-0.10013486,-0.4250405,862
1747532981500,0.107385196,0.03172744,-1.1609803,0.3797668,0.0777643,-0.4282363,863
1747532981510,0.08859278,-0.0026846298,-1.1402354,0.15659387,0.23009712,-0.3920173,864
1747532981520,0.07199689,-0.091033354,-1.0023432,0.0037284256,0.27643612,-0.29507825,865
1747532981530,0.0690682,-0.13105874,-0.93986446,0.05006743,0.1784318,-0.21038973,866
1747532981540,0.069678345,-0.11312053,-0.916434945,0.094808535,0.082025365,-0.16591494,867
1747532981550,0.08005078,-0.038561042,-0.91253006,0.19041602,-0.091612745,-0.098536965,868
1747532981560,0.07541369,-0.05051985,-0.9642702,0.31851408,-0.22849922,-0.05219796,869
1747532981570,0.067359805,-0.038561042,-1.0101529,0.35579833,-0.2050634,-0.0063915867,870
1747532981580,0.030507157,0.028798755,-1.1094842,0.27164245,0.16618125,0.15659387,871
1747532981590,0.055645052,0.035632357,-1.1165619,0.18695392,0.33502567,0.20399815,872
1747532981600,0.07443746,0.055645052,-1.1036268,0.11345066,0.42024684,0.21518342,873
1747532981610,0.07443746,0.055645052,-1.1036268,0.11345066,0.42024684,0.21518342,874
1747532981620,0.11495096,0.12983845,-1.0709232,0.18162759,0.4511395,0.11025487,875
1747532981630,0.12861817,0.14936304,-1.1089962,0.21784659,0.5448828,0.051132694,876
1747532981640,0.12886222,0.17523311,-1.159272,0.21944448,0.7281082,-0.010652645,877
1747532981650,0.13227904,0.1718163,-1.194172,0.1933455,1.0322412,-0.06924219,878
1747532981660,0.1165373399999999,0.20342171,-1.18611815,0.17816548,1.293231,-0.09880328,879
1747532981670,0.039537273,0.41514137,-1.1700104,0.1454086,2.0287962,-0.16884442,880
1747532981680,0.0156196635,0.47932845,-1.1529264,0.035153728,2.7494476,-0.3787015,881
1747532981690,-0.01403329325,0.500073325,-1.1476791999999998,0.0117179095,2.8743498,-0.45912897,882
1747532981700,-0.22453266,0.511788,-1.1475571,-0.021837922,3.1707597,-0.6327671,883
1747532981710,-0.480426695,0.5627960000000001,-1.1124129,0.029028454,3.0868701,-0.49827745,884
1747532981720,-0.90081537,0.77732235,-1.0199152,0.1768339,2.5891252,-0.034621093,885
1747532981730,-0.96353805,0.9876996,-0.97598493,0.32011196,1.9813919,0.34248254,886
1747532981740,-0.8829991,1.1756238,-0.9298581,0.5789712,1.0530139,0.76965356,887
1747532981750,-0.68482465,1.3105874,-0.93107843,0.8607337,0.2790993,0.99442434,888
1747532981760,-0.1244692,1.3701375,-1.1839217,1.3496901,-1.0988203,0.96406436,889
1747532981770,0.13569583,1.2359059,-1.3935668,1.3704628,-1.6069515,0.7707188,890
1747532981780,0.3018988,1.095573,-1.599063,1.2277173,-1.9036276,0.56885123,891
1747532981790,0.33704306,1.05274095,-1.66935155,1.09988555,-1.91294865,0.492152185,892
1747532981800,0.51569295,0.80465674,-1.8338462,0.62051654,-1.6996294,0.29348037,893
1747532981810,0.55718267,0.6999562,-1.7742962,-0.26418558,-0.9528791,-0.07403588,894
1747532981820,0.51349646,0.601113,-1.6588572,-0.53529537,-0.5539375,-0.2790993,895
1747532981830,0.42978483,0.528384,-1.5209647,-0.6924219,-0.1965413,-0.479369,896
1747532981840,0.29116032,0.47932845,-1.3874654,-0.7653925,0.01438107,-0.61199445,897
1747532981850,0.061502427,0.33948365,-1.1702545,-0.7840346,0.07190535,-0.6711166,898
1747532981860,-0.028066583,0.3018988,-1.0892274,-0.6988135,-0.14434333,-0.6354303,899
1747532981870,-0.117635585,0.27846932,-1.0345587,-0.58696073,-0.31318775,-0.5075985,900
1747532981880,-0.18645974,0.25772443,-1.0304097,-0.47191215,-0.4926848,-0.31957933,901
1747532981890,-0.21257387,0.22648512,-1.0284572,-0.38296258,-0.7819041,-0.077231675,902
1747532981900,-0.20500809,0.21257387,-1.0240642,-0.3355583,-1.0711234,0.083090626,903
1747532981910,-0.13471961,0.18963248,-1.0902036,-0.26844665,-1.3187973,0.20399815,904
1747532981920,-0.071020655,0.122516744,-1.1260802,-0.1555286,-1.514806,0.31052458,905
1747532981930,-0.004881145,0.065163285,-1.1111927,-0.120907515,-1.4689997,0.3536678,906
1747532981940,0.0363645275,0.049177535,-1.10143035,-0.1027980175,-1.3994911499999998,0.383761525,907
1747532981950,0.27724904,0.04637088,-1.0504224,-0.022370555,-1.1254519,0.45220476,908
1747532981960,0.35827604,0.05906185,-1.0606729,0.22264028,-0.63915867,0.30466563,909
1747532981970,0.37023485,0.09054524,-1.1099724,0.3073288,-0.5044027,0.16777915,910
1747532981980,0.349001875,0.1036023,-1.1518282,0.31292144,-0.4721784599999999,0.1046622315,911
1747532981990,0.24015234,0.12520137,-1.27886,0.24074976,-0.41864893,-0.039414786,912
1747532982000,0.022453265,0.14350566,-1.4113832,-0.11451593,-0.34887412,0.028229509,913
1747532982010,-0.0319715,0.1244692,-1.4601945,-0.37763625,-0.35739622,0.16405073,914
1747532982020,-0.0061014313,0.044418417,-1.5024164,-0.68656296,-0.33129725,0.2790993,915
1747532982030,0.08102701,-0.037828874,-1.4331042,-0.98590225,-0.3222425,0.32437304,916
1747532982040,0.16229807,-0.21403822,-1.1643971,-1.3166668,-0.29933932,0.4809669,917
1747532982050,0.19671014,-0.25162303,-1.0284572,-1.2761868,-0.22530343,0.5475459,918
1747532982060,0.2203837,-0.24625377,-0.9237567,-1.1526161,-0.17204021,0.5917544,919
1747532982070,0.23917611,-0.22306833,-0.8759214,-0.99762017,-0.17257284,0.5933523,920
1747532982080,0.23502712,-0.20915705,-0.8778739,-0.8655274,-0.18482338,0.55979645,921
1747532982090,0.25552794,-0.21721096,-0.9176552,-0.69987875,-0.23116238,0.49161956,922
1747532982100,0.26553428,-0.19915071,-0.9344952,-0.6359629,-0.21038973,0.47297743,923
1747532982110,0.2545517,-0.14936304,-0.95938903,-0.57311225,-0.13475595,0.46871635,924
1747532982120,0.26553428,-0.102504045,-1.0108851,-0.5550028,-0.019707393,0.44581318,925
1747532982130,0.19793043,-0.054424766,-1.1277885,-0.6125271,0.09853696,0.41172472,926
1747532982140,0.13374338,-0.05027579,-1.1124129,-0.86179894,0.36272255,0.42237735,927
1747532982150,0.06589546,-0.04368625,-1.057012,-0.9715212,0.4564658,0.49481535,928
1747532982160,0.04344219,-0.03294773,-0.9803779,-1.0285128,0.5219796,0.5629923,929
1747532982170,0.08029483,-0.04075756,-0.88958865,-1.0263823,0.531567,0.5970807,930
1747532982180,0.143017545,-0.058817795,-0.830038695,-0.99868545,0.5102617,0.58989018,931
1747532982190,0.2421048,-0.084687866,-0.74510676,-0.7584683,0.3818973,0.4857606,932
1747532982200,0.26968327,-0.09835507,-0.7604824,-0.62371236,0.35952675,0.42077947,933
1747532982210,0.25357547,-0.117147475,-0.7987994,-0.5747102,0.39627838,0.38562572,934
1747532982220,0.20671648,-0.13838045,-0.8161274,-0.56885123,0.4261058,0.40053943,935
1747532982230,0.152535775,-0.132279025,-0.78183735,-0.5651228150000001,0.4327637,0.4873584949999999,936
1747532982240,0.099819415,-0.111656192,-0.7215552199999999,-0.52304486,0.42077947,0.6135923299999999,937
1747532982250,0.12520137,-0.08395569,-0.66066295,-0.35739622,0.35420042,0.6924219,938
1747532982260,0.17352471,-0.07492557,-0.66237134,-0.2231729,0.2876214,0.6844324,939
1747532982270,0.2172109549999999,-0.0845658325,-0.6948309850000001,-0.17044231,0.25726136,0.6564692000000001,940
1747532982280,0.29116032,-0.09225364,-0.75657743,-0.039414786,0.17630127,0.5001417,941
1747532982290,0.29774985,-0.07516963,-0.7397375,-0.029827405,0.16085494,0.4910869,942
1747532982300,0.30092257,-0.07809832,-0.7238738,0.0005326322,0.14434333,0.5049353,943
1747532982310,0.32923323,-0.09396204,-0.72729063,0.05539375,0.12996227,0.49161956,944
1747532982320,0.3619369,-0.11348662,-0.72704655,0.13954964,0.094808534,0.42717105,945
1747532982330,0.30873242,-0.18743597,-0.81246656,0.33076462,-0.022370555,0.25672874,946
1747532982340,0.27761512,-0.208546915,-0.83467578,0.36911413,-0.00825580025,0.24208135,947
1747532982350,0.17889395,-0.21916342,-0.8495633,0.46978164,0.04474111,0.28016454,948
1747532982360,0.11299851,-0.19134088,-0.85956967,0.5113269,0.103863284,0.38775626,949
1747532982370,0.10177187,-0.22233616,-0.88007045,0.55766594,0.27324033,0.5928197,950
1747532982380,0.084931925,-0.23917611,-0.9003272,0.5539375,0.2593919,0.70680296,951
1747532982390,0.10543273,-0.25137895,-0.91253006,0.531567,0.10865697,0.7946873,952
1747532982400,0.1313028,-0.25137895,-0.9242448,0.5086638,-0.15180019,0.82557994,953
1747532982410,0.1637624,-0.23844394,-0.9174112,0.49854377,-0.5049353,0.80800307,954
1747532982420,0.25772443,-0.24869433,-0.93059033,0.551807,-1.1291803,0.68176925,955
1747532982430,0.2979939,-0.26553428,-0.9684192,0.58962387,-1.2202604,0.5832323,956
1747532982440,0.29408899,-0.27236788,-0.99355705,0.60507023,-1.0828413,0.53476274,957
1747532982450,0.26797485,-0.29164842,-1.0733638,0.5837649,-0.8175905,0.5320996,958
1747532982460,0.2111095,-0.3243521,-1.1519502,0.4032026,-0.11132014,0.6791061,959
1747532982470,0.2272173,-0.3184947,-1.1285207,0.26738137,0.19014971,0.77231675,960
1747532982480,0.29579738,-0.311173,-1.087031,0.13582122,0.37124467,0.80533993,961
1747532982490,0.3648656,-0.29604146,-1.022844,0.041545313,0.44315,0.75420725,962
1747532982500,0.39927766,-0.28042176,-0.950359,0.0058589545,0.42770368,0.65513766,963
1747532982510,0.44613665,-0.28725538,-0.84785485,0.10279802,0.22104238,0.3552657,964
1747532982520,0.45736328,-0.2979939,-0.83150303,0.19068234,0.10546118,0.20879184,965
1747532982530,0.4595598,-0.31361356,-0.8473667,0.2908172,-0.008522116,0.06231797,966
1747532982540,0.44552651,-0.31812863,-0.8665252,0.33502567,-0.042344261,-0.000798945,967
1747532982550,0.40513504,-0.319715,-0.92400074,0.43782368,-0.1454086,-0.16085494,968
1747532982560,0.35412705,-0.30458343,-1.0333383,0.4415521,-0.16085494,-0.30626354,969
1747532982570,0.3077562,-0.27822527,-1.0601847,0.40746364,-0.090014845,-0.34887412,970
1747532982580,0.26870704,-0.25137895,-1.0760484,0.35633096,-0.029294772,-0.3616573,971
1747532982590,0.255283895,-0.2477181,-1.08898345,0.31691618,-0.0047936895,-0.3616573,972
1747532982600,0.20744865,-0.24234885,-1.134134,0.20240025,0.046871636,-0.35579833,973
1747532982610,0.19939478,-0.23185438,-1.1629328,0.0026631611,-0.0063915867,-0.34141725,974
1747532982620,0.20549619,-0.22135992,-1.1570754,-0.08948222,-0.05219796,-0.35420042,975
1747532982630,0.21477039,-0.20940112,-1.1268123,-0.15819177,-0.09054748,-0.37763625,976
1747532982640,0.21745501,-0.20500809,-1.1002101,-0.20240025,-0.12676647,-0.40053943,977
1747532982650,0.21281794,-0.20964517,-1.0843463,-0.23062976,-0.13369069,-0.41385525,978
1747532982660,0.22233616,-0.2613853,-1.0448091,-0.2828277,-0.06231797,-0.38935417,979
1747532982670,0.21989559,-0.27554062,-1.0282133,-0.29667616,-0.018109497,-0.3568636,980
1747532982680,0.21403822,-0.27480847,-1.0086887,-0.2908172,0.02130529,-0.3174488,981
1747532982690,0.24454537,-0.2860351,-0.99136055,-0.26844665,0.048469532,-0.3057309,982
1747532982700,0.29555333,-0.29921418,-0.97793734,-0.23648871,0.07243799,-0.33609092,983
1747532982710,0.3184947,-0.27334413,-0.9344952,-0.13369069,0.14008227,-0.396811,984
1747532982720,0.3316738,-0.26162934,-0.92814976,-0.08522116,0.18162759,-0.4181163,985
1747532982730,0.3338703,-0.25796852,-0.9232686,-0.03568636,0.2263687,-0.4575311,986
1747532982740,0.3236199,-0.24649782,-0.91399443,0.02130529,0.24820662,-0.505468,987
1747532982750,0.32813495,-0.244423335,-0.913506315,0.043675842,0.222107635,-0.5289038,988
1747532982760,0.32020313,-0.2545517,-0.96256185,0.13475595,0.101200126,-0.7004114,989
1747532982770,0.29262465,-0.2638259,-0.9818423,0.14274544,0.06178534,-0.7419567,990
1747532982780,0.23380683,-0.24649782,-1.0213796,0.13156016,0.046871636,-0.73822826,991
1747532982790,0.17547716,-0.2020794,-1.0543274,0.08575379,0.06338324,-0.69774824,992
1747532982800,0.14863087,-0.13667206,-1.0221118,-0.0628506,0.03568636,-0.56725335,993
1747532982810,0.15277983,-0.1181237,-0.9906283,-0.10918961,-0.032490566,-0.5086638,994
1747532982820,0.1598575,-0.11348662,-0.97427654,-0.11504856,-0.05912218,-0.48682585,995
1747532982830,0.18157859,-0.13667206,-0.96768695,-0.113983296,-0.076166406,-0.48842376,996
1747532982840,0.192317105,-0.159613445,-0.970737695,-0.1235706779999999,-0.0588558595,-0.491086915,997
1747532982850,0.22624107,-0.19158493,-0.9823304,-0.14274544,0.03355583,-0.5070659,998
1747532982860,0.24625377,-0.19402552,-0.99209267,-0.15233281,0.14647387,-0.52411014,999
1747532982870,0.23478307,-0.1696198,-0.98428285,-0.16564862,0.25406557,-0.5230448,1000
