id,timestamp,acc_x,acc_y,acc_z,gyro_x,gyro_y,gyro_z
1,1747533746100,0.318128618,0.2892078449999999,1.0622592,0.500407995,-1.149952975,0.0455400649999999
2,1747533746110,0.2483282449999999,-0.000854195,0.91972975,1.183775125,-1.18856881,-0.72411356
3,1747533746120,-0.0841997525,-0.37340759,0.8967883999999999,2.08978255,-0.32570461,-1.0538129
4,1747533746130,-0.08956901,0.05198419,1.2388345,2.5848641,-0.18961707,-0.8341021
5,1747533746140,-0.260165,0.49446,1.5302389,3.0850058,0.022903185,-0.660464
6,1747533746150,-0.8083176,0.76243484,1.8440965,3.2953956,0.1965413,-0.18695392
7,1747533746160,-0.68311626,0.6079466,2.0144486,3.4770231,-1.7715348,0.6348976
8,1747533746170,-0.29042813,0.10055158,1.0025872,3.4344127,-2.1278658,1.1185277
9,1747533746180,-0.352052565,0.0855420625,0.527407725,3.1707597,-1.4887071,1.3741912
10,1747533746190,-0.05662128,0.18255483,-0.873725,0.92092115,-0.60293967,0.7888283
11,1747533746200,-0.06858008,0.08029483,-1.1997855,-0.561927,-0.10439592,0.025033714
12,1747533746210,-0.123126875,0.068458055,-1.06213717,-1.3701964,0.09321064,-0.395745743
13,1747533746220,-0.27993366,0.018060237,-0.64309084,-3.4471958,1.0982877,-1.613343
14,1747533746230,-0.38463423,-0.00976229,-0.460536,-4.2120557,1.9323897,-2.4138892
15,1747533746240,-0.7475473,0.30116665,0.09127741,-4.2530684,2.1859226,-3.496198
16,1747533746250,-0.7817154,0.44345203,0.7048373,-3.1345406,1.9089539,-3.5483959
17,1747533746260,-0.78928115,0.492873615,0.92912595,-2.23519115,1.7086842,-3.45971265
18,1747533746270,-0.7864744850000001,0.59232693,1.11888045,-0.38242998,1.1584751,-3.25997555
19,1747533746280,-0.53863436,0.4837215,0.6233222,3.3060482,-0.7185209,-3.145726
20,1747533746290,-0.4583395,0.40733153,0.4275883,4.0309606,-0.9555422,-3.3273535
21,1747533746300,-0.3956168,0.43637437,0.294089,4.4714475,-0.690824,-3.6517265
22,1747533746310,-0.36462155,0.592571,0.2421048,4.718589,-0.03834952,-4.230165
23,1747533746320,-0.49738866,0.8659151,0.268463,4.7175236,0.5550028,-4.6568036
24,1747533746330,-0.9342511,1.3118078,0.57280236,4.52258,1.5606124,-4.8837047
25,1747533746340,-0.9342511,1.3118078,0.57280236,4.5119276,1.7678064,-4.736166
26,1747533746350,-1.21223235,1.5450044,0.89337157,4.5119276,1.7678064,-4.736166
27,1747533746360,-1.2878901,1.6190758,1.0157663,4.5119276,1.7678064,-4.736166
28,1747533746370,-1.38331655,1.6176114,1.5171819,6.9617697,0.2237055299999999,-4.597415
29,1747533746380,-1.3496367,1.5319474,1.5497636,7.9980054,-0.43356264,-4.8107343
30,1747533746390,-1.6608096,1.5656272,1.3281596,8.52105,-0.90654004,-5.0424294
31,1747533746400,-1.8079761,1.649583,1.1421878,8.784171,-0.95927066,-5.244297
32,1747533746410,-1.8821694,1.7699032,0.9855032,8.677112,-0.42344263,-5.416337
33,1747533746420,-2.2294628000000003,2.0572806,0.85688502,6.9519157,1.2245215,-5.021124
34,1747533746430,-2.8869534,2.4737642,0.8236932,5.6879797,2.02347,-4.3148537
35,1747533746440,-2.9899454,2.344658,1.018939,4.5007424,2.766492,-3.5808864
36,1747533746450,-3.0385127,2.084981,1.1975889,3.5254927,3.3140378,-2.9987195
37,1747533746460,-3.0875683,1.71145135,1.31205175,2.9377330500000003,3.583017,-2.75264335
38,1747533746470,-3.2171626,1.0206474,1.3977158,2.0421119,3.7236319,-2.6194854
39,1747533746480,-3.239616,0.75340474,1.363792,1.8141453,3.3704967,-2.9348035
40,1747533746490,-3.2920883,0.58232063,1.3176651,1.7193369,2.9768815,-3.401922
41,1747533746500,-3.2706113,0.3619369,1.2556745,1.8434402,2.63306735,-4.01684585
42,1747533746510,-3.2340026,0.32679266,1.2732466,2.2343922,2.0458405,-5.3257895
43,1747533746520,-3.2078885,0.330819595,1.29618805,2.3750071,1.95502665,-5.66401105
44,1747533746530,-3.1412606,0.39537275,1.3845367,2.8005803,1.8200043,-6.609433
45,1747533746540,-3.1044083,0.5208182,1.4870408,3.10205,1.8514296,-7.2858763
46,1747533746550,-3.0541325,0.70996255,1.5639188,3.1909997,1.8583539,-7.768441
47,1747533746560,-3.0541325,0.70996255,1.5639188,3.1909997,1.8583539,-7.768441
48,1747533746570,-2.94699135,1.30912315,1.7101091,2.42241145,1.76407795,-8.5388935
49,1747533746580,-2.9346664,1.4712991,1.811515,1.7584854,1.79736745,-8.6837695
50,1747533746590,-2.809343,1.5363404,1.9671015,0.80374205,1.8381138,-8.838499
51,1747533746600,-2.5948167,1.4736177,2.1237862,0.09960223,1.937716,-9.043563
52,1747533746610,-2.5372193,1.4904575,2.1962712,0.017044231,1.952097,-9.14636
53,1747533746620,-2.5151321,1.50095205,2.2117689,0.027164243,1.93984655,-9.176454
54,1747533746630,-2.46998145,1.5380488,2.2234836,0.039414784,1.88152335,-9.234511
55,1747533746640,-2.4522872,1.713282,2.1843123,-0.075101145,1.6474315,-9.314672
56,1747533746650,-2.4422808,2.0637481,2.1093867,-0.92997587,0.86872315,-9.343434
57,1747533746660,-2.3641827,2.1286674,2.1128037,-1.4748586,0.37390783,-9.276855
58,1747533746670,-2.216772,2.1242743,2.1059701,-1.9057581,-0.10279802,-9.210277
59,1747533746680,-2.0408068,2.094011,2.0896182,-2.1805964,-0.5571333,-9.136241
60,1747533746690,-1.8777765,2.0320208,1.9065753,-2.3558323,-1.4226607,-8.780442
61,1747533746700,-1.6180996,1.9910189,1.7813739,-2.3068302,-1.6921726,-8.493354
62,1747533746710,-1.4543371,1.9517258,1.6615417,-2.183792,-1.892975,-8.184427
63,1747533746720,-1.2778838,1.8599603,1.4894813,-2.0335898,-1.9350529,-7.9399486
64,1747533746730,-1.1443844,1.6346955,1.1458488,-1.9808593,-1.5978967,-7.8078556
65,1747533746740,-0.916435,1.7091328,1.0299215,-1.8093517,-0.88470215,-7.528224
66,1747533746750,-0.9808661,1.8467811,0.9947773,-1.6772588,-0.82557994,-7.2523203
67,1747533746760,-1.1612244,1.8162742,0.7421781,-1.7283915,-0.7355651,-6.6296735
68,1747533746770,-0.9784255,1.6134624,0.6582224,-1.83411905,-0.839428395,-6.09411175
69,1747533746780,-0.87982637,1.6593453,0.8027043,-1.8333201,-0.93903065,-5.942578
70,1747533746790,-0.85493255,1.654708,0.43295756,-2.1411815,-1.2713932,-5.1883707
71,1747533746800,-0.7043492,1.5407335,0.30458343,-2.373942,-1.1052119,-4.948686
72,1747533746810,-0.57377857,1.4345685,0.200371,-2.560363,-0.77444726,-4.7990165
73,1747533746820,-0.56169775,1.3958854,0.186459735,-2.6162895,-0.59441757,-4.723915249999999
74,1747533746830,-0.50593066,1.2173575,0.20671648,-2.6434538,-0.20879184,-4.4964814
75,1747533746840,-0.4807928,1.1924638,0.14472595,-2.3558323,-0.09161274,-4.2892876
76,1747533746850,-0.5208182,1.2371262,0.07516963,-2.2828617,-0.11930962,-4.074104
77,1747533746860,-0.49226347,1.3008251,-0.010982576,-2.31695,-0.26312032,-3.7321541
78,1747533746870,-0.33509058,1.24518,-0.10128376,-2.4964473,-0.5608617,-3.391802
79,1747533746880,0.105676785,1.027481,-0.42856455,-3.212305,-1.2964269,-2.966229
80,1747533746890,0.25723633,0.95572823,-0.64260274,-3.6320193,-1.4812502,-2.8639636
81,1747533746900,0.43491003,0.9620737,-0.85224795,-3.9771647,-1.5345135,-2.7941887
82,1747533746910,0.544369685,0.929492,-0.953775775,-4.09780585,-1.4532871,-2.7502465000000003
83,1747533746920,1.0338265,0.7602383,-1.2595794,-4.2812978,-1.21972785,-2.70577165
84,1747533746930,1.6576368,0.55620646,-1.7364672,-3.9414785,-0.076166406,-2.9395974
85,1747533746940,1.6830187,0.5954997,-1.8292091,-3.5079157,0.505468,-2.8613002
86,1747533746950,1.7450093,0.6303999,-1.7987018,-3.0306773,0.8926916,-2.7100327
87,1747533746960,1.7645339,0.626739,-1.7062042,-2.637062,0.96939063,-2.485262
88,1747533746970,1.8875388,0.6374775,-1.6747209,-2.3952472,0.5747102,-2.2365227
89,1747533746980,1.9993169,0.7124031,-1.6695957,-2.1571605,-0.0127831735,-1.9158782
90,1747533746990,2.186997,0.97744924,-2.0020018,-1.6479641,-0.88949585,-0.6466155
91,1747533747000,2.2467911,1.0643337,-2.2279985,-1.4764565,-0.8788432,0.05273059
92,1747533747010,2.2301953,1.1273005,-2.3212285,-1.2447615,-0.67058396,0.7366304
93,1747533747020,2.1606388,1.1297411,-2.3546643,-1.076982365,-0.530768005,1.0538129
94,1747533747030,2.1125595500000003,1.1043591,-2.315127,-0.6777745150000001,-0.28442561,1.63491465
95,1747533747040,1.7730759,0.9696394,-2.1533172,0.5954828,0.11771172,2.556102
96,1747533747050,1.5802706,0.95743656,-2.0637481,1.0956244,0.32011196,2.8261466
97,1747533747060,1.4950947,0.956094265,-2.0087132,1.32945,0.45966163,2.9414614500000003
98,1747533747070,1.232001,0.9654905,-1.824816,1.9947077,0.9262474,3.300722
99,1747533747080,0.85566473,1.1148535,-1.4811834,2.16248685,1.0828413,3.4716969
100,1747533747090,0.69239044,1.2424954,-1.2952118,2.3995082,1.2325109,3.8557248
101,1747533747100,0.51666915,1.3711137,-1.1019185,2.4527714,1.1856394,4.123106
102,1747533747110,0.425513785,1.4327381,-1.02296595,2.4525051,1.129713,4.278900849999999
103,1747533747120,0.26101922,1.5484212,-0.86652525,2.4469124,0.98563595,4.592355
104,1747533747130,0.05588911,1.6542201,-0.61746484,2.4921863,0.77231675,5.040299
105,1747533747140,-0.13740423,1.6508032,-0.22697324,2.812298,0.4383563,5.4717307
106,1747533747150,-0.255772,1.6339632,0.0046370877,3.1334753,0.12463594,5.630988
107,1747533747160,-0.292136525,1.62761775,-0.0107385186499999,3.23813765,0.1222390949999999,5.681588
108,1747533747170,-0.32215557,1.5910091,0.051740136,3.5260253,0.5965481,5.693306
109,1747533747180,-0.3973252,1.6610537,0.16742326,3.5329497,0.7499462,5.6810555
110,1747533747190,-0.52789587,1.7616051,0.27334413,3.468501,0.82185155,5.743906
111,1747533747200,-0.626739,1.8555672,0.32532832,3.2980587,0.8697884,5.903163
112,1747533747210,-0.6529751500000001,1.8874167,0.3482697,3.17182485,0.8823052499999999,5.9995695
113,1747533747220,-0.7435204,1.965515,0.46981019,2.84904975,0.83569995,6.34604675
114,1747533747230,-0.9298581,2.0325086,0.69556314,2.7361317,0.7004114,6.820356
115,1747533747240,-1.0467615,2.0081031,0.77244115,2.9875343,0.68816084,6.9732213
116,1747533747250,-1.1336459,1.9756435,0.94303715,3.3598442,0.7685883,7.054181
117,1747533747260,-1.462635,2.0444674,0.93937635,4.016047,0.9731191,7.10052
118,1747533747270,-1.52072065,2.0603312,0.936447675,4.04960275,1.05434555,7.0970580000000005
119,1747533747280,-1.6754531,2.0781474,0.95694846,3.9345543,1.310808,7.069628
120,1747533747290,-1.7430568,2.0910823,1.0216236,3.6298885,1.3795174,7.024354
121,1747533747300,-1.8257922,2.118173,1.1377949,3.1393344,1.284709,7.0547137
122,1747533747310,-2.0062726,2.216772,1.2202862,2.7395938500000003,1.04289393,7.2278192
123,1747533747320,-2.4874313,2.3871238,1.372578,2.0431771,0.53476274,7.700264
124,1747533747330,-2.8061702,2.4176311,1.4887493,1.8663434,0.22690132,8.06565
125,1747533747340,-3.0238693,2.3754091,1.5678238,1.8397117,-0.07456851,8.383632
126,1747533747350,-3.1246648,2.2458148,1.5731931,1.9142802,-0.36005938,8.516789
127,1747533747360,-3.1549282,2.0232346,1.4584862,2.010154,-0.5832323,8.181764
128,1747533747370,-3.16347,1.9963883,1.3655003,1.7273263,-0.6487461,7.803062
129,1747533747380,-3.1888518,2.0056624,1.3235224,1.3566142,-0.7344999,7.574563
130,1747533747390,-3.2801294,2.0620399,1.2161373,0.92038846,-0.81066626,7.5213
131,1747533747400,-3.7704403,1.8768003,1.1304731,0.4612595,-0.9896307,7.9953423
132,1747533747410,-3.81193,1.6010156,1.1492655,0.5853628,-1.0982877,8.135958
133,1747533747420,-3.7284625,1.2224828,1.1312053,0.83250415,-1.1930962,7.988418
134,1747533747430,-3.59838,0.9686632,1.1241276,1.1345067,-1.2341089,7.615043
135,1747533747440,-3.5313865,0.908381065,1.1240056,1.30228585,-1.26793105,7.36337415
136,1747533747450,-3.6974673,0.6977597,1.0067362,2.0069582,-1.303351,6.3718796
137,1747533747460,-3.74139765,0.58244263,0.98647942,2.0535636000000004,-1.34489635,6.31249095
138,1747533747470,-3.7667796,0.285669,0.95243337,2.1446437,-1.4277207,6.12633585
139,1747533747480,-3.6315718,-0.27187976,0.954996,2.3254724,-1.5014902,5.584649
140,1747533747490,-3.627179,-0.62551874,1.0479817,2.7174897,-1.3768543,4.7303066
141,1747533747500,-3.8224244,-0.65944266,1.0777569,2.884736,-1.2159994,4.561995
142,1747533747510,-4.010349,-0.77292925,1.1775762,3.0439932,-0.99282646,4.4512076
143,1747533747520,-4.313712,-0.9469421,1.1690342,3.125486,-0.7163904,4.3643885
144,1747533747530,-4.736907,-1.1370627,1.0492021,2.964631,-0.15819177,4.232828
145,1747533747540,-5.641383,-1.7943089,0.8856837,2.5582325,0.3616573,3.9185753
146,1747533747550,-5.8822675,-2.0320208,0.9484064,1.160073,0.6492787,2.2503712
147,1747533747560,-5.8634753,-2.0991364,1.0111293,0.83010735,0.55100805,1.54223665
148,1747533747570,-5.7626798,-1.98833445,1.06311345,0.24873926945,0.2055960435,0.0143810849999999
149,1747533747580,-5.1447268,-0.92448884,1.3486603,0.006924219,-1.3289174,-3.6661077
150,1747533747590,-4.9658327,-0.38536638,1.3789234,0.3291667,-1.9302592,-4.406999
151,1747533747600,-4.7383714,0.10396838,1.4204131,0.829841,-2.6232138,-4.6962185
152,1747533747610,-4.618539350000001,0.3119051399999999,1.41504385,1.0130665,-2.8756814,-4.65813525
153,1747533747620,-4.3264027,0.73558855,1.3240106,1.3997575,-3.5159054,-4.444816
154,1747533747630,-3.904428,0.9017916,1.1334019,1.2735237,-3.641074,-4.4831653
155,1747533747640,-3.7738574,0.9925808,1.0357789,0.95447695,-3.482882,-4.7244477
156,1747533747650,-3.6471915,1.1226633,0.9059405,0.509729,-3.170227,-4.995025
157,1747533747660,-3.60765425,1.17367125,0.8734808700000001,0.2700445185,-2.9710226,-5.1236557000000005
158,1747533747670,-3.508323,1.2667791,0.82381522,-0.1704423165,-2.56142845,-5.3702645
159,1747533747680,-3.3975209,1.31839725,0.80978193,-0.510527985,-2.1249363,-5.632586
160,1747533747690,-3.0626745,1.4126034,0.8371163,-0.6844324,-1.4695324,-6.231797
161,1747533747700,-2.971885,1.479719,0.82491344,-0.65513766,-1.3161342,-6.3468456
162,1747533747710,-2.9303954,1.5248696000000002,0.80831757,-0.68203558,-1.2596752,-6.33432865
163,1747533747720,-2.8519311,1.61468275,0.77744435,-0.87298423,-1.1925635,-6.195578
164,1747533747730,-2.6704745,1.7508667,0.7665838,-1.0450244,-1.196292,-6.0517673
165,1747533747740,-2.4422808,1.8184706,0.84102124,-1.3070794,-1.2490226,-5.89038
166,1747533747750,-2.3585694,1.8387274,0.80294836,-1.5515577,-1.3635385,-5.8733354
167,1747533747760,-2.2690003,1.8397036,0.7499879,-1.979794,-1.5116103,-5.9319253
168,1747533747770,-2.2018845,1.8318938,0.6796995,-2.3457124,-1.5797871,-6.098639
169,1747533747780,-2.0866895,1.8372629,0.43539813,-3.0115025,-1.2442288,-6.647783
170,1747533747790,-2.0820522,1.8665497,0.27310005,-3.3609095,-0.88683265,-6.909305
171,1747533747800,-2.0278716,1.8804612,0.09152147,-3.7444046,-0.4063984,-7.16124
172,1747533747810,-1.9334215,1.8323817,-0.008542004,-4.0922136,0.20240025,-7.4573836
173,1747533747820,-1.90681915,1.7472058,-0.018670379485,-4.359595,0.79628515,-7.828096
174,1747533747830,-1.9363501,1.7320743,-0.00097622897,-4.550277,1.7997643,-8.671785
175,1747533747840,-1.9871141,1.7342708,0.032215554,-4.47198,2.0730047,-8.948221
176,1747533747850,-2.0578907,1.7515988,0.07370529,-4.3026032,2.2434468,-9.118131
177,1747533747860,-2.1247623,1.7806417,0.12056428,-4.03895,2.3180156,-9.175655
178,1747533747870,-2.1667402,1.8160299,0.1683995,-3.6970003,2.2237396,-9.12186
179,1747533747880,-2.2096944,1.8533708,0.17572121,-3.3475935,2.0176108,-8.981245
180,1747533747890,-2.213355,1.9592916,0.06638357,-2.7771444,1.5137408,-8.46832
181,1747533747900,-2.1738179,1.9880903,-0.042954076,-2.5614283,1.4503576,-8.09601
182,1747533747910,-2.12720295,1.9710063,-0.067359803,-2.3558323,1.4578145,-7.6256957
183,1747533747920,-1.9883344,1.8592281,-0.09396204,-2.253567,1.4008228,-7.34127
184,1747533747930,-1.7760046,1.6617858,0.05296042,-2.018676,0.8516789,-7.0504527
185,1747533747940,-1.6727684,1.5954022,0.08615221,-1.8695391,0.4644553,-6.9945264
186,1747533747950,-1.5768539,1.5712405,0.013911263,-1.7630126,0.15446335,-6.91836
187,1747533747960,-1.52645605,1.56660345,-0.032459616,-1.7459684,0.084155894,-6.849384199999999
188,1747533747970,-1.346952,1.530483,-0.14008886,-1.7390442,0.0101200123499999,-6.69971445
189,1747533747980,-1.144506475,1.4804513,-0.12422514,-1.7832527,-0.0588558616499999,-6.47334575
190,1747533747990,-0.94206095,1.4304196,-0.10836142,-1.8514296,-0.13369069,-6.2227426
191,1747533748000,-0.81197846,1.4230978,-0.14228538,-1.8945729,0.006924219,-6.1023674
192,1747533748010,-0.75877398,1.42175545,-0.1383804599999999,-1.9129487,0.0852211595,-6.0264673
193,1747533748020,-0.549006785,1.39881405,-0.127275855,-1.9579561,0.2577939999999999,-5.8573566
194,1747533748030,-0.255405915,1.36428,-0.11275445,-2.0165456500000003,0.4897553249999999,-5.6341837
195,1747533748040,0.24454537,1.338654,-0.02391761,-1.9803267,0.66845345,-5.4520235
196,1747533748050,0.24454537,1.338654,-0.02391761,-1.9803267,0.66845345,-5.4520235
197,1747533748060,1.3035098,1.2776396,0.42051062,-1.5393072,0.594950195,-5.50794975
198,1747533748070,2.170645,1.6085813,0.7482795,1.4242586,-0.5600627850000001,-5.07918095
199,1747533748080,2.5586963,1.8450727,0.64040625,1.7496969,-0.82611257,-4.8741174
200,1747533748090,3.0070293,2.0193298,0.4825012,2.0612867,-1.1669972,-4.414456
201,1747533748100,3.5100315,2.114512,0.18621568,1.9760655,-0.98377174,-3.9515984
202,1747533748110,3.8419491,2.18065155,-0.07102066,1.25701203,-0.35047202,-3.31004295
203,1747533748120,4.2370777,2.298043,-0.16791138,-0.20080236,0.9012137,-1.804558
204,1747533748130,4.22939015,2.2905992,-0.03355787,-0.40906158,1.05940545,-1.3582121850000002
205,1747533748140,4.0640416,2.233368,0.40903994,-0.73982614,0.9054748,0.20559604
206,1747533748150,3.6750138,2.161371,0.5051985,-0.26738137,-0.5603291,1.8583539
207,1747533748160,3.4407191,2.1208575,0.2169669,-0.055926383,-1.158475,2.6354642
208,1747533748170,3.32357165,2.07704925,0.03563236,-0.0359526745,-1.298291,2.9880668
209,1747533748180,2.899156,1.8731394,-0.5759751,-0.18535602,-1.3880396,3.9446743
210,1747533748190,2.6158056,1.7184072,-0.81271064,-0.46818373,-1.1579424,4.43949
211,1747533748200,1.8965688,1.521941,-0.89398164,-0.6780408,-0.7185209,5.2283177
212,1747533748210,1.7295117,1.48093935,-0.8901988000000001,-0.55633435,-0.540621725,5.40382035
213,1747533748220,1.2202863,1.3720899,-0.8715284,-0.29507825,-0.2271676449999999,5.66427765
214,1747533748230,1.0057599499999998,1.3805098,-0.85847135,-0.0356863525,0.021038975,5.82619765
215,1747533748240,0.42636803,1.4047935,-0.7551131,0.28229508,0.294013,6.0517673
216,1747533748250,-0.29213652,1.5302389,-0.5103237,0.55287224,0.26205507,6.468818
217,1747533748260,-0.41990049,1.5620884,-0.4578514,0.60933125,0.214650795,6.607302499999999
218,1747533748270,-0.64065028,1.60675085,-0.36559776,0.69162293,0.1177117225,6.880542999999999
219,1747533748280,-0.8468786,1.5983309,-0.25723633,0.67697555,-0.05486112,7.2251563
220,1747533748290,-0.93059033,1.5802706,-0.19744232,0.535828,-0.20453078,7.398794
221,1747533748300,-1.0287013,1.5924735,-0.19280522,0.23169503,-0.15606125,7.5330176
222,1747533748310,-1.0823939,1.6405529,-0.20281157,0.11717909,-0.011717909,7.577226
223,1747533748320,-1.1653733,1.7047399,-0.1871919,0.05912218,0.14434333,7.6416745
224,1747533748330,-1.292283,1.7933327,-0.14936304,0.06231797,0.26525086,7.768441
225,1747533748340,-1.4997318,1.8919317,-0.014399378,0.34887412,0.25193503,8.1013365
226,1747533748350,-1.6061407,1.9539223,0.036608588,0.62051654,0.03781689,8.2440815
227,1747533748360,-1.67996805,2.0007813,0.039781332,0.7590009200000001,-0.15659387,8.34102075
228,1747533748370,-1.880217,2.1059701,-0.03294773,0.9619338,-0.62531024,8.598282
229,1747533748380,-1.8947384,2.13196215,-0.064553145,0.9470201,-0.70254192,8.654741
230,1747533748390,-1.9490411,2.2018845,-0.12471326,0.84635264,-0.81013364,8.706939
231,1747533748400,-1.9610001,2.1694248,-0.10689708,0.86233157,-0.73609775,8.605739
232,1747533748410,-1.9253676,2.1132917,-0.0873725,0.9060074,-0.5992113,8.443819
233,1747533748420,-1.8938842,2.046176,-0.07565775,0.9800433,-0.4495416,8.223309
234,1747533748430,-1.8572757,2.0181093,-0.08297946,1.0594054,-0.22849922,7.972972
235,1747533748440,-1.85959425,2.03141045,-0.132034965,0.9150621,0.03275689,7.73914625
236,1747533748450,-1.8985213,2.067165,-0.19060871,0.4676511,0.47031426,7.423828
237,1747533748460,-1.9198763,2.0736324,-0.177185555,0.309991955,0.51665328,7.4224965
238,1747533748470,-1.9993169,2.076195,-0.09005712,-0.06338324,0.53955644,7.460047
239,1747533748480,-2.1474595,2.147704,-0.024405725,-0.09640643,0.283893,7.523963
240,1747533748490,-2.200664,2.1804073,-0.10396838,-0.06764429,0.221575,7.474428
241,1747533748500,-2.2226293,2.1987116,-0.22526483,-0.10652645,0.31798145,7.3769565
242,1747533748510,-2.23263565,2.1738178,-0.26492413,-0.14807176,0.4740427,7.32582375
243,1747533748520,-2.306341,2.0864456,-0.3692586,-0.4245079,1.23837,7.122891
244,1747533748530,-2.5430765,2.0073707,-0.33240595,-0.6892261,1.4855113,6.9961243
245,1747533748540,-2.8713336,1.7162106,-0.06955632,-0.922519,0.8479505,6.8182254
246,1747533748550,-2.9811594,1.7379317,0.026846299,-0.71798825,0.10546118,6.7718863
247,1747533748560,-3.0360722,1.7801536,-0.0180602355,-0.54461646,-0.22929816,6.83606835
248,1747533748570,-3.1085572,1.880217,-0.20842488,0.043675844,-0.8740495,7.1420655
249,1747533748580,-2.9916537,1.679602,-0.46932206,0.6609966,-0.33076462,7.3418026
250,1747533748590,-3.1429691,1.5080298,-0.51642513,0.74461985,0.23116238,7.265104
251,1747533748600,-3.4805005,1.3032657,-0.57451075,0.6332997,0.6849651,7.236874
252,1747533748610,-3.71552765,1.25115945,-0.591838805,0.52650694,0.83010735,7.2667015
253,1747533748620,-4.471373,1.0030752,-0.5530337,0.25086978,1.0700581,7.3652387
254,1747533748630,-4.955338,0.71899265,-0.439059,0.23062976,0.92092115,7.3561835
255,1747533748640,-5.972325,0.07565775,-0.2757847,0.783502,0.20559604,6.788398
256,1747533748650,-6.3979607,-0.16400647,-0.3443648,1.2303804,0.07563378,6.0853233
257,1747533748660,-6.65885785,-0.28127597,-0.434055825,1.31054155,0.074568515,5.64749965
258,1747533748670,-7.2965794,-0.6269831,-0.64162654,1.2815131,0.082025364,4.1278996
259,1747533748680,-7.8252077,-0.6343048,-0.5749989,1.0610034,-0.037284255,2.470881
260,1747533748690,-7.669499,-0.40147418,-0.39805737,1.0338391,-0.94275904,-0.40906155
261,1747533748700,-7.232636,-0.14887492,-0.09664667,1.2857742,-1.5227956,-1.9121497
262,1747533748710,-6.96551565,0.0236735599999999,0.044662475,1.4655376,-1.73611475,-2.56515685
263,1747533748720,-6.6983953,0.19622204,0.18597162,1.645301,-1.9494339,-3.218164
264,1747533748730,-5.1771865,1.39796,-0.00976229,1.75688745,-2.1379857,-4.5031393
265,1747533748740,-4.826964,1.5414655,-0.09835507,0.103863284,-1.5227956,-5.3241916
266,1747533748750,-4.433544,1.5761217,0.05344854,-0.6487461,-1.28897,-5.6182046
267,1747533748760,-4.433544,1.5761217,0.05344854,-0.7155914,-1.3044163,-5.77027105
268,1747533748770,-4.433544,1.5761217,0.05344854,-0.7824367,-1.3198626,-5.9223375
269,1747533748780,-3.9412806,1.8035831,0.20012695,-0.41225734,-1.5739282,-6.472547
270,1747533748790,-3.5351691,1.8506861,-0.046614934,-0.26365295,-1.351288,-7.1532507
271,1747533748800,-3.394104,1.8985213,-0.13569583,-0.34780884,-0.9805759,-7.561247
272,1747533748810,-3.22899935,1.89193175,-0.158149095,-0.45779742,-0.4934837433499999,-8.0249035
273,1747533748820,-2.9235618,1.8782645,-0.16278619,-0.6215818,0.5837649,-9.126121
274,1747533748830,-2.8366773,1.8987653,-0.14789869,-0.6013418,0.94968325,-9.59963
275,1747533748840,-2.788598,1.9380586,-0.16766733,-0.561927,1.1978899,-10.012953
276,1747533748850,-2.7314887,1.9912632,-0.17206036,-0.52837116,1.3235911,-10.390057
277,1747533748860,-2.7673652,2.2177482,-0.20476402,-0.55766594,1.2458268,-10.941864
278,1747533748870,-2.6973207,2.331723,-0.298482,-0.58429754,1.0764498,-11.224159
279,1747533748880,-2.6453364,2.46327,-0.35705575,-0.54807854,1.019458,-11.508585
280,1747533748890,-2.642896,2.5635774,-0.43808278,-0.509729,1.0572749,-11.704594
281,1747533748900,-2.6187344,2.622395,-0.50666285,-0.53103435,1.0450244,-11.822838
282,1747533748910,-2.6187344,2.622395,-0.50666285,-0.53103435,1.0450244,-11.822838
283,1747533748920,-2.5757802,2.7041545,-0.41562948,-0.2892193,0.6625945,-11.69394
284,1747533748930,-2.5815156000000004,2.68316545,-0.3265485999999999,-0.15899072,0.4708468999999999,-11.6350845
285,1747533748940,-2.587251,2.6621764,-0.23746772,0.23062976,-0.2428803,-11.400992
286,1747533748950,-2.5342906,2.7478404,-0.38927132,0.49215218,-1.0061423,-10.708038
287,1747533748960,-2.4746186,2.73222075,-0.4189242749999999,0.4972121899999999,-1.0631339,-10.4995125
288,1747533748970,-2.3501493,2.6793824500000003,-0.45699719,0.4905543,-1.1102718500000002,-10.106164
289,1747533748980,-2.15771,2.5135455,-0.43368974,0.45593318,-0.98803276,-9.530921
290,1747533748990,-2.08900795,2.4641239500000003,-0.421608895,0.4564658099999999,-0.92624743,-9.4310525
291,1747533749000,-1.7747843,2.21604,-0.34290043,0.49002165,-0.69721556,-9.224658
292,1747533749010,-1.6774055,2.0991364,-0.32459614,0.39148468,-0.3685815,-9.038769
293,1747533749020,-1.5204766,1.94416,-0.25089085,0.24181503,-0.31638354,-8.942363
294,1747533749030,-1.5204766,1.94416,-0.25089085,0.24181503,-0.31638354,-8.942363
295,1747533749040,-1.29631,1.68960835,-0.130570625,0.036751624,-0.345412,-8.77192025
296,1747533749050,-1.1158297,1.5060773,-0.04905551,0.061252706,-0.304133,-8.534367
297,1747533749060,-1.0157663,1.4545813,-0.14960709,0.051665325,-0.024501082,-8.31652
298,1747533749070,-0.97647305,1.41687435,-0.18511742,-0.0159789675,0.179230749,-8.182829
299,1747533749080,-0.780251,1.2952118,-0.18157859,-0.28229508,0.73769563,-7.8158455
300,1747533749090,-0.63162017,1.2249234,-0.11348662,-0.5368933,1.0317086,-7.5937376
301,1747533749100,-0.28237423,1.1429201,-0.01513155,-0.9986854,1.4343786,-7.2331457
302,1747533749110,-0.1466784,1.0926442,0.10884953,-1.0721886,1.5648735,-7.134076
303,1747533749120,-0.04515059,1.0714114,0.14423785,-1.1579424,1.4370418,-6.970558
304,1747533749130,-0.009274175,1.2717823,0.21281794,-1.2660668,1.2101405,-6.6871977
305,1747533749140,0.63284045,1.5336558,0.26919514,-0.829841,0.7142598,-6.073605
306,1747533749150,0.96719885,1.6439695,0.0605262,-0.7323693,0.8293084,-5.721535
307,1747533749160,1.064211625,1.73463685,-0.044540445,-0.7262440299999999,1.07325395,-5.48957385
308,1747533749170,1.3451215,1.90376855,-0.117147478,-0.70280823,1.52625765,-5.05334835
309,1747533749180,1.6691075,2.0755848,0.057719542,-0.565389125,1.80615585,-4.67331535
310,1747533749190,2.2658274,2.6236155,0.5874458,0.3888215,1.5259913,-3.6985981
311,1747533749200,2.4964616,2.861083,0.65993077,0.793622,1.2868395,-3.2874062
312,1747533749210,2.6826773,3.1998346,0.66798466,1.1403656,1.087635,-2.5651567
313,1747533749220,2.8288677,3.4512136,0.67506236,1.24849,0.9187906,-1.8407769
314,1747533749230,2.8852448,3.6647635,0.67799103,1.1526161,0.608266,-0.07350325
315,1747533749240,2.7373462,3.662323,0.71777236,1.0247844,0.3520699,1.0162623
316,1747533749250,2.4906042,3.5066147,0.7541369,0.8815063,-0.092145376,2.1358552
317,1747533749260,2.3739449,3.3983753,0.744496635,0.839961,-0.3906857379999999,2.64451895
318,1747533749270,2.0151806,3.0238693,0.647972,0.82877576,-1.2969595,4.0298953
319,1747533749280,1.3803878,2.489628,0.19280522,0.9305085,-1.7907095,4.786766
320,1747533749290,1.0477377,2.2631428,-0.04148973,1.3049489,-2.2429142,6.14338
321,1747533749300,0.7197248,2.0449557,-0.23356278,1.5478293,-2.18539,6.5684204
322,1747533749310,0.40489095,1.833114,-0.34045988,1.8125474,-2.0453076,6.913566
323,1747533749320,0.251989098,1.75440555,-0.363889365,1.9270633,-1.9744676,7.084541
324,1747533749330,-0.622346,1.5043689,-0.44027928,2.2391858,-1.6474315,8.089086
325,1747533749340,-0.6240544,1.3606192,-0.47591165,2.2295985,-1.3688648,8.2818985
326,1747533749350,-0.7834238,1.291551,-0.52301466,2.1198764,-0.9853696,8.334629
327,1747533749360,-0.88995475,1.3273054,-0.50287996,2.0314594,-0.7182545499999999,8.391088
328,1747533749370,-1.2078394,1.4255384,-0.38609856,1.87406655,-0.27217507,8.5370295
329,1747533749380,-1.2886223,1.4481137,-0.349001855,1.73371795,0.041278995,8.736234
330,1747533749390,-1.7481819,1.5441502,-0.17157225,1.4945661,0.29667616,9.300291
331,1747533749400,-1.9021822,1.50925,-0.12495731,1.5648735,0.2806972,9.42759
332,1747533749410,-1.9241473,1.48679675,-0.1023820149999999,1.64024095,0.272175075,9.4313185
333,1747533749420,-1.9983407,1.4853324,-0.10201593,1.8604844,0.33129725,9.362077
334,1747533749430,-2.072046,1.5785623,-0.17059602,1.8924423,0.49534798,9.290704
335,1747533749440,-2.054718,1.7232883,-0.31678632,1.4956313,1.1659319,9.189504
336,1747533749450,-2.062528,1.7994341,-0.3162982,1.1638014,1.4583471,9.189504
337,1747533749460,-2.05374185,1.8149317,-0.30494955,0.97977695,1.5616777,9.1998905
338,1747533749470,-2.0439795,1.85239445,-0.256260125,0.6354302199999999,1.7148094,9.23318
339,1747533749480,-2.1718655,1.8946164,-0.12715383,0.32969934,1.7901769,9.29603
340,1747533749490,-2.2836437,1.9392788,0.031483386,0.7302388,1.6229304,9.30615
341,1747533749500,-2.4088452,1.974179,0.08297946,1.2239889,1.3326459,9.440373
342,1747533749510,-2.4622936,1.9844296,0.041001618,1.6287893,0.9912286,9.6422415
343,1747533749520,-2.455582,1.9771079,-0.052106226,1.8961707,0.64821345,9.872871
344,1747533749530,-2.4156787,1.9373264,-0.26626647,1.7166736,0.5219796,10.083794
345,1747533749540,-2.3151271,1.8755801,-0.37218732,1.4162691,0.7185209,9.996442
346,1747533749550,-2.2326357,1.8904674,-0.49446,1.0359697,1.0572749,9.810553
347,1747533749560,-2.298531,1.9985847,-0.5789038,0.7057377,1.4450313,9.626795
348,1747533749570,-2.4327626,2.0659447,-0.56011134,0.5864281,1.8865833,9.522932
349,1747533749580,-2.758091,2.0317764,-0.28920785,0.99069595,2.1891184,9.2939
350,1747533749590,-2.9430861,1.9556307,-0.1313028,1.5638082,1.8530275,9.10162
351,1747533749600,-3.03289925,1.92829635,-0.147044495,1.7425063,1.7251958,9.020127
352,1747533749610,-3.1496807,1.8550792,-0.174622965,1.995773,1.47938605,8.837434
353,1747533749620,-2.958462,1.6246891,-0.3807293,1.5696672,1.2809805,7.867511
354,1747533749630,-3.0912292,1.7396401,-0.45126185,1.1100056,1.3880396,7.394533
355,1747533749640,-3.2110612,1.820423,-0.29262465,0.93636745,1.6239957,7.011038
356,1747533749650,-3.407771,1.7882075,-0.20574026,0.984837,1.8546255,6.7452545
357,1747533749660,-3.6562216,1.4509203,-0.02391761,1.5611451,1.9819245,6.401174
358,1747533749670,-3.7953343,1.2197981,-0.12642166,1.6777915,2.0628846,6.231797
359,1747533749680,-3.9154105,1.108264,-0.3431445,1.5190672,2.369681,6.015548
360,1747533749690,-4.0773425,1.0795873,-0.446136665,1.0982877,2.815494,5.8797274
361,1747533749700,-4.7298293,0.95597225,-0.6062382,0.5992113,3.197924,5.9702744
362,1747533749710,-5.32264445,0.694830995,-0.4977547599999999,0.5992113,3.197924,5.9702744
363,1747533749720,-6.07983205,0.205740266,-0.2219700724999999,0.428502625,2.9411951,6.325806849999999
364,1747533749730,-6.2442045,-0.022209208,-0.054668825,0.65034395,2.64878,6.27281
365,1747533749740,-6.7240214,-0.6347929,-0.040269446,1.911617,0.84848315,4.727111
366,1747533749750,-6.84605,-0.8075854,-0.48152497,1.8924423,0.5470133,2.5193505
367,1747533749760,-6.817861199999999,-0.8291845,-0.443940145,1.7608821,0.59255335,1.8897792
368,1747533749770,-6.7199941,-0.7914777,-0.28127598,1.5507587,0.5882923,0.6290386855
369,1747533749780,-6.343536,-0.53350914,0.136428,1.474326,0.27643612,-1.2128036
370,1747533749790,-6.14609365,-0.3943965,0.27981162,1.50628395,0.09906959,-1.7411748
371,1747533749800,-5.307269,0.4471129,0.673842,1.4173343,-1.0056096,-3.6485307
372,1747533749810,-5.0114713,0.71264714,0.5620638,0.9491506,-1.5435683,-4.037352
373,1747533749820,-4.7298293,0.8881243,0.33142975,0.016511599,-2.2120216,-4.3047338
374,1747533749830,-4.265632350000001,0.954996,0.1027481,-0.752343035,-2.7414580500000003,-4.676244499999999
375,1747533749840,-4.136526,0.9786696,0.0388051,-0.8836369,-2.8463867,-4.826713
376,1747533749850,-3.8695276,1.0575,-0.16937573,-0.5278385,-2.6855316,-5.5708003
377,1747533749860,-3.79484605,1.0433447500000002,-0.2089130049999999,-0.4098604799999999,-2.5875273,-5.82646395
378,1747533749870,-3.5798316,1.019183,-0.2889638,-0.20985709,-2.2876554,-6.676545
379,1747533749880,-3.45341,1.104359,-0.34656128,-0.3339604,-2.108691,-7.2523203
380,1747533749890,-3.2125256,1.292039,-0.50593066,-0.99069595,-1.375789,-8.298943
381,1747533749900,-3.0929375,1.3606192,-0.50495446,-1.180313,-1.037035,-8.677645
382,1747533749910,-3.0326555,1.3337729,-0.53887844,-1.1984226,-0.7392935,-9.072325
383,1747533749920,-2.9555333,1.261532,-0.5791479,-0.9917612,-0.49055427,-9.551161
384,1747533749930,-2.932836,1.2454242,-0.6640798,-0.67537767,-0.23435818,-10.080065
385,1747533749940,-2.9777424,1.3327967,-0.90520835,-0.20240025,0.1917476,-11.095795
386,1747533749950,-2.997267,1.3945432,-0.98062205,-0.09161274,0.39468047,-11.574099
387,1747533749960,-3.0166695,1.42602655,-1.008322525,-0.061252705,0.489222685,-11.80606
388,1747533749970,-3.0846395,1.5631866,-1.0809295,-0.046871635,0.78909465,-12.665462
389,1747533749980,-3.1139264,1.6913167,-1.0736078,-0.0628506,0.8362326,-12.805012
390,1747533749990,-3.0965981,1.8963249,-1.147069,-0.050866376,1.46207545,-13.13257975
391,1747533750000,-3.0629184,1.9326893,-1.120955,0.013848438,1.6405072,-13.184245
392,1747533750010,-3.095378,1.9160933,-1.0343146,0.29667616,1.9494339,-13.306751
393,1747533750020,-3.17128,1.9143851,-1.0006347,0.60773337,2.1720743,-13.363743
394,1747533750030,-3.2499885,1.9773518,-0.940840675,0.728640885,2.19764065,-13.3043545
395,1747533750040,-3.2840343,1.9897987,-0.8022162,1.0487529,2.1033647,-12.673984
396,1747533750050,-3.1412606,1.8453168,-0.7136234,0.9827065,2.0714068,-12.561066
397,1747533750060,-3.08683595,1.7725878,-0.67835712,0.9171927,2.07007515,-12.5472175
398,1747533750070,-2.992142,1.5714846,-0.5418071,0.6609966,1.9861856,-12.504607
399,1747533750080,-2.8720658,1.46080465,-0.5214283,0.2050634,2.0516994,-12.341088
400,1747533750090,-2.6925616,1.3014353,-0.5243569800000001,0.07057377,2.2333269,-12.2324315
401,1747533750100,-2.5259924,1.125348,-0.4927516,-0.17630126,2.57208095,-11.9986065
402,1747533750110,-2.4823062,1.07080115,-0.42368339,-0.32463933,2.88074135,-11.746405
403,1747533750120,-2.421658,0.97195795,-0.318128615,-0.350472,3.171026,-11.50459
404,1747533750130,-2.3632064,0.6936107,-0.107873306,-0.23222765,3.652259,-10.961572
405,1747533750140,-2.3632064,0.545468,0.07370529,-0.15339808,3.3507893,-10.759704
406,1747533750150,-2.1860206,0.3824377,0.32166746,0.11025487,2.8234835,-10.682472
407,1747533750160,-2.16246915,0.37438382,0.33362627,0.267647685,2.61522425,-10.6401275
408,1747533750170,-2.0932791,0.40830776,0.22526483,0.55074173,2.0437098,-10.379937
409,1747533750180,-1.6393324,0.54668826,0.20964517,0.1768339,1.7193369,-9.593772
410,1747533750190,-1.3860011,0.62503064,0.14497001,-0.3717773,1.7235979,-9.116533
411,1747533750200,-1.1873385,0.80368054,0.1513155,-1.2330436,1.7731327,-8.4161215
412,1747533750210,-1.0308977,0.97208,0.30507156,-1.7891116,1.6990968,-7.80466
413,1747533750220,-0.878118,1.2056428,0.4583395,-2.0618193,1.5701998,-7.214504
414,1747533750230,-0.7370529,2.0222585,0.38536638,-1.6245283,1.7741979,-6.2301993
415,1747533750240,-0.70166457,2.550398,0.5806122,-0.76912093,2.0719395,-5.713013
416,1747533750250,-0.73412424,3.1026998,0.9767171,0.5853628,2.2993734,-5.0173955
417,1747533750260,-0.62576279,3.35493305,1.2067411,1.3779196,2.1230721,-4.6323025
418,1747533750270,-0.26992732,4.0657496,1.6427493,3.5926044,1.139833,-3.428021
419,1747533750280,0.30800024,5.0419784,1.3069266,4.898086,0.4841627,-1.0487529
420,1747533750290,0.37975308,5.303608,1.2288283,4.6051383,0.737163,0.25033715
421,1747533750300,0.5872018,5.435643,1.3762388,4.001666,0.7275756,1.4833808
422,1747533750310,0.63186425,5.400987,1.5195004,3.3641052,0.49428272,2.5624936
423,1747533750320,0.5693855,5.317519,1.598575,2.841593,0.06924219,3.526558
424,1747533750330,0.38487828,4.8203745,1.325719,2.1153489,-0.664725035,5.647233
425,1747533750340,0.22843759,4.4642954,1.0843463,2.021872,-0.70627034,6.014483
426,1747533750350,0.013911263,4.0245037,0.9725681,1.9393139,-1.0029465,6.813964
427,1747533750360,-0.1448479835,3.7775179,0.87970433,1.9619508,-1.18217725,7.1631045
428,1747533750370,-0.60184515,3.1214921,0.6050179,2.1385183,-1.6367788,8.274974
429,1747533750380,-1.1800168,2.3466103,0.37413976,2.8016455,-2.2525017,9.801498
430,1747533750390,-1.4594624,2.0063946,0.2545517,3.2874062,-2.6264095,10.516824
431,1747533750400,-1.6869236,1.7559919,0.13764828,3.8088531,-2.932673,11.176755
432,1747533750410,-1.7706353,1.64409165,0.102259985,4.09114805,-3.0162963,11.4619795
433,1747533750420,-1.9229271,1.4477476,0.03148338705,4.66852135,-3.1081754000000004,11.973839
434,1747533750430,-2.2484994,1.1634209,-0.27602875,6.1300645,-2.128931,12.832708
435,1747533750440,-2.54405285,1.1866063,-0.19695421,6.73140625,-1.3773869,13.116335
436,1747533750450,-2.6546109,1.1946602,-0.13349932,6.931676,-1.1638014,13.21141
437,1747533750460,-3.022161,1.2610438,-0.08175918,7.6219673,-0.38242993,13.595438
438,1747533750470,-3.1524875,1.3223021,-0.006345488,7.739146,-0.14753912,13.726997
439,1747533750480,-3.2496223,1.437009,0.0024405725,7.8302264,0.02876214,13.783457
440,1747533750490,-3.1571245,1.4907017,-0.117635585,7.7838874,0.39254996,13.659353
441,1747533750500,-3.0774399,1.58502985,-0.1842632175,7.2901373,1.6809874,12.5434885
442,1747533750510,-2.7651687,1.7508667,-0.22477673,7.054181,2.1385183,11.743475
443,1747533750520,-2.579441,1.7469617,-0.18206671,6.853379,2.5268073,10.769824
444,1747533750530,-2.3929813,1.8013865,-0.2438132,6.5833344,3.0328078,9.766877
445,1747533750540,-2.3766294,1.9404991,-0.4617563,6.054963,3.6943371,8.956743
446,1747533750550,-2.4881637,2.1379416,-0.5435155,5.3678675,4.470915,8.410263
447,1747533750560,-2.66425095,2.25838385,-0.360716615,4.76333,4.8916945,8.1490068
448,1747533750570,-2.9338121,2.41592275,-0.08969103675,3.99181225,5.354552,7.8541948
449,1747533750580,-3.0972085,2.47254395,0.08066092325,3.72070245,5.386776,7.8121168
450,1747533750590,-3.1402845,2.4247088,0.26943922,3.5052526,5.260276,7.75406
451,1747533750600,-2.8930547,2.3170795,0.1461903,2.8101676,5.2102084,7.425426
452,1747533750610,-2.8058041,2.2766881000000003,0.091033358,2.5033715,5.2821137,7.2877405
453,1747533750620,-2.6795045,2.21616185,0.0007321729999999,1.88152335,5.4650728,7.01636435
454,1747533750630,-2.7207503,2.2319036,-0.08859278,0.98590225,5.848302,6.761766
455,1747533750640,-2.9228296,2.2865725,-0.029774986,0.5965481,6.043778,6.813964
456,1747533750650,-3.1822624,2.1767466,0.56523657,0.7957525,5.5984974,7.3753586
457,1747533750660,-3.1788456,2.0225024,0.80246025,0.9827065,4.899684,7.752462
458,1747533750670,-3.1366239,1.8994975,0.7143555,0.95447695,4.3542686,8.167915
459,1747533750680,-3.0834193,1.7840585,0.4497975,0.6221144,4.1486726,8.57964
460,1747533750690,-3.201299,1.2978964,0.2865232,-0.2977414,4.203001,9.072325
461,1747533750700,-3.035096,0.75486904,0.7394935,0.10865697,3.6155076,8.577509
462,1747533750710,-2.8929327,0.5114219449999999,0.93132245,0.703074535,3.04665635,8.0470075
463,1747533750720,-2.7981162,0.22965786,1.0391958,2.680738,1.3289174,6.3734775
464,1747533750730,-2.9806712,0.43491003,0.7165521,3.9100533,0.777643,5.376922
465,1747533750740,-3.389223,1.0030752,0.26821893,4.2892876,1.077515,4.9540124
466,1747533750750,-3.6986876,1.1526824,0.358032,3.850931,2.422944,5.0349727
467,1747533750760,-3.9683707,1.1033828,0.62600684,3.4999263,2.9454563,5.234177
468,1747533750770,-4.369601,0.99087244,0.8297946,3.1808796,3.1132355,5.392369
469,1747533750780,-4.9489927,0.8439499,0.88226694,2.8815403,3.0679617,5.486112
470,1747533750790,-6.2673903,0.7582859,1.0367552,2.7217507,2.683401,5.3098106
471,1747533750800,-6.5609913,0.579636,1.3474401,3.1009848,2.0809941,4.5923553
472,1747533750810,-6.57807495,0.51813355,1.48045125,3.3412019,1.53238292,3.6970004
473,1747533750820,-6.3889303,0.35437113,1.7433008,3.5377433,0.002130529,0.94116116
474,1747533750830,-6.2168703,0.6440671,1.5734371,2.8112328,-0.793622,-0.92092115
475,1747533750840,-5.931323,1.441158,1.0645777,-0.04580637,-1.0210559,-3.4173684
476,1747533750850,-5.7331486,1.6681312,1.0233321,-1.3949639,-0.9598033,-3.9297607
477,1747533750860,-5.4895797,1.7591647,1.1502419,-2.2301311,-1.1771172,-4.0815606
478,1747533750870,-5.210378,1.8218873,1.2188219,-2.487925,-1.7347832,-4.0224385
479,1747533750880,-4.808904,1.854835,0.9488945,-1.7859159,-3.5089812,-3.5633097
480,1747533750890,-4.5809546,1.8087083,0.6975156,-1.4247912,-4.1278996,-3.459979
481,1747533750900,-4.3212776,1.769171,0.43100512,-1.3070794,-4.486361,-3.5649076
482,1747533750910,-4.1858258,1.75135475,0.324962235,-1.4269217,-4.5673213,-3.933489
483,1747533750920,-3.925905,1.71645455,0.157050835,-1.56087875,-4.51538965,-4.2373558
484,1747533750930,-3.491971,1.7186512,-0.14179726,-2.088451,-4.2168493,-5.29756
485,1747533750940,-3.4368143,1.7943089,-0.2796896,-3.1696944,-3.255448,-6.9508505
486,1747533750950,-3.401914,1.7855228,-0.44467232,-3.8088531,-2.4607608,-7.7300916
487,1747533750960,-3.3692104,1.77185565,-0.48274526,-4.22404005,-1.9646139,-8.1663173
488,1747533750970,-3.2440088,1.7037637,-0.4724948,-5.1377707,-0.8016115,-9.25342
489,1747533750980,-3.077318,1.5277983,-0.44369608,-5.5968995,0.29880667,-10.671287
490,1747533750990,-3.0341196,1.4147999,-0.4825012,-5.6549563,0.7366304,-11.495269
491,1747533751000,-2.9569976,1.2661691,-0.59061855,-5.6379123,1.2511531,-12.4092655
492,1747533751010,-2.9360087,1.1839217,-0.7465711,-5.618737,1.9212044,-13.350427
493,1747533751020,-3.0543764,1.1050912,-0.9469421,-5.5351143,3.5084486,-14.981347
494,1747533751030,-3.175917,1.070191,-0.84053314,-5.0349727,4.2338934,-15.704661
495,1747533751040,-3.2132578,1.1028948,-0.61892915,-4.2541337,4.459197,-16.09295
496,1747533751050,-3.347245,1.2400548,-0.5195979,-3.2671661,4.383563,-16.210129
497,1747533751060,-3.4259536500000003,1.3242546000000002,-0.52277065,-2.75610555,4.249606,-16.0977435
498,1747533751070,-3.5285797,1.5497636,-0.5762192,-1.284709,3.7555897,-15.517175
499,1747533751080,-3.4507256,1.7337828,-0.7311955,0.2775014,2.9300098,-13.978932
500,1747533751090,-3.3509061,1.7618494,-0.7968469,0.8250473,2.4644892,-13.005281
501,1747533751100,-3.1678631,1.6922929,-0.8886124,1.1941614,2.0282636,-12.120579
502,1747533751110,-3.0659692,1.5883245499999998,-0.925099,1.3225258,1.8655444,-11.790347
503,1747533751120,-2.7763953,1.3071706,-1.0079564,1.5662051,1.5739282499999998,-11.2111095
504,1747533751130,-2.4918244,1.040416,-1.1792847,1.8346517,1.562743,-10.8361365
505,1747533751140,-2.4239767,0.9855032,-1.2188219,2.0426445,1.9861856,-10.654775
506,1747533751150,-2.3783379,0.9386441,-1.1712307,2.0490363,2.2615564,-10.541857
507,1747533751160,-2.31244245,0.90618455,-1.1052132499999998,2.06394995,2.38459445,-10.4747455
508,1747533751170,-2.2045691,0.8788502,-0.9880658,2.1156151,2.7222834,-10.212157
509,1747533751180,-2.1196373,0.912286,-0.91863143,2.0485036,2.906574,-9.943178
510,1747533751190,-1.9793042,0.8866599,-0.8849516,1.442368,3.2037828,-9.325325
511,1747533751200,-1.9165816,0.8768977,-0.8700641,1.123854,3.3955305,-9.01267
512,1747533751210,-1.850198,0.8295506,-0.8078295,0.85487473,3.5739622,-8.671785
513,1747533751220,-1.7677068,0.7670719,-0.64040625,0.7797736,3.5872781,-8.350076
514,1747533751230,-1.658369,0.70312893,-0.2613853,1.2820457,3.1579764,-7.646468
515,1747533751240,-1.5221851,0.66969305,-0.2072046,1.5962988,2.8916605,-7.334346
516,1747533751250,-1.3974718,0.6672525,-0.20598431,1.7949706,2.702576,-7.0728235
517,1747533751260,-1.34414525,0.68360435,-0.235759295,1.799498,2.6607644,-6.96922625
518,1747533751270,-1.1465809500000002,0.76890237,-0.20281157,1.5582156,2.74678445,-6.7300743
519,1747533751280,-0.9276616,0.9554841,0.08419975,0.91346425,2.684999,-6.4485784
520,1747533751290,-0.81319875,1.0887394,0.2997023,0.5486112,2.4485104,-6.321279
521,1747533751300,-0.7584078949999999,1.2993608,0.44601462,0.347542535,2.30656385,-6.2448463
522,1747533751310,-0.52911615,1.7855228,0.5742667,-0.8175905,1.7534252,-5.2719936
523,1747533751320,-0.47932845,2.102065,0.61111933,-1.1142666,1.973935,-4.5556035
524,1747533751330,-0.46712556,2.2877927,0.75316066,-1.0354371,2.4431841,-3.7278929
525,1747533751340,-0.50495446,2.3722365,1.0042956,-0.54435015,2.7302728,-2.8293424
526,1747533751350,-0.33265,2.5030513,1.4950947,1.4839134,1.9702066,-1.1068097
527,1747533751360,-0.30946457,2.56284525,1.5126668,1.8956381,1.66687255,-0.80187778
528,1747533751370,-0.28627914,2.6226392,1.5302389,2.5092304,1.129712965,-0.262321368
529,1747533751380,0.14814275,2.8086109,1.08532265,2.6557043,0.69029135,0.2428803
530,1747533751390,0.22184804,2.851809,1.0050278,2.2455776,0.7419567,0.4426174
531,1747533751400,0.37096703,2.9128232,0.9686632,0.92944324,1.1526161,0.8090684
532,1747533751410,0.39464056,2.9184365,0.9659786,0.637560785,1.31293845,0.9089369
533,1747533751420,0.36425543,2.90062035,0.97818147,0.1257012099999999,1.71401055,1.15634455
534,1747533751430,0.31776253,2.8357011,1.08703102,0.0178431799999999,1.92386765,1.6066851
535,1747533751440,0.239664215,2.724411,1.4221216,0.12996227,1.892975,1.9094865
536,1747533751450,0.21525851,2.5657737,1.6263975,0.7552725,0.47723848,2.5704832
537,1747533751460,0.2716357,2.4757166,1.4172405,0.8330368,-0.19014971,2.8005803
538,1747533751470,0.32581642,2.4376438,1.134134,0.6961503,-0.6103965,2.9955237
539,1747533751480,0.36047253,2.459365,0.7670719,0.28336033,-0.6540724,3.246926
540,1747533751490,0.37169918,2.447162,0.5086153,-1.00401178,-0.37417415,3.98835
541,1747533751500,0.27651685,2.2358084,0.29774985,-1.6799221,-0.25353295,4.3872914
542,1747533751510,0.1261776,2.1208575,0.28994003,-2.1092236,-0.45859635,4.779309
543,1747533751520,-0.00073217176,1.9688098,0.28286234,-2.3584955,-0.8490158,5.19636
544,1747533751530,-0.1552204,1.8314055,0.11617125,-2.5161545,-1.194694,5.64963
545,1747533751540,-0.54156303,1.5439061,-0.41880223,-2.7771444,-1.500425,6.64725
546,1747533751550,-0.7399816,1.398204,-0.50593066,-2.7190876,-1.6271914,7.2278194
547,1747533751560,-0.9508471,1.2239472,-0.52350277,-2.5337315,-1.9036276,7.88562
548,1747533751570,-1.1685461,1.0616491,-0.5039782,-2.143312,-2.420281,8.837434
549,1747533751580,-1.4248062,0.8917852,-0.5098356,-1.7640779,-2.8916605,9.702429
550,1747533751590,-1.9280523,0.7224094,-0.58427304,-1.0189254,-3.6682382,11.667842
551,1747533751600,-2.1496563,0.6274712,-0.579636,-0.8170578000000001,-3.8115163,12.172777
552,1747533751610,-2.4137263,0.5298483,-0.5544981,-0.08575379,-4.1428137,13.450029
553,1747533751620,-2.55137455,0.489090735,-0.48933479,0.259391905,-4.2557316,13.8971735
554,1747533751630,-2.9233177,0.43759465,-0.23161033,1.4663365,-4.770254,15.036208
555,1747533751640,-3.573486,0.3968371,0.28213018,3.6543896,-6.530604,16.389093
556,1747533751650,-3.9110172,0.33265,0.6543175,5.4211307,-8.293616,17.18165
557,1747533751660,-4.1004057,0.20085911,0.899595,7.055779,-10.059292,17.45276
558,1747533751670,-4.1833854,0.00707766,0.9972179,8.786302,-11.666244,17.336647
559,1747533751680,-3.6569538,-0.3402158,0.8300387,11.57836,-13.55336,14.747521
560,1747533751690,-2.898668,-0.37682438,0.5020258,11.989552,-13.381319,12.402342
561,1747533751700,-2.2982872,-0.06443111,0.14570218,11.761585,-12.946159,11.11497
562,1747533751710,-2.02213635,0.155098395,-0.103968385,10.9402655,-11.552527,8.6952215
563,1747533751720,-1.2344415,0.7390053,-0.68140787,8.727712,-7.8664455,5.67786
564,1747533751730,-1.042856625,1.0129596,-0.4253918,7.095194,-5.09223055,4.37850345
565,1747533751740,-1.0794652,1.4511645,0.40049794,4.5785065,-0.9800433,2.6642263
566,1747533751750,-1.1355984,1.381608,0.8366282,4.0677123,-0.3797668,2.4628913
567,1747533751760,-1.17586785,1.3652562,1.006126,3.94121215,-0.43835633,2.43705865
568,1747533751770,-1.1579296,1.29850655,1.32303435,3.8567899,-0.705205055,2.3670176
569,1747533751780,-0.7055695,0.9171671,1.3789234,4.556136,-1.609082,1.5936357
570,1747533751790,-0.5452239,0.86298645,1.2783719,4.8826394,-1.7837853,1.0173275
571,1747533751800,-0.5344854,0.8715284,1.151218,5.2666674,-1.6197346,0.40373522
572,1747533751810,-0.51593703,0.896910375,1.07470608,5.4043529,-1.3550164,0.22583606
573,1747533751820,-0.52179438,1.007102275,1.06530983,5.736981849999999,-0.409327875,-0.25007082
574,1747533751830,-0.6540734,1.2761754,1.3989362,5.9319253,0.27164245,-0.54807854
575,1747533751840,-0.81685966,1.4814276,1.6432374,5.535647,0.36325517,-0.6785734
576,1747533751850,-0.81539524,1.5463467,1.8726513,5.0408316,0.056991648,-0.5294364
577,1747533751860,-0.6469958,1.4199251,1.9815009,4.549212,-0.23009712,-0.37816888
578,1747533751870,-0.5015376,1.292039,2.0159128,4.239753,-0.14114754,-0.32863408
579,1747533751880,-0.22892569,1.0902036,1.9805247,4.0282974,0.4250405,-0.4181163
580,1747533751890,-0.15668476,0.98794377,2.0554502,4.2077947,0.84688526,-0.38775626
581,1747533751900,-0.186215685,0.956216305,2.10987495,4.322843349999999,1.08204238,-0.290018245
582,1747533751910,-0.21086546,0.8491971700000001,2.229341,4.528173,1.55954715,-0.050866375
583,1747533751920,-0.13496366,0.57280236,2.493777,4.6930227,2.442119,0.2695119
584,1747533751930,-0.09127741,0.20574026,3.2247283,4.5625277,4.2557316,0.3057309
585,1747533751940,-0.1718163,-0.011226633,3.7653153,4.499677,5.294897,0.24554345
586,1747533751950,-0.2950652,-0.0845658364999999,4.05867215,4.4730455,5.8166103,0.237021335
587,1747533751960,-0.500561415,-0.2439352099999999,4.7121355000000005,4.416586499999999,6.850449299999999,0.1283643645
588,1747533751970,-0.9808661,-0.37194324,5.7189937,4.266384,7.6501966,-0.14221281
589,1747533751980,-2.0327528,-0.33020946,6.620785,3.4290862,6.825682,-0.3057309
590,1747533751990,-2.1067023,-0.4886026,6.909261,2.7696877,5.8051586,-0.81918836
591,1747533752000,-2.0112758,-0.6967834,7.1276917,2.3110912,4.6424227,-1.6650083
592,1747533752010,-2.0698495,-0.6158784500000001,7.14135905,2.18539,4.03016185,-2.00429515
593,1747533752020,-1.9912632,0.12154051,6.658126,1.2724584,0.44208476,-2.766492
594,1747533752030,-1.8357986,0.47151858,6.275444,0.3898868,-1.2681973,-2.5023062
595,1747533752040,-1.4736177,0.6208816,5.567678,-0.44581318,-1.9009644,-2.3158848
596,1747533752050,-1.1609803,0.6074585,4.7805934,-1.4322481,-1.6229304,-2.2892532
597,1747533752060,-1.1651293,0.6975156,4.199981,-2.495382,-0.87511474,-2.3281355
598,1747533752070,-1.4831358,0.8283303,3.7160158,-4.1992726,0.38456047,-2.5166874
599,1747533752080,-1.64555595,0.85273605,3.6077764,-4.5097971,0.574976485,-2.5417211
600,1747533752090,-1.9807687,0.8605459,3.260849,-5.289038,0.93796533,-2.7084348
601,1747533752100,-2.21176875,0.96573455,3.15602635,-5.819007,0.760598815,-2.834136
602,1747533752110,-2.3891983000000003,1.08642085,2.93039535,-6.6906597,0.46019425,-2.9499836
603,1747533752120,-2.196027,1.0892274,2.5186708,-7.755125,0.24181503,-3.0285468
604,1747533752130,-2.1032853,1.0767806,2.1755261,-8.4581995,0.4346279,-3.212305
605,1747533752140,-2.08913,1.01479,1.8311615,-9.092565,0.9374327,-3.4637074
606,1747533752150,-1.9900427,0.6726217,1.3008251,-9.710951,1.685781,-3.8573227
607,1747533752160,-1.97527725,0.58915417,1.16879015,-10.207897,2.56755365,-4.53376555
608,1747533752170,-1.9505056,0.3585201,0.71996886,-11.174091,4.5960836,-6.039517
609,1747533752180,-2.038366,0.23039004,0.43100512,-11.57037,5.9883842,-6.8326063
610,1747533752190,-2.0798559,0.137892344,0.34290044,-11.880362,7.7290263,-7.8472705
611,1747533752200,-2.5386834,-0.0976229,0.31751847,-11.806859,9.454755,-9.091499
612,1747533752210,-2.5633332500000003,-0.083955695,0.409406035,-11.5133785,9.55062875,-9.2851115
613,1747533752220,-2.5927422,0.000488112,0.56413835,-10.71442975,9.58045575,-9.553292
614,1747533752230,-2.63569615,0.226851207,0.556328515,-9.60735375,9.4757935,-9.5413075
615,1747533752240,-2.6821892,0.55620646,0.08712844,-7.9388833,9.852631,-9.095228
616,1747533752250,-2.68951095,0.6157564499999999,-0.085786115,-7.19479615,10.5575695,-8.75993575
617,1747533752260,-2.73148875,0.74571692,-0.270903535,-5.9652148,11.6041915,-8.18549175
618,1747533752270,-2.792503,0.8133207499999999,-0.34595115,-5.0509515,12.275841,-7.770305
619,1747533752280,-2.8452194,0.8166155,-0.29726174,-3.6373456,12.957877,-7.325824
620,1747533752290,-2.7446678,0.933519,-0.12983845,-1.768339115,12.2393555,-6.8326063
621,1747533752300,-2.693904,1.0736078,-0.13447554,-0.94542223,11.745605,-6.571084
622,1747533752310,-2.5811496,1.2410312,-0.1552204,-0.44474792,10.990334,-6.109824
623,1747533752320,-2.4571683,1.3388981,-0.22233616,-0.10918961,10.388991,-5.5319185
624,1747533752330,-2.3585694,1.4067459,-0.272856,0.047404267,9.78765,-4.877313
625,1747533752340,-1.9697862,1.4928981,-0.17669745,-0.017044231,8.264854,-3.409379
626,1747533752350,-1.7108413,1.3903941,-0.22184804,-0.23009712,7.786018,-2.9651637
627,1747533752360,-1.63811225,1.3574464,-0.23966421,-0.35792886,7.611581,-2.8032435
628,1747533752370,-1.3957634,1.2053988,-0.19426957,-0.59228706,7.112238,-2.450641
629,1747533752380,-1.2415192,1.0094208,-0.09152147,-0.45060685,6.7862673,-2.390986
630,1747533752390,-1.1016744,0.80392456,0.12007617,0.5581986,5.8925104,-2.4000409
631,1747533752400,-1.05542555,0.81039211,0.150339265,0.94755275,5.6632122,-2.3928503
632,1747533752410,-1.00612595,0.86017978,0.1535120099999999,1.6575514999999998,5.19742525,-2.33505965
633,1747533752420,-0.95902292,0.94889455,0.0905452425,2.19204795,4.74335625,-2.191249
634,1747533752430,-0.7426662,1.121443,-0.05418071,2.420281,4.3414855,-1.9659456
635,1747533752440,-0.75389284,1.2388345,0.009518232,1.8775285,4.0996704,-1.3198626
636,1747533752450,-0.7404697,1.2764194,0.10518867,1.8775285,4.0996704,-1.3198626
637,1747533752460,-0.67555045,1.2173576000000002,0.20732662,1.30681315,3.5537223,-0.62264707
638,1747533752470,-0.5248451000000001,1.07665857,0.40403676,1.06393285,3.07675015,-0.240749765
639,1747533752480,-0.16937573,0.68214005,0.85127175,1.1920309,1.875398,0.21092236
640,1747533752490,-0.03441207,0.562796,1.0535952,1.8141453,1.4748586,0.3920173
641,1747533752500,0.0924977,0.46712556,1.2564068,2.1606226,1.3659353,0.45753105
642,1747533752510,0.15827113,0.40049793,1.3260851,2.85304455,1.0958908,0.521180615
643,1747533752520,0.2882316099999999,0.30128867,1.4808174,3.8663774,0.6146576,0.4628574
644,1747533752530,0.55718267,0.5801241,1.8992535,4.632835,0.3797668,0.72917354
645,1747533752540,0.69239044,0.6804316,2.1223218,4.6131277,0.38935417,0.94275904
646,1747533752550,0.8246695,0.76219076,2.4064045,4.419782,0.4250405,1.1606057
647,1747533752560,0.91375035,0.7390053,2.693904,4.0618534,0.4165184,1.3587449
648,1747533752570,0.989164,0.68384844,2.957974,3.435478,0.27217507,1.5723304
649,1747533752580,1.2207743,0.4807928,3.5651884,2.5640914,-0.29933932,1.8018948
650,1747533752590,1.2832531,0.38341394,3.782643,2.2525017,-0.680704,1.8461033
651,1747533752600,1.32986795,0.35266272,3.8495148,2.1206752,-0.87165265,1.83598325
652,1747533752610,1.4180946,0.31263732,3.9412805,1.86714225,-1.2508868,1.7896442
653,1747533752620,1.5075417,0.43076107,3.8819747,1.4455639,-1.7150757,1.7156084
654,1747533752630,1.5273103,0.6901939,3.538342,0.4213121,-2.027731,1.7459685
655,1747533752640,1.4926541,0.81832397,3.34212,-0.2727077,-2.1891184,1.7656758
656,1747533752650,1.4335922,0.9830626,3.138088,-1.2138689,-2.4772725,1.8881812
657,1747533752660,1.38526885,1.03968385,3.0221609000000003,-1.58990725,-2.6272084500000004,1.98006035
658,1747533752670,1.1792847,1.168302,2.7083032,-2.5571673,-3.2368062,2.3419838
659,1747533752680,0.86469483,1.1958805,2.4037197,-2.58832635,-4.0842239,2.67621055
660,1747533752690,0.6286915,1.2935034,2.0493488,-2.149171,-6.023005,3.448261
661,1747533752700,0.500805485,1.35744635,1.78552285,-1.91214965,-6.454703500000001,3.72389815
662,1747533752710,0.2593108249999999,1.48643065,1.21516105,-1.5291871499999998,-7.074953750000001,4.3295010000000005
663,1747533752720,-0.043198135,1.6063848,0.009030119,-1.2980248,-7.1548486,5.311941
664,1747533752730,-0.38170552,1.5465908,-0.15668476,-1.3582122,-6.1966434,6.2003717
665,1747533752740,-0.62014943,1.547567,-0.25381953,-1.4695324,-5.6869144,6.3079634
666,1747533752750,-0.9584128,1.6005274,-0.17059602,-1.5739282,-5.4621434,6.3963804
667,1747533752760,-1.3323085,1.7074246,0.14716652,-1.4588797,-5.8238006,6.598248
668,1747533752770,-1.7747843,1.8057796,0.51398456,-1.010936,-6.7420588,7.006244
669,1747533752780,-2.3248894,1.7930887,0.5017817,0.4777711,-9.292834,8.227037
670,1747533752790,-2.5318499,1.7269491,0.41221267,1.3401027,-10.387394,8.908807
671,1747533752800,-2.6731591,1.6405529,0.36047253,2.5481126,-11.468104,9.699765
672,1747533752810,-2.8542495,1.3964956,0.34607318,4.694088,-12.756542,10.590326
673,1747533752820,-2.8803636,1.29240515,0.241738705,4.694088,-12.756542,10.590326
674,1747533752830,-2.9064777,1.1883147,0.13740423,6.191317,-13.175723,10.744257
675,1747533752840,-2.7810323,1.185142,0.10714114,6.627543,-12.995161,10.487529
676,1747533752850,-2.422024,1.2334653,0.12520137,7.1362066,-11.914983,9.348761
677,1747533752860,-2.1369653,1.2261436,0.16937573,7.166567,-11.121894,8.436362
678,1747533752870,-2.1369653,1.2261436,0.16937573,7.166567,-11.121894,8.436362
679,1747533752880,-1.5914973,1.3857571,0.088836834,6.992396,-8.517855,5.959622
680,1747533752890,-1.53609625,1.47300755,0.088714807,6.8808095,-7.8174435,5.507683500000001
681,1747533752900,-1.5299948,1.7330506,0.054912884,6.419816,-5.6693373,4.466654
682,1747533752910,-1.466296,1.8321378,0.21257387,5.4594803,-3.0248184,3.8456047
683,1747533752920,-1.4821596,1.8104167,0.54083085,5.1217914,-2.2849922,3.6868804
684,1747533752930,-1.4257824,1.6913167,0.7170402,4.9843724,-2.0780646000000003,3.567837
685,1747533752940,-1.4514085,1.6002834,0.84809893,4.7438892,-1.80695485,3.304983
686,1747533752950,-1.3796556,1.3528093,1.0201592,4.7414923,-1.5153387,2.301504
687,1747533752960,-1.3071706,1.2432276,1.1053354,4.912467,-1.4370418,1.743838
688,1747533752970,-1.3972276,1.2415192,1.253478,5.2016864,-1.3693974,1.2697952
689,1747533752980,-1.5190123,1.2520137,1.4374971,5.583584,-1.3709954,0.9779128
690,1747533752990,-1.517304,1.03163,1.8726513,5.9223375,-1.530785,0.6918893
691,1747533753000,-1.475082,0.93376297,2.1213458,6.4501762,-2.1438446,0.1933455
692,1747533753010,-1.3755066,0.8681116,2.280715,6.5423217,-2.5614283,-0.018642128
693,1747533753020,-1.2944796,0.88397535,2.2793727,6.4512415,-2.76143165,-0.116646464
694,1747533753030,-0.9781815,0.9669548,2.2197006,5.835519,-3.2724924,-0.36964676
695,1747533753040,-0.5293602,1.1419438,1.8155419,5.3146043,-3.1931303,-0.3371562
696,1747533753050,-0.3397277,1.0799533,1.6415291,4.3047338,-1.7656758,0.24607609
697,1747533753060,-0.264314,1.0023431,1.6067509,4.0749029,-1.215466715,0.444747915
698,1747533753070,-0.0051252022,0.66066295,1.5829554,3.4429348,0.50173956,0.9507485
699,1747533753080,0.09176553,0.30726805,1.7552598,3.220827,2.9726205,1.6021577
700,1747533753090,-0.21916342,-0.31825066,2.5901794,3.3992589,5.06639765,2.1148163
701,1747533753100,-0.5357057,-0.571338,3.090741,3.419499,5.8094196,2.273807
702,1747533753110,-1.0377314,-0.9242448,3.6440187,3.2197618,6.759103,2.4501083
703,1747533753120,-1.6217605,-1.3240106,4.122615,2.867692,7.6826873,2.6636937
704,1747533753130,-2.3773615,-1.6874118,4.7627773,2.66103065,8.05899215,2.72281585
705,1747533753140,-3.516377,-2.062528,6.0950856,1.3528858,7.33115,1.4615428
706,1747533753150,-3.5974035,-2.0866895,6.9966326,1.454086,5.028048,-0.082025364
707,1747533753160,-3.4396208,-1.6498269,7.63228035,2.5545042,1.9686087,-1.4492923
708,1747533753170,-3.334798,-1.4492118,7.6499743,4.05706,-1.196292,-2.324407
709,1747533753180,-2.1962712,-0.25528386,6.3367023,5.3790526,-5.33591,-3.417901
710,1747533753190,-1.71169545,0.80123993,5.0417348,4.272243,-5.296495,-3.552657
711,1747533753200,-1.5792944,1.1141213,4.6324506,2.3989756,-4.3191147,-3.2671661
712,1747533753210,-1.2637285,1.3894179,3.9676387,0.23489082,-2.7451866,-2.8309402
713,1747533753220,-1.0377314,1.4028411,3.6179047,-1.8232001,-1.1574098,-2.5081651
714,1747533753230,-1.4902135,1.4565337,3.7609224,-4.7542753,0.43569317,-1.526524
715,1747533753240,-1.6119982,1.2666571,3.7421296,-5.54843,0.6679208,-0.9347696
716,1747533753250,-1.6473864,1.0431006,3.5498128,-6.1907845,0.6695187,-0.66525763
717,1747533753260,-1.7274371,0.8019721,3.2049599,-6.9114356,0.8990832,-0.9033443
718,1747533753270,-1.7147462,0.47591165,2.95895,-7.5330176,0.928378,-1.6484967
719,1747533753280,-1.999561,0.31995904,2.7078152,-7.846205,0.83250415,-2.4495757
720,1747533753290,-2.0830286,0.417826,2.612877,-7.583085,0.4825648,-3.161705
721,1747533753300,-1.9919952,0.5344854,2.3043885,-7.3279543,0.3206446,-3.2708945
722,1747533753310,-1.8275007,0.5879339,1.8987653,-7.299192,0.6002765,-3.4045851
723,1747533753320,-1.7242645,0.6645679,1.5280424,-7.5431376,1.2602079,-3.5297537
724,1747533753330,-1.6554403,0.7150877,0.9269294,-8.828912,3.5942023,-3.8514636
725,1747533753340,-1.6246891,0.41587353,0.6560259,-9.797237,4.8006144,-4.5332327
726,1747533753350,-1.6054085,0.15766099,0.7878168,-10.456103,5.5984974,-5.5351143
727,1747533753360,-1.9175578,0.17084008,0.9242448,-10.667026,6.189719,-6.362292
728,1747533753370,-2.0360476,0.1773075949999999,0.7905014349999999,-10.305368,7.373228,-7.471765
729,1747533753380,-2.3117104,0.21647878,0.5098356,-9.93146,8.1476755,-7.8355527
730,1747533753390,-2.44765,0.2933568,0.56548065,-9.403622,8.655807,-8.083227
731,1747533753400,-2.506712,0.40952805,0.6347929,-8.695754,8.75168,-8.223309
732,1747533753410,-2.58725095,0.70300685,0.394030415,-6.989466500000001,9.0406335,-7.915447500000001
733,1747533753420,-2.6104363,0.9043541,0.184751335,-6.262157,9.169264,-7.69334
734,1747533753430,-2.609704,0.9637821,0.09567044,-5.697567,9.392969,-7.403055
735,1747533753440,-2.558208,1.0887394,-0.08444381,-5.2831793,9.731191,-7.0509853
736,1747533753450,-2.5135455,1.2093037,-0.28359452,-5.013667,10.233463,-6.6653595
737,1747533753460,-2.4937769000000003,1.2381023999999998,-0.341192035,-4.9231195,10.546118,-6.4816015
738,1747533753470,-2.3976183,1.2402989,-0.48494175,-4.695153,11.565043,-6.023005
739,1747533753480,-2.3505154,1.1717188,-0.5735345,-4.497014,12.927517,-5.6826534
740,1747533753490,-2.4312983,1.2464004,-0.68653303,-4.4517403,13.516075,-5.428055
741,1747533753500,-2.4835265,1.2849613,-0.7392494,-4.4895573,13.986922,-5.002482
742,1747533753510,-2.5694346,1.3796556,-0.5945235,-4.466654,14.068415,-4.42138
743,1747533753520,-2.5562556,1.4343245,-0.36779428,-3.768373,13.508885,-2.9116341500000003
744,1747533753530,-2.1950507,1.3176651,0.1889003,-3.270362,13.091568,-2.156628
745,1747533753540,-1.9856498,1.1399914,0.49006698,-2.4522388,12.117383,-1.5957662
746,1747533753550,-1.7891837,1.0252845,0.7902574,-1.4013554,10.579674,-1.171791
747,1747533753560,-1.6898524,0.95755862,0.8922733,0.283893,8.178568,-0.87511474
748,1747533753570,-1.1487775,0.5462001,1.151218,1.9414445,6.304235,-0.9267801
749,1747533753580,-0.84809893,0.5444917,0.74242216,4.406999,2.8932583,-1.4088123
750,1747533753590,-0.6965394,0.70166457,0.41074833,4.6946206,2.0596888,-1.5654061
751,1747533753600,-0.53887844,0.8529801,0.027822526,4.3063316,1.8716697,-1.6239957
752,1747533753610,-0.38975942,0.95426387,-0.2962855,3.3955305,2.334527,-1.609082
753,1747533753620,-0.20744865,0.94913864,-0.39464056,2.2136195,3.242665,-1.6117451
754,1747533753630,-0.12983845,0.76926845,-0.09054524,0.24980451,5.383314,-1.5377092
755,1747533753640,-0.2323425,0.72558224,0.35193056,0.03195793,6.125271,-1.2357068
756,1747533753650,-0.2967735999999999,0.72436192,0.58817795,0.23622239,6.0379191,-1.03810025
757,1747533753660,-0.35815399,0.6394299800000001,1.21162217,1.257278425,5.01313445,-0.400539457
758,1747533753670,-0.15314593,0.39171189,1.95319015,3.26397035,2.38139865,0.5336975
759,1747533753680,-0.06443111,0.34045988,2.0708258,3.6144423,1.8556907,0.67271453
760,1747533753690,0.10592084,0.2889638,2.2616785,4.142281,0.96779275,0.87618
761,1747533753700,0.4612682,0.31825066,2.669742,4.5934205,-0.11930962,1.1781825
762,1747533753710,0.5688974,0.39537275,2.8920784,4.4789042,-0.5965481,1.4397049
763,1747533753720,0.7721971,0.42465958,3.2064242,4.41126,-0.8005462,1.6953684
764,1747533753730,0.8659151,0.4275883,3.35407875,4.4195158,-0.84022732,1.83838015
765,1747533753740,1.240787,0.3533949,3.7406654,4.4410877,-0.75154406,2.1832595
766,1747533753750,1.330112,0.6570021,4.121639,3.6421392,-0.39095205,2.503904
767,1747533753760,1.2268758,0.8293065,4.2771034,2.6674223,-0.49161956,2.757437
768,1747533753770,1.1919756,0.83223516,4.3966913,1.500425,-0.8042747,2.936934
769,1747533753780,1.2051547,0.7302193,4.5894966,0.43995422,-1.4812502,2.8911278
770,1747533753790,0.96817505,0.8422416,4.6868753,-0.5550028,-4.271178,2.5965822
771,1747533753800,0.865915075,0.9643922,4.5897405,-0.455400565,-5.06799565,2.6692865
772,1747533753810,0.69422083,1.22663175,4.321399700000001,-0.13502227,-6.684267999999999,2.9249499
773,1747533753820,0.5195979,1.705228,3.5251627,0.56618804,-8.911469,3.6836846
774,1747533753830,0.36950266,2.0495927,2.6968327,0.91612744,-9.624132,4.43949
775,1747533753840,0.2362474,2.2895012,1.8279889,1.1174624,-9.815879,5.2352424
776,1747533753850,-0.3682824,2.549178,0.61209553,1.1797804,-9.399361,6.730341
777,1747533753860,-0.605262,2.5349007,0.416239615,1.2159994,-9.2475605,7.5766935
778,1747533753870,-1.1576856,2.47278805,0.0408795899999999,1.2775184,-9.2853775,7.89041375
779,1747533753880,-1.952702,2.2145755,-0.42734426,1.6202673,-9.302955,8.735168
780,1747533753890,-2.7063508,1.8426323,-0.55010504,2.8852687,-8.570585,9.721603
781,1747533753900,-2.7737106,1.75525975,-0.41123647,3.36250725,-8.420383,9.9096225
782,1747533753910,-2.9013526,1.5663594,0.023673553,4.7292414,-8.160459,10.294183
783,1747533753920,-2.93918145,1.572949,0.1450920365,5.08477355,-8.26938175,10.3644905
784,1747533753930,-2.9076982,1.5612342,0.42636803,6.0517673,-8.620652,10.50404
785,1747533753940,-2.9355206,1.6717921,0.6384538,7.1633706,-8.99456,10.64359
786,1747533753950,-2.9338121,1.67764955,0.6324744,7.3109098,-9.086173,10.6712865
787,1747533753960,-2.954679,1.6943675,0.62576282,7.544469149999999,-9.2379735,10.697652
788,1747533753970,-3.1949534,1.7584325,0.66115105,7.7332873,-9.388176,10.6920595
789,1747533753980,-3.0126426,1.5160836,0.84053314,8.140219,-9.043563,9.819608
790,1747533753990,-2.7605317,1.4711771,0.7477914,8.356467,-8.344749,8.926384
791,1747533754000,-2.4693713,1.4304196,0.6325964,8.417187,-7.186274,7.8920116
792,1747533754010,-2.3040224,1.42639265,0.58585943,8.3298355,-6.507967,7.3093121
793,1747533754020,-2.0044422,1.5121787,0.4566311,7.6475334,-3.8024614,5.4168696
794,1747533754030,-1.90193815,1.59894105,0.48323335,7.310377349999999,-3.0466562,4.98969865
795,1747533754040,-1.7572123,1.7569683,0.7477914,5.572398,0.13262543,3.3662357
796,1747533754050,-1.7613612,1.7611172000000002,0.8869039999999999,5.36307375,0.4375573849999999,3.1758196
797,1747533754060,-1.7652661,1.7803977,1.3672087,5.060272449999999,0.7755125199999999,2.876214
798,1747533754070,-1.666911,1.7125497,1.6993706,4.9806437,0.3254383,2.57794
799,1747533754080,-1.4418901,1.6183436,1.9404991,5.302354,-1.4988271,2.1156151
800,1747533754090,-1.3115636,1.5802706,1.8741156,5.6336513,-2.3153522,1.9611518
801,1747533754100,-1.189535,1.5119346,1.6088253,5.8333883,-2.2759376,1.929194
802,1747533754110,-1.0769026,1.445551,1.54671275,5.837383,-2.0556941,1.8636802
803,1747533754120,-0.8251576,1.2847173,1.5060773,5.6634784,-1.1930962,1.5851135
804,1747533754130,-0.4458926,1.0162543,1.7606289,4.9103365,-0.0015978967,0.91452956
805,1747533754140,-0.39830142,1.0077124,1.9583154,4.495416,0.36432046,0.6066681
806,1747533754150,-0.41868021,1.0168645,2.0664327,4.3651873,0.438622655,0.546480665
807,1747533754160,-0.4515059,1.0221117,2.2533805,4.1284323,0.50600064,0.5566007
808,1747533754170,-0.35168648,0.7663397,2.5338023,4.101801,0.3355583,0.74248934
809,1747533754180,-0.21745501,0.50812715,2.4288578,4.2205777,0.33076462,1.3459617
810,1747533754190,-0.14130914,0.345341,2.2958465,4.0021987,0.7414241,1.4823155
811,1747533754200,-0.1313028,0.282618295,2.32147255,3.84720265,1.057275,1.5355787
812,1747533754210,-0.1559525849999999,0.13606192,2.35930145,3.54466745,1.8809907,1.6098809
813,1747533754220,-0.35071027,-0.07834238,2.5352666,3.0913975,3.47436,1.5733956
814,1747533754230,-1.2183337,-0.37926495,3.128814,2.8671594,5.098356,2.0809941
815,1747533754240,-1.7735641,-0.49812084,3.3484652,2.6589,5.974003,2.6738138
816,1747533754250,-2.1411142,-0.56767714,3.80412,2.194445,6.644587,2.931075
817,1747533754260,-2.2790066,-0.6489482200000001,4.2031538,2.13985005,6.6331355,2.7888623
818,1747533754270,-2.6917074,-0.81344277,5.336312,2.1952437,6.312491,2.351305
819,1747533754280,-2.9855523,-0.68531275,6.2402997,2.9246836,3.3603768,0.45912898
820,1747533754290,-2.9472353,-0.50031734,6.191244,2.7164245,1.8817897,-0.39414784
821,1747533754300,-2.86437785,-0.40110807,6.0697035,2.40510085,1.24902258,-0.75766932
822,1747533754310,-2.5672383,-0.061014313,5.615269,1.2367721,-0.22210763,-1.6186694
823,1747533754320,-2.2294629,0.38927132,4.9087234,-1.1515509,-0.83516735,-2.0357203
824,1747533754330,-2.0996244,0.56645685,4.5924253,-2.0964406,-0.81013364,-1.9318571
825,1747533754340,-2.0005372,0.63186425,4.2317085,-2.9337382,-0.5123922,-1.8136127
826,1747533754350,-1.98394135,0.65639201,4.054523,-3.33853875,-0.308127742,-1.8101506
827,1747533754360,-2.2011524,0.7521844,3.5969157000000003,-4.09860515,0.144609658,-1.83891275
828,1747533754370,-2.3397768,0.7487676,3.5705576,-5.3652043,0.61891866,-2.0905814
829,1747533754380,-2.4017673,0.7392494,3.5239425,-5.537245,0.20559604,-2.2892532
830,1747533754390,-2.43569125,0.754625,3.48721195,-5.567605,-0.05672533,-2.3747407000000003
831,1747533754400,-2.4527755,0.7734174,3.1476064,-5.7108827,-0.54435015,-2.5891252
832,1747533754410,-2.1813836,0.5972081,2.464734,-6.5652246,0.55553544,-3.3273535
833,1747533754420,-2.1813836,0.5972081,2.464734,-6.5652246,0.55553544,-3.3273535
834,1747533754430,-2.2653394,0.56767714,2.3693078,-7.21184,1.8647454,-4.040548
835,1747533754440,-2.3151271,0.5657247,2.4020116,-7.2331457,2.1156151,-4.3500075
836,1747533754450,-2.3944457,0.61746484,2.5133016,-7.1591096,1.7773937,-4.704208
837,1747533754460,-2.4821842,0.688729555,2.51708445,-7.139935,1.0476876,-4.980111
838,1747533754470,-2.5357547,0.8659151,2.4391081,-7.2347436,0.18109496,-5.2027516
839,1747533754480,-2.2919416,1.0465174,1.8404356,-7.534083,-0.5571333,-5.5558867
840,1747533754490,-2.0056624,1.0457853,1.291551,-7.7806916,0.33662358,-5.7811904
841,1747533754500,-1.9046228,1.1492655,0.76072645,-8.656872,2.9885995,-6.2259383
842,1747533754510,-1.8965688,1.155611,0.61624455,-9.061139,4.4501424,-6.395315
843,1747533754520,-1.9363501,1.044565,0.5142286,-9.350359,5.9516325,-6.6264777
844,1747533754530,-2.0381222,0.9613415,0.61111933,-9.44783,7.1830783,-6.8901305
845,1747533754540,-2.1982236,0.81734776,0.9454777,-8.805476,8.625978,-7.4536552
846,1747533754550,-2.4849908,0.7834238,1.1443844,-7.921839,8.678177,-7.8547273
847,1747533754560,-2.583102,0.8339436,1.3423148,-6.9945264,8.2776375,-8.15886
848,1747533754570,-2.689755,0.9818423,1.39796,-6.0192766,7.599064,-8.309063
849,1747533754580,-2.6831653,1.189047,1.3330406,-5.0930295,6.9348717,-8.246745
850,1747533754590,-2.6011622,1.3596429,1.1568314,-4.2887545,6.5258102,-8.060324
851,1747533754600,-2.5497881,1.48045125,1.0046617,-3.80832025,6.31328985,-7.8683099
852,1747533754610,-2.498414,1.6012596,0.852492,-3.327886,6.1007695,-7.6762958
853,1747533754620,-2.34124125,1.7075466499999998,0.54925084,-3.2317459,6.12660225,-7.3633743
854,1747533754630,-2.1647878,1.6356717,0.020256752,-3.820571,7.4344807,-7.1111727
855,1747533754640,-2.1511204,1.2976524,-0.24576566,-4.9353704,9.856892,-7.0605726
856,1747533754650,-2.2062776,1.1116807,-0.2848148,-5.2320466,11.127752,-7.1303477
857,1747533754660,-2.349295,0.9711038,-0.19744232,-5.2719936,12.207398,-7.2054486
858,1747533754670,-2.41262785,0.92448885,-0.069434291,-5.1092746,12.472915,-7.241401400000001
859,1747533754680,-2.5970132,0.8856837,0.3053156,-4.265319,12.86733,-7.2422004
860,1747533754690,-2.6553428,1.0799533,0.3572998,-2.7920582,12.330969,-6.724482
861,1747533754700,-2.536975,1.1207108,0.2072046,-2.3989756,11.844143,-6.181197
862,1747533754710,-2.3683317,1.0557917,0.18987654,-2.3073628,11.522965,-5.655489
863,1747533754720,-2.165276,1.0069802,0.5015376,-2.02347,11.019629,-5.082377
864,1747533754730,-1.95599685,0.999292385,0.8111242,-1.46553765,9.8483705,-4.4645235
865,1747533754740,-1.5146192,0.99965847,1.4077222,-0.096939065,6.964699,-3.167564
866,1747533754750,-1.1968567,0.98208636,1.5016843,0.7052051,5.2869077,-2.518818
867,1747533754760,-1.0145459300000002,0.958656845,1.49485065,1.0258497,4.61712255,-2.2895197
868,1747533754770,-0.67652668,0.913018135,1.49448455,1.54276925,3.4016557,-1.95103185
869,1747533754780,0.044662476,1.0284572,1.4728855,1.9153455,1.9355855,-1.7550232
870,1747533754790,0.33118567,1.0606729,1.5195004,2.01468135,1.8026938,-1.6732641
871,1747533754800,0.33118567,1.0606729,1.5195004,2.1140172,1.6698021,-1.591505
872,1747533754810,0.550715165,1.1047252,1.63237685,2.1073594,2.1017668,-1.4716627999999998
873,1747533754820,0.93522733,1.3323085,2.1237862,2.034655,2.692456,-1.0636666
874,1747533754830,1.205887,1.63738,3.0902529,1.8801918,1.7869811,0.08575379
875,1747533754840,1.3291358,1.6966859,3.2901359,1.6218652,1.1025487,0.664725
876,1747533754850,1.441158,1.7159665,3.440475,1.1840415,0.37230992,1.1952267
877,1747533754860,1.441158,1.7159665,3.440475,1.1840415,0.37230992,1.1952267
878,1747533754870,1.500464,1.6871678,3.5481043,0.5816344,-0.598146,1.7848506
879,1747533754880,1.2251673,1.4333482000000002,3.46073185,0.02876214,-2.898052,3.2692966
880,1747533754890,1.1619565,1.381364,3.4336414,0.24074976,-3.7587857,3.7321541
881,1747533754900,1.1126571,1.1883147,3.4109442,0.66845345,-4.7164583,4.1502705
882,1747533754910,1.151218,1.0577441,3.1890962,1.1776499,-5.614476,4.4682517
883,1747533754920,1.2366381,0.9171671,2.1921222,1.4476944,-5.81155,4.680239
884,1747533754930,1.275199,0.8820229,1.9148731,0.6940198,-4.4964814,4.7580037
885,1747533754940,1.1885588,0.8673795,1.794797,0.10865697,-3.8589206,4.7063384
886,1747533754950,1.0174747,0.8673795,1.7994341,-0.35473305,-3.5041873,4.7335024
887,1747533754960,0.8049008,0.8256457,1.8567874,-0.55553544,-3.6037896,4.8277783
888,1747533754970,0.6450433,0.7824476,1.9278082,-0.19867182,-5.259743,5.122324
889,1747533754980,0.2860351,0.8978866,1.470689,0.10439592,-6.2472434,5.399293
890,1747533754990,0.093473926,0.99770606,1.0345587,0.38615838,-6.949785,5.773733
891,1747533755000,-0.09445015,1.0894716,0.5981843,0.5613944,-7.3726954,6.23233
892,1747533755010,-0.311173,1.1529264,0.23087814,0.6801714,-7.551127,6.899185
893,1747533755020,-0.7321718,1.1114367,-0.24918245,0.9784454,-7.295996,7.8355527
894,1747533755030,-0.9027678,1.0540832,-0.3951287,1.1126688,-6.9386,8.085358
895,1747533755040,-0.98525915,1.04615135,-0.443818125,1.1488878,-6.681605,8.1511375
896,1747533755050,-1.2610438,1.0865428,-0.52472305,1.190433,-5.8456388,8.290954
897,1747533755060,-1.4267586,1.1358424,-0.40391475,1.1856394,-5.3321815,8.276572
898,1747533755070,-1.7498904,1.2742229,-0.1415532,1.0343717,-4.6887617,8.143947
899,1747533755080,-1.9675895,1.411627,0.122272685,0.99762017,-4.774515,8.199873
900,1747533755090,-2.1928544,1.5356082,0.37584817,1.2202604,-5.1707935,8.429438
901,1747533755100,-2.3175676,1.5656272,0.5091034,1.5430355,-5.597432,8.674448
902,1747533755110,-2.4027436,1.5934497,0.67018116,1.7622137,-5.893842,8.790828000000001
903,1747533755120,-2.5762684,1.6098017,0.7834238,3.0823426,-7.4472637,9.202287
904,1747533755130,-2.6843855,1.5851518,0.75340474,3.7491982,-7.9213066,9.312009
905,1747533755140,-2.694392,1.581491,0.7319277,4.5332327,-8.298943,9.342902
906,1747533755150,-2.694392,1.581491,0.7319277,4.5332327,-8.298943,9.342902
907,1747533755160,-2.67901635,1.483624,0.538878425,5.55934885,-8.3279715,9.09655975
908,1747533755170,-2.4803538,1.5353642,0.16034561,6.31542,-7.5095816,8.434764
909,1747533755180,-2.3212285,1.5544006,0.12739788,6.2104917,-5.168663,7.3306174
910,1747533755190,-2.1289113,1.5895448,0.25211114,5.846704,-3.9500005,6.6856
911,1747533755200,-1.9419636,1.6051645,0.46639338,5.3646717,-3.0594394,5.994243
912,1747533755210,-1.8221315,1.6407969,0.78757274,4.9316416,-2.514024,5.3955646
913,1747533755220,-1.6959538,1.6151708,1.4067459,4.689827,-2.6061695,4.6349654
914,1747533755230,-1.6630061,1.5734371,1.5522041,5.006743,-3.0850058,4.4858284
915,1747533755240,-1.560502,1.4941185,1.5265781,5.5574846,-3.6005938,4.3840957
916,1747533755250,-1.5224291,1.4392056,1.4763023,5.7260628,-3.77290035,4.33562615
917,1747533755260,-1.496315,1.38319445,1.3734322,6.036321,-4.07943,4.211523
918,1747533755270,-1.3698933,1.2725145,1.2156491,5.976134,-3.9239016,3.9995353
919,1747533755280,-1.0904478,1.202226,1.0033194,5.2869077,-2.7467844,3.1728902
920,1747533755290,-1.014546,1.2268758,0.9962417,4.7526774,-2.000034,2.8075044
921,1747533755300,-0.9628058,1.1111927,1.2583592,4.31085895,-1.3305153,2.6565032
922,1747533755310,-0.9637821,1.0067362,1.5112025,3.7433393,-0.21997711,2.5465147
923,1747533755320,-0.9938011,0.895202,1.7237762,3.8456047,0.02396845,2.4868598
924,1747533755330,-1.0899596,0.7397375,1.9268318,4.0922136,-0.13741912,2.3670175
925,1747533755340,-1.0941086,0.4898229,2.1547813,4.5598645,-0.3206446,2.207228
926,1747533755350,-1.0421244,-0.117391534,2.3822427,5.1100736,-1.0594054,1.834918
927,1747533755360,-0.9679311,-0.5008055,2.4430132,5.041097649999999,-1.19762355,1.79097585
928,1747533755370,-0.80416864,-0.7936742,2.434227,4.729774,-1.1536814,1.6852484
929,1747533755380,-0.88043654,-0.8232051300000001,2.421292,4.595817,-0.74515249,1.7126789
930,1747533755390,-1.0521308,-0.8676235,2.4266613,4.1049967,0.9155948,1.7859159
931,1747533755400,-2.1713774,-0.7992875,2.9130673,3.1819448,4.505536,2.1555626
932,1747533755410,-3.000928,-0.77951884,3.3050232,2.672216,5.920207,2.4746094
933,1747533755420,-3.9775231,-0.90667265,4.1638607,2.0501015,6.621684,2.3798008
934,1747533755430,-4.2002254,-1.0125935,4.4745455,1.4658039,6.4400563,1.4040185
935,1747533755440,-4.375214,-1.0926442,5.354128,1.3267869,5.072789,-0.17949706
936,1747533755450,-4.3796077,-0.25040275,6.4726424,3.2985914,-0.34674358,-2.6008432
937,1747533755460,-3.84597615,0.6804315649999999,6.11302375,4.9801115,-4.9513492,-3.0863374500000003
938,1747533755470,-3.6691566,1.0201592,5.8139315,5.340171,-6.37401,-3.0770164
939,1747533755480,-3.0538883,1.6063848,4.716162,4.7888966,-6.7899957,-2.7569044
940,1747533755490,-2.0574026,2.2277546,2.979451,0.8900285,-3.4823494,-1.8024274
941,1747533755500,-1.8338462,2.2458148,2.7058628,-1.4343786,-1.2458268,-1.4375744
942,1747533755510,-2.0135942,1.7669744,3.0754875000000004,-3.3364084,0.54807854,-1.2431636
943,1747533755520,-2.1608827,1.5885686,3.2532833,-4.644553,1.5478293,-1.226652
944,1747533755530,-2.4805977,1.2578712,3.6005766,-5.5617456,0.94488955,-1.7331853
945,1747533755540,-2.7854254,0.9171671,3.8624501,-5.3407035,-0.5613944,-2.2040322
946,1747533755550,-2.6746233,0.9471862,3.6664722,-5.05468,-1.8833876,-2.5124261
947,1747533755560,-2.4644902,1.0025872,3.3189347,-4.81393,-2.8112328,-2.761698
948,1747533755570,-2.2472792,1.1258361,2.864988,-4.736166,-3.0961912,-2.9092371
949,1747533755580,-1.8409238,1.3838046,2.0405626,-5.58891,-2.1619542,-3.003513
950,1747533755590,-1.7201155,1.3925906,1.8109047,-6.3644223,-1.2218584,-3.0461237
951,1747533755600,-1.6683753,1.3218141,1.6605655,-7.2635055,-0.29454562,-3.1883366
952,1747533755610,-1.6744769,1.2698299,1.6520236,-8.131697,0.42077947,-3.4141726
953,1747533755620,-1.8379952,1.2044226,1.6183436,-9.190569,0.9507485,-3.8152447
954,1747533755630,-1.9744231,1.0655538999999998,1.2866698,-10.673151,2.04557405,-5.24696015
955,1747533755640,-2.003466,1.0662861,1.1651293,-10.835338,2.4335966,-5.5867796
956,1747533755650,-2.0730224,1.0545714,0.9613415,-10.97542,3.5015242,-6.338856
957,1747533755660,-2.195295,1.0492021,0.88007045,-10.949321,4.5412226,-7.1180973
958,1747533755670,-2.3805344,1.061405,0.84053314,-10.811902,5.432849,-7.84514
959,1747533755680,-2.68243325,1.22419115,1.0549375,-10.121611,6.3005066,-8.898686
960,1747533755690,-2.707083,1.2600676,1.120955,-9.262474,6.1822624,-9.319466
961,1747533755700,-2.809099,1.4257824,1.258115,-8.318117,5.7614827,-9.428123
962,1747533755710,-2.856202,1.5729489,1.312784,-7.268832,5.20648,-9.360478
963,1747533755720,-2.8293555,1.6857034,1.3027775,-6.272277,4.527374,-9.22519
964,1747533755730,-2.7556505,1.84214405,0.497022585,-5.081311,4.355334,-9.122392
965,1747533755740,-2.7556505,1.8170061,0.27383223,-5.102084,5.220861,-9.337043
966,1747533755750,-2.78884225,1.78637695,0.135329743,-5.452556,6.447513,-9.684852
967,1747533755760,-2.9391813,1.6303024,-0.17059602,-5.7151438500000005,7.129815,-9.8606205
968,1747533755770,-3.0958662,1.4799632,-0.1261776,-6.4283385,9.023855,-10.33999
969,1747533755780,-3.3833656,1.3596429,0.29921418,-6.3974457,10.314956,-10.51203
970,1747533755790,-3.380437,1.3264512,0.4429639,-5.9532304,10.321347,-10.317086
971,1747533755800,-3.3333339,1.30509615,0.5195979000000001,-5.348693,10.055031,-10.029465
972,1747533755810,-3.1889739,1.2516476,0.68482465,-4.946023,9.7714045,-9.901101
973,1747533755820,-2.7788358,1.1180263,0.716308,-3.5968654,9.042498,-9.561813
974,1747533755830,-2.4784014,1.1221752,0.30970863,-2.0229373,8.976451,-8.884306
975,1747533755840,-2.349051,1.1097283,0.27651685,-1.79177485,9.0062785,-8.6757805
976,1747533755850,-2.28022685,1.0873971,0.320081085,-1.3438311,8.9527485,-8.250739750000001
977,1747533755860,-2.1298876,1.0941086,0.50885934,-0.97764647,8.610532,-7.8752339
978,1747533755870,-1.900962,1.1204668,0.75340474,-0.53476274,7.6533923,-7.3418026
979,1747533755880,-1.7586764,1.1565872,0.8671354,0.0063915867,5.817409,-6.5178204
980,1747533755890,-1.5409775,1.19344,0.94035256,0.23861924,4.7233825,-6.0304623
981,1747533755900,-1.3454876,1.2742229,0.8236932,0.43303,3.8882153,-5.496232
982,1747533755910,-0.9370578,1.3275494,0.6826281000000001,0.95367795,3.54546645,-4.40060725
983,1747533755920,-0.728999,1.338654,0.6770148,1.2575446,3.6085835,-3.8733015
984,1747533755930,-0.48835856,1.3039979,0.8463905,1.6506273,3.8488004,-3.558516
985,1747533755940,-0.36218095,1.3567142,1.0828819,2.1518342,3.9137816,-3.2197618
986,1747533755950,-0.25723633,1.4533609,1.3991802,2.6727486,3.713512,-2.8783445
987,1747533755960,-0.10348027,1.5575734,1.7247525,3.1111047,3.0541131,-2.57794
988,1747533755970,0.34778157,1.9407433,2.1557577,3.6852825,1.4919028,-2.0224047
989,1747533755980,0.55010504,2.2467911,2.267048,3.7444046,0.9651296,-1.6405072
990,1747533755990,0.921072,2.4322746,2.3898087,3.5851476,0.49641323,-1.3273195
991,1747533756000,1.2698299,2.642408,2.4359353,3.2682314,0.26897928,-1.1020161
992,1747533756010,1.45348295,2.7616298500000003,2.43776575,3.01922585,0.39601204,-0.961933825
993,1747533756020,1.9578272,3.2115493,2.706595,1.9744676,0.98430437,-0.034088463
994,1747533756030,2.0739985,3.2916002,2.9572418,1.6580842,0.79042625,0.43675843
995,1747533756040,2.1128037,3.372139,3.1358917,1.3880396,0.33129725,0.9752496
996,1747533756050,2.11060715,3.3942261,3.1184416,1.21733095,0.0498011099999999,1.2841763
997,1747533756060,2.06362605,3.3952023,2.91697225,0.4490089499999999,-0.7912251650000001,2.26555125
998,1747533756070,1.9385467,3.2671943,2.5172064,-0.8016115,-1.8700718,3.5681033
999,1747533756080,1.8238398,3.0924494,2.3204963,-1.2634037,-2.453304,4.1598577
1000,1747533756090,1.6466542,2.9045253,2.1049938,-1.3097427,-2.922553,4.5060687
