timestamp,acc_x,acc_y,acc_z,gyro_x,gyro_y,gyro_z,id
1747533599780,1.145726725,0.318982835,0.9536537,0.469248988,-0.309725625,0.720385085,1
1747533599790,-2.52526025,-1.34170475,-0.673842085,0.958738,-0.84581995,1.9600866,2
1747533599800,-2.515498,-1.3833165,-0.7080101,1.3326459,-0.86659265,2.438923,3
1747533599810,-2.438376,-1.4365209,-0.7912336,1.375789,-0.92464954,2.7244139,4
1747533599820,-2.2668037,-1.458242,-0.93254274,1.2010857,-0.86020106,2.9550436,5
1747533599830,-2.0095675,-1.4692247,-1.1246158,0.6823019,-0.63010395,3.0764837,6
1747533599840,-1.846049,-1.4950947,-1.2605556,-0.4101268,-0.10759171,3.1451933,7
1747533599850,-1.8309175,-1.5939379,-1.0692148,-2.453304,0.9443569,3.3577135,8
1747533599860,-1.990287,-1.6693515,-0.76926845,-3.401922,1.5563514,3.6187034,9
1747533599870,-2.0818083,-1.8131012,-0.3648656,-4.0815606,2.1321268,4.043744,10
1747533599880,-2.0522774000000004,-1.9751554,0.174622963,-4.4544034,2.6738138,4.60141,11
1747533599890,-1.9824771,-2.028848,0.31947094,-4.603008,3.1217575,5.2272525,12
1747533599900,-1.3203497,-2.1735737,0.43320164,-4.9899649,3.9705069,6.6770775,13
1747533599910,-0.8427297,-2.2558212,0.42270714,-5.1255198,4.1353564,6.941263,14
1747533599920,-0.22502078,-2.3724804,0.43027294,-5.611813,4.392618,7.454188,15
1747533599930,1.018572965,-2.4314204,0.75169635,-6.0038307500000005,3.34785985,7.6991987,16
1747533599940,1.37538465,-2.43678955,0.9902623,-5.8216705,2.7739486500000003,7.69839975,17
1747533599950,1.67508695,-2.39688625,1.27105015,-5.36680235,2.30656385,7.72476505,18
1747533599960,1.8135895,-2.3624742,1.4184607,-5.0663977,2.1145499,7.7428746,19
1747533599970,2.017133,-2.272661,1.6034561,-4.2658515,1.808819,7.7838874,20
1747533599980,2.3045106000000004,-2.10560395,1.5550107,-2.48020205,1.1779162,7.8211718,21
1747533599990,2.4497247,-2.0284818500000004,1.29423555,-1.2916332,0.62158183,7.8392811,22
1747533600000,2.4718118,-2.0044422,1.168058,-1.0120013,0.43409526,7.8456726,23
1747533600010,2.6297169,-2.1118274,1.2078394,-0.747283025,1.1986888,8.0278328,24
1747533600020,2.5482017,-2.1110952000000003,0.895568045,-0.8343684,1.3419669,8.253935,25
1747533600030,2.6299608,-2.0564265,0.84053314,-0.9235843,1.4327807,8.377772,26
1747533600040,2.7344174,-2.0339732,0.65041256,-1.2282499,1.31933,8.315987,27
1747533600050,2.7810323,-2.0268953,0.57451075,-1.6484967,0.95660746,8.126369,28
1747533600060,2.834481,-1.9836973,0.7004443,-1.963815,0.47137952,7.8312917,29
1747533600070,2.8359451,-1.9292725,1.0128375,-1.9228023,-0.19014971,7.4893417,30
1747533600080,2.6320354,-1.6692295499999998,1.6317668,-0.41545314,-1.984055,6.946057,31
1747533600090,2.5641874,-1.57587765,1.5568412,0.93423695,-2.50097465,6.79478925,32
1747533600100,2.511471,-1.47117705,1.3013132500000002,1.51587135,-2.43519455,6.7372649,33
1747533600110,2.5229418,-1.33987425,0.914116415,1.6793894,-2.1084247,6.66402795,34
1747533600120,2.5440528,-1.2666571,0.69458693,1.6479641,-1.8967034,6.6174226,35
1747533600130,2.62471365,-1.04944615,0.33911755,0.220776072,-0.487624795,6.2911857,36
1747533600140,2.62739835,-1.004295535,0.4855519,-0.083090626,-0.21145499,6.2243404,37
1747533600150,2.6311812000000003,-0.981598235,0.70495935,-0.6332997,0.32330775,6.1444454,38
1747533600160,2.6492414,-0.9711038,0.8293065,-0.88044107,0.6295713,6.12314,39
1747533600170,2.891102,-0.780007,0.99868226,-1.2271847,1.5515577,6.0768013,40
1747533600180,3.0582814,-0.69165826,1.0277251,-1.5531555,2.0298615,6.0810623,41
1747533600190,3.31039235,-0.53204479,1.2499392,-1.86927285,2.3438481,6.0821275,42
1747533600200,3.3960564,-0.47151858,1.330112,-1.9164108,2.398443,6.091715,43
1747533600210,4.15507455,-0.018426325,1.35244325,-1.5622103,2.8703551,6.040582,44
1747533600220,4.323718,0.15546446,1.2478647,-1.2969595,2.9917953,5.745504,45
1747533600230,4.8635726,0.58036816,0.7397375,-1.3241237,2.9523804,5.1846423,46
1747533600240,4.860888,0.9825745,0.38829508,-1.5973641,2.664759,4.6637278,47
1747533600250,4.9599752,1.5622104,0.18865626,-2.1640847,1.7028252,4.36066,48
1747533600260,5.58817865,2.2011522,0.2455216,-2.27833435,1.160073,4.4940843,49
1747533600270,5.845903,2.5865185,0.34704942,-2.392584,0.6173208,4.6275086,50
1747533600280,6.5788074,3.2967255,0.27773714,-2.3686156,0.63702817,4.53429815,51
1747533600290,7.32013105,4.08856895,0.268218915,-2.312689,1.099353,3.913249,52
1747533600300,7.718920450000001,4.53092265,0.6206375749999999,-1.2293151999999998,1.8359833,2.28712275,53
1747533600310,7.9967794,4.7946265,0.951213125,0.2908172,1.9750003,0.6048038769999999,54
1747533600320,7.9967794,4.826964,0.9796458,0.9171927,1.8855181,-0.108124346,55
1747533600330,7.9967794,4.637088,0.938156,2.2503712,1.3662016,-1.6831179,56
1747533600340,7.4376445,4.208279,0.9015475,3.5494611,0.51718587,-3.0855384,57
1747533600350,5.930835200000001,2.8887836,0.420876735,5.264537,-0.74941357,-4.837365999999999,58
1747533600360,5.234784,2.2516723,0.07492557,5.816344,-1.1744541,-5.472796,59
1747533600370,4.680286,1.7264609,-0.3612047,5.4317837,-1.2623384,-5.6911755,60
1747533600380,4.1980286,1.31229585,-0.6629815,4.244014,-1.1456919,-5.7604175,61
1747533600390,4.115049,1.2146729,-0.6980037,3.0535805,-0.85487473,-5.862683,62
1747533600400,4.0259686,0.8510276,-0.0707766,1.2362394,0.07403588,-6.2893214,63
1747533600410,3.959097,0.63943,0.39708114,0.92305166,0.46232477,-6.5524416,64
1747533600420,3.76934205,0.2850588699999999,1.0250405,1.0615361,0.5294364,-6.921556,65
1747533600430,3.6557336,0.17132819,1.2249234,1.5707325,0.24394555,-7.330085,66
1747533600440,3.385318,-0.0741934,1.4631232,2.3116238,-0.29667616,-7.6501966,67
1747533600450,3.0165477,-0.5422952,1.6908286,4.0064597,-1.9302592,-8.108793,68
1747533600460,2.928931,-0.81271064,1.5980868,4.786766,-2.994991,-8.294149,69
1747533600470,2.891102,-1.0042956,1.4414021,5.019526,-3.7433393,-8.439025,70
1747533600480,2.8918345,-1.1399914,1.2561626,4.8810415,-4.15826,-8.584967,71
1747533600490,2.9074539,-1.2736128,1.18514205,3.8882152,-4.1044639,-8.669388,72
1747533600500,2.8981798,-1.2954559,1.205887,3.0237532,-3.77796035,-8.624114500000001,73
1747533600510,2.9909217,-1.2839851,1.3035098,2.748915,-3.6139097,-8.597217,74
1747533600520,3.1624937,-1.355738,1.4096746,2.2919164,-3.2810144,-8.610533,75
1747533600530,3.28391205,-1.47495995,1.63469545,1.8836539,-2.94465735,-8.73756575,76
1747533600540,3.2903795,-1.5080298,1.7159665,1.8013622,-2.863431,-8.7857685,77
1747533600550,3.3779964,-1.7489142,2.067165,2.0485036,-3.106311,-8.730375,78
1747533600560,3.3922737,-1.7955291,2.165276,2.4261398,-3.2330775,-8.633436,79
1747533600570,3.3460248,-1.9209745,2.267048,2.65037795,-3.18008065,-8.529838999999999,80
1747533600580,3.3460248,-1.9209745,2.267048,2.8746161,-3.1270838,-8.426242,81
1747533600590,2.962611,-1.8253042,2.0102994,3.2234902,-2.9116341,-8.155132,82
1747533600600,2.8796315,-1.75220895,1.7627034,3.5723643,-2.6961844,-7.884022,83
1747533600610,2.7419832,-1.6774055,1.3071706,3.60299075,-2.326005,-7.7468692,84
1747533600620,2.6236155,-1.5939379,1.1031388,3.4312167,-1.9238676,-7.691742,85
1747533600630,2.4278815,-1.5631866,0.94035256,3.1664987,-2.0266657,-7.756723,86
1747533600640,2.0883979,-1.6193197499999998,0.8933716,2.893791,-2.2674153,-7.7375484,87
1747533600650,1.9719826,-1.6564165,0.9027678,2.4964473,-2.805374,-7.522365,88
1747533600660,1.769171,-1.7098651,0.8856837,2.3691483,-3.0088394,-7.2986593,89
1747533600670,1.5565971,-1.7081566,0.8422416,2.2327943,-3.1174965,-6.9902654,90
1747533600680,1.1573194999999998,-1.56465095,0.90899123,2.10443,-2.9822078,-6.642989,91
1747533600690,0.63833175,-1.5330455500000002,0.7854982500000001,2.29617755,-1.498827125,-5.6331185,92
1747533600700,0.2660224,-1.5692881,0.6233222,2.4554346,-0.57311225,-5.050419,93
1747533600710,-0.065895455,-1.7005909,0.0627227125,2.0112192,-0.2545982,-4.279700050000001,94
1747533600720,-0.10006347,-1.7616051,-0.070532545,1.8082864,-0.28336033,-4.0922136,95
1747533600730,-0.37877685,-2.003222,0.33777523,1.861017,-1.1744541,-4.181163,96
1747533600740,-0.37877685,-2.003222,0.33777523,1.861017,-1.1744541,-4.181163,97
1747533600750,-1.0958171,-2.6511939,0.29555333,3.167564,-2.1960428,-4.2067294,98
1747533600760,-1.0958171,-2.6511939,0.29555333,3.167564,-2.1960428,-4.2067294,99
1747533600770,-1.0958171,-2.6511939,0.29555333,3.167564,-2.1960428,-4.2067294,100
1747533600780,-2.3978624,-3.5739741,-1.4340804,0.44847634,-1.3491575,-1.8466359,101
1747533600790,-2.5080543,-3.78789055,-1.5683118500000002,-2.10602775,0.562459595,-1.30148685,102
1747533600800,-2.5552793,-3.8561046,-1.5419537,-2.935336,1.1680624,-1.1451592,103
1747533600810,-2.6694982,-4.0613565,-1.1878266,-4.2125883,2.1257353,-0.86659265,104
1747533600820,-3.1888518,-4.2221904,-0.5259434,-4.9593387,2.6770096,-0.49854377,105
1747533600830,-3.3606684,-4.216821,-0.35925224,-5.268798,2.5885925,0.6306366,106
1747533600840,-3.3579838,-4.2495246,-0.1513155,-4.928446,2.0341225,1.5121429,107
1747533600850,-3.2503545,-4.126276,0.119099945,-4.0461407000000005,0.97391805,2.8141623,108
1747533600860,-3.0660913,-4.0093727,0.21550256,-3.7294908,0.6711166,3.2996566,109
1747533600870,-2.084981,-3.7728808,0.24161668,-3.1190944,0.38935417,4.3180494,110
1747533600880,-1.5666034,-3.5156448,0.16766733,-2.1694112,0.41971418,6.0645504,111
1747533600890,-0.80331445,-3.18860795,-0.023917611,-1.9286613,0.50360377,7.1412665,112
1747533600900,-0.5640163,-3.1017237,-0.07370529,-1.9680761,0.4918858499999999,7.7687075,113
1747533600910,0.453092287,-2.7732225,-0.037218731,-2.021872,0.4745753,8.059791,114
1747533600920,0.9711038,-2.621663,0.033435844,-2.5640914,0.63383234,9.028116,115
1747533600930,1.3186413,-2.536487,0.18475133,-2.96542995,0.9821738,9.572999,116
1747533600940,1.8193248,-2.51793865,0.46102415,-3.15637855,1.2524847,9.86568025,117
1747533600950,2.0129843,-2.5123253,0.54839665,-3.2298818,1.3853765,9.984191,118
1747533600960,2.8027534,-2.3715043,0.699224,-3.6195023,1.7230653,9.661416,119
1747533600970,2.8632796,-2.3109782,0.8473667,-3.6879456,1.6964337,9.550629,120
1747533600980,2.9067218,-2.3195202,0.9679311,-3.7824878,1.47139655,9.29603075,121
1747533600990,3.1139264,-2.3412411,0.9730562,-3.8168426,1.3912354,9.197494,122
1747533601000,3.3997176,-2.3109782,0.89861876,-4.060788,1.117995,8.693624,123
1747533601010,3.3023386,-2.15758815,1.08471245,-4.469051,0.578172275,7.9000015,124
1747533601020,3.1112418,-2.1154883,1.2688537,-4.587029,0.36272255,7.615576,125
1747533601030,2.838996,-2.10316335,1.76770665,-4.290353,0.13262543,7.5260935,126
1747533601040,2.762728,-2.0932791,1.965637,-3.5563853,-0.31372038,7.4707,127
1747533601050,2.6343539,-2.0276275,2.17455,-2.4192157,-0.9571401,7.4067836,128
1747533601060,2.5984776,-1.9883344,1.8138335,-0.12516858,-2.2210765,7.22995,129
1747533601070,2.7209942,-1.9356179,1.3872215,0.4958806,-2.5662222,7.0845413,130
1747533601080,2.8320403,-1.8133454,0.97549677,0.41705105,-2.5294704,6.925817,131
1747533601090,2.9321036,-1.6903405,0.77244115,-0.030360037,-2.1358552,6.743124,132
1747533601100,2.9052575,-1.4684924,0.8817788,-1.1419635,-0.5629923,6.4523067,133
1747533601110,2.70317805,-1.4137015000000002,1.3039979,-1.4298511500000002,0.6064018,6.40783215,134
1747533601120,2.6150734,-1.398692,1.4465274,-1.4173343,0.9518138,6.4224796,135
1747533601130,2.493533,-1.4350566,1.5116906,-1.1978899,1.4226607,6.537528,136
1747533601140,2.4024994,-1.4848443,1.3423148,-1.0056096,1.7140105,6.7031765,137
1747533601150,2.7173333,-1.5114466,0.82906246,-1.0274476,1.7198695,6.857107,138
1747533601160,2.8364333,-1.4865526999999998,0.7754918799999999,-1.0274476,1.7198695,6.857107,139
1747533601170,3.04522435,-1.4065019,0.74657108,-1.73265265,0.8886969,6.58413315,140
1747533601180,3.25206295,-1.2166253500000002,0.81759178,-2.0085561,0.8197209999999999,6.4914551,141
1747533601190,3.3692105,-1.0819057,0.8639627,-2.44638,1.1744541,6.4656224,142
1747533601200,3.71015825,-0.87946027,0.67774695,-3.6045886,2.41601975,6.51648915,143
1747533601210,3.7660475,-0.76292294,0.55108124,-4.7004795,3.1992555,6.53885965,144
1747533601220,3.9686148,-0.49543622,0.6960513,-5.0871706,3.300722,6.50557,145
1747533601230,4.4149955,0.167301235,1.180504875,-5.5854478,2.78753075,5.69250705,146
1747533601240,4.502612,0.42417148,1.3767269,-5.5617456,2.449043,5.4014235,147
1747533601250,4.8651592,1.40894245,1.7882074,-3.94014705,-0.182692855,4.83070805,148
1747533601260,5.0676047,1.9894326,1.8459269,-3.5840824,-0.72437984,4.8144627,149
1747533601270,5.145459,2.3636944,1.9041346,-2.896454,-1.5744609,5.0381684,150
1747533601280,5.8776307,2.9443066,2.1608827,-2.1683457,-2.010154,5.3481603,151
1747533601290,7.9967794,4.021087,2.4098213,-1.3571469,-1.9046929,5.400891,152
1747533601300,7.9967794,4.766926,2.3789481,0.84155895,-0.26205503885,2.10496265,153
1747533601310,7.9967794,5.1264225,2.3303807,1.2767195,0.0053263223,1.2942963,154
1747533601320,7.9967794,5.235272,2.2660716,2.249306,0.5209143,-0.099069595,155
1747533601330,7.9194132,4.78571865,1.73097595,3.56117905,1.05514445,-2.04051415,156
1747533601340,7.842047,4.569972,1.526334,3.9515984,1.1728562,-2.646117,157
1747533601350,6.1536592500000005,2.76175175,0.50483245,4.881574,0.70467246,-4.4267063,158
1747533601360,5.574267300000001,2.1165865,0.32715874,5.041364,0.032490566,-4.9353704,159
1747533601370,5.3275256,1.8275007,0.27358818,5.064267,-0.68176925,-5.2917013,160
1747533601380,5.014156,1.3647681,0.20793676,4.99742165,-0.983771725,-5.46187735,161
1747533601390,4.5508133,0.710328635,0.18401917,3.95479435,-2.07060785,-6.461628,162
1747533601400,4.2451318,0.38182756,0.276638895,3.1643681,-2.13452375,-6.9167622,163
1747533601410,4.10126,0.2314883,0.40720953,2.7491813,-1.9366508,-7.1577782,164
1747533601420,4.046225,0.16425052,0.47664383,2.5774074,-1.824798,-7.278952,165
1747533601430,3.9666624,-0.031483386,0.6108753,2.4138892,-1.6809874,-7.5724325,166
1747533601440,3.7172358,-0.42502571,0.92570915,2.4847293,-1.7805896,-7.9101214,167
1747533601450,3.52613915,-0.7067898,1.08727505,3.1361384,-2.415487,-8.5088,168
1747533601460,3.40008365,-0.91069965,1.0920342,3.669836,-3.059972,-8.923187,169
1747533601470,3.3318696,-1.0318741,1.0679946,3.9776974,-3.5718317,-9.239572,170
1747533601480,3.1642022,-1.2488409,0.97500867,4.00219865,-4.19075035,-9.571135,171
1747533601490,2.9990975,-1.65788085,0.857983265,3.9345543,-4.3574643,-9.652894,172
1747533601500,2.93966965,-1.90572095,0.890442885,3.0812774,-4.420315,-9.819076,173
1747533601510,2.9120913,-1.9509935,0.95426387,2.5944517,-4.1417484,-9.703494,174
1747533601520,2.890614,-1.9797924,1.0548154,2.1848574,-3.7065878,-9.440907,175
1747533601530,2.9316158,-1.8697226,1.2786158,1.86021805,-3.0445259,-8.9583415,176
1747533601540,2.9316158,-1.8697226,1.2786158,1.7997643,-2.817092,-8.77192,177
1747533601550,3.29062405,-1.7990678999999998,1.34597575,1.70974945,-2.654639,-8.132495,178
1747533601560,3.3138094,-1.7664863,1.3327967,1.68152,-2.6365294,-8.043812,179
1747533601570,3.107947,-1.54439425,1.2987506999999998,1.5899072,-2.5246768,-7.9101214,180
1747533601580,2.993118,-1.4472594,1.3205938,1.3907027,-2.2045648,-7.7370157,181
1747533601590,2.77419875,-1.44054795,1.3637918999999998,1.5036208000000002,-1.855158,-7.7298253,182
1747533601600,2.6171479,-1.47569215,1.42395205,1.6998957,-1.8008295,-7.7394125,183
1747533601610,2.5423443,-1.4992436,1.4631232,2.06528145,-1.9555592,-7.73701565,184
1747533601620,2.4247088,-1.5805148,1.5356082,2.3046997,-2.0836573,-7.7290263,185
1747533601630,2.3180556,-1.7872313,1.3532975,2.9763489,-2.4554346,-7.433948,186
1747533601640,2.0487384,-1.7094991,1.050666425,3.0384005,-2.3510387,-6.93753475,187
1747533601650,1.9365941,-1.6610537,0.94352525,2.9012477,-2.24903955,-6.538327,188
1747533601660,1.6947334,-1.5688,0.74242216,2.8000476,-2.2136195,-6.330867,189
1747533601670,1.3713577,-1.3535415,0.54668826,2.2466428,-2.156628,-5.6783924,190
1747533601680,1.2338314,-1.3287697,0.5183776,1.82000425,-1.94357495,-5.3958306,191
1747533601690,1.1900232,-1.3347491,0.5271637,1.6772588,-1.8210696,-5.3156695,192
1747533601700,0.99636373,-1.3964956,0.59794027,1.54436715,-1.26952895,-5.2648031500000005,193
1747533601710,0.439303057,-1.5241375499999998,0.53021437,1.5227956,-1.0450244,-5.2624063,194
1747533601720,-0.008297946,-1.6129744,0.46248847,1.4295849,-0.32650355,-4.929511,195
1747533601730,-0.507395,-1.7276812,0.40269446,1.3789848,-0.2615224,-4.453871,196
1747533601740,-0.797335,-1.8829017,0.38170552,1.3720607,-0.31265512,-3.9792955,197
1747533601750,-1.11290102,-2.0898621,0.430883095,1.5121429,-0.42184472,-3.6575856,198
1747533601760,-1.2354177,-2.1547813,0.42929673,1.8948391,-1.17818253,-3.2200282,199
1747533601770,-1.8109047,-2.5006106,-0.13081467,1.9893813,-1.6335831,-2.9971216,200
1747533601780,-2.2538686500000003,-2.6932937,-0.65895456,1.5318503,-1.6303873,-2.666357,201
1747533601790,-2.4411827,-2.80080095,-0.903743975,0.6785734,-1.3145363,-2.3558323,202
1747533601800,-2.5267248,-2.8586426,-0.9928249,-0.39627838,-0.6764429,-2.13479,203
1747533601810,-3.1141706,-3.082199,-0.70264083,-2.2615564,0.799481,-1.4839134,204
1747533601820,-3.2896478,-3.1727443,-0.42124277,-2.6786075,1.3299826,-1.0013486,205
1747533601830,-3.3449267000000003,-3.31088065,-0.246741865,-2.7494476,1.6618125,-0.5049353,206
1747533601840,-3.3560314,-3.3384593,-0.23600335,-2.5323999,1.8423749,0.3680488745,207
1747533601850,-3.28403425,-3.3123451,-0.41331097,-2.3616913,1.82213485,1.02744757,208
1747533601860,-3.08488355,-3.2913561,-0.60941097,-2.294047,1.7907095,1.3305153,209
1747533601870,-2.9731054,-3.295749,-0.6884855,-2.2951124,1.7331853,2.564624,210
1747533601880,-2.6681559,-3.2513307,-0.87555535,-2.4628913,1.6341157,3.2447956,211
1747533601890,-2.5291653,-3.2327824,-0.9098454,-2.684999,1.5339808,3.972371,212
1747533601900,-2.2140872,-3.1627378,-0.9015475,-2.9071066,1.4514228,4.698349,213
1747533601910,-1.4147999,-3.0338757,-0.83028275,-3.445598,1.454086,6.11302,214
1747533601920,-0.94352525,-2.97579,-0.79318607,-3.8855522,1.496164,6.813964,215
1747533601930,-0.4053791,-2.9360087,-0.7407138,-4.335626,1.4940335,7.2565813,216
1747533601940,0.08102701,-2.9069657,-0.605506,-4.7862334,1.3907027,7.6054554,217
1747533601950,1.05591365,-2.88146185,-0.2062283684999999,-5.1739893,1.2000204,7.7093186,218
1747533601960,1.4462832,-2.8669405,-0.002928687,-5.8483019,0.7933557,8.18203,219
1747533601970,1.7555038,-2.7646806,0.4915313,-5.8291273,0.700944,8.200406,220
1747533601980,1.973935,-2.6568072,0.9344952,-5.3929014,0.41545314,8.245147,221
1747533601990,2.199688,-2.6316693,1.2088156,-4.748949,0.08362326,8.301073,222
1747533602000,2.3763855,-2.5599165,1.4172405,-3.9665122,-0.15126756,8.429438,223
1747533602010,2.7373462,-2.4037197,1.3115636,-2.6168222,-0.11025487,8.696286,224
1747533602020,2.8553479,-2.3617419,1.19319585,-2.58113585,0.0319579299999999,8.704808,225
1747533602030,3.2344906,-2.250696,0.75340474,-2.73746335,0.386158365,8.644354,226
1747533602040,3.3784842,-2.2262902,0.571338,-3.667173,1.0301107,8.285094,227
1747533602050,3.3008742,-2.2055452,0.656514,-4.4586644,1.3299826,7.97457,228
1747533602060,3.0148392,-2.1987116,1.3681849,-4.9971557,1.0540792,7.2800174,229
1747533602070,2.8681607,-2.1779668,1.688388,-4.626976,0.59867865,6.9396653,230
1747533602080,2.7439356,-2.0991364,1.9287844,-3.6565201,-0.20772657,6.5875955,231
1747533602090,2.5821257,-1.973691,2.0049303,-2.6754117,-1.0077401,6.402772,232
1747533602100,2.3768736,-1.8023628,1.5983309,-1.0173275,-2.369681,6.3148875,233
1747533602110,2.374433,-1.7843026,1.4804512,-0.53156695,-2.511361,6.33459495,234
1747533602120,2.4007912,-1.7679508,1.2566508,-0.47191215,-2.4277377,6.3511066,235
1747533602130,2.4276376,-1.726705,1.1116807,-0.6087986,-1.9132149,6.3947825,236
1747533602140,2.47388625,-1.68765595,1.20686305,-1.029311825,-0.6016080955,6.3806675,237
1747533602150,2.4932889,-1.6483626999999998,1.4002784,-1.11692985,0.2031991944999999,6.3441825000000005,238
1747533602160,2.5006106,-1.6202961,1.4611707,-1.0599382,0.37816888,6.326606,239
1747533602170,2.5215995,-1.5805148,1.517548,-0.8362326,0.5656554,6.299974,240
1747533602180,2.5757802,-1.5795386,1.3962514,-0.64395238,0.398675235,6.4070332,241
1747533602190,2.7615079,-1.5097382,1.3266953,-0.500407995,-0.011451585,6.6861324,242
1747533602200,2.8566902,-1.4025971,1.3774592,-0.37710363,-0.2647182,6.9002504,243
1747533602210,3.15822275,-1.29374745,1.44713745,-0.1272991,-0.24873926,7.119695,244
1747533602220,3.2637775,-1.2476206,1.4589742,0.317182495,0.332628825,7.2597773,245
1747533602230,3.59264485,-1.02174565,1.14536065,0.44900897,0.6098639,7.255516,246
1747533602240,3.85354185,-0.77402755,0.583296795,0.4293016,1.2532836,7.044594,247
1747533602250,4.062943,-0.363279225,0.1007956425,-0.70600402,1.47592385,6.8994518,248
1747533602260,4.28894,0.141065075,-0.0054912864999999,-1.23916887,0.9728527,6.93433905,249
1747533602270,4.460146,0.413677,-0.032703668,-1.4812502,0.6785734,6.9465895,250
1747533602280,5.012448,0.8820229,0.0017084008,-1.8780613,0.05965481,6.990798,251
1747533602290,6.2583604,2.002734,0.35437113,-2.1742048,-0.33129725,7.01743,252
1747533602300,7.0739994,2.81398,0.51618105,-2.0074909,0.19121496,6.8624334,253
1747533602310,7.7532105,3.692098,0.35510328,-1.9686087,1.1297129,6.0384517,254
1747533602320,7.9967794,4.4591703,0.4170938,-1.8626149,1.8551581,4.9422946,255
1747533602330,7.9967794,4.8445363,0.8561529,-1.1781825,2.3995082,3.7167077,256
1747533602340,7.9967794,5.3075128,1.5146192,1.8780613,1.9755329,1.401888,257
1747533602350,7.9967794,5.21648,1.283497,3.6645098,1.0721886,0.14061491,258
1747533602360,7.9967794,4.8191543,0.67042524,5.093562,0.07190535,-1.2958943,259
1747533602370,7.9967794,4.336165,0.025870068,6.1021011000000005,-0.90733898,-3.46450625,260
1747533602380,6.9795494,2.886221,-1.3374337,6.2136874,-1.144094,-4.169445,261
1747533602390,5.965735,2.063016,-1.8001662,4.3457465,-2.17527,-6.3457804,262
1747533602400,5.142042,1.4982674,-1.9426957,2.702576,-2.3313313,-6.567888,263
1747533602410,4.634647,1.0948408,-1.8101726,0.90281165,-1.9893813,-6.541789,264
1747533602420,4.268073,0.5462001,-0.77732235,-1.8439728,-0.1917476,-6.489591,265
1747533602430,4.212184,0.2518671,-0.011226633,-2.3979104,0.44101948,-6.5849323,266
1747533602440,4.101382,0.082003236,0.73778504,-2.2572954,0.5305017,-6.7846694,267
1747533602450,3.7778841,-0.07931861,1.6255433,-0.85940211,-0.1483380749999999,-7.0533823,268
1747533602460,3.6615908,-0.13471961,1.850198,-0.24660872,-0.4628574,-7.1276846,269
1747533602470,3.3689663,-0.38658667,1.9280523,2.732936,-1.9542277,-7.5671062,270
1747533602480,3.453654,-0.51569295,1.6464102,3.665575,-2.4612935,-8.013985,271
1747533602490,3.4897747,-0.69239044,1.2119883,4.1470747,-2.8426583,-8.631838,272
1747533602500,3.1472402,-1.09935585,0.6898278,4.09727335,-3.24426295,-9.366338,273
1747533602510,2.9394255,-1.3193735,0.5435155,3.9803607,-3.3593116,-9.538378,274
1747533602520,2.7849374,-1.4374971,0.55059314,3.1361384,-3.4173684,-9.596968,275
1747533602530,2.6699862,-1.5197445,0.6142921,2.7265444,-3.3406694,-9.411612,276
1747533602540,2.6028705,-1.5485432,0.7380291,2.404302,-3.309244,-9.160209,277
1747533602550,2.5940845,-1.5412215,0.8437059,2.1022995,-3.2506545,-8.774051,278
1747533602560,2.8357012,-1.4850883,0.9828185,1.7736653,-3.055711,-8.3197155,279
1747533602570,2.9430861,-1.441158,1.0086887,1.6160061,-2.8687572,-8.204667,280
1747533602580,3.1112417,-1.49167795,1.0395618,1.39842585,-2.72148445,-8.14501225,281
1747533602590,3.2253386,-1.59967325,1.087275,1.3001553,-2.72388125,-8.14634375,282
1747533602600,3.2789092,-1.6576368,1.1287647,1.2708606,-2.7505128,-8.153534,283
1747533602610,3.13040035,-1.68179845,1.2620201,1.3374395,-2.8367991,-8.118913,284
1747533602620,2.9574857,-1.6185876,1.2966762,1.8940402,-2.8447888,-7.8595214,285
1747533602630,2.65680715,-1.5087619,1.08239395,2.1182783,-2.8064392,-7.7679086,286
1747533602640,2.5591843,-1.4907017,1.0040516,2.247708,-2.7622306,-7.6187716,287
1747533602650,2.3829749,-1.4477476,0.82857436,2.269546,-2.713761,-7.422763,288
1747533602660,2.1169527,-1.3362135,0.56743306,1.9409118,-2.5284052,-6.9473885,289
1747533602670,2.0493488,-1.3030217,0.52911615,1.8524948,-2.4841967,-6.86776,290
1747533602680,1.9915072,-1.3418267,0.54912883,1.6932379,-2.402704,-6.727678,291
1747533602690,1.9573392,-1.4147999,0.626495,1.59150515,-2.24690915,-6.48639535,292
1747533602700,1.8907114,-1.4382293,0.7421781,1.5952336,-2.172607,-6.3979783,293
1747533602710,1.6163912,-1.3869773,0.88055855,1.9574234,-1.6714,-6.1716094,294
1747533602720,1.3523211,-1.4055257,0.87982637,2.2311964,-1.4631407,-5.9862537,295
1747533602730,0.9964857,-1.3872215,0.82442534,2.501241,-1.506284,-5.6762614,296
1747533602740,0.73412424,-1.3957634,0.78464407,2.716957,-1.6895094,-5.340171,297
1747533602750,0.2894519,-1.5719727,0.7421781,3.1031153,-1.7305222,-4.8709216,298
1747533602760,0.0993313,-1.692781,0.7482795,3.2682314,-1.8429075,-4.817126,299
1747533602770,-0.19378147,-1.8192028,0.7473033,3.4253578,-2.1081583,-4.853345,300
1747533602780,-0.400619985,-1.91072425,0.73388013,3.48155055,-2.2756712,-4.797685,301
1747533602790,-1.0308977,-2.25094,0.60648227,3.470099,-2.54758,-4.446414,302
1747533602800,-1.4401819,-2.433251,0.46078008,3.3390715,-2.3137543,-3.9718385,303
1747533602810,-2.2812032,-3.08964275,-0.8411432999999999,1.38830585,-0.6889597949999999,-2.79312335,304
1747533602820,-2.5711432,-3.0912292,-1.0155222,0.6631271,-0.43196473,-2.5598304,305
1747533602830,-2.8381417,-3.1739645,-0.90374404,-0.7094661,0.08735169,-2.0847225,306
1747533602840,-2.93820515,-3.24791385,-0.77561397,-1.26287105,0.35286886,-1.8658107,307
1747533602850,-3.2281453,-3.3939822,-0.385244377,-1.816276,0.61838603,-1.6468989,308
1747533602860,-3.49648635,-3.5307761,0.101283758,-2.9883332,0.8815063700000001,-0.13289175,309
1747533602870,-3.5749507,-3.595451,0.32557237,-2.8889973,0.58909124,0.4346279,310
1747533602880,-3.3086841,-3.45853535,0.485918015,-2.5630262,0.19387813,1.0902982,311
1747533602890,-2.9308835,-3.3006304,0.51252025,-1.9148129,-0.205596035,2.5587653,312
1747533602900,-2.63789285,-3.17347645,0.4578513899999999,-1.8492991,-0.1571265,2.8469193,313
1747533602910,-2.4876757,-3.1122181,0.41904628,-1.887116,0.12463594,3.4653053,314
1747533602920,-2.1664963,-3.0148392,0.3619369,-2.0719395,0.515588,4.13003,315
1747533602930,-1.7840585,-2.895251,0.35583547,-2.4032366,1.128115,4.9422946,316
1747533602940,-1.326207,-2.7446678,0.38707477,-2.644519,1.7140105,5.5052867,317
1747533602950,-0.4367404649999999,-2.5205011500000003,0.38341394,-3.0189595,2.6493127,6.4901237,318
1747533602960,-0.0435642299999999,-2.4668086,0.32447411,-3.2679651,2.9395973,7.10850985,319
1747533602970,0.15424417,-2.4403284,0.28261828,-3.3646379,3.0131006,7.2938657,320
1747533602980,0.58891016,-2.41275,0.20574026,-3.7505299,3.10391425,7.744206249999999,321
1747533602990,1.16769193,-2.3628403,0.2710255649999999,-3.8882153,3.0988543,7.8850875,322
1747533603000,1.51034835,-2.3401430000000003,0.4906771,-4.2152514,2.6881948,8.415056,323
1747533603010,1.6180996,-2.3324552,0.6074585,-4.074104,2.2285333,8.715461,324
1747533603020,1.8355545,-2.3002396,0.7609705,-3.7891457,1.9222697,8.911469,325
1747533603030,2.1159763,-2.271929,0.80441266,-3.483415,1.73212,8.987637,326
1747533603040,2.3495393,-2.25997,0.7382732,-3.32655465,1.5534219,8.85794,327
1747533603050,2.8376536,-2.1176848,0.53180075,-3.36304,1.4689997,8.739429,328
1747533603060,3.12759375,-2.0572806000000003,0.448943305,-3.90206365,1.26340365,8.531969499999999,329
1747533603070,3.2086208,-2.0513012,0.44491637,-4.137487,1.2096078,8.480571,330
1747533603080,3.28379025,-2.0594771,0.475423515,-4.696751,1.2314457,8.380968,331
1747533603090,3.5278475,-2.0783916,1.0899596,-5.315935850000001,1.13876775,7.50532075,332
1747533603100,3.4477968,-2.0117638,1.5419537,-4.8024785,0.76406095,7.07442115,333
1747533603110,3.2628014,-1.8990095,1.8528826,-4.444816,0.5278385,6.8597703,334
1747533603120,3.108313,-1.8750918,2.0661886,-3.4551852,-0.21784659,6.4357953,335
1747533603130,2.5992098,-1.8528826,1.8580079,-1.2777847,-1.8338528,6.016081,336
1747533603140,2.502807,-1.9253676,1.4638554,-0.6689861,-2.2817965,5.9670787,337
1747533603150,2.4524093,-1.9389128,1.25433225,-0.6072007500000001,-2.34225025,5.9803946,338
1747533603160,2.318788,-1.9121885,0.75535715,-0.819721,-2.1454427,6.0821276,339
1747533603170,2.271685,-1.8211553,0.73485637,-1.9345202,-1.0130665,6.40437,340
1747533603180,2.281203,-1.7635576,1.0055158,-2.1430456500000004,-0.285757193,6.57614385,341
1747533603190,2.4394742000000003,-1.7026654,1.3645241,-2.1182783,-0.076166406,6.605705,342
1747533603200,2.489628,-1.671304,1.457998,-1.8599517,0.101200126,6.5694857,343
1747533603210,2.5821257,-1.6056527,1.5256019,-1.5025555,0.09853696,6.471482,344
1747533603220,2.549178,-1.6688635,1.3325526,-1.190433,0.06178534,6.377206,345
1747533603230,2.4993904,-1.6813104,1.2507933,-0.9821738,-0.13848437,6.685067,346
1747533603240,2.860839,-1.6372580499999998,1.2028361,-1.0301108,-0.065513765,7.19559525,347
1747533603250,3.2518186,-1.5090059999999998,1.1022845,-1.1395667,0.288952985,7.3889405,348
1747533603260,3.66549575,-1.112413,0.9366917,-1.2293152,0.515588,7.459514,349
1747533603270,3.9061363,-0.8246695,0.8571291,-1.8514296,0.6625945,7.561247,350
1747533603280,4.099918,-0.44833317,1.0409042,-1.9110844,0.45007423,7.595868,351
1747533603290,4.3368974,-0.10836142,1.1138773,-1.8530275,0.350472,7.584683,352
1747533603300,4.740568,0.33704305,1.0387076,-1.80296,0.36485308,7.2986593,353
1747533603310,5.26333855,1.2822768,0.88861245,-1.86048435,-0.280430865,6.711698800000001,354
1747533603320,5.5115447,1.6569047,0.89715445,-1.9121497,-0.73769563,6.6323366,355
1747533603330,6.6024808,2.7507693,1.23907865,-1.722,-0.71532506,6.9098377,356
1747533603340,7.1164656,3.137112,1.3291358,-1.4450313,-0.41438788,6.539126,357
1747533603350,7.9140442,4.37680065,1.8210331,0.0045274,0.74328825,4.4871602,358
1747533603360,7.9967794,4.9304447,2.1206133,1.0263823,1.2815131,3.3198967,359
1747533603370,7.9967794,5.398058,1.8414118,2.3904533,1.186172,1.6809874,360
1747533603380,7.9967794,5.2718807000000005,1.030897775,3.9574574,0.414387863,-0.8061388399999999,361
1747533603390,7.9967794,5.110315,0.77292925,4.3729105,0.113983296,-1.6026903,362
1747533603400,7.8996447,4.808294,0.506784855,4.64908025,-0.132891752,-2.43439565,363
1747533603410,6.2392013,2.8055601,-0.39110173,4.689827,-0.44474792,-5.0088735,364
1747533603420,5.959878,2.4622936,-0.41904628,4.2962117,-0.62584287,-5.601693,365
1747533603430,5.4119697,1.866794,-0.31019676,3.7960699,-0.9347696,-6.0011673,366
1747533603440,4.9524097,1.3891739,-0.136428,3.216566,-1.1925635,-6.21422,367
1747533603450,4.7674146,1.039928,-0.09786696,2.4538367,-1.1653993,-6.3947825,368
1747533603460,4.6522193,0.507395,0.40196228,0.9986854,-0.23276028,-6.828878,369
1747533603470,4.5636263,0.2975058,0.7822035,0.60507023,0.26684874,-7.1479244,370
1747533603480,4.4315915,0.07199689,1.2227268,0.69508505,0.4543353,-7.4051857,371
1747533603490,4.3168845,-0.14765464,1.581735,1.1451592,0.38935417,-7.701329,372
1747533603500,4.124811,-0.35193056,1.9219507,1.9355855,0.07829694,-8.003864,373
1747533603510,3.6071663,-0.7577977,2.2467911,4.0799627,-0.9241169,-8.426774,374
1747533603520,3.34212,-1.010397,2.1682045,5.1367054,-1.5259913,-8.600945,375
1747533603530,3.26609615,-1.12363955,2.06643265,5.5548215,-1.81947165,-8.697617999999999,376
1747533603540,3.009958,-1.4248062,1.6630061,6.4816017,-2.5848641,-9.010007,377
1747533603550,2.4657104,-1.6727684,0.95475197,6.126336,-3.129747,-9.192167,378
1747533603560,2.242642,-1.7193834,0.7641432,5.4168696,-3.154248,-9.051552,379
1747533603570,2.1984677,-1.7542835,0.7817154,4.5854306,-3.0929954,-8.860869,380
1747533603580,2.21872445,-1.7496464,0.878362035,4.23469245,-3.0093721,-8.780175499999999,381
1747533603590,2.3392887,-1.7184072,1.2258996,3.3057818,-2.7073697,-8.545552,382
1747533603600,2.2838876,-1.6559285,1.4501882,3.18301,-2.6429212,-8.49655,383
1747533603610,2.140138,-1.5116906,1.7149903,3.1734228,-2.3957798,-8.122642,384
1747533603620,2.1108513,-1.432616,1.7679508,3.3135052,-2.292449,-7.942079,385
1747533603630,2.0905943,-1.3762388,1.7481819,3.5414717,-2.1337247,-7.7561903,386
1747533603640,2.0713139,-1.2964321,1.5570853,3.6746297,-2.0639498,-7.570302,387
1747533603650,2.13464665,-1.30143525,1.4295653,3.7284255,-2.0735373,-7.171893,388
1747533603660,2.1413581,-1.3164448,1.3977158,3.5854138,-2.22427215,-6.8336715,389
1747533603670,2.0869334,-1.3337729,1.325963,3.5217643,-2.2556975,-6.699448,390
1747533603680,1.9756435,-1.3015573,1.2625082,3.3598442,-2.214152,-6.360694,391
1747533603690,1.824572,-1.2642165,1.2739788,3.2202945,-2.172607,-5.9862537,392
1747533603700,1.4527508,-1.053107,1.2332213,3.2951292,-2.29138385,-5.13617265,393
1747533603710,1.4099188,-1.0313859,1.1924638,3.3310819,-2.3249397,-5.0291133,394
1747533603720,1.4592183,-1.0152781,1.1270564,3.387541,-2.422944,-4.970524,395
1747533603730,1.4147999,-0.9647583,1.03163,3.4051178,-2.4863272,-5.0131345,396
1747533603740,1.2693417,-0.9237567,0.9374239,3.3694315,-2.4437168,-5.022722,397
1747533603750,0.9794017,-0.950359,0.7414459,3.0706248,-2.1411815,-4.746286,398
1747533603760,0.7335140499999999,-1.00417355,0.698369835,2.7196201,-1.79736745,-4.26665045,399
1747533603770,0.6587105,-1.0035634,0.7158199,2.6083,-1.6586168,-4.0890174,400
1747533603780,0.44955346,-0.9969738,0.75047606,2.481001,-1.257012,-3.6709013,401
1747533603790,0.129472375,-1.0995999,0.7181384550000001,2.52680735,-0.95820535,-3.1276164,402
1747533603800,-0.38975942,-1.3274274,0.63381666,2.7084348,-0.4644553,-2.1443772,403
1747533603810,-0.71472162,-1.5116906,0.595743745,3.1944617,-0.684166085,-1.93478655,404
1747533603820,-0.86664724,-1.5756336,0.56596875,3.4024546,-0.88044107,-1.9345202,405
1747533603830,-1.3093672,-1.7523311,0.40659937,3.8035266,-1.4796523,-1.9680761,406
1747533603840,-1.9475769,-1.974179,0.13618395,4.377704,-2.620018,-1.7635453,407
1747533603850,-2.07436465,-2.0627718,-0.221237895,4.2240400000000005,-2.37340915,-1.32492265,408
1747533603860,-2.05422995,-2.0564263,-0.559989345,3.7651774,-1.7185378,-1.1177287,409
1747533603870,-2.0513012,-2.046176,-0.77146494,3.4850128,-1.3177321,-1.0583402,410
1747533603880,-1.9860159,-2.34661045,-1.94245155,1.2607405,0.1587244,-1.045557,411
1747533603890,-2.0815644,-2.3473425,-2.089862,-0.3669836,0.6775082,-0.94755274,412
1747533603900,-1.956363,-2.5064678,-2.0312884,-1.9078887,1.2516857,-0.922519,413
1747533603910,-1.7930887,-2.7300243,-1.7852788,-3.171825,1.8168086,-1.1009508,414
1747533603920,-2.0007813,-2.7988486,-1.5224291,-4.176369,2.2551649,-1.2969595,415
1747533603930,-2.92380595,-2.8505888,-0.63052189,-5.197958,2.22107645,-1.0431602,416
1747533603940,-3.0656033,-2.8881736,-0.39293218,-5.1383033,1.9750003,-0.7664578,417
1747533603950,-3.1278377,-2.9323478,-0.04515059,-4.332963250000001,1.25594675,0.600276553,418
1747533603960,-3.010934,-2.8954952,0.12568948,-4.0181775,1.0444918,1.1243867,419
1747533603970,-2.2768102,-2.6856058,-0.006345488,-3.1558459,0.62903863,3.0748858,420
1747533603980,-2.0508131,-2.6454585,-0.072485004,-3.12841535,0.5986786150000001,3.4847463000000003,421
1747533603990,-1.1576855,-2.4448434,-0.21355009,-3.2421324,0.5454154,4.5966163,422
1747533604000,-0.9283937,-2.3976183,-0.23478307,-3.5297537,0.6348976,5.110606,423
1747533604010,-0.49616838,-2.32855,-0.1581491,-3.8946068,0.6988135,5.4775896,424
1747533604020,-0.102382005,-2.3307466,-0.072240947,-4.3713127,0.86179895,5.7803913,425
1747533604030,0.417826035,-2.3562506,0.088104663,-5.0866378,1.1632688,6.228069,426
1747533604040,0.656147935,-2.39627605,0.3031191,-5.5084825,1.44689545,6.53220185,427
1747533604050,0.9447456,-2.4344711,0.77683425,-5.8546934,1.9057581,7.025952,428
1747533604060,1.0972813,-2.430566,1.1578076,-5.790245,2.2397184,7.4344807,429
1747533604070,1.670816,-2.5333142,1.4770344,-5.299158,2.660498,8.141816,430
1747533604080,1.833358,-2.52989745,1.48399005,-5.1779842,2.6383938,8.203601500000001,431
1747533604090,2.2799828,-2.5098848,1.3708695,-4.941762,2.4469125,8.100271,432
1747533604100,2.418363,-2.476693,1.1831895,-5.0663977,2.288188,7.8227696,433
1747533604110,2.23361195,-2.5678483,1.1770881000000002,-5.486112,1.77925795,7.4443345,434
1747533604120,2.1425786,-2.6414316,1.2771516,-5.644304,1.4796523,7.3162365,435
1747533604130,2.2212871,-2.71464885,1.62700765,-5.283712,1.0112023,7.21397085,436
1747533604140,2.28669435,-2.66217645,1.76770665,-4.83709985,0.6066681,7.1878718500000005,437
1747533604150,2.340753,-2.6287405,1.7916242,-4.5902247,0.376571,7.176154,438
1747533604160,2.686094,-2.450579,1.5461026,-4.0922136,-0.6562029,7.1756215,439
1747533604170,2.8161767,-2.2982872,1.4543371,-4.1784997,-1.1174624,7.1953287,440
1747533604180,2.9521166,-2.199444,1.41687435,-4.4038033,-1.1217234,7.137272,441
1747533604190,2.9493098,-2.18614285,1.53609625,-4.7031426,-0.88843054,7.001983,442
1747533604200,2.9211211,-2.1899257,1.6422611,-4.8741174,-0.63436496,6.823019,443
1747533604210,2.7842052,-2.2438624,2.2048132,-4.2109904,-0.43409526,6.661631,444
1747533604220,2.818129,-2.2389812,2.153561,-3.7087183,-0.40533313,6.6483154,445
1747533604230,2.9145317,-2.1948068,2.0139604,-3.2943304,-0.47031426,6.5950522,446
1747533604240,2.9069657,-2.0949874,1.8231077,-2.97049,-0.67271453,6.5130267,447
1747533604250,2.8247187,-1.939767,1.7037637,-2.6375947,-1.0860372,6.595585,448
1747533604260,3.0045888,-1.5631866,1.657881,-2.2253375,-1.9105518,7.3039856,449
1747533604270,3.3696985,-1.4484798,1.6683753,-2.1965754,-2.0591562,7.5841503,450
1747533604280,3.688193,-1.3237665,1.6766733,-2.308428,-1.6586168,7.7327547,451
1747533604290,3.9195592,-1.1409676,1.7723436,-2.4208136,-0.6130597,7.805725,452
1747533604300,4.42536815,-0.5797579900000001,1.70339755,-2.3600934,1.2895026,7.7199717,453
1747533604310,4.513107,-0.39342028,1.5502517,-2.1901836,1.4551512,7.310377,454
1747533604320,4.460634,0.056377225,1.1971008,-2.1177456,0.5933523,6.8144965,455
1747533604330,4.78767115,0.8374824999999999,0.7764681600000001,-2.1875205,-0.8362326,6.630206,456
1747533604340,4.9424033,1.0714114,0.68311626,-2.4964473,-2.26635,6.6871977,457
1747533604350,6.185021,2.52745685,1.2429835,-2.936934,-2.9257488,7.0222235,458
1747533604360,6.969055,2.9018407,1.3535415,-3.652259,-1.0748519,6.9130335,459
1747533604370,7.815933,3.7638507,1.5744133,-3.8647795,0.3685815,6.0091567,460
1747533604380,7.9967794,4.53678,2.058379,-3.5995286,1.3480922,4.811267,461
1747533604390,7.9967794,5.231855,2.673403,-2.595517,1.6884441,3.7758298,462
1747533604400,7.9967794,6.018696,3.0648708,1.6831179,0.93636745,0.902279,463
1747533604410,7.9967794,5.8383374,2.6221511,3.510579,0.41971418,-0.86179894,464
1747533604420,7.9967794,5.3150787,2.0923028,4.985438,-0.05965481,-2.5651567,465
1747533604430,7.6565638,4.503588,1.4980234,5.997439,-0.5523396,-3.9052596,466
1747533604440,6.9075522,3.5532293,0.85908157,6.4523067,-0.8708537,-4.836301,467
1747533604450,5.402695,1.8588621,-0.690437985,5.326322,-1.1888351,-5.553756,468
1747533604460,5.283839,1.6410409,-0.90374404,2.95770675,-1.1787151,-5.8690746,469
1747533604470,5.1913414,1.3105874,-0.84517026,2.1108215,-1.128115,-6.0022326,470
1747533604480,5.0937185,0.9959976,-0.3756041,0.151533865,-0.478836365,-6.486928,471
1747533604490,4.9272714,0.55718267,0.31361356,-0.17630127,-0.23755397,-6.601444,472
1747533604500,4.495046,-0.04515059,1.3506129,0.108124346,-0.042077947,-6.9465895,473
1747533604510,4.2170654,-0.34790361,1.85166235,0.82877576,-0.4032026,-7.0882697,474
1747533604520,4.121883,-0.42905265,1.9793042,1.7427727,-0.84155893,-7.254451,475
1747533604530,3.8626943,-0.5862255,2.0903504,2.716957,-1.1749867,-7.4222302,476
1747533604540,3.64609335,-0.8762875999999999,1.9530681,3.610714,-1.5057513,-7.5910745,477
1747533604550,3.53712175,-1.1115588,1.7573341999999998,5.25415065,-2.39258395,-8.563661,478
1747533604560,3.4961202,-1.2119883,1.6652026,5.5244613,-2.5449169,-8.857674,479
1747533604570,3.3560314,-1.4262705,1.4499441,5.699165,-2.7521107,-9.286976,480
1747533604580,3.2497444,-1.53524205,1.3583006,5.67892485,-2.85544135,-9.4313195,481
1747533604590,3.0293607,-1.7248746,1.2157711999999998,5.4722633,-3.2144356,-9.65822,482
1747533604600,2.56064865,-1.86947855,1.1469471,4.72631185,-3.79926565,-9.254485,483
1747533604610,2.5072,-1.79723755,1.1574415999999998,4.43442935,-3.9808933,-8.991897,484
1747533604620,2.49817,-1.7635576,1.1502419,4.285026,-4.0687776,-8.856608,485
1747533604630,2.5511303,-1.7496464,1.1294969,3.9153795,-4.2669168,-8.618522,486
1747533604640,2.856202,-1.679846,1.274711,3.0876691,-4.256797,-8.442754,487
1747533604650,2.933202,-1.5941819,1.20381225,2.635198,-3.9867523,-8.4592645,488
1747533604660,2.911603,-1.5773419,1.1495095,2.4698157,-3.8764973,-8.469917,489
1747533604670,2.7485726,-1.5153515,1.0862988,2.143312,-3.674097,-8.408133,490
1747533604680,2.3718704,-1.3689171,0.93778995,1.6884442000000002,-3.3465283,-7.67922495,491
1747533604690,2.220433,-1.3196175,0.8510276,1.4982945,-3.1989892,-7.1857414,492
1747533604700,2.1708894,-1.2510375,0.77122086,1.3331785,-3.170227,-6.7047744,493
1747533604710,2.195295,-1.2566508,0.7060576,1.1851068,-3.0280142,-6.2051654,494
1747533604720,2.2109146,-1.2913069,0.56767714,1.0061423,-2.4138892,-5.7822556,495
1747533604730,2.156734,-1.2254114,0.5640163,0.96140116,-2.0490363,-5.7620153,496
1747533604740,2.016401,-1.1870944,0.50593066,0.9571401,-1.6261262,-5.790245,497
1747533604750,1.7828381,-1.2151611,0.43637437,0.99495703,-1.2495552,-5.7630806,498
1747533604760,1.4994878,-1.2268758,0.3275248,1.0349044,-1.1153319,-5.638445,499
1747533604770,1.0304097,-1.2888663,0.17059602,1.0871024,-1.6383767,-5.1303134,500
1747533604780,0.8576172,-1.308635,0.19597797,1.1361046,-1.9984361,-4.8331046,501
1747533604790,0.6782351,-1.3105874,0.24625377,1.267132,-2.2828617,-4.432565,502
1747533604800,0.4053791,-1.3803878,0.3692586,1.4439659,-2.368083,-4.138552,503
1747533604810,-0.26651052,-1.4421343,0.7641432,1.7257284,-2.2423816,-3.80619,504
1747533604820,-0.44784504,-1.4743499,0.9230245,2.7116306,-1.9611518,-3.1132355,505
1747533604830,-0.6823841,-1.6041883,0.82100856,3.180347,-1.8216022,-2.8783445,506
1747533604840,-0.8817788,-1.7491581,0.55669457,3.4248252,-1.7124126,-2.6551716,507
1747533604850,-0.95377576,-1.930981,0.18060236,3.3382724,-1.0697918,-2.35450075,508
1747533604860,-1.048714,-2.3539321,-0.5227706,3.1734228,-0.783502,-2.2503712,509
1747533604870,-1.5463467,-2.579929,-1.2307807,0.4990764,-0.6221144,-1.9765981,510
1747533604880,-1.7147462,-2.774443,-0.93303084,-0.42397526,-0.660464,-1.9781961,511
1747533604890,-2.0796118,-2.9723732,-0.59135073,-0.9997507,-0.7701862,-1.8077538,512
1747533604900,-2.6016502,-7.9967794,7.9970236,4.5428205,-2.521481,-1.5819178,513
1747533604910,-2.1394057,-3.1737204,-3.19715,6.16362,-4.0772996,1.5361114,514
1747533604920,-1.189047,-3.3528585,-3.261337,-1.1659319,-1.8977686,1.28897,515
1747533604930,-1.5453705,-2.6856058,-2.089374,-4.7569385,1.417867,1.0428939,516
1747533604940,-2.017133,-2.409089,-0.38756293,-6.7814736,3.690076,0.7595336,517
1747533604950,-2.289013,-2.856446,0.74461865,-7.3865438,5.2155347,0.5550028,518
1747533604960,-3.3914196,-3.0477869,2.21579565,-5.4914384,4.543353,2.0644825,519
1747533604970,-3.349686,-3.0770738,2.4017673,-3.7614489,3.2783513,3.4328146,520
1747533604980,-2.7214823,-2.8335047,2.591888,-1.748099,1.8407769,4.4714475,521
1747533604990,-1.8182266,-2.443257,2.3170795,0.053795855,0.87777793,5.0679955,522
1747533605000,-0.9618296,-2.242642,1.547811,1.0327739,0.7456851,5.264537,523
1747533605010,-0.15949141,-1.95319015,-0.0883487229999999,-0.7771104234999999,2.7419908,5.550027849999999,524
1747533605020,-0.15326795,-1.9634405,-0.12056428,-1.5121429,3.2618399,5.7662764,525
1747533605030,-0.0827354015,-1.99675445,0.70288487,-2.18938465,3.8948731,6.6626966,526
1747533605040,0.015375607,-2.0139604,0.9825745,-2.2109563,3.9920785,6.9726887,527
1747533605050,0.7487676,-1.9876022,1.2473766,-1.65888305,3.84480575,7.944209499999999,528
1747533605060,1.2986286,-1.986626,1.023576,-1.4418354,3.7236319,8.335694,529
1747533605070,1.7164546,-1.9641727,0.8642067,-1.5590146,3.6341498,8.524778,530
1747533605080,2.17577025,-2.0215261,0.8474887849999999,-1.97207075,3.62562765,8.69602025,531
1747533605090,2.30268,-2.0451996,0.8815348,-2.4389229,3.7681067,8.81240025,532
1747533605100,2.6841416,-2.1967592,0.9984382,-2.95477725,4.0192429,8.8709895,533
1747533605110,2.97408165,-2.3063412,1.0697029,-3.3657031,4.3034022,8.8938925,534
1747533605120,3.0704844,-2.3573492,1.1221752,-3.5824845,4.4629254,8.922655,535
1747533605130,3.2215557,-2.3710163,1.2964321,-3.9718385,4.7542753,8.969526,536
1747533605140,3.39068725,-2.22458185,1.4856985,-4.578773,4.6054046,8.275241000000001,537
1747533605150,3.3326018,-2.1806517,1.5712405,-4.636031,4.3441486,8.098141,538
1747533605160,3.1105096,-2.1760144,1.7533073,-4.463458,3.4882085,7.7897463,539
1747533605170,2.907942,-2.17455,1.8982773,-3.9904807,2.427205,7.5750957,540
1747533605180,2.7485726,-2.118173,1.8975451,-3.1952608,1.1334413,7.40199,541
1747533605190,2.56613995,-2.1159763,1.4294433,-2.55184105,0.35340148,7.43794265,542
1747533605200,2.613243,-2.08388275,1.34024035,-2.4037693,0.21944448,7.5335503,543
1747533605210,2.6665695,-2.0703375,1.3076587,-2.4975126,0.5075985,7.680557,544
1747533605220,2.859619,-2.0469081,1.3110756,-2.6786075,0.88896316,7.7327547,545
1747533605230,2.98616245,-2.00981155,1.4684925,-2.795254,1.1712582,7.6736326,546
1747533605240,2.9779866,-2.0149367,1.5280424,-2.33612495,0.4905542925,7.62356515,547
1747533605250,3.0634067,-2.0359255000000003,1.6554402,-1.69829785,-0.3462109575,7.637945999999999,548
1747533605260,3.10514045,-1.94830895,1.4401818,-1.4812502,-0.5864281,7.65499,549
1747533605270,3.1190517,-1.8924199,1.3030217,-1.3134711,-0.7590009,7.8227696,550
1747533605280,3.380681,-1.6918048,1.0431006,-1.5097459999999998,-0.542752265,7.9636505,551
1747533605290,3.7804468,-0.99233675,1.0006347,-1.6170714,-0.38722363,7.953264,552
1747533605300,3.8795339,-0.793674125,1.0267489,-2.021872,1.1265172,7.64274,553
1747533605310,3.87148,-0.7726852,1.0218678,-2.273807,2.047971,7.476026,554
1747533605320,3.9949732,-0.6909261,0.90130347,-2.5752769,2.9172268,7.4738955,555
1747533605330,4.3041935,-0.36584184,0.47078642,-3.042928,3.577158,7.4866786,556
1747533605340,5.827355,0.6811638,-0.034900185,-4.1662493,2.531601,6.71809,557
1747533605350,6.5168166,1.1888028,0.32215557,-3.9819586,1.2564794,5.977199,558
1747533605360,6.9370832,1.7201155,0.7856203,-3.3619747,0.010652645,5.292234,559
1747533605370,7.283401,2.3163474,1.0750722,-2.5710158,-0.74941355,4.598214,560
1747533605380,7.79848335,3.6897795,0.951823275,-1.06659602,-0.0023968649999999,3.1574438,561
1747533605390,7.9967794,4.2863774,0.77292925,-0.34780884,0.72970617,2.401106,562
1747533605400,7.9967794,4.6248846,0.5020258,0.32437304,1.1883025,1.3821807,563
1747533605410,7.9967794,4.583395,0.30287504,1.216532,1.1116035,-0.21891184,564
1747533605420,7.9967794,4.32079,0.08786061,1.8439728,0.73130405,-1.7422401,565
1747533605430,7.9967794,3.8939335,-0.023673553,2.3238745,0.14594123,-3.2495892,566
1747533605440,7.876825200000001,3.21264765,0.0916434935,3.110572,-1.0114686,-5.6704025,567
1747533605450,7.2033496,1.6652026,0.22916976,3.28447665,-1.4133396,-6.8515146,568
1747533605460,6.731587,1.0594525,0.15619664,3.2629051,-1.5089471,-7.1868067,569
1747533605470,6.3149815,0.073949344,0.07199689,2.9577067,-1.5712651,-7.684285,570
1747533605480,5.6079473,-0.22794947,0.17206036,1.9680761,-0.83996105,-8.313324,571
1747533605490,5.277738,-0.51544887,0.28798756,1.6676716,-0.3685815,-8.441689,572
1747533605500,5.059795,-0.70020026,0.409284,1.5158713,-0.1107875,-8.541823,573
1747533605510,4.91995,-0.84248555,0.5191097,1.5057513,-0.112918034,-8.6680565,574
1747533605520,4.6285458,-1.0858107,0.9813542,1.9920446,-1.0583402,-9.052085,575
1747533605530,4.4745454,-1.1427980999999998,1.0873971,2.2479743,-1.3523532,-9.15195325,576
1747533605540,4.0052238,-1.3296238,1.2344415,3.0115025,-2.1784658,-9.428123,577
1747533605550,3.7013721,-1.445307,1.1922196,3.4024546,-2.6407907,-9.528258,578
1747533605560,3.2329045,-1.6522676,1.01393585,3.5670381,-3.2637040500000003,-9.540509,579
1747533605570,3.025822,-1.7357352,0.9169231,3.496198,-3.5143075,-9.537846,580
1747533605580,2.8623033,-1.7764928,0.8471227,3.1222901,-3.456783,-9.542107,581
1747533605590,2.6934158,-1.87216315,0.848220975,2.41149245,-3.1680964,-9.5069525,582
1747533605600,2.6621764,-1.8990095,0.88007045,2.1816616,-3.0546458,-9.490973,583
1747533605610,2.698053,-1.9314691,1.1153417,1.5270566,-2.564624,-9.378056,584
1747533605620,2.699029,-1.9353739,1.232001,1.3986923,-2.4021714,-9.329054,585
1747533605630,2.6907313,-1.9502616,1.3315763,1.3667343,-2.3222766,-9.236908,586
1747533605640,2.715381,-1.9924834,1.4387175,1.4439659,-2.3920512,-9.007343,587
1747533605650,2.7510133,-1.990531,1.581491,1.7646105,-2.4000409,-8.431036,588
1747533605660,2.7510133,-1.990531,1.581491,1.7646105,-2.4000409,-8.431036,589
1747533605670,2.528189,-1.8340902,1.565139,2.1955101,-2.0831246,-7.5649757,590
1747533605680,2.4198277,-1.688388,1.4872849,2.3995082,-1.9760655,-7.190535,591
1747533605690,2.404574,-1.5419537,1.28154465,2.6581012,-1.8455707,-6.8658958000000005,592
1747533605700,2.4230003,-1.5195004,1.2005177,2.7196202,-1.8210696,-6.8001156,593
1747533605710,2.4762049,-1.4423783,0.87250465,2.5571673,-1.9462382,-6.911968,594
1747533605720,2.395666,-1.5109584,0.77903074,2.2322617,-2.172607,-7.04992,595
1747533605730,2.3673553,-1.7332945,0.7873287,1.8152106,-2.1608889,-6.8608358,596
1747533605740,2.2150636,-1.9107243,0.8085616,1.6847157,-2.0889835,-6.7255473,597
1747533605750,1.9907749,-1.9297606,0.835408,1.4796523,-1.8226675,-6.279734,598
1747533605760,1.4570218,-1.5930837,0.7814712850000001,1.3736585,-0.9337043,-5.5015583,599
1747533605770,1.3828284,-1.5365844,0.7243619,1.3938985,-0.5203817,-5.18624,600
1747533605780,1.2993608,-1.4809394,0.6025773,1.3859091,-0.2130529,-4.9811764,601
1747533605790,1.1909994,-1.4548253,0.48640612,1.3837786,-0.0026631611,-4.9087386,602
1747533605800,0.595377645,-1.66898555,0.28579104,1.5912388,0.21997711,-4.7947553,603
1747533605810,-0.021965155,-1.9153614,0.129594405,1.7507621,0.15446335,-4.72285,604
1747533605820,-0.25015867,-2.0144486,0.06296677,1.979794,-0.36005938,-4.729774,605
1747533605830,-0.99221475,-2.43971835,0.00964026075,2.1528995,-1.1579424,-4.7382965,606
1747533605840,-1.2429836,-2.6265442,0.034900185,2.3046997,-1.8322549,-4.5753107,607
1747533605850,-2.3502713,-3.2199694,-0.36694007,2.81362975,-1.80828645,-3.155846,608
1747533605860,-2.4908483,-3.3352865,-0.90447615,2.7521107,-1.717739,-2.7771444,609
1747533605870,-2.554059,-3.3391914,-1.1707426,1.6575515,-1.3869743,-1.9430424,610
1747533605880,-2.626056,-3.2074003,-1.240787,0.5400891,-1.0162623,-1.3427658,611
1747533605890,-2.4603412,-3.2867188,-1.0160104,-0.41172472,-0.41705105,-0.8767126,612
1747533605900,-2.56638395,-3.380681,-0.60941095,-1.3907027,0.76272935,0.046871636,613
1747533605910,-2.6282525,-3.426564,-0.630888,-1.6724652,0.9715212,0.62371236,614
1747533605920,-2.6441162,-3.4556065,-0.7082541,-1.9718045,0.9187906,1.2037488,615
1747533605930,-2.5644314,-3.3900772000000003,-0.57426671,-2.4959147,0.8495484,2.139051,616
1747533605940,-2.5447848,-3.35115,-0.47078642,-2.722816,0.8815063,2.5848641,617
1747533605950,-2.5635774,-3.2327824,-0.34070393,-2.9049761,1.0759171,3.2107072,618
1747533605960,-2.4923124,-3.1654224,-0.2443013,-2.996589,1.2149341,3.7763624,619
1747533605970,-2.3336754,-3.1088011,-0.12861817,-3.0136333,1.2729911,4.3670516,620
1747533605980,-2.23617445,-3.06609115,-0.0583296825,-2.97341945,1.28737215,4.68236995,621
1747533605990,-1.4572659,-2.8537614,0.102992155,-2.6434538,1.484446,6.288256,622
1747533606000,-1.0657979,-2.7761512,0.08371163,-2.48526205,1.55581875,7.143663399999999,623
1747533606010,-0.60086894,-2.7261195,0.027334413,-2.4501083,1.5456988,7.4025226,624
1747533606020,-0.13593988,-2.6694982,-0.025137896,-2.463424,1.4365091,7.8749676,625
1747533606030,0.3533949,-2.643872,-0.044418417,-2.73187065,0.85700525,8.770855000000001,626
1747533606040,1.60016135,-2.6436281,0.2381998799999999,-2.8495824,0.345145685,9.263007,627
1747533606050,1.8218873,-2.6492414,0.36266908,-2.8245487,0.15819177,9.393502,628
1747533606060,2.3383124,-2.6751115,0.69690545,-2.38086605,-0.23648871,9.7208045,629
1747533606070,2.4918244,-2.681213,0.7807391,-2.1960428,-0.3254383,9.825467,630
1747533606080,2.8064144,-2.6450925,0.8507836,-1.8178738,-0.39414784,10.018812,631
1747533606090,3.0280182,-2.6053112,0.82711005,-1.47991865,-0.24527714,10.473680000000002,632
1747533606100,3.678675,-2.5098848,0.68580085,-1.4391723,-0.08894958,10.720821,633
1747533606110,4.21645525,-2.30060565,0.59074056,-2.0527646,0.651941865,10.676879,634
1747533606120,4.3417788,-2.2240937,0.56645685,-2.3031018,0.9214538,10.578076,635
1747533606130,4.403037,-2.0993805,0.58329684,-3.256247,1.7587516,9.8158795,636
1747533606140,4.180701,-2.0820522,1.2359059,-3.5766253,2.004295,9.387111,637
1747533606150,3.8971062,-1.9751552,1.7118175,-3.171825,1.6879115,9.007343,638
1747533606160,3.7318792,-1.9326894,1.93708235,-2.0602215,0.8713863350000001,8.5181205,639
1747533606170,3.649876,-1.9016942,1.9629525,-1.6447684,0.58962387,8.36126,640
1747533606180,3.51015345,-1.7757605,1.6786258,-0.570449115,-0.009853695,8.0949445,641
1747533606190,3.5100315,-1.7298778,1.4689806,-0.26738137,-0.13635385,8.016115,642
1747533606200,3.4198523,-1.6110219,1.32754945,-0.1078580275,0.600809155,7.5476649,643
1747533606210,3.3728712,-1.5871042,1.3054622,-0.14061491,0.84368944,7.4392743,644
1747533606220,3.2266808,-1.5295068,1.3423148,-0.15286545,1.3161342,7.234211,645
1747533606230,2.953825,-1.4328601,1.2654368,0.07137272,1.9861856,6.861901,646
1747533606240,2.8720655,-1.3935668,1.1656175,0.21252026,2.0421119,6.636065,647
1747533606250,2.7556505,-1.313028,1.0831261,0.38775626,1.8519622,6.3761406,648
1747533606260,2.7092795,-1.2813005,1.0055158,0.6854977,1.206412,6.0096893,649
1747533606270,2.5577199000000004,-1.1348662,0.83016068,1.2543489,0.30493196,5.67413115,650
1747533606280,2.5694346,-1.1026506,0.7687803,1.5254587,0.10333065,5.6038237,651
1747533606290,2.6797485,-0.9869675,0.51544887,1.5584819,0.6194513,5.6421733,652
1747533606300,2.8954952,-0.8649389,0.1871919,1.2836437,1.427987,5.6139436,653
1747533606310,3.37213895,-0.5248451249999999,-0.6018451899999999,0.58429754,2.3616912,5.438708,654
1747533606320,3.5376098,-0.41758195,-0.85444444,-2.0125509,3.3502567,4.64322135,655
1747533606330,3.3784842,0.122516744,-0.942305,-3.480219,3.5212317,4.2163167,656
1747533606340,3.069264,0.5217944,-0.31483385,-4.1502705,3.1712923,4.1012683,657
1747533606350,2.91721635,0.74596095,0.060526205,-4.1502705,3.1712923,4.1012683,658
1747533606360,2.74283735,1.19795495,0.82064253,-4.1278996,2.8293424,4.237622,659
1747533606370,3.9498224,2.0752187,1.4819156,-3.300722,2.4820662,4.674913,660
1747533606380,5.1845083,2.7092795,1.2166255,1.0594054,0.45486793,5.9484367,661
1747533606390,7.3685762,3.80826915,0.263093705,3.0461238,-0.413056295,5.08290925,662
1747533606400,7.9967794,4.2238984,-0.12764193,3.5995286,-0.66845345,4.4906225,663
1747533606410,7.9967794,4.8124428,-1.68545932,3.9731702,-1.31533525,0.14061495,664
1747533606420,7.9967794,4.403036500000001,-2.53770725,3.6948698,-1.4988271,-2.294047,665
1747533606430,7.9967794,4.081857,-2.6536345,2.8266792,-1.4567492,-3.8701057,666
1747533606440,7.319033149999999,2.90062035,-2.7414951500000004,0.93849798,-1.17924775,-5.14442835,667
1747533606450,6.97296,2.4923124,-2.6992733,0.24234766,-1.0402308,-5.4253917,668
1747533606460,5.93144515,1.08922755,-1.63530565,-3.0589068,-0.219977125,-5.942844,669
1747533606470,5.8959346,0.8593256,-1.3872215,-3.6314864,0.10333065,-6.086921,670
1747533606480,5.6551726,0.1588812775,-0.357055756,-4.605937300000001,1.257012075,-6.7607005,671
1747533606490,5.5318017,-0.045882765,0.021477038,-4.764928,1.6426378,-7.014766,672
1747533606500,4.9607078,-0.660052785,1.2799583,-3.58994115,1.9715382,-7.4880102,673
1747533606510,4.726413,-0.8993509,1.7279254,-2.7521107,1.9563582,-7.6587186,674
1747533606520,4.544346,-1.0350468,1.892908,-1.7092168,1.6586168,-7.7705717,675
1747533606530,4.377655,-1.1502419,2.0100555,-0.66579026,1.2330436,-7.8994684,676
1747533606540,4.1287165,-1.2356619,2.208718,0.44581318,0.7078682,-8.038486,677
1747533606550,3.5402944,-1.3066825,2.313907,2.8032434,-0.32810146,-8.036888,678
1747533606560,3.3267446,-1.3515891,2.181872,3.8706384,-0.74675035,-7.961254,679
1747533606570,3.1219804,-1.3908823,1.9202425,4.9263153,-1.176052,-7.939416,680
1747533606580,3.0006839000000003,-1.4551913,1.4427444,5.44723,-1.438107,-8.040616,681
1747533606590,2.9689565,-1.4787428,1.2695858,5.474660399999999,-1.55235665,-8.539959,682
1747533606600,2.6226392,-1.5624546,0.7826916,5.3002234,-1.5355787,-8.778845,683
1747533606610,2.382731,-1.5624546,0.73412424,4.9891663,-1.4876418,-8.836369,684
1747533606620,2.2602143,-1.5461026,0.7185045,4.6845,-1.4269217,-8.787367,685
1747533606630,2.2267783,-1.5507398,0.72070104,4.3920856,-1.3954965,-8.696819,686
1747533606640,2.2524045,-1.560014,0.76292294,4.141216,-1.3741912,-8.572716,687
1747533606650,2.3844392,-1.5578175,0.8581053,3.8935415,-1.6221315,-8.2768385,688
1747533606660,2.5032952,-1.6134624,1.0052718,3.865312,-1.8716697,-8.162056,689
1747533606670,2.4957294,-1.615415,1.1761118,4.0746365,-2.530003,-8.118913,690
1747533606680,2.566506,-1.5863721,1.23431955,4.4951495,-3.67409725,-8.114385500000001,691
1747533606690,2.72648545,-1.59003295,1.1314494000000002,4.6107308,-4.52630885,-8.292018500000001,692
1747533606700,2.81910515,-1.58319935,0.9946553,4.4935518,-4.93430495,-8.547149000000001,693
1747533606710,2.70525255,-1.5585496,0.8920292000000001,4.3809,-4.8714542,-8.633968,694
1747533606720,2.6192224,-1.5456146,0.8429737,3.9324238,-4.3425508,-8.654208,695
1747533606730,2.3470986,-1.5197445,0.68580085,3.480219,-3.73535,-8.49069,696
1747533606740,2.1052377,-1.4985116,0.60721445,3.016829,-3.1899345,-8.166317,697
1747533606750,1.836775,-1.4509203,0.65993077,2.4133565,-2.637062,-7.3881416,698
1747533606760,1.7801535,-1.4531169,0.6867771,2.2674153,-2.6035063,-6.9817433,699
1747533606770,1.7450093,-1.4992436,0.71191496,2.160889,-2.696717,-6.5497785,700
1747533606780,1.7191393,-1.5375606,0.7336361,2.0804615,-2.9017804,-6.1385865,701
1747533606790,1.6468983,-1.5126668,0.7817154,1.9963056,-2.9694247,-5.762548,702
1747533606800,1.6307905,-1.2715383,0.72582626,1.722,-2.4580977,-5.355617,703
1747533606810,1.5509838,-1.2666571,0.67506236,1.5558188,-2.0176108,-5.312474,704
1747533606820,1.3925906,-1.3142483,0.63967407,1.3848438,-1.6410398,-5.2490907,705
1747533606830,1.1121689,-1.3620834,0.60941094,1.1952267,-1.3592775,-5.1409664,706
1747533606840,0.72655845,-1.4484798,0.57988006,0.9917612,-1.1259845,-4.992362,707
1747533606850,-0.06638357,-1.8126132,0.7314396,0.8229168,-0.7637946,-4.7814393,708
1747533606860,-0.60062486,-2.0266514,0.84565836,0.97897804,-1.0018812,-4.732437,709
1747533606870,-1.1414558,-2.229951,1.0225998,1.4354439,-1.8024274,-4.4453487,710
1747533606880,-1.385513,-2.426173,1.05371715,1.66420945,-2.09430985,-4.2397525,711
1747533606890,-2.374921,-3.150535,0.7094744,2.5632926,-1.8876486,-2.39471455,712
1747533606900,-2.8587646,-3.5088111,-0.4634647229999999,1.82692855,-1.3701964000000002,-1.51320815,713
1747533606910,-2.95467905,-3.54590775,-0.942061,1.2564794,-1.1142666,-1.0594054,714
1747533606920,-2.8945189,-3.5454195,-1.0562798,-0.14753912,-0.4745753,-0.28708878,715
1747533606930,-2.7000053,-3.602773,-0.9813542,-1.504686,0.36485308,0.2146508,716
1747533606940,-2.809587,-3.598136,-0.39342028,-3.2804818,1.8077538,0.9986854,717
1747533606950,-2.8791435,-3.5576227,-0.18426323,-3.678358,2.2386532,1.5803198,718
1747533606960,-2.8252068,-3.4900186,-0.13593988,-3.8083205,2.3931167,2.108691,719
1747533606970,-2.686582,-3.371651,-0.12910628,-3.8573227,2.4783378,2.5992453,720
1747533606980,-2.5950606,-3.1781135,-0.082735404,-3.8472025,2.4847293,3.08181,721
1747533606990,-2.451067,-3.0219169,-0.024649782,-3.7758298,2.4820662,3.5547874,722
1747533607000,-2.0486166,-2.7510133,0.0024405725,-3.568636,2.595517,4.3952813,723
1747533607010,-1.8658178,-2.6550987,-0.028798755,-3.4626422,2.6626284,4.8320394,724
1747533607020,-1.6561725,-2.5843222,-0.113974735,-3.4346789,2.6754116000000003,5.0813115,725
1747533607030,-1.3518331,-2.5423443,-0.23746772,-3.4706316,2.7126958,5.9766665,726
1747533607040,-0.55962324,-2.4466739,-0.3682824,-3.9803605,2.70417395,7.1527182,727
1747533607050,0.1947576899999999,-2.3849274,-0.29787187,-4.24161665,2.62827375,7.4350132,728
1747533607060,0.4373506,-2.3456342,-0.2706595,-4.3761063,2.5630262,7.5404744,729
1747533607070,0.94572186,-2.2611904,-0.21525851,-4.6988816,2.3276029,7.661382,730
1747533607080,1.6398207,-2.2104263,0.03929322,-5.382249,1.6591494,7.753527,731
1747533607090,1.939767,-2.2182362,0.33704305,-5.5244613,1.1329087,7.73382,732
1747533607100,2.1682045,-2.179187,0.6967834,-5.316202,0.40266997,7.7103844,733
1747533607110,2.3209844,-2.170157,1.0714114,-4.891162,-0.08894958,7.84514,734
1747533607120,2.4361794,-2.1610049,1.23761435,-4.36279075,-0.334759365,8.104532,735
1747533607130,2.6998833,-2.1666182000000003,1.37074755,-3.63681295,-0.55580175,8.466988,736
1747533607140,2.8483922,-2.1813836,1.3376778,-3.2149682,-0.46019423,8.664329,737
1747533607150,3.0028803,-2.1950507,1.3096112,-3.1228228,-0.40213734,8.688829,738
1747533607160,3.3404117,-2.1071904,1.2429836,-3.145726,-0.3850931,8.587097,739
1747533607170,3.34761135,-2.08790985,1.3179091500000002,-3.22562075,-0.51851747,8.382566,740
1747533607180,3.2935524000000003,-2.03519345,1.73414875,-2.7662254500000003,-1.1845741,8.01451725,741
1747533607190,3.29818965,-1.9954121,1.81871455,-2.20909215,-1.427987,7.90159925,742
1747533607200,3.3089283,-1.9734468,1.8257922,-1.9105518,-1.5142734,7.838216,743
1747533607210,3.252795,-1.7699032,1.5648952,-1.3699301,-1.5057513,7.690144,744
1747533607220,2.9313715,-1.7130377,1.4291992,-0.73343456,-1.0679276,7.5505943,745
1747533607230,2.7749307,-1.7020552,1.309123,-0.59761333,-0.68869346,7.628359,746
1747533607240,2.56955685,-1.65043705,1.20283615,-0.453003705,-0.1736381075,7.88109285,747
1747533607250,2.672793,-1.63127865,1.06335745,-0.404800485,0.0439421574999999,7.95832435,748
1747533607260,2.81398,-1.615415,0.9691513,-0.396811,0.10333065,7.931959,749
1747533607270,2.8942749,-1.5869823,0.93034618,-0.4247742,0.120108565,7.80732315,750
1747533607280,3.0285063,-1.4772785,0.8690878,-0.51984906,0.2657835,7.3577814,751
1747533607290,2.9360087,-1.4218775,0.90838104,-0.5502091,0.47351006,7.097857,752
1747533607300,2.8191054,-1.3923465,1.0247964,-0.4708469,0.6514092,6.9476547,753
1747533607310,2.6621764,-1.3625716,1.1204668,-0.21944448,0.6918893,6.9013157,754
1747533607320,2.6062875,-1.1997855,1.0450531,0.716923,0.076166406,6.9364696,755
1747533607330,2.8731639,-0.95389778,0.68128583,1.0705907,-0.083090626,6.8224864,756
1747533607340,2.9911656,-0.88641596,0.50544256,1.1867046,0.0479369,6.599846,757
1747533607350,3.32113095,-0.566578915,-0.336188865,0.35526567,0.429035265,6.00675985,758
1747533607360,3.4131405,-0.40171823,-0.74486274,-0.283893,0.53263223,5.714611,759
1747533607370,3.3011184,-0.11226633,-0.8812907,-1.0386329,0.63702816,5.7614827,760
1747533607380,3.32528,0.24234885,-0.8463905,-1.7512947,0.598146,5.914348,761
1747533607390,3.5407825,0.78684056,-0.5937913,-2.267948,0.3850931,5.9777317,762
1747533607400,4.0684342,1.2644606,-0.19817449,-2.3947146,0.1257012,5.8477693,763
1747533607410,5.42344,2.1076784,0.32337585,-1.0583402,-0.43995422,5.433914,764
1747533607420,6.47544875,3.103676,0.187191913,0.014913702,-0.6061355,5.2954297,765
1747533607430,7.393470199999999,3.87343255,-0.302997087,1.107875,-0.52357745,4.9422946,766
1747533607440,7.9537034,4.47210505,-1.23737025,1.8066885,-0.35473305,4.033091,767
1747533607450,7.9967794,4.6924887,-1.8392154,1.6010925,-0.30626354,0.65460503,768
1747533607460,7.9967794,4.296628,-1.9358622,1.1057445,-0.3749731,-1.1925635,769
1747533607470,7.9967794,3.743594,-1.8026069,0.62744075,-0.3153183,-2.8224182,770
1747533607480,7.9967794,2.9933622,-1.6046765,0.08042747,-0.050600063,-4.2365565,771
1747533607490,7.592865,2.2243378,-1.4074782,-0.3888215,0.14274544,-5.065865,772
1747533607500,6.267146,0.9964857,-0.71777236,-0.980842265,0.4727111,-6.3068981,773
1747533607510,5.7311964,0.5657247,-0.33826336,-0.99548966,0.47830373,-6.449111,774
1747533607520,5.2633386,0.26626647,0.105676785,-0.7845673,0.35100463,-6.664827,775
1747533607530,4.9677854,0.06980037,0.37584817,-0.37124467,0.2428803,-6.818758,776
1747533607540,4.78401,-0.13398743,0.50690687,0.10652645,0.11558119,-6.978015,777
1747533607550,4.573877,-0.35827604,0.39927766,1.0615361,-0.22210763,-7.407316,778
1747533607560,4.4664917,-0.4471129,0.22843759,1.2447615,-0.509729,-7.6544576,779
1747533607570,4.3632555,-0.50593066,0.14741059,1.3113406,-0.80800307,-7.9053273,780
1747533607580,4.2819843,-0.61722076,0.10348027,1.2820457,-1.051416,-8.160459,781
1747533607590,4.02181955,-0.86408465,0.34375466,1.427987,-1.3259879,-8.806541,782
1747533607600,3.8705041,-1.0035634,0.5020258,1.5877767,-1.4705976,-9.16447,783
1747533607610,3.6091187,-1.1739154,0.6057501,1.9265307,-1.7848506,-9.521867,784
1747533607620,3.49160505,-1.25433225,0.6253967,2.092712,-1.96647825,-9.6579545,785
1747533607630,3.134427,-1.4887493,0.59037447,2.5497105,-2.4527714,-10.00816,786
1747533607640,2.9533367,-1.632743,0.48518583,2.6130936,-2.538525,-10.064086,787
1747533607650,2.6746234,-1.81066075,0.4828672699999999,2.2852586500000003,-2.79711815,-9.975935,788
1747533607660,2.6414316,-1.8406798,0.5127643,2.1976407,-2.892193,-9.946374,789
1747533607670,2.5125692,-1.8946164,0.60062486,2.0548952,-3.15265,-9.8228035,790
1747533607680,2.4125059,-1.9080396,0.66993713,1.834918,-3.6128445,-9.35035875,791
1747533607690,2.4105535,-1.9112122,0.8180799,1.7630126,-3.759851,-9.1511545,792
1747533607700,2.4744964,-1.8536148,0.9276616,1.6197346,-4.5151234,-8.309595,793
1747533607710,2.523552,-1.7555038,1.0025872,1.6458336,-4.7553406,-8.0342245,794
1747533607720,2.553083,-1.7125497,1.0130817,1.6735305,-4.829376,-7.781757,795
1747533607730,2.5674823,-1.7145022,0.9115538,1.62026725,-4.6751792000000005,-7.3732278,796
1747533607740,2.561869,-1.700835,0.8607899,1.5808525,-4.5843654,-7.2347436,797
1747533607750,2.44874835,-1.62883805,0.52923812,1.1707256,-3.8876827,-6.7106333,798
1747533607760,2.4359353,-1.6254213,0.48957884,0.908138,-3.5542548,-6.446448,799
1747533607770,2.4020116,-1.6051645,0.41001618,0.6380934,-3.2314796,-6.2525697,800
1747533607780,2.3161032,-1.5319474,0.35607952,0.25992453,-2.743056,-6.1332603,801
1747533607790,1.965637,-1.432616,0.47347105,-0.1736381,-2.0271983,-5.9489694,802
1747533607800,1.8128573,-1.3801438,0.5010495,-0.26684874,-1.7315874,-5.8632154,803
1747533607810,1.66227395,-1.3541515999999998,0.5008054749999999,-0.30786143,-1.44822705,-5.768140649999999,804
1747533607820,1.6090695,-1.3713577,0.49446,-0.3089267,-1.3582122,-5.722068,805
1747533607830,1.4702009,-1.3962514,0.49934113,-0.28655612,-1.2271847,-5.5633435,806
1747533607840,1.1858741,-1.4018649,0.5937913,-0.21624869,-1.1851068,-5.3566823,807
1747533607850,1.0496902,-1.3454876,0.6572462,0.33768883,-1.315069,-4.850682,808
1747533607860,0.73802913,-1.27776175,0.58207652,0.71159667,-1.3763217,-4.6179214,809
1747533607870,0.58085626,-1.2664131,0.48957884,1.0546118,-1.1669972,-4.279167,810
1747533607880,0.58085626,-1.2664131,0.48957884,1.3044163,-1.1669972,-4.279167,811
1747533607890,0.20964517,-1.3818521,0.3226437,1.6021577,-1.026915,-4.209925,812
1747533607900,0.06662763,-1.4736177,0.23844394,1.627724,-1.1211908,-4.250938,813
1747533607910,-0.15912533,-1.5792944,0.15888128,1.598962,-1.2575446,-4.2887545,814
1747533607920,-0.73388016,-1.9919952,-0.30165476,1.1121361,-1.423726,-4.312723,815
1747533607930,-1.4551913,-2.4755946,-0.74376442,-0.0247673999999999,-0.98563595,-4.2525358,816
1747533607940,-1.7420806,-2.6043348,-0.88324314,-0.46711847,-0.8543421,-4.207262,817
1747533607950,-2.3507595,-2.8676727,-0.84614646,-1.70628735,-0.9206548,-3.7526603,818
1747533607960,-2.8713336,-3.0707283,-0.33069757,-1.9734024,-0.984837,-3.5542548,819
1747533607970,-3.9836246,-3.5078349,0.6272271,-1.54303555,-1.0298444,-1.9643477,820
1747533607980,-4.1458006,-3.52199,0.7353445,-1.3518206,-1.0295781,-1.5456988,821
1747533607990,-4.3251824,-3.5063703,0.7831797,-0.99708754,-0.88203895,-0.6354303,822
1747533608000,-4.3127356,-3.5073469,0.73632073,-0.8005462,-0.57417756,0.28655612,823
1747533608010,-4.148485,-3.4302247,0.55840296,-0.9241169,0.19014971,1.4327807,824
1747533608020,-3.526383,-3.2418125,0.3214234,-1.7603495,2.0351877,2.9864688,825
1747533608030,-3.20618,-3.1800659,0.3248402,-2.120409,2.8138962,3.701794,826
1747533608040,-2.8871973,-3.073901,0.3236199,-2.3238745,3.3529198,4.347877,827
1747533608050,-2.4959733,-2.9533367,0.31947094,-2.372344,3.5649076,4.9422946,828
1747533608060,-2.1352568,-2.8554697,0.255772,-2.3281355,3.6037896,5.527657,829
1747533608070,-2.1352568,-2.8554697,0.255772,-2.3281355,3.6037896,5.527657,830
1747533608080,-0.9859913,-2.6559529,-0.0538146255,-2.74305595,3.3308157,6.9953253,831
1747533608090,-0.3577879,-2.561869,-0.122760795,-3.16463435,3.03813435,7.5979986,832
1747533608100,0.21281794,-2.5696788,0.099087246,-3.2538502,2.8394625,7.7386136,833
1747533608110,0.98477095,-2.3807786,0.46200037,-3.0626354,2.0373182,8.118913,834
1747533608120,1.3144923,-2.3944457,0.5469323,-2.9017804,1.6687368,8.331966,835
1747533608130,1.7443992,-2.3674773,0.78330174,-2.44877665,0.909203215,8.634501,836
1747533608140,2.0478844,-2.3267197,0.960243225,-2.241849,0.62317973,8.711733,837
1747533608150,2.4360574,-2.216772,1.0493241,-1.6484967,0.03888215,8.752213,838
1747533608160,2.6699862,-2.131108,1.0501783,-0.13156016,-0.6412892,8.530106,839
1747533608170,2.792259,-2.0639923,0.7919658,0.17310548,-0.4607269,8.413459,840
1747533608180,2.8315523,-2.0232346,0.5559624,-0.0431432099999999,0.382962574,8.575645,841
1747533608190,2.9140437,-1.9583154,0.409284,-0.2066613,0.7568704,8.687764,842
1747533608200,2.9352765,-1.8709428,0.2608972,-1.744104215,2.7403929,9.325325,843
1747533608210,3.2361991,-1.9339097,0.1871919,-2.6828685,3.7385457,9.58525,844
1747533608220,3.2950168,-1.9724706,0.3526627,-3.6043222,4.4133906,9.5037565,845
1747533608230,3.1573687,-2.0144486,0.5544981,-4.4858284,4.6743803,9.252355,846
1747533608240,3.0856156,-2.1237862,0.84004503,-4.8725195,4.222708,8.9199915,847
1747533608250,3.1197836,-1.9771078,1.5373166,-4.126302,1.9441077,7.6134453,848
1747533608260,2.9447947,-1.8736275,1.8602043,-3.038667,0.5209143,6.964166,849
1747533608270,2.6961005,-1.7559919,1.97784,-1.7251958,-0.83250415,6.5886607,850
1747533608280,2.48755345,-1.74757195,1.6581249,-0.108923305,-2.0863204,6.50716785,851
1747533608290,2.4378879,-1.7243865,1.20076165,0.43968788,-1.9257318,6.743124,852
1747533608300,2.42959,-1.6903405,0.9003272,0.5725796,-1.5185345,6.9396653,853
1747533608310,2.5142777,-1.6598334,0.7292431,0.16777915,-0.6087986,7.057377,854
1747533608320,2.5679703,-1.6337193,0.686289,-0.35100463,0.41438788,7.1191626,855
1747533608330,2.7272177,-1.59393795,0.82613377,-0.8149273,1.2916331,7.104781,856
1747533608340,2.792259,-1.577098,0.8808026,-1.1100056,1.9403793,6.9625683,857
1747533608350,2.8298438,-1.5497636,1.1182703,-1.1675298,2.191249,6.5918565,858
1747533608360,2.830576,-1.488017,1.1648853,-0.8586032,1.68152,6.5721493,859
1747533608370,2.957974,-1.3789234,1.1497537,-0.6263755200000001,1.278583685,6.55190915,860
1747533608380,3.18189645,-1.2291943,1.00087875,-0.06498113,0.4860269,6.48160165,861
1747533608390,3.2686589,-1.1929518,0.9071608,0.6823019,0.5773733,6.294115,862
1747533608400,3.355787,-0.946454,0.035876416,0.5422196,1.2042814,6.299974,863
1747533608410,3.367746,-0.8664033,-0.46444094,-0.20719394,1.6996294,6.363357,864
1747533608420,3.3795827000000003,-0.744984785,-0.655537755,-0.76619147,1.81920535,6.40889715,865
1747533608430,3.603017,-0.15863721,-0.9669548,-1.93771605,1.91827495,6.4304688,866
1747533608440,3.8268178,0.34265637,-0.63015586,-2.99286055,1.8000306,6.340187650000001,867
1747533608450,5.0502768,1.125348,0.69458693,-2.2237395,-0.0684432349999999,6.3055665,868
1747533608460,5.96842,1.798946,1.2219946,-1.6154735,-0.46498793,6.26482,869
1747533608470,6.4317625,2.1098749,1.26043365,-0.9704559,-0.7544735149999999,6.02433675,870
1747533608480,7.5616255,3.1861675,1.1199788,0.82877576,-1.1845741,5.0397663,871
1747533608490,7.9967794,3.9832585,0.750232,1.7331853,-0.94116116,4.1326933,872
1747533608500,7.9967794,5.0493,-0.29579738,2.7499802,-0.2561961,1.3619406,873
1747533608510,7.9967794,4.886514,-0.79831123,2.7499802,-0.2561961,-0.2050634,874
1747533608520,7.9967794,4.5514235,-1.1836777,2.9033782,-0.46978164,-1.7235979,875
1747533608530,7.9967794,4.229512,-1.428711,2.6594326,-0.8016115,-3.1190944,876
1747533608540,7.5782213,2.7175775,-1.381364,1.6698021,-0.7174556,-5.9260664,877
1747533608550,6.7816186,1.9136529,-1.0374874,1.4375744,-0.74461985,-6.745787,878
1747533608560,6.06165,1.1907552,-0.6977597,1.3502227,-1.0354371,-7.1958613,879
1747533608570,5.7698795,0.9261972,-0.5542540149999999,1.3203953,-1.23650575,-7.277886649999999,880
1747533608580,5.137405,0.31434575,-0.22233616,1.1526161,-1.6943032,-7.4419374,881
1747533608590,4.9646125,-0.11592719,0.021232981,0.60080916,-1.4828482,-7.931959,882
1747533608600,4.733002,-0.28701133,0.25259924,0.46658584,-1.1291803,-8.221711,883
1747533608610,4.386929,-0.4829893,0.40049794,0.50813115,-0.6780408,-8.439558,884
1747533608620,4.2478163,-0.5571827,0.43259147,0.5701828,-0.5936186,-8.497348500000001,885
1747533608630,3.8656228,-0.76975656,0.56474847,0.8772453,-0.5523396,-8.637697,886
1747533608640,3.27817705,-1.01234945,0.829184485,1.2229236,-0.79415464,-8.706939,887
1747533608650,3.1637142,-1.0697029,0.84663457,2.111354,-1.4503576,-8.839564,888
1747533608660,2.9857962,-1.1888028,0.8808026,2.5161545,-1.9265307,-8.905078,889
1747533608670,2.9184365,-1.2512815,0.92961405,2.902313,-2.5608957,-8.967929,890
1747533608680,2.753942,-1.4418901,1.0218678,3.2240229,-3.095126,-9.016398,891
1747533608690,2.6197107,-1.5504957,0.77024466,2.716158,-3.8304247,-9.01746375,892
1747533608700,2.6326456,-1.5617223,0.7524285,2.4319987,-3.8647795,-8.9956255,893
1747533608710,2.6868262,-1.568556,0.8053889,1.7859159,-3.6123118,-8.901882,894
1747533608720,2.8662083,-1.6085813,1.057012,1.2735237,-3.2314796,-8.835303,895
1747533608730,2.9565094,-1.5888127,1.509006,1.0807108,-2.8692899,-8.782573,896
1747533608740,2.843755,-1.5790504,1.9507496,1.613343,-2.069276,-8.62012,897
1747533608750,2.7610197,-1.5873483,1.909748,2.0224047,-1.7662084,-8.426242,898
1747533608760,2.6829214,-1.6032121,1.7603849,2.4250746,-1.6666062,-8.1434145,899
1747533608770,2.4825501,-1.5785623,1.2978964,2.5427863,-1.83891275,-7.9918804,900
1747533608780,2.3119543,-1.5436621,1.1570754,2.6178875,-2.3089607,-7.6752305,901
1747533608790,2.1894376,-1.4379853,1.0865428,2.5486453,-2.646117,-7.4573836,902
1747533608800,2.1757705,-1.3403623,1.0267489,2.4570324,-2.8969867,-7.1985245,903
1747533608810,2.2031047,-1.3154685,0.9772052,2.3281355,-3.0024478,-6.9567094,904
1747533608820,2.31842185,-1.2931373,0.98391675,2.20749425,-2.8839372,-6.88187455,905
1747533608830,2.507688,-1.3662325,0.976229,1.9574234,-2.3222766,-6.848585,906
1747533608840,2.4856009500000003,-1.43896155,0.9584128,1.9012307,-2.14997005,-6.8296765,907
1747533608850,2.2575295,-1.5653832,0.88836837,1.7358484,-1.7113473,-6.639261,908
1747533608860,1.9068193,-1.4909457,0.7695125,1.6378441,-1.5462314,-6.4033046,909
1747533608870,1.7171869,-1.4514085,0.7412019,1.5350461,-1.567004,-5.960687,910
1747533608880,1.6298143,-1.43371435,0.7361987,1.56274295,-1.67060095,-5.8730692,911
1747533608890,1.4223657,-1.3977158,0.7304634,1.7113473,-2.0181434,-5.6842513,912
1747533608900,1.227852,-1.4399377,0.74291027,1.7869811,-2.1108215,-5.64963015,913
1747533608910,0.5957437,-1.6171232,0.8561529,2.0639498,-2.3094933,-5.5010257,914
1747533608920,0.4785962299999999,-1.658735,0.8732368699999999,2.4559672,-2.3252059000000003,-5.22166015,915
1747533608930,0.21257387,-1.7511108,0.86103404,3.18301,-2.2343922,-4.748949,916
1747533608940,0.033191785,-1.8521506,0.7412019,3.4205642,-1.9430424,-4.6264434,917
1747533608950,-0.3939084,-2.48133,-0.21062139,3.218164,-1.325189,-4.4064665,918
1747533608960,-0.79709095,-2.7859135,-0.87909424,3.218164,-1.325189,-4.4064665,919
1747533608970,-1.3315763,-2.9101386,-1.1800168,0.62744075,-0.76912093,-4.1502705,920
1747533608980,-1.54927535,-3.0123986,-1.1087521,-0.1049285549999999,-0.5520733,-4.05839135,921
1747533608990,-2.2367847,-3.3189347,-0.622346,-2.018676,0.2876214,-3.6400087,922
1747533609000,-3.4043546,-3.8111982,0.05051985,-2.2604911,0.96992326,-2.2897859,923
1747533609010,-3.8080251,-3.926881,0.1466784,-2.014415,1.0972224,-1.2772521,924
1747533609020,-3.9034517,-3.9166307,0.1330112,-1.6921726,0.9502159,-0.21944448,925
1747533609030,-3.79362595,-3.8694057,0.03819496,-1.60668515,0.84182523,0.22077606,926
1747533609040,-3.363841,-3.7013721,-0.20964517,-1.5664713,0.67324716,1.3006879,927
1747533609050,-2.979451,-3.4290044,-0.33704305,-1.788579,0.8697884,1.8200043,928
1747533609060,-2.8359451,-3.26573,-0.32898918,-2.632801,1.5435683,2.8463867,929
1747533609070,-2.53758525,-3.0390009,-0.1022599825,-2.9395974,1.7848506,3.202185,930
1747533609080,-2.476937,-2.979451,-0.024405725,-3.0637007,2.038916,3.6203012,931
1747533609090,-2.3683317,-2.9352765,0.06687169,-3.0786142,2.2674153,4.188087,932
1747533609100,-1.8196908,-2.7915268,0.031239327,-3.06157,2.6072347,5.479188,933
1747533609110,-1.3874654,-2.7314887,-0.039537273,-3.1031153,2.683401,6.026734,934
1747533609120,-1.057012,-2.6455805,-0.14252943,-3.2341428,2.7361317,6.5130267,935
1747533609130,-0.58085625,-2.60653135,-0.258090525,-3.7569214,2.7142939000000004,7.3021215,936
1747533609140,-0.4041588,-2.6116564,-0.28432667,-4.0080576,2.6881948,7.604923,937
1747533609150,0.524479,-2.6319134,-0.20159128,-4.9316416,2.4197483,8.36925,938
1747533609160,0.9928249,-2.6826773,-0.11226633,-5.3827815,2.1704764,8.606272,939
1747533609170,1.3252308,-2.7485726,-0.010006348,-5.8152785,1.9355855,8.81453,940
1747533609180,1.667399,-2.8964713,0.20012695,-6.174273,1.6974989,9.072325,941
1747533609190,2.204569,-3.0670674,0.8122225,-6.0062275,1.14542555,9.7469035,942
1747533609200,2.3879781,-3.1234447000000003,1.121565,-5.54177225,0.9872338,10.1077615,943
1747533609210,2.4286137,-3.133451,1.1951483,-5.247493,0.9038769,10.318151,944
1747533609220,2.586763,-3.1024559,1.2222387,-4.563593,0.6151902300000001,10.6981845,945
1747533609230,3.0676775000000003,-3.05217995,0.927173485,-4.379302,0.51984906,10.7842045,946
1747533609240,3.3465128,-2.997267,0.75950617,-4.2461443,0.06924219,10.776216,947
1747533609250,3.84695245,-2.9141656,0.54339345,-4.8714545000000005,-0.2394181825,10.273676,948
1747533609260,3.972764,-2.9040372,0.5598673,-5.140434,-0.3669836,10.061422,949
1747533609270,4.124811,-2.9179485,0.84907514,-5.527657,-0.6002765,9.546368,950
1747533609280,4.102846,-2.9816473,1.2869139,-5.5319185,-0.82824314,9.013735,951
1747533609290,3.85000295,-2.90428115,1.70596015,-3.9579902,-1.4141386,8.230765,952
1747533609300,3.3074636,-2.6919515,2.1738179,-2.9092371,-1.6223978,8.082162,953
1747533609310,3.0946457,-2.5806613,1.9990729,-2.0373182,-1.7347832,8.02943,954
1747533609320,2.945771,-2.4910922,1.7584325,-1.464206,-1.707619,8.02943,955
1747533609330,2.96785805,-2.17320775,1.3631817,-1.1510183,-1.4759239,8.009191,956
1747533609340,3.036072,-1.9692979,1.1829455,-1.2479573,-0.757403,7.590009,957
1747533609350,3.0883005,-1.7738081,1.1560992,-1.5632756,-0.38562572,7.2059813,958
1747533609360,3.1439455,-1.6144388,1.2822767,-1.937716,0.05006743,6.598248,959
1747533609370,3.1012354,-1.50925,1.5058333,-2.0762005,0.40053943,6.043778,960
1747533609380,2.9706647,-1.5387809,1.7550157,-1.988316,0.71585774,5.523396,961
1747533609390,2.2826674,-1.5373166,2.2604582,-0.81705785,1.0966897,5.058941,962
1747533609400,2.1169527,-1.5722169,2.1896815,0.034621093,1.0444918,5.113802,963
1747533609410,2.0964518,-1.5492754,1.8409238,0.74248934,0.9108011,5.185175,964
1747533609420,2.30487665,-1.0755603,0.88043653,1.06979185,0.781105165,5.1891693,965
1747533609430,2.4230003,-0.7990434,0.42685616,1.0285128,0.76912093,5.156945,966
1747533609440,3.0291165500000004,-0.342046235,-0.0137892349999999,-0.705737665,1.0772487,4.0759681,967
1747533609450,2.9948266,-0.24015234,-0.12007617,-1.1680624,1.2138689,3.8637142,968
1747533609460,2.7261195,-0.19719826,-0.044174362,-2.1007016,1.6069515,3.7982004,969
1747533609470,2.2697322,-0.088348724,0.26651052,-2.8160267,2.0953753,4.15826,970
1747533609480,1.9973645,0.093717985,0.70020026,-3.1649008,2.4485104,4.7500143,971
1747533609490,3.1473622,0.6033095,1.4448189,-2.3973777,1.5638082,5.584649,972
1747533609500,4.0413437,0.95011485,1.4130914,-1.5137408,0.24074976,5.7577543,973
1747533609510,5.110315,1.5722169,1.334261,-0.57577544,-1.6229304,5.759885,974
1747533609520,5.7682932000000005,2.0838829,1.334383,0.0564590099999999,-2.6538401,5.6051553,975
1747533609530,7.6106815,3.5959396,1.274467,1.7028252,-4.0096555,4.841627,976
1747533609540,7.9967794,5.209158,0.38902727,2.8149614,-1.3214606,1.8253306,977
1747533609550,7.9967794,4.7603366000000005,-0.44540445,2.7276096,0.1107875,-0.17736652,978
1747533609560,7.9967794,4.4486756,-0.6545615,2.4607608,0.9752496,-1.8402443,979
1747533609570,7.520868,3.0512037,-0.88934463,1.9457055,0.6114618,-4.078365,980
1747533609580,6.918047,2.348807,-0.895202,1.5654061,0.10226539,-4.857606,981
1747533609590,6.307904,1.6764293,-0.7507201,0.7747136,-0.393082575,-5.690909,982
1747533609600,5.896179,1.1697664,-0.5440036,0.5496765,-0.45327002,-5.861085,983
1747533609610,5.5386353,0.38585448,-0.32166746,0.08468852,-0.35473305,-6.11302,984
1747533609620,5.50202665,0.200126929,-0.25064679,-0.47164584,-0.1027980149999999,-6.40969615,985
1747533609630,5.2970185,-0.35168648,0.174745,-1.4956313,0.39254996,-7.0467243,986
1747533609640,5.068581,-0.6252747,0.65163285,-1.6937705,0.6450176,-7.2938657,987
1747533609650,4.8406315,-0.8717725,1.1953924,-1.5190672,0.8905611,-7.437144,988
1747533609660,4.561186,-0.97403246,1.7296337,-0.9150622,1.0828413,-7.505853,989
1747533609670,4.1841173,-1.1165619,2.2004201,1.427987,1.1313108,-7.5505943,990
1747533609680,4.0423203,-1.1780643,2.2148197,3.11137115,0.58163438,-7.78841465,991
1747533609690,3.9439652,-1.2246792,2.1686926,3.6575856,0.32011196,-7.8882833,992
1747533609700,3.8756292,-1.287646,2.0637481,4.657869,-0.3797668,-8.170578,993
1747533609710,3.7572613,-1.3679409,1.931713,5.53831,-1.0887003,-8.550345,994
1747533609720,3.20495975,-1.6279838,1.3011913000000002,6.7883978,-2.475142,-9.4062855,995
1747533609730,2.9488217,-1.7125496,0.93925435,6.845922,-2.6684875,-9.535182,996
1747533609740,2.8208137,-1.7469617,0.7560893,6.4310017,-2.9060414,-9.701896,997
1747533609750,2.49158045,-1.7492803,0.337409135,4.4850297,-2.8008466,-9.657421,998
1747533609760,2.4588768,-1.735003,0.34778157,4.062386,-2.7398603,-9.623599,999
1747533609770,2.452043,-1.7240205,0.45223808,3.2916672,-2.5289378,-9.50642,1000
