timestamp,acc_x,acc_y,acc_z,gyro_x,gyro_y,gyro_z,id
1747533265570,0.017572122,0.18206671,0.84834296,-0.044208474,-0.00479369,-0.01917476,1
1747533265580,0.91204196,0.69117016,0.14960709,-0.43382895,-0.431432105,1.719070481,2
1747533265590,0.8474888300000001,0.7341242299999999,0.094206095,-0.584031235,-0.8460863000000001,3.22029445,3
1747533265600,0.5051985,0.78757274,-0.08956901,-0.499609025,-1.0082728,2.89219305,4
1747533265610,0.276272803,0.79111157,-0.149485065,-0.65700184,-1.12358765,3.0141658,5
1747533265620,0.053936653,0.7575537,-0.033923957,-0.98590225,-1.0349044,3.7694383,6
1747533265630,0.14350566,0.7492558,0.17889395,-0.91346425,-0.850081,4.1731734,7
1747533265640,0.29433304,0.7392494,0.33313814,-0.69721556,-0.64821345,4.4890246,8
1747533265650,1.3528093,0.86933196,0.3431445,-0.087884314,-0.69135666,4.206197,9
1747533265660,1.4640994,0.93290883,0.28298439,0.038349523,-0.72091773,3.869573350000001,10
1747533265670,1.51791405,1.01454595,0.1499731825,0.19973709,-0.7968178,3.18567335,11
1747533265680,1.4604386,1.0326062,0.077122085,0.23489082,-0.8431568,2.838397,12
1747533265690,1.110216435,0.968541185,-0.0309952775,0.112918036,-0.80107885,2.520682,13
1747533265700,0.4471129,0.79513854,-0.15595257,-0.24181503,-0.55766594,2.3094933,14
1747533265710,0.123004854,0.69287854,-0.045882765,-0.51931643,-0.33981937,3.1089742,15
1747533265720,0.29579738,0.68262815,-0.009274175,-0.60720074,-0.2050634,3.5137749,16
1747533265730,0.6374775,0.75096416,0.0065895454,-0.6743124,-0.051665325,3.7268276,17
1747533265740,0.8319911500000001,0.8012399299999999,0.0006101429499999,-0.7142598250000001,0.0175768625,3.7076529,18
1747533265750,1.1873385,0.8889785,-0.02403963975,-0.80906835,0.12650015,3.5470643,19
1747533265760,1.3908822,0.9354714,-0.059061855,-0.993625425,0.175502315,2.9350698,20
1747533265770,1.1756238,0.92497694,0.04368625,-1.1462245,0.07989483,2.10443,21
1747533265780,1.04590733,0.89959502,0.103480275,-1.07778125,0.015712649,2.0282635,22
1747533265790,0.7951384800000001,0.8516377799999999,0.208424885,-0.90547475,-0.074834829,2.0240025,23
1747533265800,0.64870415,0.8490751299999999,0.286279155,-0.6769755500000001,-0.153930713,2.26342075,24
1747533265810,0.87982635,0.9781814,0.31861675,-0.327835125,-0.3589941,2.57980425,25
1747533265820,1.1363305,1.087275,0.31825066,-0.10333065,-0.5113269,2.728675,26
1747533265830,1.46776025,1.2557966,0.189876545,0.0050600064999999,-0.5472796,2.3015039,27
1747533265840,1.5463467,1.33840995,0.0927417535,-0.1043959145,-0.5558017,1.87406655,28
1747533265850,1.4518965499999998,1.35207715,0.0447845035,-0.307861425,-0.48283111,1.4442323,29
1747533265860,1.11058255,1.210768,0.08322352,-0.5784385949999999,-0.24607609,1.1422298,30
1747533265870,0.6621273,1.0040516,0.28383857,-0.66845345,-0.018109497,1.1211908,31
1747533265880,0.5972081,0.9261973,0.400742,-0.4426174,0.002130529,1.2112057,32
1747533265890,0.59135073,0.76194674,0.44320798,0.24021713,0.0026631611,1.3880396,33
1747533265900,0.66749656,0.716308,0.340948,0.55766594,-0.01438107,1.4535533,34
1747533265910,0.7614586,0.70996255,0.2072046,0.8159926,-0.0644485,1.4354439,35
1747533265920,0.80123997,0.7136234,0.08932495,0.99495703,-0.16085494,1.3486248,36
1747533265930,0.78708461,0.6851907349999999,-0.041245675,1.030110765,-0.228232905,1.3052153,37
1747533265940,0.7641432,0.627105115,-0.2246546999999999,0.9235843,-0.376570985,1.2306468000000002,38
1747533265950,0.752062375,0.573290495,-0.28981798,0.662328185,-0.4327637,1.2149341,39
1747533265960,0.75389284,0.5100796,-0.28213018,0.3153183,-0.30306774,1.2942963,40
1747533265970,0.784277945,0.4940938849999999,-0.27554064,0.221841335,-0.252467675,1.3265206,41
1747533265980,0.81466305,0.47810817,-0.2689511,0.12836437,-0.20186761,1.3587449,42
1747533265990,0.87079622,0.46724758,-0.23771176,-0.16351809,-0.15952335,1.39815965,43
1747533266000,0.8439499,0.4698102,-0.18157859,-0.28495824,-0.23808661,1.3970944,44
1747533266010,0.81685966,0.4685899,-0.10860548,-0.32330775,-0.2593919,1.4413028,45
1747533266020,0.81490713,0.4566311,-0.036852647,-0.313187745,-0.257527675,1.48977235,46
1747533266030,0.83150303,0.44186565,0.0098843165,-0.09054748,-0.18908444,1.6287893,47
1747533266040,0.869942065,0.4130669,0.050641878,-0.033555831,-0.197606555,1.64370305,48
1747533266050,0.963416,0.3995217199999999,0.0111046055,0.064182182,-0.227700275,1.63331675,49
1747533266060,1.0919122,0.43027294,-0.08859278,0.1603223,-0.26205507,1.4849787,50
1747533266070,0.9967298,0.48176903,-0.19256116,0.13981596,-0.28362666,1.4066817500000002,51
1747533266080,0.97000555,0.481524975,-0.205984315,0.0865527375,-0.2974751,1.33237955,52
1747533266090,0.92522105,0.478596285,-0.213916175,0.0250337146999999,-0.286822475,1.3568806,53
1747533266100,0.89971705,0.474447275,-0.204886055,-0.06498113,-0.29827404,1.4498249,54
1747533266110,0.8969104,0.46700352,-0.1978084,-0.0897485299999999,-0.30786142,1.47805445,55
1747533266120,0.98428285,0.4742032,-0.21306199,-0.21358553,-0.35420042,1.5211977,56
1747533266130,0.992214725,0.48054871,-0.221848045,-0.255130845,-0.3390204,1.50655025,57
1747533266140,1.0202813000000002,0.505198495,-0.235149165,-0.3470099,-0.30013825,1.4828481,58
1747533266150,1.06970285,0.55315575,-0.233684815,-0.49428272,-0.2066613,1.4578145,59
1747533266160,1.2512815,0.6289356,-0.06882414,-0.59601545,-0.21038973,1.401888,60
1747533266170,1.300337,0.63381666,-0.008542004,-0.58909124,-0.17789917,1.3539511,61
1747533266180,1.3489044,0.6299118,0.043198135,-0.5640575,-0.11771172,1.24849,62
1747533266190,1.3617174,0.6375995999999999,0.0706545775,-0.537159575,-0.073503246,1.1853731,63
1747533266200,1.3672087,0.65504965,0.11129011,-0.42983422,0.07350325,0.9731191,64
1747533266210,1.3142483,0.6947089,0.12129645,-0.353401485,0.14194649,0.825047325,65
1747533266220,1.2488409,0.7990434,0.12154051,-0.2130529,0.23648871,0.5837649,66
1747533266230,1.27666345,0.833943625,0.11873385,-0.18109496,0.23089607,0.53289854,67
1747533266240,1.3365795500000002,0.896544325,0.1010397,-0.120108567,0.21837921,0.40772999,68
1747533266250,1.3924687,0.9447456,0.06382097,-0.086819057,0.20053603,0.2404834599999999,69
1747533266260,1.4787428,1.0455412,-0.056133166,-0.2263687,0.25353295,-0.29241508,70
1747533266270,1.5121787,1.0965492,-0.059305906,-0.27324033,0.2719087599999999,-0.4005394399999999,71
1747533266280,1.5634308,1.1363305,-0.0388051,-0.38456047,0.30146983,-0.7707188,72
1747533266290,1.58625015,1.1418218,-0.01745009205,-0.398142595,0.29348035,-0.9235843,73
1747533266300,1.598819,1.1304731,0.07736614,-0.37284255,0.25193503,-1.3827133,74
1747533266310,1.4399377,1.0484699,0.16180995,-0.13422333,0.2066613,-1.8210696,75
1747533266320,1.3877095,1.0089327,0.13374338,-0.02876214,0.20453078,-1.9350529,76
1747533266330,1.3864892,0.99306895,0.10945968,-0.0010652639999999,0.2237055399999999,-1.9811256,77
1747533266340,1.39649555,0.96256175,0.066017486,0.0242347669999999,0.28948561,-2.09457625,78
1747533266350,1.41650825,0.933030815,0.0320935285,-0.002130529,0.38535941,-2.21628275,79
1747533266360,1.4489679,0.87201655,0.04515059,-0.08362326,0.5363607,-2.380866,80
1747533266370,1.4584861,0.862498325,0.062356627,-0.10093381,0.6029397000000001,-2.5084314,81
1747533266380,1.470811,0.842119525,0.093351902,-0.0881506365,0.6809703,-2.7124295,82
1747533266390,1.4742278,0.821496675,0.11665937,-0.0106526445,0.68949243,-2.8695561,83
1747533266400,1.46776025,0.80429065,0.1242251425,0.0942759069999999,0.67005133,-3.02641635,84
1747533266410,1.4162643,0.74364245,0.071264714,0.36645097,0.5432849,-3.3806167,85
1747533266420,1.3781912,0.716064,0.04807928,0.47244477,0.47830373,-3.5100465,86
1747533266430,1.3608632,0.7066678,0.034778159,0.502005885,0.4612595,-3.5483960000000003,87
1747533266440,1.3273054,0.69080407,0.0124469198,0.54727965,0.436758435,-3.6133771,88
1747533266450,1.2980184499999998,0.68006554,0.0025626012,0.5643238500000001,0.42663843,-3.6631782,89
1747533266460,1.2587252,0.6776249700000001,-0.0075657751,0.52464277,0.44315,-3.7428067,90
1747533266470,1.2312689,0.6850687,-0.030507157,0.47297743,0.47404268,-3.7529266,91
1747533266480,1.2514036000000002,0.6822620500000001,-0.036852646,0.4434163399999999,0.500141665,-3.7729003,92
1747533266490,1.2802023,0.67494032,-0.0434421925,0.3896204749999999,0.553671225,-3.834153,93
1747533266500,1.28239885,0.6777469700000001,-0.0388051035,0.352602535,0.58882495,-3.9281627,94
1747533266510,1.1916096,0.677502915,-0.0198906654999999,0.34274885,0.543284875,-4.07756605,95
1747533266520,1.052863,0.647605915,-0.0067115745,0.34301516,0.43409526,-4.217382,96
1747533266530,0.8498074,0.60013676,0.019768637,0.34461306,0.41545313,-4.20007135,97
1747533266540,0.78195945,0.6042857500000001,0.0289207834999999,0.34674358,0.382962565,-4.1129861000000005,98
1747533266550,0.724728,0.603187505,0.049909708,0.3512709499999999,0.3571299,-3.9678439,99
1747533266560,0.83748245,0.631498135,0.069312258,0.419181565,0.274305585,-3.91777635,100
1747533266570,0.8808026,0.70923036,0.060038086,0.54807854,0.11025487,-4.0251017,101
1747533266580,0.80343646,0.71264714,0.017816179,0.53529537,0.06338324,-4.021906,102
1747533266590,0.81014806,0.69458692,-0.012080833,0.49508165,0.0897485349999999,-4.021107000000001,103
1747533266600,0.80490083,0.658100385,-0.0505198475,0.4138552399999999,0.183491805,-4.0493365,104
1747533266610,0.66517805,0.615756455,-0.04673696,0.300138255,0.33928673,-4.0637177,105
1747533266620,0.47127452,0.53765815,0.0034168016,0.1933455,0.4708469,-3.9798281,106
1747533266630,0.4476009749999999,0.532044825,0.0900571258,0.2870887749999999,0.42157841,-3.93535325,107
1747533266640,0.418558165,0.5310686,0.201103175,0.475640575,0.298007725,-3.8850194,108
1747533266650,0.387806965,0.5570607,0.226973245,0.6679208000000001,0.158458085,-3.8522625,109
1747533266660,0.3525407,0.5945234500000001,0.20049303,0.830639965,0.057524281,-3.7681067,110
1747533266670,0.3475375149999999,0.6118515,0.13203497,0.900148465,0.044474791,-3.6794234,111
1747533266680,0.3590082,0.6074585,0.013179091,0.773382,0.29134983,-3.6517265,112
1747533266690,0.32923323,0.5710939,0.009518232,0.73955985,0.350472005,-3.6655749,113
1747533266700,0.31947094,0.53033644,0.027090356,0.6743124,0.5075985,-3.7241645,114
1747533266710,0.32606047,0.47859627,0.07248501,0.6953514000000001,0.525974325,-3.768373,115
1747533266720,0.20305562,0.45516676,0.117391534,0.8452873,0.53103435,-3.90739,116
1747533266730,0.06077025,0.45760733,0.0624786545,0.94542215,0.443150025,-3.829892,117
1747533266740,-0.12239471,0.4715186,-0.0285546975,1.0269149,0.329965665,-3.6306876,118
1747533266750,-0.15326795,0.50287995,-0.081149035,0.969923275,0.286822455,-3.4173684,119
1747533266760,-0.1300825099999999,0.552667625,-0.104334473,0.8495484,0.24714136,-3.2011197,120
1747533266770,-0.0489334779999999,0.625152625,-0.138136403,0.69641665,0.289219305,-3.13533965,121
1747533266780,0.079196577,0.6354030150000001,-0.147288545,0.478570075,0.397876275,-3.13134495,122
1747533266790,0.12581151,0.588055915,-0.085908146,0.4050668149999999,0.5102616799999999,-3.279683,123
1747533266800,0.014643434,0.55620646,0.054668825,0.49161956,0.535828,-3.4855454,124
1747533266810,-0.123737023,0.5004393899999999,0.0844438095,0.59787968,0.4942826999999999,-3.5111117,125
1747533266820,-0.328989165,0.415141375,0.0546688245,0.9933591,0.36591834,-3.512177,126
1747533266830,-0.4371065349999999,0.367672235,-0.0571093975,1.22026045,0.25086978,-3.3744916,127
1747533266840,-0.50397824,0.33277206,-0.1555865,1.4905713,0.0961401185,-3.1715586,128
1747533266850,-0.56157573,0.3205692,-0.254795775,1.536644,0.046871636,-2.9507825,129
1747533266860,-0.56816524,0.29116032,-0.39073566,1.4519554,0.03834952,-2.8261466,130
1747533266870,-0.60819066,0.14399378,-0.53180075,1.29056785,0.0580569099999999,-2.81602655,131
1747533266880,-0.6721336,0.042221904,-0.54717636,0.87618,0.096939065,-2.7808728,132
1747533266890,-0.71264713,-0.023673553,-0.54144103,0.7520766999999999,0.1267664675,-2.76782335,133
1747533266900,-0.87079626,-0.21379416,-0.52203846,0.31265512,0.2593919,-2.6700854,134
1747533266910,-0.99941443,-0.35571345,-0.4731049699999999,0.134489638,0.384826775,-2.5100294,135
1747533266920,-1.2805684,-0.6042857,-0.39464056,-0.12516858,0.64182186,-2.0895162,136
1747533266930,-1.3561041,-0.64528735,-0.37889887,-0.1470064999999999,0.6793724299999999,-1.91135075,137
1747533266940,-1.4998538,-0.71167095,-0.34936794,-0.16378441,0.72278195,-1.52013235,138
1747533266950,-1.6942455,-0.7560893,-0.32069123,-0.10759171,0.6711166,-0.8159926,139
1747533266960,-1.6617858,-0.7423001,-0.30983068,-0.0282295079999999,0.49241849,-0.31451934,140
1747533266970,-1.5329236,-0.6535853,-0.30946457,0.15073492,0.080960095,0.5997439,141
1747533266980,-1.5329236,-0.6535853,-0.30946457,0.15073492,0.080960095,0.5997439,142
1747533266990,-1.32010565,-0.51740135,-0.390735625,0.159257035,-0.29241509,1.1353056,143
1747533267000,-1.1820913,-0.417825995,-0.440645335,0.06391586945,-0.441552115,1.3467606,144
1747533267010,-0.9828185,-0.15009521,-0.44955346,-0.20186761055,-0.54088804,1.59150515,145
1747533267020,-0.93327487,-0.04612682,-0.40342662,-0.50919643,-0.566454375,1.81734115,146
1747533267030,-0.8991069,0.03441207,-0.35607952,-0.7198525,-0.52517537,1.95982025,147
1747533267040,-0.879094235,0.0656514,-0.33801928,-0.9209211,-0.45646582,2.10016895,148
1747533267050,-0.843949985,0.12983846,-0.30677997,-1.11692975,-0.343547785,2.2405175,149
1747533267060,-0.67091334,0.2277054,-0.28749946,-1.6799221,0.13635385,2.521481,150
1747533267070,-0.64052822,0.230145975,-0.26529024,-1.75928425,0.20426446,2.52947045,151
1747533267080,-0.6257628,0.23697957,-0.14082102,-1.8647454,0.30253512,2.5699506,152
1747533267090,-0.6415044999999999,0.224532655,-0.05625519,-1.78751375,0.245277145,2.59418535,153
1747533267100,-0.70459324,0.22916976,0.18109047,-1.375789,-0.036218993,2.711098,154
1747533267110,-0.6474839,0.3526627,0.25259924,-0.4926848,-0.55287224,3.0882018,155
1747533267120,-0.5256993,0.38170552,0.17328064,-0.1107875,-0.716923,3.196326,156
1747533267130,-0.43149322,0.41977844,0.045882765,0.1438107,-0.7419567,3.240002,157
1747533267140,-0.39476261,0.4335676899999999,-0.0168399495,0.18935076,-0.69268822,3.248524,158
1747533267150,-0.2928687,0.47444725,-0.21330604,0.15819177,-0.49215218,3.2506545,159
1747533267160,-0.20403185,0.54107493,-0.41026023,-0.30466563,-0.15393071,3.193663,160
1747533267170,-0.19719826,0.528384,-0.4527262,-0.61412495,-0.034088463,3.1537154,161
1747533267180,-0.21647878,0.5254553,-0.45687518,-0.92784536,0.054328486,3.1553133,162
1747533267190,-0.23917611,0.53228885,-0.42563587,-1.2277173,0.15925704,3.2218924,163
1747533267200,-0.243569135,0.50202574,-0.30812229,-1.5249261,0.294013,3.438141,164
1747533267210,-0.27041543,0.47591165,-0.029774986,-1.49296815,0.26684875,3.5119106,165
1747533267220,-0.2169669,0.4527262,0.13154685,-1.1856394,0.06870956,3.7811563,166
1747533267230,-0.024161667,0.46785772,0.24747404,-0.8426242,-0.14913702,3.8514636,167
1747533267240,0.0844438065,0.504100235,0.23673553,-0.6671218800000001,-0.25033714,3.8187068,168
1747533267250,0.255405915,0.590496525,0.1660809575,-0.37657098,-0.423176305,3.7055225,169
1747533267260,0.4300289,0.8278422,-0.2884757,-0.43356264,-0.5800365,3.2953956,170
1747533267270,0.40611124,0.89666635,-0.3699908,-0.75633776,-0.47510794,3.1771512,171
1747533267280,0.38548842,0.901059375,-0.34424275,-0.92970953,-0.36884782,3.1417311,172
1747533267290,0.33740915,0.8798264,-0.22831555,-1.2128036,-0.142212811,3.09885425,173
1747533267300,0.26199546,0.82381525,-0.0162298075,-1.32199325,0.056459014,3.1140344,174
1747533267310,0.131668892,0.7862304200000001,0.2463757775,-0.994957025,0.052996905,3.3443978000000003,175
1747533267320,0.25040275,0.8617661,0.2111095,-0.49641323,-0.26738137,3.7571878,176
1747533267330,0.5631620749999999,0.9709818,0.04527261,-0.523311165,-0.36991307,3.7606499,177
1747533267340,0.8759214,1.0801975,-0.12056428,-0.5502091,-0.47244477,3.764112,178
1747533267350,1.0548153999999998,1.1398693999999998,-0.16290821,-1.13077825,-0.34301515,2.96862575,179
1747533267360,0.933763,1.0937426,-0.028310643,-1.31933005,-0.20026972,2.61522425,180
1747533267370,0.686899125,1.0376094500000002,0.220139642,-1.3731259,-0.14647387,2.459163,181
1747533267380,0.425391775,1.0122274999999998,0.34497493,-0.957140125,-0.153930715,2.58779365,182
1747533267390,0.49104318,0.9959976,0.24723,-0.63915867,-0.15659387,2.9603698,183
1747533267400,0.6716455,1.0604287,0.19451363,-0.63383234,-0.06498113,2.9667616,184
1747533267410,0.78586435,1.1124129,0.1803583,-0.6775082,0.06338324,2.9161615,185
1747533267420,0.97500867,1.1050912,0.17230442,-0.7302388,0.18162759,2.769155,186
1747533267430,1.0003906850000002,1.0810516,0.2745644,-0.599211265,0.129962265,2.4413198,187
1747533267440,0.93962045,1.0306538,0.425757855,-0.27403928,-0.06551376,1.96780975,188
1747533267450,0.7577977499999999,0.97171395,0.47469133,0.1568601949999999,-0.380033095,1.7438379,189
1747533267460,0.5793919,0.942671135,0.3840240649999999,0.60054283,-0.718520865,1.67246515,190
1747533267470,0.52936015,0.949992865,0.0749255699999999,0.71266192,-0.8396947,1.7955032,191
1747533267480,0.5620638,0.95377576,-0.14350566,0.6178534,-0.7930894,1.911617,192
1747533267490,0.721189175,0.9956316,-0.218553275,0.1619201955,-0.350738305,1.94410755,193
1747533267500,0.7905014,0.98062205,-0.13691612,-0.22423817,0.08149273,1.8919097,194
1747533267510,0.8005078,0.9257092,-0.016839951,-0.30626354,0.2130529,1.8114822,195
1747533267520,0.7397375,0.8449261,0.15961345,-0.26844665,0.187752865,1.7536916,196
1747533267530,0.7000782000000001,0.82186275,0.17584325,0.045540055,-0.085487485,1.6000272,197
1747533267540,0.6330845,0.8025822650000001,0.138746545,0.421045785,-0.4625911,1.5201324,198
1747533267550,0.60709242,0.8166155150000001,0.00109826,0.5257080249999999,-0.6593987,1.5704661,199
1747533267560,0.6548056,0.8336995,-0.2111095,0.38083205,-0.72011876,1.6623452,200
1747533267570,0.7353445,0.84468216,-0.24918245,-0.09640643,-0.37603834,1.6714,201
1747533267580,0.760360375,0.8257676949999999,-0.2140382,-0.195476025,-0.271908745,1.65648625,202
1747533267590,0.8163715,0.7743936,-0.07736614,-0.3850931,-0.008522116,1.5787219,203
1747533267600,0.7678041,0.7404697,0.045882765,-0.33662358,0.02609898,1.5132082,204
1747533267610,0.76121455,0.6967834,0.12520137,-0.18642128,-0.06977482,1.4514228,205
1747533267620,0.7067898,0.6465077,0.13935669,0.3270362,-0.41225734,1.3129385,206
1747533267630,0.60941094,0.66188323,0.025626011,0.44847634,-0.57151437,1.3518206,207
1747533267640,0.55620646,0.6872652,-0.15570852,0.3584615,-0.64075655,1.4769892,208
1747533267650,0.6086787549999999,0.68275015,-0.24051842,0.0532632349999999,-0.5339638,1.6125441,209
1747533267660,0.66115105,0.6782351,-0.32532832,-0.25193503,-0.42717105,1.748099,210
1747533267670,0.88104665,0.68360436,-0.17840585,-0.7946873,-0.044208474,1.7640779,211
1747533267680,0.90691674,0.66896087,-0.058817793,-0.89162636,0.06391586,1.685781,212
1747533267690,0.90691674,0.66896087,-0.058817793,-0.88044108,0.067910605,1.6492957,213
1747533267700,0.8263778,0.6033095,0.10421244,-0.7302388,-0.040480047,1.5845809,214
1747533267710,0.7985553,0.5708499,0.16449459,-0.34887412,-0.45327002,1.6266588,215
1747533267720,0.7990434,0.56011134,0.099087246,-0.21198763,-0.65513766,1.6516925,216
1747533267730,0.8158834,0.54717636,0.0134231495,-0.18109496,-0.7978831,1.6698021,217
1747533267740,0.852492,0.56426036,-0.048323333,-0.2444782,-0.85966843,1.6767262,218
1747533267750,0.88007045,0.5701177,-0.09396204,-0.5502091,-0.61412495,1.717739,219
1747533267760,0.8712844,0.5520575,-0.07516963,-0.7440872,-0.4079963,1.7603495,220
1747533267770,0.8754333,0.5315567,-0.02391761,-0.9422264,-0.16298546,1.8253306,221
1747533267780,0.8859278,0.50788313,0.027090356,-1.0466223,-0.010120012,1.8732675,222
1747533267790,0.90496427,0.48152497,0.05735345,-1.1185277,0.07350325,1.911617,223
1747533267800,1.0694588,0.50031734,0.07297312,-1.1792477,0.006924219,1.866876,224
1747533267810,1.1065556,0.56694496,0.035876416,-1.2186625,-0.07137272,1.788579,225
1747533267820,1.1395032,0.61502427,-0.025626011,-1.3310479,-0.11717909,1.722,226
1747533267830,1.1773322,0.6460195,-0.07687803,-1.5142734,-0.077231675,1.6660736,227
1747533267840,1.2073512,0.65993077,-0.12007617,-1.6346482999999998,0.0,1.63198515,228
1747533267850,1.2012497,0.64309084,-0.024893839,-2.3350596,0.6354303,1.4040185,229
1747533267860,1.193684,0.575487,0.12715383,-2.4378576,0.81066626,1.33957,230
1747533267870,1.2090596,0.5435155,0.35363895,-2.3270702,0.757403,1.2335763,231
1747533267880,1.21235435,0.5609656000000001,0.445770575,-2.17021,0.6508765750000001,1.16273615,232
1747533267890,1.2124764,0.6203935,0.6303999,-1.5936357,0.25300032,0.96140116,233
1747533267900,1.244448,0.7133793,0.536926,-0.8815063,-0.17097494,0.7637946,234
1747533267910,1.2730026,0.76511943,0.42636803,-0.72171664,-0.20186761,0.6711166,235
1747533267920,1.308635,0.8005078,0.34119204,-0.68176925,-0.13315806,0.5656554,236
1747533267930,1.3270613,0.8075854250000001,0.31105097,-0.707601905,-0.0705737715,0.49960902,237
1747533267940,1.3534195,0.809415845,0.26443603,-0.80134518,0.1086569735,0.329433035,238
1747533267950,1.2669011,0.76341105,0.302631,-1.0578076,0.61625546,-0.06178534,239
1747533267960,1.2078394,0.7577977,0.33460248,-1.087635,0.7323693,-0.1438107,240
1747533267970,1.1700104,0.7653635,0.34582913,-1.0934939,0.7664578,-0.20240025,241
1747533267980,1.1722069,0.7668279,0.36632994,-1.0695255,0.7041398,-0.27324033,242
1747533267990,1.17562375,0.7732954000000001,0.37877687,-1.04422545,0.663659765,-0.32357408,243
1747533268000,1.1829455,0.7426662,0.469078,-0.8740495,0.54168695,-0.6087986,244
1747533268010,1.159516,0.70874226,0.579636,-0.65513766,0.48363006,-0.7462177,245
1747533268020,1.0972813,0.7050814,0.665056,-0.39254996,0.4426174,-0.8159926,246
1747533268030,1.0972813,0.7050814,0.665056,-0.39254996,0.4426174,-0.8159926,247
1747533268040,1.0717774,0.707643975,0.59989272,-0.085753785,0.406132075,-0.853543135,248
1747533268050,1.1456047,0.72558224,0.35876414,-0.10972224,0.5470133,-0.96299905,249
1747533268060,1.1758678,0.73436826,0.30287504,-0.26205507,0.6764429,-1.0381002,250
1747533268070,1.1968567,0.72826684,0.3219115,-0.347542535,0.74169035,-1.0799118,251
1747533268080,1.2229708,0.7197248,0.41514137,-0.5470133,0.9347696,-1.2186625,252
1747533268090,1.2122324,0.6811638,0.6389419,-0.39840892,1.1414309,-1.4471618,253
1747533268100,1.2083275,0.67372005,0.670913375,-0.2130529,1.1504856,-1.5488945,254
1747533268110,1.1899012,0.6628594800000001,0.717162225,-0.10599381775,1.1393003,-1.5912388000000002,255
1747533268120,1.1507299,0.66237134,0.7197248,0.19813919,1.1014835,-1.6990968,256
1747533268130,1.1436522,0.67042524,0.6118515,0.41705105,1.2239889,-1.7992316,257
1747533268140,1.15439075,0.66749657,0.5985503999999999,0.437291075,1.2820458,-1.8232001,258
1747533268150,1.16329885,0.6638356999999999,0.600136785,0.4921522,1.3800501500000002,-1.8727349,259
1747533268160,1.1546348,0.6721336,0.63381666,0.63649553,1.4487597,-1.9579561,260
1747533268170,1.1539028,0.67750293,0.60697037,0.692688215,1.45674915,-1.99204455,261
1747533268180,1.1207108,0.6672525,0.5105677,0.8173241499999999,1.5102787,-2.098571,262
1747533268190,1.1122909,0.66713048,0.48982285,0.8892295,1.5872441,-2.19657535,263
1747533268200,1.09252235,0.6662762799999999,0.453092275,0.8844358,1.6439694,-2.24397955,264
1747533268210,1.06799455,0.6662762799999999,0.425391775,0.86046735,1.68817785,-2.2847259,265
1747533268220,1.044565,0.66639833,0.411968615,0.7483483,1.7571537,-2.3627565,266
1747533268230,1.0333383500000002,0.66810672,0.42234108,0.7307714249999999,1.76620845,-2.375806,267
1747533268240,1.0354128500000002,0.67066929,0.460658075,0.709732445,1.7763284499999998,-2.407764,268
1747533268250,1.0496902,0.6587105,0.55962324,0.79202414,1.7310548,-2.5023062,269
1747533268260,1.0366331,0.66737455,0.57170409,0.8447547200000001,1.7198695,-2.5345305,270
1747533268270,0.9584128,0.70264083,0.42661208,0.87564737,1.7827201,-2.6221485,271
1747533268280,0.9554841,0.701298515,0.411236465,0.8303736349999999,1.8343854,-2.63999165,272
1747533268290,0.95853483,0.6986139,0.415995585,0.76379462,1.9246665,-2.6823359,273
1747533268300,0.95157918,0.68677712,0.49409391,0.78110517,1.9497002,-2.7337349,274
1747533268310,0.84663457,0.6801876,0.6213697,1.0141318,1.8125474,-2.793656,275
1747533268320,0.8007518,0.6665203,0.51691324,1.32945,1.5100124,-2.7723508,276
1747533268330,0.83882475,0.675916525,0.49714461,1.376588,1.42319335,-2.7992487,277
1747533268340,0.92814976,0.72070104,0.46224442,1.4628744500000002,1.29695945,-2.88260565,278
1747533268350,0.9235126,0.7492558,0.42514774,1.5398397,1.2106731,-3.0562437,279
1747533268360,0.77805454,0.72045696,0.3619369,1.5259913,1.2298478,-3.1361384,280
1747533268370,0.7568215,0.7243619,0.36852646,1.4556838,1.3598101,-3.1537154,281
1747533268380,0.7585299000000001,0.7391273700000001,0.41172458,1.47059755,1.3390374,-3.15717745,282
1747533268390,0.7636551,0.740103605,0.49092115,1.55155765,1.30574785,-3.1925975,283
1747533268400,0.7658516150000001,0.69812575,0.55095925,1.7310547,1.2681973,-3.2818135,284
1747533268410,0.7094744150000001,0.666032215,0.5592572,1.9723372,1.1960257,-3.3875410500000003,285
1747533268420,0.54107493,0.5981843,0.3372871,2.4165523,0.799481,-3.5228295,286
1747533268430,0.54107493,0.5981843,0.3372871,2.4165523,0.799481,-3.5228295,287
1747533268440,0.44503839,0.60575007,0.285913065,2.5268073500000003,0.57737332,-3.5491948,288
1747533268450,0.3277689,0.64138246,0.24649782,2.5704831,0.44315001,-3.50232325,289
1747533268460,0.4024504,0.7224094,0.06613952,2.304167,0.48629323,-3.251187,290
1747533268470,0.5120321,0.72655845,-0.021232981,2.0676782,0.67697555,-3.2969935,291
1747533268480,0.49629042,0.732293775,-0.0655293755,1.92253595,0.793355705,-3.35931145,292
1747533268490,0.4271001949999999,0.7171622,-0.126299625,1.57765665,1.03011073,-3.47356105,293
1747533268500,0.302020845,0.65114473,-0.113486615,1.2543489,1.22052675,-3.53614535,294
1747533268510,0.1044565,0.50568664,0.09884319,0.96939063,1.3246564,-3.4993937,295
1747533268520,0.070166458,0.4967785449999999,0.148142755,1.005343315,1.27458895,-3.4863442,296
1747533268530,-0.009518234,0.50641879,0.2357593,1.1092066,1.14276245,-3.4234936,297
1747533268540,-0.0579635985,0.509103415,0.28237423,1.24076675,0.9946907,-3.3185651,298
1747533268550,-0.0464929065,0.464807035,0.28664523,1.37818585,0.899882175,-3.23520815,299
1747533268560,-0.08664032,0.4234393,0.21184167,1.7821875,0.90920323,-3.160107,300
1747533268570,-0.11006982,0.41294485,0.09737884,1.9041603,0.964597,-3.099387,301
1747533268580,-0.096890725,0.40574516,0.041123645,1.91720975,0.981108585,-3.0972565000000003,302
1747533268590,-0.0950603,0.38121742,-0.0190364665,1.9619508,0.984304385,-3.11430065,303
1747533268600,-0.206716485,0.3759702,-0.0921316165,2.0375846,0.8868327,-3.08260895,304
1747533268610,-0.35095432,0.33899552,-0.2489384,2.04450885,0.771517785,-2.99632255,305
1747533268620,-0.4046469,0.3104408,-0.33704305,1.948635,0.73503247,-2.9364014000000003,306
1747533268630,-0.46810177,0.3077562,-0.42612398,1.7017599,0.7451525,-2.8485172,307
1747533268640,-0.5077610850000001,0.299824335,-0.4705423749999999,1.56487345,0.76912095,-2.7979171,308
1747533268650,-0.61160743,0.21037734,-0.49421594,0.79735047,0.8697884,-2.5241442,309
1747533268660,-0.6474839,0.15839316,-0.40635532,0.660464,0.8831042,-2.4602282,310
1747533268670,-0.7365648,0.09859913,-0.32728076,0.6135923,0.8655274,-2.359028,311
1747533268680,-0.83736044,0.06467517,-0.26797485,0.63383234,0.8266452,-2.171009,312
1747533268690,-0.86201017,0.0473471065,-0.247596075,0.66871977,0.8101336,-2.0572920000000003,313
1747533268700,-0.8941037,0.0114706915,-0.2180651499999999,0.7616641,0.778175675,-1.84210855,314
1747533268710,-0.93473923,-0.08956901,-0.28335047,1.0183928,0.68336713,-1.4136059,315
1747533268720,-0.94889459,-0.110069815,-0.316908345,1.0330402,0.6612629000000001,-1.33504265,316
1747533268730,-0.984404975,-0.149241,-0.38011916,1.0351707,0.6119944150000001,-1.14968665,317
1747533268740,-1.1351103,-0.23844394,-0.51569295,0.91346425,0.4607269,-0.6178534,318
1747533268750,-1.1351103,-0.23844394,-0.51569295,0.91346425,0.4607269,-0.6178534,319
1747533268760,-1.1614684,-0.22916976,-0.5195979,0.7866978,0.16884442,-0.023435818,320
1747533268770,-1.1321816,-0.19329333,-0.511788,0.76113147,0.016511599,0.21092236,321
1747533268780,-1.1107045,-0.164982695,-0.52289265,0.7337009050000001,-0.0529969055,0.31025827,322
1747533268790,-1.0544493,-0.091033354,-0.55937925,0.58190072,-0.17816548,0.5792375399999999,323
1747533268800,-1.0083225,-0.0233074671,-0.59061855,0.37124467,-0.23489081,0.81892203,324
1747533268810,-0.9876996,0.042954076,-0.61819696,0.008522116,-0.22583607,1.0567423,325
1747533268820,-0.987943665,0.074193403,-0.63284043,-0.1262338419999999,-0.2061286749999999,1.13716975,326
1747533268830,-0.951945245,0.158271115,-0.619173265,-0.52490905,-0.129695947,1.37445745,327
1747533268840,-0.88421941,0.234172915,-0.554254015,-0.8809737,-0.060720073,1.5731293,328
1747533268850,-0.8239373,0.2759067149999999,-0.48372145,-1.0396981,-0.043675841,1.63917565,329
1747533268860,-0.7314396,0.3099527,-0.3829258,-1.1914983,-0.043675844,1.6761936,330
1747533268870,-0.6801876,0.32239962,-0.33240595,-1.2277173,-0.082558,1.655421,331
1747533268880,-0.69385475,0.36462155,-0.22746135,-1.1672634999999998,-0.16378441,1.64663255,332
1747533268890,-0.700566325,0.357299825,-0.224410635,-1.0367685999999998,-0.320378285,1.65249145,333
1747533268900,-0.720457,0.34082595,-0.23124424,-0.919855865,-0.449275275,1.69057465,334
1747533268910,-0.7617027000000001,0.3316738,-0.250280705,-0.838629465,-0.5448827650000001,1.7728664,335
1747533268920,-0.8105141250000001,0.363523275,-0.257846475,-0.75101143,-0.63649553,2.0330572,336
1747533268930,-0.71948075,0.4373506,-0.3014107,-0.747549315,-0.602140765,2.2612901,337
1747533268940,-0.656880075,0.4533363299999999,-0.333016125,-0.79548623,-0.50307115,2.55210725,338
1747533268950,-0.53058044,0.4831113099999999,-0.3828038,-0.93077483,-0.3656520199999999,2.64185585,339
1747533268960,-0.32923323,0.52789587,-0.41294485,-1.2074772,-0.2034655,2.632801,340
1747533268970,-0.21891935,0.5523015,-0.31581008,-1.4024206,-0.2790993,2.295645,341
1747533268980,-0.27651686,0.56145365,-0.27785918,-1.44742805,-0.35340149,2.2764702,342
1747533268990,-0.38426815,0.5737786,-0.1891443649999999,-1.4666028,-0.52144694,2.3126892,343
1747533269000,-0.436130315,0.5679212499999999,-0.0778542575,-1.3675332,-0.702541885,2.4426515,344
1747533269010,-0.42465958,0.56743306,0.07980672,-1.0626013,-0.8857674,2.6557043,345
1747533269020,-0.43039495,0.64467718,0.0290428125,-0.80107886,-0.799481,3.148389,346
1747533269030,-0.321301375,0.733269975,-0.0695563145,-0.85354313,-0.73449985,3.24719235,347
1747533269040,0.06369894,0.7648754,-0.12739788,-1.0620687,-0.5363607,3.3300166,348
1747533269050,0.35095432,0.76756,-0.0078098318,-1.1169298,-0.5581986,2.9752836,349
1747533269060,0.4266120599999999,0.7797629,0.1025040541,-1.01732755,-0.65806712,2.7497139,350
1747533269070,0.5022698,0.7919658,0.21281794,-0.9177253,-0.75793564,2.5241442,351
1747533269080,0.07870846,0.757797735,0.47676584,0.03355583,-1.4317155,1.8141453,352
1747533269090,-0.15314592,0.779274775,0.38512233,0.4884237449999999,-1.7188042499999998,1.9286612,353
1747533269100,-0.29701766,0.7924539,0.032459613,1.0295781,-1.9829898,2.3031018,354
1747533269110,-0.04271002,0.7485236,-0.27090356,0.54914385,-1.2074772,2.6674223,355
1747533269120,0.036120474,0.7485236,-0.32581642,0.16458336,-0.6940198,2.7132285,356
1747533269130,0.044174362,0.7175283,-0.30067852,-0.29880667,-0.24234766,2.7265444,357
1747533269140,0.061258371,0.6954411,-0.253331415,-0.424241585,-0.172306525,2.72414755,358
1747533269150,0.1632743,0.6372335,-0.10592084,-0.64341974,-0.118776985,2.6509106,359
1747533269160,0.22331238,0.6028214,0.12324891,-0.34993938,-0.55606806,2.4309335,360
1747533269170,0.12202863,0.6286915,0.20744865,-0.00479369,-0.87777793,2.479403,361
1747533269180,0.052472305,0.690438,0.16717921,0.31478566,-1.1914983,2.6972497,362
1747533269190,0.11031388,0.7297312,0.06418706,0.5107943,-1.3891048,2.9481194,363
1747533269200,0.3441207,0.80246025,-0.17132819,0.56938386,-1.3198626,3.3230925,364
1747533269210,0.4356422,0.81441903,-0.29726174,0.08628642,-0.59761333,3.400324,365
1747533269220,0.5508372,0.8090498,-0.32947728,-0.29348037,-0.2396845,3.3949978,366
1747533269230,0.68311626,0.83443177,-0.26992732,-0.6135923,-0.00958738,3.327886,367
1747533269240,0.72546018,0.8577392100000001,-0.20988923,-0.71053137,0.001864213,3.272226,368
1747533269250,0.832723325,0.8876362250000001,-0.091399435,-0.83223784,-0.066046397,3.1127027,369
1747533269260,0.7909895,0.8644508,0.058573738,-0.6945524,-0.5629923,2.535862,370
1747533269270,0.6445552,0.8417535,0.045882765,-0.62903863,-0.7185209,2.511361,371
1747533269280,0.5459561,0.83077085,0.022209208,-0.60080916,-0.793622,2.6317358,372
1747533269290,0.53814626,0.85175985,0.018792408,-0.6359629,-0.757403,2.8288097,373
1747533269300,0.7721971,0.87299275,0.065163285,-0.75633776,-0.3387541,2.9593046,374
1747533269310,0.80416864,0.85127175,0.1044565,-0.783502,-0.14434333,2.9076393,375
1747533269320,0.8690878,0.8390688,0.11861181,-0.78936094,-0.08362326,2.8138962,376
1747533269330,0.95743656,0.89056486,0.13618395,-0.7584683,-0.13156016,2.6780748,377
1747533269340,0.98111013,0.91558073,0.13227903,-0.7283746,-0.18908444,2.6072347,378
1747533269350,1.01479005,0.947918365,0.0726070305,-0.70680296,-0.42983422,2.1640847,379
1747533269360,0.91253006,0.9581688,-0.012446919,-0.819721,-0.47564057,2.0612867,380
1747533269370,0.91253006,0.9581688,-0.012446919,-0.9416938,-0.47990164,2.0905814,381
1747533269380,0.815395275,0.942793135,0.0208668944999999,-0.97738015,-0.469248995,2.1105552000000003,382
1747533269390,0.826499875,0.929858085,0.108849537,-1.0231865,-0.4386226399999999,2.1446437,383
1747533269400,0.8603018,0.87860614,0.40781966,-0.6791061,-0.28176245,2.1102889,384
1747533269410,0.8217408,0.82247293,0.422219,-0.4463458,-0.26738137,2.0895162,385
1747533269420,0.80514485,0.77366143,0.41050428,-0.20719394,-0.30626354,2.066613,386
1747533269430,0.820520475,0.75914004,0.39195594,-0.084688525,-0.360059395,2.04317715,387
1747533269440,0.82808626,0.76219076,0.23356278,0.42770368,-0.7041398,1.8919097,388
1747533269450,0.81478513,0.78513213,0.19402551,0.4753742399999999,-0.76485987,1.90575815,389
1747533269460,0.8429737,0.86152214,0.084687866,0.5486112,-0.8708537,1.9835224,390
1747533269470,0.92961407,0.89617825,0.020012695,0.5182512,-0.8213189,1.9968382,391
1747533269480,0.9794017,0.91057765,-0.08566409,0.47830375,-0.7792409499999999,1.9723371,392
1747533269490,0.9708597,0.8955681,-0.0983550679999999,0.26391926,-0.63383235,1.8735338,393
1747533269500,0.93986446,0.84517026,-0.102748096,-0.07456851,-0.44528055,1.7417074,394
1747533269510,0.91497064,0.8117344,-0.07565775,-0.21038973,-0.38029942,1.690042,395
1747533269520,0.8866599,0.780251,-0.040269446,-0.29667616,-0.33609092,1.649562,396
1747533269530,0.80685323,0.6965394,0.049787678,-0.28229508,-0.314253,1.635181,397
1747533269540,0.81197846,0.6626154,0.06418706,-0.21624869,-0.36005938,1.6516925,398
1747533269550,0.81490713,0.6382097,0.052472305,-0.13528858,-0.39627838,1.6527578,399
1747533269560,0.8019721,0.6074585,0.026602242,-0.06977482,-0.42397526,1.6575515,400
1747533269570,0.8283303,0.5520575,-0.07297312,-0.03834952,-0.39627838,1.7156084,401
1747533269580,0.829550575,0.5415630300000001,-0.0924977,-0.0545948,-0.368581505,1.73158735,402
1747533269590,0.8361401,0.5127643,-0.13691612,-0.123038046,-0.28442562,1.7832527,403
1747533269600,0.878362,0.4966565,-0.14765464,-0.17150758,-0.25566345,1.8072212,404
1747533269610,0.91204196,0.48835856,-0.14985114,-0.21092236,-0.28016454,1.8141453,405
1747533269620,0.8847075,0.47737598,-0.13496366,-0.2327602799999999,-0.364586755,1.83252115,406
1747533269630,0.8820229,0.464685,-0.114462845,-0.27057716,-0.5411543,1.903095,407
1747533269640,0.8820229,0.464685,-0.114462845,-0.29933932,-0.54435015,1.9861856,408
1747533269650,1.001855,0.4424758,0.0,-0.34514567,-0.34194988,2.0921793,409
1747533269660,1.001855,0.4424758,0.0,-0.34514567,-0.34194988,2.0921793,410
1747533269670,1.001855,0.4424758,0.0,-0.34514567,-0.34194988,2.0921793,411
1747533269680,1.04163635,0.44955345,-0.0045150595,-0.400539425,-0.1355548999999999,2.1164140500000004,412
1747533269690,1.1390152,0.47054234,0.006833603,-0.535828,0.13901702,2.1326594,413
1747533269700,1.1390152,0.47054234,0.006833603,-0.535828,0.13901702,2.1326594,414
1747533269710,1.3999124,0.5127643,0.006345488,-0.67005134,0.111852765,1.8924423,415
1747533269720,1.4169964,0.626739,0.029286869,-0.81226414,-0.07084008,1.4386396,416
1747533269730,1.41785065,0.654439525,0.0782203495,-0.8010788550000001,-0.12490226,1.3632721499999998,417
1747533269740,1.4290772,0.71704021,0.15778301,-0.751277735,-0.2098571,1.2197277999999998,418
1747533269750,1.479231,0.8097819,0.20085911,-0.6535397,-0.23062976,0.9890981,419
1747533269760,1.5949141,0.87396896,0.19915071,-0.62051654,-0.14327806,0.7749799,420
1747533269770,1.5914973,0.89056486,0.18963248,-0.6098639,0.19920446,0.2711098,421
1747533269780,1.5720948,0.8917851450000001,0.183164965,-0.6048039000000001,0.272175065,0.1483380735,422
1747533269790,1.5379268,0.894469765,0.166569075,-0.57417756,0.4165184,-0.20985709,423
1747533269800,1.4702009,0.9022797,0.1598575,-0.49161956,0.40053943,-0.46924898,424
1747533269810,1.4305416,0.89019885,0.17157225,-0.372842565,0.287887715,-0.63010394,425
1747533269820,1.38112,0.8459024,0.20744865,-0.10705908,0.042077947,-0.9534117,426
1747533269830,1.35952085,0.8422415350000001,0.21452632,-0.033023199,-0.0114515915,-1.0234527999999998,427
1747533269840,1.2881342,0.83150303,0.19158493,0.1486044,-0.11611383,-1.190433,428
1747533269850,1.2762974,0.82259494,0.1483867999999999,0.18375812,-0.0665790305,-1.2732573,429
1747533269860,1.283497,0.8061211,0.043198135,0.18535602,0.07350325,-1.4476944,430
1747533269870,1.2805684,0.8166155,-0.022453265,0.10652645,0.15126756,-1.5462314,431
1747533269880,1.27605335,0.81832393,-0.0463708775,0.040746368,0.19307919,-1.59709775,432
1747533269890,1.2715383,0.82003236,-0.07028849,-0.025033714,0.23489082,-1.6479641,433
1747533269900,1.30631645,0.82088658,-0.0473471075,-0.079095887,0.1549959825,-1.8029601,434
1747533269910,1.359399,0.8351639,-0.0065895454,-0.11558119,-0.027164243,-2.0948424,435
1747533269920,1.3669646,0.83101493,-0.009030119,-0.123038046,-0.0628506,-2.2269354,436
1747533269930,1.3635478,0.8049008,-0.00073217176,-0.14913702,-0.03089267,-2.359028,437
1747533269940,1.3249868,0.7819594,0.019280521,-0.18162759,0.03355583,-2.4772725,438
1747533269950,1.2285842,0.71826047,0.0959145,-0.18482338,0.21038973,-2.6381273,439
1747533269960,1.1778203,0.690682,0.13545178,-0.1257012,0.283893,-2.676477,440
1747533269970,1.1590278,0.66944903,0.153512,-0.0479369,0.30839407,-2.6988475,441
1747533269980,1.1670818,0.6540734,0.16717921,0.04527374,0.2977414,-2.7345338,442
1747533269990,1.1807489,0.64992446,0.17523311,0.15393071,0.2615224,-2.789395,443
1747533270000,1.1614684,0.63357264,0.12373702,0.33822146,0.20879184,-2.9028456,444
1747533270010,1.1507299,0.6343048,0.09005712,0.38935417,0.18429075,-2.9465215,445
1747533270020,1.1685461,0.64992446,0.05027579,0.4111921,0.17310548,-2.9944584,446
1747533270030,1.17928465,0.6535853300000001,0.0313613545,0.40852892,0.18961707,-3.067429,447
1747533270040,1.2122324,0.6577343,-0.010982576,0.37390783,0.1965413,-3.1925976,448
1747533270050,1.1835557,0.66652037,0.0239176085,0.38642469,0.16591494,-3.27728615,449
1747533270060,1.13413405,0.67530644,0.067969939,0.422643675,0.1185106649999999,-3.39393255,450
1747533270070,1.083004,0.67433017,0.0737052875,0.46179214,0.0950748499999999,-3.444,451
1747533270080,1.0052718,0.66017485,0.061258372,0.4878911,0.0974717,-3.4722295,452
1747533270090,0.9654905,0.6474839,0.03929322,0.48149952,0.13528858,-3.4722295,453
1747533270100,0.90423214,0.66871685,-0.044174362,0.3930826,0.14913702,-3.43388,454
1747533270110,0.8876362,0.6716455,-0.06199054,0.3190467,0.105993815,-3.430684,455
1747533270120,0.88641596,0.68311626,-0.07004443,0.2231729,0.05273059,-3.4637074,456
1747533270130,0.8395569,0.70288485,-0.071020655,0.12676647,0.04527374,-3.4674358,457
1747533270140,0.7997756,0.7084982,-0.07468152,0.0644484994999999,0.0721716675,-3.4517232,458
1747533270150,0.7922098,0.7050814,-0.038316987,-0.2545982,0.36911413,-3.3635726,459
1747533270160,0.80416864,0.7072779,0.008542004,-0.3392867,0.5113269,-3.3529198,460
1747533270170,0.77903074,0.6901939,0.06418706,-0.3685815,0.62051654,-3.3838124,461
1747533270180,0.7153318,0.6765267,0.10909359,-0.32810146,0.67005134,-3.417901,462
1747533270190,0.58036816,0.66066295,0.16132185,-0.08735169,0.5997439,-3.3459957,463
1747533270200,0.52252656,0.6889736,0.21477039,0.080960095,0.4990764,-3.257046,464
1747533270210,0.56767714,0.7094744,0.26553428,0.2892193,0.38296258,-3.2069786,465
1747533270220,0.55718267,0.7482795,0.28627914,0.51931643,0.28975195,-3.167564,466
1747533270230,0.60184515,0.77683425,0.1889003,0.82557994,0.11664646,-3.0956585,467
1747533270240,0.65090066,0.7812273,0.08542004,0.86606,0.08948222,-3.1840754,468
1747533270250,0.6045298,0.7936742,-0.025870068,0.813862,0.07137272,-3.2783513,469
1747533270260,0.560233415,0.8011178999999999,-0.063576914,0.6625945,0.047404267,-3.303385,470
1747533270270,0.5169132350000001,0.80660917,-0.10091767,0.47404268,0.075101145,-3.323625,471
1747533270280,0.47786412,0.7658516,0.058573738,0.257794,0.3797668,-3.45412,472
1747533270290,0.41196862,0.7397375,0.10860548,0.26684874,0.52464277,-3.507383,473
1747533270300,0.28335047,0.74413055,0.1403329,0.30626354,0.6013418,-3.4946,474
1747533270310,0.25137895,0.74486274,0.12910628,0.3355583,0.5763081,-3.4535873,475
1747533270320,0.24649782,0.6640798,0.11031388,0.37710363,0.5432849,-3.4850128,476
1747533270330,0.16400647,0.6772589,0.11202228,0.49321744,0.45859635,-3.5537221,477
1747533270340,0.13789235,0.64089435,0.10494461,0.53955644,0.4596616,-3.5318842,478
1747533270350,0.11324256,0.5989165,0.10323621,0.61572284,0.515588,-3.526558,479
1747533270360,0.102259986,0.67481834,0.024161667,0.6247776,0.5523396,-3.4775558,480
1747533270370,0.14106509,0.65334123,-0.078830495,0.48469532,0.6689861,-3.4631748,481
1747533270380,0.08102701,0.6262509,-0.053692598,0.43729106,0.7185209,-3.503122,482
1747533270390,-0.028798755,0.588178,0.01952458,0.44794372,0.7824367,-3.4908717,483
1747533270400,-0.053814625,0.547908525,0.073949345,0.500674295,0.790692525,-3.47862115,484
1747533270410,-0.13569583,0.46834585,0.18060236,0.7536746,0.7771104,-3.4392064,485
1747533270420,-0.20574026,0.37877685,0.16913168,1.2346416,0.51931643,-3.375823,486
1747533270430,-0.18401916,0.34778157,0.117147475,1.5057513,0.28708878,-3.4051178,487
1747533270440,-0.25357547,0.3441207,0.08956901,1.76248,0.16724652,-3.4104443,488
1747533270450,-0.3065359,0.36413342,0.012935034,1.988316,0.07243799,-3.3465283,489
1747533270460,-0.3778006,0.35095432,-0.08395569,2.1502364,0.007989483,-3.2719598,490
1747533270470,-0.5125202,0.31703037,-0.26870704,2.2977755,-0.06711166,-3.1031153,491
1747533270480,-0.5241129499999999,0.287499445,-0.31825066,2.2791333,-0.08575379,-3.07355425,492
1747533270490,-0.5747548499999999,0.21904138,-0.42368339,2.19551005,-0.122239095,-3.02801415,493
1747533270500,-0.72582626,0.1147069,-0.5598673,1.9094865,-0.16990969,-2.9305425,494
1747533270510,-0.82076454,-0.029530926,-0.6977597,1.1233214,-0.16192019,-2.660498,495
1747533270520,-0.8776299,-0.10884953,-0.7268025,0.660464,-0.07403588,-2.56782,496
1747533270530,-0.95621634,-0.1803583,-0.7145996,0.41358895,-0.003728425,-2.50523575,497
1747533270540,-0.99819417,-0.22587498,-0.6903159,-0.06045375,0.168844415,-2.36142505,498
1747533270550,-1.08751905,-0.3210573049999999,-0.6246645200000001,-0.46525425,0.3800331,-2.1763353,499
1747533270560,-1.21747955,-0.448211125,-0.47090847,-0.7832357000000001,0.60879865,-1.8314559,500
1747533270570,-1.3774592,-0.56474847,-0.272856,-0.89029477,0.7102651,-1.46047755,501
1747533270580,-1.4113831,-0.58134437,-0.242104785,-0.77418095,0.6231797,-1.1914983,502
1747533270590,-1.4734956499999998,-0.6050179,-0.2065944599999999,-0.5571333199999999,0.429567865,-0.8679242149999999,503
1747533270600,-1.51815815,-0.61209553,-0.2155025549999999,-0.32703618,0.17390442,-0.520381675,504
1747533270610,-1.5157175,-0.556572515,-0.251989115,-0.0889495775,-0.21758026,0.018908455,505
1747533270620,-1.3996683,-0.4253918,-0.3270367,0.10226539,-0.64714813,0.6918893,506
1747533270630,-1.3564702,-0.383047865,-0.3479036,0.0777643074999999,-0.69588399,0.818389425,507
1747533270640,-1.27617535,-0.293234795,-0.39146782,-0.0199737075,-0.741424055,1.071123425,508
1747533270650,-1.16915625,-0.17620934,-0.4219749849999999,-0.345411985,-0.60054283,1.4359765,509
1747533270660,-1.0069802,-0.043930303,-0.4234393,-0.8974853,-0.283893,1.8695391,510
1747533270670,-0.95279948,-0.0187924074999999,-0.42160887,-0.8974853,-0.283893,1.8695391,511
1747533270680,-0.8588374299999999,0.0235515239999999,-0.4069654499999999,-1.24715835,-0.1246359535,1.9901803,512
1747533270690,-0.80392455,0.066017485,-0.35754387,-1.71161365,0.065780079,2.15689425,513
1747533270700,-0.7768341999999999,0.116537335,-0.271757745,-1.88711595,0.104395915,2.26022485,514
1747533270710,-0.7052034,0.17084007,-0.1094596757,-1.8932412,0.0442084735,2.3837955,515
1747533270720,-0.6347929,0.2362474,0.111046046,-1.6026903,-0.15020229,2.4783378,516
1747533270730,-0.63430478,0.24710796,0.148752893,-1.4452975,-0.216248685,2.5007084,517
1747533270740,-0.6340607300000001,0.261385325,0.19841854,-1.11533187,-0.34354779,2.54811265,518
1747533270750,-0.632962485,0.26358183,0.1965881099999999,-0.7470167,-0.4727111,2.61362635,519
1747533270760,-0.63162017,0.26236153,0.18279888,-0.55127436,-0.5406217,2.6541064,520
1747533270770,-0.601235005,0.28530292,0.0469810205,-0.1781654785,-0.69694924,2.814695,521
1747533270780,-0.582198525,0.347415495,-0.070044432,-0.038615836,-0.732635625,3.00484475,522
1747533270790,-0.5625519,0.37877685,-0.122272685,-0.0793622025,-0.67617662,3.165966,523
1747533270800,-0.4044028699999999,0.47298294,-0.2377117449999999,-0.189617075,-0.572046995,3.2810145,524
1747533270810,-0.11031388,0.6157564,-0.24991462,-0.5075985,-0.24873926,3.3358757,525
1747533270820,-0.044418417,0.61160743,-0.19671014,-0.5725796,-0.20985709,3.2202945,526
1747533270830,-0.04368625,0.58964235,-0.13838045,-0.5608617,-0.26631612,3.0301447,527
1747533270840,-0.090301185,0.5748768449999999,-0.1088495274999999,-0.52943642,-0.32091092,2.9883331,528
1747533270850,-0.185361475,0.55181342,-0.074925575,-0.40240365,-0.53929011,2.95291305,529
1747533270860,-0.2848148,0.59110665,-0.11861181,-0.2953445799999999,-0.76645775,3.02188885,530
1747533270870,-0.2072046,0.65260905,-0.2506468,-0.35206992,-0.8317052,3.16729745,531
1747533270880,-0.1166593624999999,0.671645525,-0.32130137,-0.5653891200000001,-0.73476615,3.29299875,532
1747533270890,0.14082102,0.71020657,-0.417826,-1.077515,-0.32863408,3.2964609,533
1747533270900,0.25162303,0.7307074,-0.14716652,-1.567004,0.05006743,3.0663638,534
1747533270910,0.28457075,0.75438094,0.107385196,-1.4136059,-0.18961707,2.8687572,535
1747533270920,0.23917611,0.7897693,0.268463,-1.0610034,-0.5725796,2.7126958,536
1747533270930,0.136305977,0.7958707,0.2707815249999999,-0.8583368499999999,-0.7741809,2.68260215,537
1747533270940,-0.023673553,0.8088057,0.19231711,-0.13315806,-1.2804478,2.918292,538
1747533270950,-0.025870068,0.8671354,0.056133166,-0.10759171,-1.1531488,3.1739554,539
1747533270960,0.079318605,0.8993509,-0.051252022,-0.25566345,-0.92038846,3.4173684,540
1747533270970,0.2774931,0.9015475,-0.05344854,-0.45912898,-0.66845345,3.5563853,541
1747533270980,0.4678577499999999,0.92985815,0.0240396349999999,-0.5661880699999999,-0.474575325,3.4232273,542
1747533270990,0.71045065,0.9647583,0.19378147,-0.6215818,-0.27057716,3.097789,543
1747533271000,0.7314396,0.9869675,0.20403185,-0.5107943,-0.37284255,2.91989,544
1747533271010,0.6740861,1.0003906,0.19597797,-0.37550572,-0.54807854,2.7563717,545
1747533271020,0.614048,1.0011228,0.15741692,-0.27324033,-0.73290193,2.64878,546
1747533271030,0.5208182,1.0484699,-0.026846299,-0.40107206,-0.8165252,2.706837,547
1747533271040,0.61795294,1.036023,0.018792408,-0.5496765,-0.6897587,2.7419908,548
1747533271050,0.69434285,1.023576,0.14399378,-0.5906891,-0.509729,2.7036412,549
1747533271060,0.6733539,1.0196712,0.25992095,-0.50387007,-0.4181163,2.6375947,550
1747533271070,0.72558224,1.0660421,0.14228538,-0.33289513,-0.48735848,2.5875273,551
1747533271080,0.8751893,1.0997219,0.015375607,-0.42770368,-0.51505536,2.4554346,552
1747533271090,0.99355704,1.1180263,-0.060770255,-0.59228706,-0.49321744,2.2008364,553
1747533271100,0.9313224,1.1104605,-0.07297312,-0.7771104,-0.45007423,1.9504992,554
1747533271110,0.77414954,1.0492021,-0.004148973,-0.9241169,-0.41971418,1.8018948,555
1747533271120,0.4639528,0.8876362,0.43466598,-0.6993461,-0.4181163,1.7741979,556
1747533271130,0.38439015,0.82198477,0.56596875,-0.33289513,-0.4415521,1.8333201,557
1747533271140,0.3226437,0.76341105,0.613804,0.23116238,-0.5267733,1.9558256,558
1747533271150,0.27310005,0.76072645,0.46834585,0.5832323,-0.6103965,2.10443,559
1747533271160,0.5867136,0.8744571,-0.12935033,0.4314321,-0.644485,2.2860575,560
1747533271170,0.80246025,0.9235126,-0.35876414,0.00958738,-0.479369,2.16515,561
1747533271180,0.8969103,0.9606094,-0.43661842,-0.5022722,-0.2796319,1.9856529,562
1747533271190,0.8787281,0.9526775,-0.3779226599999999,-0.7235808749999999,-0.19813918,1.91641075,563
1747533271200,0.780251,0.91253006,-0.08053889,-1.053546575,-0.0711064035,1.8098843,564
1747533271210,0.66920495,0.80514485,0.3612047,-0.87511474,-0.11504856,1.75236,565
1747533271220,0.6469957550000001,0.792209825,0.430639,-0.60906495,-0.20905815,1.76727375,566
1747533271230,0.5520575,0.7656076,0.5142286,-0.114249615,-0.39095207,1.81521065,567
1747533271240,0.49543622,0.75999427,0.3951287,0.45380265,-0.6375608,1.9643476,568
1747533271250,0.5142286,0.7556012,0.1986626,0.5811018,-0.71106404,2.1097562,569
1747533271260,0.8871481,0.7831797,-0.12398108,0.3121225,-0.62371236,2.128931,570
1747533271270,1.0284572,0.8258897,-0.20744865,0.041012682,-0.47617322,1.9275961,571
1747533271280,1.0143019,0.823937235,-0.198906645,-0.095074849,-0.4013383849999999,1.83198855,572
1747533271290,0.94120677,0.8079515100000001,-0.15583055,-0.33529199,-0.276436125,1.69217255,573
1747533271300,0.8219848000000001,0.765485575,-0.0164738679999999,-0.47137952,-0.20080235,1.6737967500000002,574
1747533271310,0.7592621,0.73339206,0.16717921,-0.36591834,-0.24820662,1.75236,575
1747533271320,0.77903074,0.7387613,0.15961345,-0.22690132,-0.34408042,1.8008295,576
1747533271330,0.7945283700000001,0.74291025,0.1310587475,-0.19094865,-0.37763626,1.81521065,577
1747533271340,0.82247293,0.7524285,0.027334413,-0.18482338,-0.41065946,1.8578212,578
1747533271350,0.93840015,0.7285109,-0.04612682,-0.3009372,-0.34248254,1.8940402,579
1747533271360,1.0421244,0.7072779,0.00976229,-0.5571333,-0.23276028,1.7949706,580
1747533271370,1.0816617,0.7084982,0.13911264,-0.53529537,-0.27643612,1.6346483,581
1747533271380,1.0661641,0.7084982,0.19195103,-0.460726875,-0.31158985,1.5622103,582
1747533271390,1.01259353,0.71081672,0.264069945,-0.262055065,-0.3800330899999999,1.45195545,583
1747533271400,0.9580467,0.71581987,0.23051207,-0.025832665,-0.4205131399999999,1.42053015,584
1747533271410,0.96732087,0.7172842500000001,0.13532974,0.08149273,-0.4130563,1.41467115,585
1747533271420,1.0143019,0.7148437,0.041733786,0.011185277,-0.35153726,1.3502227,586
1747533271430,1.0035634,0.71167095,0.0297749825,-0.0362189915,-0.3222425,1.32598795,587
1747533271440,0.981842335,0.700810385,0.020134722,-0.18535602,-0.23276028,1.2751216,588
1747533271450,0.9679311,0.677747,0.026114125,-0.28229508,-0.18002969,1.2602079,589
1747533271460,0.9862353,0.68994987,0.036120474,-0.47670585,-0.090014845,1.2245215,590
1747533271470,1.0484699,0.71167094,0.04783522,-0.5592638,-0.05965481,1.1819109,591
1747533271480,1.0667742,0.7255822199999999,0.059794025,-0.59228702,-0.0308926695,1.14995295,592
1747533271490,1.0850785,0.7394935,0.07175283,-0.62531024,-0.002130529,1.117995,593
1747533271500,1.1238836,0.7563334,0.1300825,-0.6625945,0.05006743,0.9598033,594
1747533271510,1.1194906,0.7660957,0.23917611,-0.5182512,-0.03089267,0.76272935,595
1747533271520,1.1190025,0.7512082,0.281398,-0.386691,-0.09374327,0.6689861,596
1747533271530,1.1296189499999998,0.74888965,0.2831064,-0.31318775,-0.127565415,0.61998392,597
1747533271540,1.13437805,0.75352675,0.275906725,-0.1757686325,-0.185888645,0.51319115,598
1747533271550,1.090936,0.7695125,0.23356278,-0.0058589545,-0.20719394,0.3435478,599
1747533271560,1.090936,0.7695125,0.23356278,0.0031957934,-0.10013486,0.283893,600
1747533271570,1.0448091,0.81368685,0.061502427,-0.0351537283,-0.067644294,0.269511915,601
1747533271580,1.06555395,0.8223508900000001,0.04258799,-0.135288585,0.0069242175,0.2247707949999999,602
1747533271590,1.1060674499999998,0.829916665,0.024527753,-0.262854,0.0988032815,0.151267553,603
1747533271600,1.1497537,0.8085616,0.13740423,-0.45060685,0.18056233,-0.11664646,604
1747533271610,1.1360865,0.81149036,0.19134088,-0.41438788,0.123038046,-0.23435818,605
1747533271620,1.1343781,0.82247293,0.20134723,-0.3653857,0.041545313,-0.33076462,606
1747533271630,1.14633695,0.8293065150000001,0.2050080799999999,-0.34461304,0.0047936914999999,-0.390419425,607
1747533271640,1.1698884500000002,0.8416314,0.214770365,-0.314253005,-0.034354777,-0.504402715,608
1747533271650,1.2254114,0.8812907,0.2323425,-0.35100463,0.0644485,-0.7728494,609
1747533271660,1.2346856000000002,0.886782,0.25369751,-0.35792887,0.1635181,-0.8878979,610
1747533271670,1.24542415,0.88922255,0.303485185,-0.336889885,0.212786585,-0.9544769,611
1747533271680,1.1995413,0.8429737,0.37536004,-0.14327806,0.35153726,-1.2697952,612
1747533271690,1.1830675,0.83809255,0.378776845,-0.084954836,0.3571299049999999,-1.31640055,613
1747533271700,1.1536586,0.82857436,0.37121108,0.13262543,0.34621096,-1.478587,614
1747533271710,1.1586617499999998,0.82711003,0.343144505,0.181893905,0.3336941,-1.5342471,615
1747533271720,1.155123,0.8266219,0.2630937,0.2892193,0.29880667,-1.7022926,616
1747533271730,1.12547005,0.82588975,0.229779895,0.30013825,0.296676145,-1.7891116500000002,617
1747533271740,1.07653655,0.8290625,0.17852788,0.293214035,0.30519826,-1.90256235,618
1747533271750,1.0340706,0.8327233,0.1261776,0.19121496,0.3717773,-1.9558256,619
1747533271760,1.0287013,0.8258897,0.12520137,0.101200126,0.4628574,-1.9734024,620
1747533271770,1.044565,0.8236932,0.13691612,0.066312713,0.51292485,-1.9877835,621
1747533271780,1.05139865,0.8230830650000001,0.15241375,0.009054747,0.6229134000000001,-2.0828583,622
1747533271790,1.04212445,0.821862785,0.17803976,-0.0029294775,0.6862965999999999,-2.1936458,623
1747533271800,1.0030752,0.8300387,0.19353738,0.033023197,0.67324716,-2.2551649,624
1747533271810,0.9964857,0.8332114,0.20281157,0.066046394,0.6423545,-2.282329,625
1747533271820,1.0440769,0.85224795,0.20574026,0.14434333,0.5832323,-2.3995082,626
1747533271830,1.0533511,0.854810525,0.206106345,0.154729665,0.581900725,-2.4423851,627
1747533271840,1.0654319,0.8537122500000001,0.22062775,0.18189391,0.592287025,-2.536661,628
1747533271850,1.0133257,0.84517026,0.26455808,0.25885928,0.6423545,-2.676477,629
1747533271860,0.9479183,0.8422416,0.27944556,0.35952675,0.66206187,-2.702576,630
1747533271870,0.94572186,0.827354,0.24820623,0.49801114,0.6263755,-2.735599,631
1747533271880,0.95792468,0.832967335,0.231854395,0.51718592,0.6064018,-2.7699538500000003,632
1747533271890,0.9696394,0.842119515,0.19841855,0.5382249,0.5733786000000001,-2.8367993,633
1747533271900,0.938156,0.8395569,0.15570852,0.50813115,0.5789712,-2.9188247,634
1747533271910,0.91814333,0.85542065,0.16644704,0.46871635,0.6199839,-2.95025,635
1747533271920,0.96329397,0.8578612,0.1683995,0.4165184,0.6348976,-3.0407975,636
1747533271930,0.961707635,0.85163775,0.16522676,0.4098605,0.6351639499999999,-3.0983217,637
1747533271940,0.924000785,0.83919085,0.159857505,0.39068574,0.6343650000000001,-3.21044075,638
1747533271950,0.8350418850000001,0.819666265,0.17596528,0.37657099,0.6391586499999999,-3.2751556500000003,639
1747533271960,0.7470592300000001,0.797212985,0.241372635,0.44687845,0.664725,-3.2735578,640
1747533271970,0.71996886,0.78415596,0.32386398,0.5888249249999999,0.679905035,-3.27861775,641
1747533271980,0.70447123,0.79074548,0.320691225,0.7307714249999999,0.6625944850000001,-3.3124398,642
1747533271990,0.6847026,0.797823115,0.2992141849999999,0.8570052699999999,0.6245113,-3.3406693,643
1747533272000,0.68580088,0.800263715,0.25381954,0.94409062,0.576308085,-3.37582305,644
1747533272010,0.71020657,0.82759815,0.105676785,0.98803276,0.5267733,-3.5862129,645
1747533272020,0.6972716,0.835408,0.050763905,0.8974853,0.53476274,-3.7023265,646
1747533272030,0.6960512999999999,0.83382158,0.032337584,0.8468852250000001,0.5454154,-3.75798665,647
1747533272040,0.6982478,0.7997756,0.03099527,0.7190535,0.5571333,-3.9643817,648
1747533272050,0.55413199,0.7481575,0.11373068,0.757403,0.5470133,-4.05173335,649
1747533272060,0.29482117,0.64260274,0.24186075,0.9331717,0.53742594,-4.107127,650
1747533272070,0.239664225,0.63479292,0.241982775,1.0149307,0.5653891200000001,-4.06824485,651
1747533272080,0.1632743,0.6367454,0.20598431,1.2516857,0.6034723,-3.9159122,652
1747533272090,0.1513155,0.66798466,0.108117364,1.29988895,0.58589545,-3.8653121,653
1747533272100,0.12337094,0.749377755,-0.032337588,1.284709,0.515321685,-3.685016,654
1747533272110,0.23356278,0.84248555,-0.2706595,1.1113372,0.465786875,-3.5270905,655
1747533272120,0.30409534,0.8255235750000001,-0.285302935,0.89295795,0.49454902,-3.5686359000000003,656
1747533272130,0.37743455,0.80185007,-0.27248993,0.703873515,0.5384911800000001,-3.743073,657
1747533272140,0.2716357,0.7482795,-0.118855886,0.594950195,0.56778595,-3.92656485,658
1747533272150,-0.050763905,0.52374685,0.13545178,0.79628515,0.4628574,-4.125769,659
1747533272160,-0.23649146,0.46956614,0.21818718,1.0423613,0.32756883,-4.0336237,660
1747533272170,-0.33020946,0.41636166,0.23722363,1.293231,0.16298546,-3.8562574,661
1747533272180,-0.304583445,0.41562948,0.2208718,1.4239922,0.056459015,-3.75266035,662
1747533272190,-0.208913,0.43588624,0.170596015,1.6290556,-0.14674018,-3.63707915,663
1747533272200,-0.1031141875,0.4879924399999999,0.0723629745,1.74543575,-0.327302515,-3.6509276,664
1747533272210,-0.0699224075,0.5266755000000001,-0.0247718104999999,1.73212,-0.4415521,-3.8067226,665
1747533272220,-0.061502427,0.55742675,-0.118855886,1.6010925,-0.34674358,-3.888748,666
1747533272230,-0.0328257,0.5407088099999999,-0.175965278,1.4873755,-0.2551308399999999,-3.96305,667
1747533272240,-0.018914438,0.46675946,-0.253575475,1.2381036,-0.0615190265,-4.131894300000001,668
1747533272250,-0.1757212265,0.339727685,-0.144359857,0.99389175,0.0798948335,-4.3247073,669
1747533272260,-0.46663743,0.15253578,0.12935033,1.0615361,-0.070307456,-4.3702474,670
1747533272270,-0.5608435,0.058817793,0.24064046,1.3390374,-0.2625877,-4.287689,671
1747533272280,-0.5757310250000001,0.0283106389,0.243081025,1.4873755000000002,-0.3451456899999999,-4.239486,672
1747533272290,-0.592693025,-0.0362425026,0.212085745,1.758219,-0.4916195599999999,-4.152134500000001,673
1747533272300,-0.61966133,-0.12813005,0.035632357,2.253567,-0.7286409,-4.020308,674
1747533272310,-0.66847277,-0.1786499,-0.09005712,2.3265376,-0.7488809,-3.9771647,675
1747533272320,-0.7636551,-0.25479576,-0.25406358,2.2445123,-0.68336713,-3.9286952,676
1747533272330,-0.834187675,-0.29116028,-0.3441207149999999,2.12067525,-0.595216515,-3.8658446,677
1747533272340,-0.986113325,-0.36474354,-0.500439395,1.74330525,-0.406132075,-3.6519928,678
1747533272350,-1.2439598,-0.4842096,-0.6889736,0.9827065,-0.18748654,-3.1611724,679
1747533272360,-1.3276714,-0.60184515,-0.5950116,0.07456851,-0.29134983,-2.4005735,680
1747533272370,-1.3281595,-0.6064822400000001,-0.52643149,-0.18269286,-0.49481535,-2.0469058,681
1747533272380,-1.31620075,-0.622590035,-0.37584816,-0.2444782,-0.606135475,-1.88818135,682
1747533272390,-1.2759313,-0.66725252,-0.1415532105,-0.20240025,-0.8564726,-1.2154667,683
1747533272400,-1.261776,-0.7455949,0.10396838,-0.1147822465,-0.8048073,-1.10414658,684
1747533272410,-1.2949678,-0.7554791999999999,0.1485088299999999,0.0870853685,-0.6854977,-0.86366318,685
1747533272420,-1.36147335,-0.759140065,0.216356755,0.535828,-0.46019423,-0.3339604,686
1747533272430,-1.4444528,-0.708986315,0.16803342,0.6996123999999999,-0.355798315,0.053263225,687
1747533272440,-1.4941185,-0.665056,0.09640261,0.8633968,-0.2514024,0.44048685,688
1747533272450,-1.48533245,-0.6286914699999999,0.0316054125,0.84422205,-0.18322548,0.64235446,689
1747533272460,-1.4245622,-0.5110559,-0.17425688,0.63436496,0.06764429,1.2293152,690
1747533272470,-1.0816617,-0.2716357,-0.38316986,-0.0814927249999999,0.448476345,1.824798,691
1747533272480,-1.0251624499999998,-0.24564362,-0.36913657,-0.62557656,0.64022395,2.1499700500000003,692
1747533272490,-0.9135063,-0.15595257,-0.34387666,-1.0253171,0.5949502,2.3164175,693
1747533272500,-0.90374404,-0.10201593,-0.36974674,-1.3299826,0.4708469,2.4304008,694
1747533272510,-0.912774145,-0.087494525,-0.38182757,-1.46207545,0.4303668499999999,2.4889904,695
1747533272520,-0.93205464,-0.029774986,-0.25040275,-1.72253265,0.369646775,2.6272085,696
1747533272530,-0.93205464,-0.029774986,-0.25040275,-1.850897,0.34940675,2.706837,697
1747533272540,-0.915946835,0.0612583705,0.0289207815,-1.8639465,0.191747595,3.05464575,698
1747533272550,-0.91619086,0.15936938,0.1615659,-1.65515465,0.1685780949999999,3.19978805,699
1747533272560,-0.8390688,0.18951046,0.1338653975,-1.4327807,0.176567585,3.3473272,700
1747533272570,-0.65382934,0.25674823,0.012935034,-1.2080099,0.21997711,3.47143055,701
1747533272580,-0.58427304,0.27468644,-0.0505198505,-1.11959295,0.28682245,3.4930022000000003,702
1747533272590,-0.45040765,0.308610395,-0.1729145575,-1.23384255,0.340352,3.3965957,703
1747533272600,-0.3099527,0.35534734,-0.345341,-1.5920377,0.40266997,3.1531827,704
1747533272610,-0.40342663,0.37975307,-0.347171425,-1.7630126499999998,0.43915527,3.07515215,705
1747533272620,-0.57304643,0.40989414,-0.28444872,-2.4762073,0.65034395,3.06157,706
1747533272630,-0.6765267,0.40757559,-0.1436276974999999,-2.52361155,0.6508765750000001,3.13747015,707
1747533272640,-0.7178944,0.40293851,0.0183042875,-2.5331989000000004,0.634098675,3.2956619,708
1747533272650,-0.725094085,0.41404311,0.19756435,-2.375806,0.582167025,3.47009895,709
1747533272660,-0.5324108750000001,0.45040765,0.4135550099999999,-2.0008329,0.468450035,3.6461339,710
1747533272670,-0.12666571,0.5293602,0.5012936,-0.6982809,-0.03089267,3.5334823,711
1747533272680,-0.12666571,0.5293602,0.5012936,-0.6982809,-0.03089267,3.5334823,712
1747533272690,0.0422219025,0.5958658,0.355103295,-0.052996905,-0.4048005099999999,3.1119038000000003,713
1747533272700,0.04490653,0.6465077,0.21403822,0.3685815,-0.6828345,2.6620958,714
1747533272710,-0.2638259,0.6628595,0.06760386,0.545948,-0.5949502,2.4106934,715
1747533272720,-0.37194327,0.67420815,0.024283698,0.4463458,-0.37284255,2.5497105,716
1747533272730,-0.5344854,0.69592925,-0.0519841945,0.340884625,-0.22237395,2.6929885,717
1747533272740,-0.5603554550000001,0.7071559000000001,-0.1275199125,0.05086638,0.11824436,3.03866685,718
1747533272750,-0.30848834,0.73339206,-0.31239328,-0.308660375,0.438356335,3.3422673,719
1747533272760,0.18938842,0.81344277,-0.27920148,-1.1313108,0.79894835,3.3225598,720
1747533272770,0.37633628,0.8402891,-0.19963883,-1.2799152,0.7099988,3.022688,721
1747533272780,0.35156447,0.8408992200000001,-0.103358245,-1.2546152,0.6026733900000001,2.8506477500000003,722
1747533272790,0.210743435,0.82527957,0.0973788449999999,-1.1073424,0.33822147,2.57794,723
1747533272800,-0.0960365149999999,0.75889603,0.3149559,-0.781637775,0.0205063449999999,2.48393035,724
1747533272810,-0.3121492099999999,0.7205790299999999,0.3721873249999999,0.31957933,-0.5454154,3.0322752,725
1747533272820,-0.30238694,0.7457168999999999,0.22270224,0.3685815,-0.51745221,3.17981435,726
1747533272830,-0.134109464485,0.7870846,0.046614932,0.371510985,-0.41918157,3.42402625,727
1747533272840,0.138502485515,0.882633025,-0.139966833,0.1858886525,-0.25672874,3.53321585,728
1747533272850,0.6560259,1.0977695,-0.4458926,-0.8809737,0.1470065,3.086071,729
1747533272860,0.6074585,1.0799533,-0.4097721,-1.3608754,0.25033715,2.793656,730
1747533272870,0.42270714,1.0125935,-0.24869433,-1.7145431,0.24607609,2.6088326,731
1747533272880,0.351930545,0.97208002,-0.151925635,-1.7891116,0.213585525,2.57128205,732
1747533272890,0.22953584,0.889100555,0.03953728,-1.8418422,0.138218065,2.52947045,733
1747533272900,0.13484163,0.81991032,0.3022649,-1.081776,-0.29348037,2.7265444,734
1747533272910,0.14594624,0.8121005,0.492751575,-0.85860315,-0.372309935,2.76569285,735
1747533272920,0.285058875,0.8395569300000001,0.493727805,-0.435959505,-0.48363005,2.80004765,736
1747533272930,0.43246945,0.86872178,0.427100165,-0.088949583,-0.5179848300000001,2.7518444,737
1747533272940,0.52960423,0.9097234,0.350466205,0.1568601869999999,-0.5155879800000001,2.6434537,738
1747533272950,0.6145361300000001,0.933030885,0.27956759,0.315318275,-0.5099953500000001,2.4876588,739
1747533272960,0.61111933,0.9510911,0.114462845,0.44687843,-0.51718587,1.9718045,740
1747533272970,0.45052966,0.88983274,0.11495096,0.44847634,-0.50653327,1.8775285,741
1747533272980,0.37328556,0.8610339499999999,0.115195015,0.464455305,-0.481765855,1.91268225,742
1747533272990,0.253697515,0.80709728,0.12398108,0.509196415,-0.4495416,2.01388245,743
1747533273000,0.4339338,0.7912336,0.0741934,0.61625546,-0.4463458,2.1848574,744
1747533273010,0.5749989,0.8412653,0.009518232,0.6689861,-0.39468047,2.1720743,745
1747533273020,0.59635388,0.8642067,-0.0134231489999999,0.637028165,-0.335558295,2.15050265,746
1747533273030,0.61734278,0.8934936,-0.0420998749999999,0.552872265,-0.216514995,2.1265342,747
1747533273040,0.59086263,0.9010593,-0.04344219,0.3888215,-0.06977482,2.12467,748
1747533273050,0.42417148,0.82100856,0.03099527,0.23808661,0.020772656,2.2365227,749
1747533273060,0.30751213,0.76853627,0.052472305,0.20879184,0.027696876,2.4623587,750
1747533273070,0.31434575,0.7353445,0.026846299,0.17470337,-0.0127831735,2.6956518,751
1747533273080,0.430639025,0.7366868,-0.0020744854999999,0.14594123,-0.0521979567499999,2.75743715,752
1747533273090,0.6666423800000001,0.7732953499999999,-0.06491923,0.080427467,-0.124103305,2.7944551,753
1747533273100,0.79050143,0.82955055,-0.130204545,-0.079362203,-0.14913702,2.6754117,754
1747533273110,0.6726217,0.7995315,-0.17987019,-0.37337518,-0.08042747,2.6429212,755
1747533273120,0.63406074,0.75145227,-0.15912533,-0.5454154,-0.022370555,2.7547739,756
1747533273130,0.74718127,0.749621835,-0.1295944,-0.671382935,-0.0133158065,2.7622308,757
1747533273140,0.8498074,0.7475473,-0.073461235,-0.87831056,0.019707393,2.7244139,758
1747533273150,0.80831765,0.73534445,-0.057353454,-0.91426323,0.0250337149999999,2.7451866000000003,759
1747533273160,0.7070338,0.70288485,-0.0053692595,-1.0082728,0.04580637,2.873551,760
1747533273170,0.7141115,0.65846646,0.0707766,-1.0524813,0.07137272,3.0120351,761
1747533273180,0.8179578750000001,0.65675803,0.0726070299999999,-1.0753845,0.053263224,3.1148332,762
1747533273190,1.011007175,0.6655441,0.0739493475,-1.09775505,0.0002663175,3.17661855,763
1747533273200,1.18868085,0.682018,0.0992092725,-1.0737866,-0.1139832965,3.0386668500000003,764
1747533273210,1.36647655,0.70642373,0.139478715,-0.9571401,-0.38242993,2.62854,765
1747533273220,1.458242,0.7770783,0.2208718,-0.74781567,-0.51771855,2.1864552,766
1747533273230,1.458242,0.7770783,0.2208718,-0.74781567,-0.51771855,2.1864552,767
1747533273240,1.0708012,0.76304495,0.3108069,-0.251136095,-0.8412926000000001,1.95076545,768
1747533273250,1.01088512,0.74193402,0.28225219,-0.123836995,-0.8676579,1.96141815,769
1747533273260,0.98538112,0.7069118249999999,0.23856596,-0.074568515,-0.7872304299999999,1.9912456,770
1747533273270,0.93522733,0.6462636,0.18157859,-0.13981596,-0.51931642,2.06448245,771
1747533273280,1.025894615,0.66542208,0.168399495,-0.26471822,-0.2628540099999999,2.12227305,772
1747533273290,1.2261436,0.730951455,0.130326565,-0.37177729,-0.180562325,2.05036775,773
1747533273300,1.4506763,0.8793382,0.064919226,-0.55287224,-0.13475595,1.6314526,774
1747533273310,1.4782547,0.9269294,0.05662128,-0.6737798,-0.15393071,1.3411679,775
1747533273320,1.42895515,0.915702785,0.1003075299999999,-0.7749798999999999,-0.10945592,1.10201605,776
1747533273330,1.3796556,0.90447617,0.14399378,-0.87618,-0.06498113,0.8628642,777
1747533273340,1.2440818,0.86676932,0.308610395,-0.8423578650000001,-0.01438106975,0.64741447,778
1747533273350,1.16586145,0.83504192,0.409894155,-0.73476615,0.00479369025,0.53902381,779
1747533273360,1.0204034,0.76756,0.53765815,-0.43356264,0.033023199,0.460726885,780
1747533273370,1.0047837,0.7636551,0.51740134,-0.0527305925,0.050600063,0.4082626099999999,781
1747533273380,1.0047837,0.7636551,0.51740134,0.099069595,0.050600063,0.38935417,782
1747533273390,1.091668,0.7753699,0.3521746,0.44315,-0.03781689,0.21678132,783
1747533273400,1.1165619,0.80221618,0.3022649,0.5086638,-0.07882957,0.08628642,784
1747533273410,1.2115002,0.92400074,0.076633975,0.39840892,-0.06231797,-0.16884442,785
1747533273420,1.2184558,0.93095637,0.0490555065,0.33156356,-0.0439421585,-0.23036344,786
1747533273430,1.22480125,0.93095637,0.018670379,0.196541285,-0.016511599,-0.3520699,787
1747533273440,1.21589315,0.91179787,0.025137895,0.0732369335,0.0069242195,-0.469248995,788
1747533273450,1.1819692,0.8871481,0.042221904,-0.0298274014999999,0.039414785,-0.56911755,789
1747533273460,1.2168695,0.91204196,0.06662763,-0.3323625,0.18535602,-0.79042625,790
1747533273470,1.2703179,0.9261973,0.12373702,-0.41065946,0.25086978,-0.9193232,791
1747533273480,1.2932593,0.9272955,0.14631232,-0.4298342149999999,0.29214879,-0.9968212,792
1747533273490,1.3263291,0.92082795,0.1935374,-0.4527374,0.41225734,-1.2543489,793
1747533273500,1.2388345,0.8678676,0.33313814,-0.423975265,0.43516053,-1.34409745,794
1747533273510,1.2018599,0.85651893,0.36205892,-0.25752769,0.431165785,-1.5691346,795
1747533273520,1.1070436,0.84102124,0.42636803,0.08841695,0.3174488,-1.7757958,796
1747533273530,1.08715295,0.8380925699999999,0.428198465,0.19654129,0.28309403,-1.8026938,797
1747533273540,1.05298495,0.8299167000000001,0.400497965,0.402669965,0.23755398,-1.85276125,798
1747533273550,1.0374873,0.8444381000000001,0.28713336,0.49934272,0.28016455,-1.88498545,799
1747533273560,1.0792211,0.86371857,0.13911264,0.38136467,0.45859635,-1.9244002,800
1747533273570,1.1302291,0.8534682,0.12495731,0.2561961,0.5603291,-1.9824572,801
1747533273580,1.1585398,0.8744571,0.17401282,0.18109496,0.6013418,-2.0735373,802
1747533273590,1.159516,0.89398164,0.20061506,0.14434333,0.61572284,-2.171009,803
1747533273600,1.2271198,0.84883106,0.26577836,0.14966966,0.62531024,-2.4096282,804
1747533273610,1.2261436,0.8515157,0.32020313,0.27377295,0.5800365,-2.6130936,805
1747533273620,1.1929518,0.8520039,0.35485923,0.42184472,0.50173956,-2.7595675,806
1747533273630,1.16793595,0.85359025,0.35766588,0.50227219,0.4657868899999999,-2.8122982,807
1747533273640,1.0777569,0.8573731,0.34558508,0.7233146,0.3818973,-2.922553,808
1747533273650,1.0640897,0.85444444,0.30116665,0.92038846,0.34621096,-3.0067089,809
1747533273660,1.0662861,0.856641,0.2633378,0.9853696,0.3685815,-3.0637007,810
1747533273670,1.0482259,0.8537123,0.21989559,1.019458,0.40586576,-3.1244206,811
1747533273680,1.0299216,0.8533462,0.196954205,1.0213223,0.42930158,-3.1433291,812
1747533273690,1.01527815,0.85200385,0.15338998,1.0125339,0.46685215,-3.1787492,813
1747533273700,1.074096,0.88055855,0.03099527,0.87032104,0.515588,-3.3997915,814
1747533273710,1.0340706,0.8649389,0.0065895454,0.7701862,0.55766594,-3.4977958,815
1747533273720,0.99136057,0.856274865,0.0098843182,0.722781935,0.58509652,-3.5222969,816
1747533273730,0.89483589,0.839922995,0.0185483504999999,0.637560785,0.642620815,-3.54440115,817
1747533273740,0.7917217000000001,0.82393723,0.035266272,0.5747102,0.6921556,-3.5116442,818
1747533273750,0.6216138,0.8075854,0.102748096,0.53476274,0.7259777,-3.2474587,819
1747533273760,0.61966133,0.7992875,0.1295944,0.5763081,0.7137272,-3.1393344,820
1747533273770,0.644921245,0.7962367850000001,0.13996683,0.610929175,0.70174295,-3.1012512,821
1747533273780,0.71057266,0.786718535,0.177917725,0.7283745749999999,0.660996575,-3.0764838,822
1747533273790,0.77231918,0.7869626000000001,0.2341729249999999,0.9209211,0.589623875,-3.1409323,823
1747533273800,0.7801290000000001,0.8001417,0.2205057249999999,1.4141386,0.3174488,-3.3987262,824
1747533273810,0.7280228,0.8000197,0.08639627,1.4487597,0.27537086,-3.4394726,825
1747533273820,0.6782351,0.78488815,-0.021721095,1.4729944499999998,0.2098571,-3.521498,826
1747533273830,0.6578563,0.78549829,-0.0595499674999999,1.4149375,0.174170735,-3.59793075,827
1747533273840,0.6169766999999999,0.7913556399999999,-0.12337094,1.2911005,0.16218651,-3.65811825,828
1747533273850,0.5494949,0.8039245749999999,-0.146556385,1.01732755,0.253000315,-3.6855488,829
1747533273860,0.43759465,0.7873287,-0.11251039,0.68336713,0.4527374,-3.6767602,830
1747533273870,0.3590082,0.7648754,-0.08956901,0.57311225,0.54168695,-3.6490633,831
1747533273880,0.361692835,0.768902325,-0.044296390515,0.523843775,0.541953275,-3.5784895,832
1747533273890,0.41099238,0.76267886,0.04490653,0.52357745,0.4676511,-3.5579834,833
1747533273900,0.40123013,0.7324158,0.12324891,0.63915867,0.340352,-3.6730318,834
1747533273910,0.3141017,0.71142685,0.18133454,0.8111989,0.18961707,-3.7571878,835
1747533273920,0.25943285,0.6804316,0.15546446,0.901746365,0.11717909,-3.7603836,836
1747533273930,0.24576564,0.670181185,0.1383804599999999,1.132908765,-0.049534795,-3.8024615,837
1747533273940,0.214770375,0.666764385,0.080904982,1.28817105,-0.164050725,-3.8533278,838
1747533273950,0.15912533,0.6653,-0.043198135,1.2500879,-0.18162759,-3.8791604,839
1747533273960,0.08590815,0.6616392,-0.12032023,1.1243867,-0.1257012,-3.8551922,840
1747533273970,0.03904916,0.5259434,-0.21257387,0.8974853300000001,0.0332895149999999,-3.8764974,841
1747533273980,-0.025870068,0.4899449349999999,-0.200859115,0.567785945,0.298540365,-3.8911448,842
1747533273990,-0.156196643,0.44015725,-0.16180995,0.390419415,0.46845005,-3.83681635,843
1747533274000,-0.259798945,0.405867205,-0.104090415,0.27830033,0.5486112000000001,-3.71510985,844
1747533274010,-0.2933568,0.31483385,-0.016839951,0.23276028,0.49801114,-3.5334823,845
1747533274020,-0.3824377,0.2860351,0.078830495,0.46552056,0.30360037,-3.3550503,846
1747533274030,-0.406599385,0.29262464,0.0684580595,0.51478903,0.295610885,-3.27542185,847
1747533274040,-0.424903675,0.28090989,0.0279445544,0.58483018,0.30812774,-3.1308123,848
1747533274050,-0.40501299,0.24625376,-0.0273344100999999,0.6066681,0.3888215,-2.9987195,849
1747533274060,-0.3995217,0.189266395,-0.0916434875,0.5880259800000001,0.413855235,-2.9936595,850
1747533274070,-0.4480891,0.12434717,-0.14631231,0.50706589,0.523577485,-2.98726785,851
1747533274080,-0.54851867,0.08358961,-0.169619785,0.411192085,0.6655239799999999,-2.95104885,852
1747533274090,-0.6687168699999999,0.06870212,-0.16949776,0.35926044,0.78083885,-2.8336035,853
1747533274100,-0.72655845,0.032215554,-0.1615659,0.4111921,0.9400959,-2.4580977,854
1747533274110,-0.81319875,0.071264714,-0.15790504,0.52837116,0.93157375,-2.3212113,855
1747533274120,-0.84761083,0.13447554,-0.14985114,0.66845345,0.8362326,-2.117213,856
1747533274130,-0.821130615,0.142041315,-0.158515175,0.747016695,0.7616641,-2.0519656,857
1747533274140,-0.7946504,0.14960709,-0.16717921,0.82557994,0.6870956,-1.9867182,858
1747533274150,-0.71398945,0.188656245,-0.23856597,1.0641992,0.43436156,-1.96195075,859
1747533274160,-0.6914142,0.09615856,-0.49031103,1.1254519,0.2631203199999999,-2.0343887,860
1747533274170,-0.72826684,0.051252022,-0.5623079,0.94968325,0.10333065,-2.1923141,861
1747533274180,-0.76975657,0.01891443625,-0.5950116,0.847950475,0.0703074525,-2.2202774,862
1747533274190,-0.86554905,-0.05344853775,-0.64943635,0.61305967,0.007190535,-2.2564964,863
1747533274200,-1.0694589,-0.1849953879999999,-0.699101975,0.31052459,0.0015978975,-2.1521004,864
1747533274210,-1.3550059,-0.37169918,-0.7106947,-0.26098978,0.085487475,-1.9044265,865
1747533274220,-1.4821596,-0.4527262,-0.6452874,-1.0418286,0.29454562,-1.4247912,866
1747533274230,-1.5541565,-0.507395,-0.54766446,-1.3278521,0.44208476,-1.0391655,867
1747533274240,-1.5971106,-0.53350914,-0.42075467,-1.4695324,0.5486112,-0.62584287,868
1747533274250,-1.5778301,-0.52277062,-0.320447155,-1.36487015,0.5107943149999999,-0.149403335,869
1747533274260,-1.4243181,-0.45980385,-0.14765464,-0.98750013,0.3153183,0.6785734,870
1747533274270,-1.2930154,-0.38805103,-0.11251039,-0.82238415,0.205329735,0.8146609499999999,871
1747533274280,-1.24444795,-0.347537515,-0.120686305,-0.500407985,-0.031158985,1.05514445,872
1747533274290,-1.15109605,-0.26846296,-0.1525357749999999,-0.223439225,-0.280164555,1.23916885,873
1747533274300,-1.03138598,-0.144237829,-0.24820623,-0.0330231975,-0.554470155,1.44423225,874
1747533274310,-0.88641596,0.003172744,-0.35876414,-0.039947417,-0.77391464,1.6405072,875
1747533274320,-0.8611560300000001,0.025259925,-0.3684043999999999,-0.1158475085,-0.781904105,1.6586167,876
1747533274330,-0.8393129,0.09225364,-0.3692586,-0.28842035,-0.7629956600000001,1.69989575,877
1747533274340,-0.84968535,0.11568314,-0.3494899649999999,-0.50999535,-0.6679208249999999,1.7848506,878
1747533274350,-0.9076489,0.2135501,-0.22477673,-0.95234644,-0.3536678,2.1513016,879
1747533274360,-0.9015475,0.26065314,-0.1666911,-1.00028337,-0.3067961649999999,2.2437133,880
1747533274370,-0.8166155,0.30629185,-0.12349297,-1.0934939,-0.20719394,2.4788704,881
1747533274380,-0.74852355,0.322277605,-0.11116808,-1.0929612999999998,-0.20639499,2.50630095,882
1747533274390,-0.614536135,0.34924592,-0.0949382719999999,-1.0815096999999998,-0.23515712,2.50630095,883
1747533274400,-0.41562948,0.38536638,-0.122272685,-1.04928545,-0.33981935,2.31615125,884
1747533274410,-0.5125202,0.40659937,-0.10348027,-1.010936,-0.43675843,2.036253,885
1747533274420,-0.64260274,0.43491003,-0.061746486,-0.9853696,-0.4495416,2.0900488,886
1747533274430,-0.70312893,0.44882128,-0.022453265,-0.9241169,-0.44208476,2.2040322,887
1747533274440,-0.706057615,0.4548006799999999,-0.01086054662,-0.8825716,-0.42770368,2.2655512,888
1747533274450,-0.7145996,0.47737598,0.020988923,-0.74941355,-0.3536678,2.4644892,889
1747533274460,-0.6062382,0.5549862,0.047347106,-0.561927,-0.23009712,2.7457192,890
1747533274470,-0.47103047,0.5610876,0.004148973,-0.48948902,-0.18908444,2.7654266,891
1747533274480,-0.44613662,0.5776835,-0.0136672065,-0.46179214,-0.17816548,2.74518655,892
1747533274490,-0.393542305,0.61709875,-0.029286871,-0.4135889299999999,-0.19520971,2.7071032500000003,893
1747533274500,-0.3099527,0.65797836,-0.056133166,-0.267914,-0.42077947,2.4959147,894
1747533274510,-0.3099527,0.65797836,-0.056133166,-0.267914,-0.42077947,2.4959147,895
1747533274520,-0.3099527,0.65797836,-0.056133166,-0.267914,-0.42077947,2.4959147,896
1747533274530,-0.40220635,0.66017485,-0.0156196634999999,-0.1715075724999999,-0.515321685,2.55770005,897
1747533274540,-0.49446,0.66237134,0.024893839,0.010120012,-0.60720074,2.7478497,898
1747533274550,-0.4159955899999999,0.63820967,0.0095182325,0.080161151,-0.57391122,2.80537385,899
1747533274560,-0.3029970899999999,0.62832537,-0.0191584935,0.18535602,-0.49801114,2.8378644,900
1747533274570,-0.20256752,0.65797836,-0.055400997,0.1965413,-0.48735848,2.7872643,901
1747533274580,-0.2848148,0.746083,-0.079318605,0.16937704,-0.45380265,2.8245487,902
1747533274590,-0.24369116,0.7673160000000001,-0.0816371475,0.15446334,-0.482298475,2.87781185,903
1747533274600,-0.08127106,0.8158834,-0.1181237,0.112918034,-0.5368933,2.9289446,904
1747533274610,-0.03465613,0.86152214,-0.1415532,0.077231675,-0.54648066,2.8927257,905
1747533274620,0.016351834,0.88983274,-0.1581491,0.006924219,-0.5789712,2.858637,906
1747533274630,0.12398108,0.83077085,-0.23575929,-0.09321064,-0.5747102,2.7627633,907
1747533274640,0.0622346,0.7814713,-0.24967057,-0.38029942,-0.5107943,2.4037693,908
1747533274650,-0.076633975,0.7665838,-0.20647243,-0.54914385,-0.49002165,2.3600934,909
1747533274660,-0.18621568,0.81490713,-0.13032657,-0.62903863,-0.48469532,2.5081651,910
1747533274670,-0.04368625,0.8576172,-0.022697324,-0.6689861,-0.4575311,2.7089674,911
1747533274680,0.08786061,0.84517026,0.022209208,-0.66845345,-0.18482338,2.815494,912
1747533274690,0.14789869,0.84614646,0.08078295,-0.62051654,0.012250541,2.783536,913
1747533274700,0.18816814,0.82247293,0.12813005,-0.525708,0.1486044,2.7238812,914
1747533274710,0.27822527,0.788793,0.13471961,-0.40746364,0.15233281,2.5901904,915
1747533274720,0.27090356,0.7690244,0.13593988,-0.10173275,-0.06391586,2.2269354,916
1747533274730,0.24247089,0.748035475,0.13972277,0.013848445,-0.17630126,2.15742685,917
1747533274740,0.049543623,0.7560893,0.13960074,0.32810146,-0.376571,2.1571605,918
1747533274750,-0.0143993785,0.7992874249999999,0.145092035,0.4189152299999999,-0.4058657599999999,2.3206786,919
1747533274760,0.27871338,0.9176552,-0.04271002,0.62744075,-0.47564057,2.8442562,920
1747533274770,0.44418418,0.9647583,-0.12837411,0.5901565,-0.27483824,3.0248184,921
1747533274780,0.49763271,0.98916405,-0.132645115,0.5355616999999999,-0.190682345,3.0146984000000003,922
1747533274790,0.70117646,1.027481,-0.15839316,0.33502567,0.06178534,2.9289446,923
1747533274800,0.82076454,1.0216236,-0.21086545,0.16245283,0.23116238,2.7276096,924
1747533274810,0.63186425,0.96402615,-0.22965786,-0.2657835,0.33981937,2.1513016,925
1747533274820,0.42465958,0.9056965,-0.17279254,-0.39947417,0.28549087,2.1081583,926
1747533274830,0.25259924,0.8642067,-0.117635585,-0.440220535,0.248206615,2.1720741500000003,927
1747533274840,0.18987654,0.83858067,-0.0605262,-0.5086638,0.12197278,2.4644892,928
1747533274850,0.2255089,0.84053314,-0.0134231495,-0.495880615,0.094009587,2.5840652,929
1747533274860,0.51398456,0.9159469,0.03734076,-0.38775626,0.061252706,3.099387,930
1747533274870,0.51398456,0.9159469,0.03734076,-0.38775626,0.061252706,3.099387,931
1747533274880,1.0960611,0.98062205,-0.08102701,-0.42770368,0.13901702,2.740393,932
1747533274890,1.2090596,0.99868226,-0.10933765,-0.4703142649999999,0.173371795,2.4479778000000003,933
1747533274900,0.7975791,0.9205839,-0.018792408,-0.54914385,0.17470337,1.71188,934
1747533274910,0.54205114,0.83760446,0.04271002,-0.42184472,-0.104928546,1.4168017,935
1747533274920,0.34704942,0.75291663,0.10689708,-0.25566345,-0.28442562,1.5270566,936
1747533274930,0.27749309,0.7257042650000001,0.1270318,-0.041012682,-0.4628574,1.7512947,937
1747533274940,0.20451997,0.68482465,0.1581491,0.18216023,-0.6279734,2.0383835,938
1747533274950,0.3109289,0.70361704,0.07370529,0.38562572,-0.70627034,2.290851,939
1747533274960,0.6028214,0.7512082,0.020256752,0.61678815,-0.6125271,2.5555694,940
1747533274970,0.6028214,0.7512082,0.020256752,0.61678815,-0.6125271,2.5555694,941
1747533274980,1.0318741,0.84907514,-0.13471961,0.5384912,-0.43409526,2.4037693,942
1747533274990,1.0800754,0.85725107,-0.16449459,0.42077947,-0.33768883,2.1299963,943
1747533275000,0.9274175,0.8664033,-0.17767367,0.17789917,-0.29561087,1.7741979,944
1747533275010,0.80465674,0.8500514,-0.15619664,0.07989483,-0.30945933,1.8082864,945
1747533275020,0.77659017,0.83882475,-0.14765464,-0.00958738,-0.30040458,1.897236,946
1747533275030,0.8105141,0.86567104,-0.12983845,-0.051665325,-0.2820287649999999,1.9534287,947
1747533275040,0.8949579,0.88836837,-0.12154051,-0.18748654,-0.21198763,2.088451,948
1747533275050,1.0477377,0.88373125,-0.15277983,-0.46871635,-0.0037284256,1.9302592,949
1747533275060,1.0482259,0.8639627,-0.15400012,-0.6327671,0.10439592,1.7869811,950
1747533275070,1.0267488500000002,0.8476108250000001,-0.1402108899999999,-0.6327671,0.10439592,1.7869811,951
1747533275080,1.0052718,0.83125895,-0.12642166,-0.6327671,0.10439592,1.7869811,952
1747533275090,0.8906869,0.7753698499999999,-0.054546793,-0.900947385,0.25566347,1.50282185,953
1747533275100,0.73485637,0.68214005,0.048567392,-0.9076053,0.21411815,1.4567492,954
1747533275110,0.70923036,0.65260905,0.07785426,-0.873783175,0.185888645,1.46607025,955
1747533275120,0.6936107,0.62259,0.10543273,-0.7392935,0.09534117,1.5052186,956
1747533275130,0.68360436,0.605262,0.12910628,-0.56672066,0.023435818,1.5701998,957
1747533275140,0.7053254,0.609655,0.13935669,-0.41172472,-0.04314321,1.6437031,958
1747533275150,0.8341876,0.60892284,0.10128376,-0.15925704,-0.13422333,1.7433053,959
1747533275160,0.9696394,0.6033095,0.061258372,-0.10013486,-0.16831179,1.6783241,960
1747533275170,1.0216236,0.61282775,0.0331917871,-0.088150633,-0.177899165,1.6021577,961
1747533275180,1.0632354,0.62515265,-0.0054912874,-0.076965353,-0.19787287,1.44609645,962
1747533275190,1.0202813000000002,0.62222395,-0.0145214055,-0.0878843129999999,-0.227966595,1.3203953,963
1747533275200,0.8829991,0.57329047,0.004881145,-0.114249613,-0.254331895,1.28897,964
1747533275210,0.8583493,0.5613316,0.018792408,-0.13741912,-0.24501082,1.361408,965
1747533275220,0.869576,0.55645055,0.020012695,-0.15180019,-0.20879184,1.4285196,966
1747533275230,0.8816568499999999,0.555596325,0.0158637215,-0.16671389,-0.182692855,1.46074385,967
1747533275240,0.92278045,0.59013045,-0.010982576,-0.25033715,-0.083090626,1.5643408,968
1747533275250,1.1109486,0.65944266,-0.09811102,-0.57577544,0.14327806,1.649562,969
1747533275260,1.1755017,0.6628594800000001,-0.108483453,-0.68789452,0.21278657,1.6061525,970
1747533275270,1.3498806,0.68433654,-0.09615856,-1.0098706,0.3930826,1.3992249,971
1747533275280,1.36330375,0.7059355949999999,-0.0467369651,-1.07804755,0.396012075,1.3020195,972
1747533275290,1.3609852,0.760848475,0.0678479149,-1.15421405,0.353934125,1.1089403,973
1747533275300,1.3589108,0.8712844,0.25308737,-1.0551444,0.24021713,0.76592517,974
1747533275310,1.3991802,0.8815348,0.27456442,-0.99548966,0.31478566,0.5885586,975
1747533275320,1.4028411,0.8932495,0.31361356,-0.94888433,0.369114145,0.49241849,976
1747533275330,1.3125398,0.8886124,0.4634647,-0.7462177,0.46232477,0.20559604,977
1747533275340,1.2351737,0.87982637,0.5256993,-0.19281286,0.25193503,-0.12144015,978
1747533275350,1.1473131,0.86933196,0.5418071,0.15606125,0.08149273,-0.23489082,979
1747533275360,1.0884954,0.8454143,0.49592432,0.47990164,-0.051665325,-0.3073288,980
1747533275370,1.0706791,0.8222289,0.40098605,0.77924097,-0.12463594,-0.37763625,981
1747533275380,1.0754383,0.818201925,0.308488365,0.894822185,-0.108390658,-0.45113951,982
1747533275390,1.0848345,0.8112463,0.12422514,1.0157297,-0.05539375,-0.6002765,983
1747533275400,1.1099724,0.8066092,0.029530926,0.9464875,-0.019707393,-0.6775082,984
1747533275410,1.1373067,0.8102701,-0.07150877,0.8064052,0.029294772,-0.7680557,985
1747533275420,1.1485333,0.79440635,-0.18792409,0.35420042,0.17150758,-0.9672601,986
1747533275430,1.147069,0.790623455,-0.196832175,0.21944447,0.21198762,-1.0146644,987
1747533275440,1.14389625,0.78732868,-0.19805245,-0.076432725,0.30226878,-1.1118698,988
1747533275450,1.1574414000000002,0.7890371,-0.157660975,-0.3403519849999999,0.3840278299999999,-1.20534675,989
1747533275460,1.1914874,0.788793,-0.0156196635,-0.54914385,0.4564658,-1.3502227,990
1747533275470,1.1971008,0.7641432,0.20940112,-0.4972122,0.44528053,-1.4644723,991
1747533275480,1.18367765,0.7556012000000001,0.256748225,-0.351537275,0.39281626,-1.6282567,992
1747533275490,1.1180263,0.7404697,0.35974038,-0.022370555,0.26738137,-1.7422401,993
1747533275500,1.1003321499999998,0.738273175,0.3555914049999999,0.0918790575,0.235956075,-1.75875165,994
1747533275510,1.0753163,0.7485236,0.30360723,0.37710363,0.16564862,-1.7837853,995
1747533275520,1.1734272,0.792942,0.16254212,0.42770368,0.19813919,-1.82399905,996
1747533275530,1.1989312,0.8033144249999999,0.125811505,0.447411065,0.274305605,-1.91135075,997
1747533275540,1.2488409,0.819056095,0.076267885,0.37310887,0.35260254,-2.01654565,998
1747533275550,1.2969202,0.8417535,0.09200958,0.27856666,0.41705105,-2.202967,999
1747533275560,1.2456682,0.8473668000000001,0.13142483,0.3616573,0.32756883,-2.4064324,1000
1747533275570,1.1944162,0.8529801,0.17084008,0.3616573,0.32756883,-2.4064324,1001
