id,timestamp,acc_x,acc_y,acc_z,gyro_x,gyro_y,gyro_z
1,1747532684100,-0.52789587,0.019280521,0.7297312,0.2609898,0.74302197,-0.4261058
2,1747532684110,-2.04385745,0.350222135,0.55852503,0.1153149,0.998685465,2.6506444
3,1747532684120,-3.150413,0.39610491,0.30970864,1.32199315,0.18828549,5.6091502
4,1747532684130,-3.3660375,0.276150785,0.271147595,1.1515508,0.21385184,5.949768349999999
5,1747532684140,-3.73688245,0.1642505249999999,0.288597685,0.962732725,0.32384039,6.2895875
6,1747532684150,-4.12249295,0.042099873,0.3824377,0.771517775,0.566188025,6.9348715
7,1747532684160,-4.540197,-0.15107143,0.51666915,0.6535397,0.68869346,7.952199
8,1747532684170,-4.6868755,-0.1990286849999999,0.5381461949999999,0.63250075,0.59388493,8.241951
9,1747532684180,-4.9835270000000005,-0.29225856,0.55083719,0.543551185,0.327835135,8.88963175
10,1747532684190,-5.2754195,-0.39622694,0.520696135,0.393348885,-0.001864215,9.48884275
11,1747532684200,-6.0204043,-0.673598,0.40952805,-0.06178534,-0.4607269,10.466224
12,1747532684210,-6.113512,-0.7476694,0.41270079,-0.148604395,-0.41864895,10.5810055
13,1747532684220,-6.23444235,-0.90947935,0.424171495,-0.322508815,-0.29880669,10.742126249999998
14,1747532684230,-6.219555,-1.06836055,0.44308594,-0.5038700899999999,-0.147272815,10.76396475
15,1747532684240,-5.964759,-1.2311467500000002,0.45931573,-0.695884,-0.0364853089,10.67581425
16,1747532684250,-5.62954635,-1.3683070000000002,0.45626502,-1.00880545,-0.1611212489,10.53093825
17,1747532684260,-5.3592532,-1.45567945,0.44320797,-1.28897,-0.434894215,10.4537065
18,1747532684270,-5.0330706,-1.5335337,0.434055835,-1.3723269,-0.60373865,10.444119
19,1747532684280,-4.6700354,-1.60821525,0.435032065,-1.3472932000000002,-0.657534515,10.3703495
20,1747532684290,-4.29174665,-1.69107265,0.46041402,-1.1946941,-0.6077333650000001,10.2004395
21,1747532684300,-3.6781868,-1.8355546,0.4594377899999999,-0.7286409,-0.463656335,9.7844535
22,1747532684310,-3.0992831,-1.965271,0.3980573699999999,-0.1704423149999999,-0.3752394049999999,9.3242595
23,1747532684320,-2.8067803,-2.0066387,0.2916484099999999,0.200536025,-0.39814259,9.033975
24,1747532684330,-2.562235,-2.0369018,0.154732295,0.50440271,-0.385892045,8.729842
25,1747532684340,-2.26778,-2.1208575,-0.099331305,0.64901237,-0.3376888249999999,8.399078
26,1747532684350,-1.8650855,-2.242398,-0.45370242,0.1107875,-0.40053943,7.7055902
27,1747532684360,-1.70730245,-2.2779083,-0.48274521,-0.12144015,-0.44847633,7.6078521
28,1747532684370,-1.1819692,-2.4064045,-0.46614933,-0.829841,-0.6860303,7.3029203
29,1747532684380,-1.01076305,-2.42959,-0.417581945,-1.02851285,-0.783235685,7.16869715
30,1747532684390,-0.5598673000000001,-2.4526534,-0.22794947,-1.33451005,-0.955808535,6.8347369
31,1747532684400,-0.1851174099999999,-2.44752815,-0.0236735535,-1.2442288499999998,-1.1006845,5.9913137
32,1747532684410,-0.00622346,-2.44557565,0.0945721814999999,-0.7869640999999999,-1.1393003,5.06959365
33,1747532684420,0.15497635,-2.4726659,0.195855945,-0.20080235,-1.035437,4.54708145
34,1747532684430,0.46480705,-2.59689105,0.2832284499999999,0.8183893999999999,-0.8202536,3.8165762
35,1747532684440,0.8358960799999999,-2.7425933,0.298726075,1.783519,-0.6740460699999999,3.0165626000000003
36,1747532684450,1.06347948,-2.8200815,0.232830605,2.2272017,-0.694818735,2.3233418500000003
37,1747532684460,1.2143069,-2.87682475,0.148874915,2.46049465,-0.744619845,1.5140071000000002
38,1747532684470,1.3187634,-2.90513535,0.0654073405,2.48393045,-0.79495358,0.6253102
39,1747532684480,1.3863673,-2.84753785,-0.0192805245,2.0804615,-0.80161148,-0.85167895
40,1747532684490,1.4185827999999998,-2.7471083500000004,-0.083711635,1.45648285,-0.7733819799999999,-2.3449134
41,1747532684500,1.4257824,-2.7078152,-0.10323621,1.1973573,-0.7637946,-2.819755
42,1747532684510,1.3630598,-2.6406994,-0.09811102,0.5725796,-0.84581995,-3.8988678
43,1747532684520,0.759628185,-2.43056605,0.0156196679999999,-0.716124025,-0.9060074,-5.921272549999999
44,1747532684530,0.065773425,-2.2586277,0.208546915,-1.4905713,-0.8274441699999999,-7.10744455
45,1747532684540,-0.61722076,-2.0930347,0.5125202,-1.7403758,-0.718787195,-7.532484999999999
46,1747532684550,-0.74107983,-2.0281156,0.624298425,-1.7465011,-0.6727145050000001,-7.7804252
47,1747532684560,-1.0013669,-1.89229785,0.834187655,-1.54516615,-0.83010733,-7.9077243
48,1747532684570,-1.39466515,-1.74744995,1.02601663,-1.017593885,-1.3241237,-7.967911799999999
49,1747532684580,-1.7988239,-1.6649585999999998,1.11631785,-0.42557315,-1.8184064,-7.9998695
50,1747532684590,-2.0516672,-1.67472085,1.07470615,-0.06551376,-2.0618193,-8.064318
51,1747532684600,-2.2449605,-1.7141361,0.9579247,0.195476035,-2.18565625,-8.285627
52,1747532684610,-2.5167184,-1.7472057,0.7106947,0.33609092,-2.069276,-8.99456
53,1747532684620,-3.0026362,-1.6634941,0.629423635,0.1741707305,-1.68205245,-9.660084
54,1747532684630,-3.7980187,-1.48472225,0.612339635,-0.0820253645,-0.91399688,-10.592457
55,1747532684640,-4.309685,-1.3071706,0.7307074250000001,-0.22237396,-0.2681803266999999,-10.96237
56,1747532684650,-4.5118866,-1.2246792,0.78488815,-0.26844665,-0.0031957934,-11.065434
57,1747532684660,-5.125202,-1.2456682,1.1783084,-0.3810983599999999,0.17763285,-11.104317
58,1747532684670,-5.154611,-1.31022135,1.16915625,-0.64794709,-0.29507826,-11.0047145
59,1747532684680,-5.231245,-1.42614855,1.13218155,-1.10201607,-0.91080115,-10.877415
60,1747532684690,-5.338386,-1.5265781,1.10313875,-1.6128104,-1.19176465,-10.8529145
61,1747532684700,-5.4734715000000005,-1.6119982,1.1091182000000002,-2.17606895,-1.2442289,-10.9346735
62,1747532684710,-5.7668285,-1.6149269,1.13559845,-3.0229542,-0.957939075,-11.142666
63,1747532684720,-6.21772465,-1.4561676,1.23785845,-3.73108875,-0.524110105,-11.102985
64,1747532684730,-6.51852515,-1.16244467,1.4179726499999998,-3.9247005,-0.21544973,-10.561298
65,1747532684740,-6.4099195,-0.826987955,1.5464687499999998,-3.94387535,-0.078563255,-9.769008
66,1747532684750,-5.93815685,-0.513252385,1.55476665,-3.83814795,-0.178431795,-8.96207
67,1747532684760,-5.221238850000001,-0.1786499125,1.4404258,-3.56650545,-0.48522796,-8.0723075
68,1747532684770,-4.6189055,0.1050666425,1.30851285,-3.25251865,-0.60453757,-7.37775525
69,1747532684780,-4.247083999999999,0.2842046649999999,1.2655588,-2.8410603,-0.30626352,-7.014500249999999
70,1747532684790,-3.8475623,0.433079585,1.27959215,-2.15050265,0.077231675,-6.7330042
71,1747532684800,-3.4693958,0.528872045,1.28422925,-1.224521465,0.397876295,-6.5537734
72,1747532684810,-2.800313,0.6321083,0.90130347,1.536644,1.2138689,-6.079997
73,1747532684820,-2.6587597,0.6605409499999999,0.72558221,1.9547603,1.37312595,-5.945240999999999
74,1747532684830,-2.3868799000000003,0.71777235,0.38439015,2.6264095000000003,1.62665885,-5.6565543
75,1747532684840,-2.10841065,0.7679261150000001,0.064309085,2.96303305,1.7315874,-5.32818655
76,1747532684850,-1.7498905,0.821008595,-0.34302244,2.6644927000000003,1.45062395,-4.78463525
77,1747532684860,-1.50022,0.9354714,-0.7663397,1.6016251,0.86020106,-4.1310954
78,1747532684870,-1.52023265,0.98464895,-0.78769475,1.2314457,0.744619845,-3.96225105
79,1747532684880,-1.55354645,1.1075317999999998,-0.7897692700000001,0.506533245,0.510261655,-3.58275065
80,1747532684890,-1.5511059,1.2679994,-0.73314797,-0.156061245,0.272175065,-3.1494543
81,1747532684900,-1.6151708,1.7376877,-0.43295756,-1.2277173,-0.046339005,-2.1747375
82,1747532684910,-1.6477525,1.8426323,-0.35961835,-1.24502785,0.0167779125,-2.0053604
83,1747532684920,-1.7423247,2.03165455,-0.204764025,-1.13983295,0.17683389,-1.63491465
84,1747532684930,-1.8043152,2.1157322,-0.12324891,-1.0173275,0.27377295,-1.433846
85,1747532684940,-1.88729465,2.1386737,0.0644311145,-0.093210635,0.75420723,-0.396278395
86,1747532684950,-1.7420806,1.9921173,0.126665713,0.62744079,1.24396253,0.419447905
87,1747532684960,-1.5297508,1.80321695,0.17242645,1.15501305,1.6729978,1.0602045
88,1747532684970,-1.38880775,1.6516574,0.224776725,1.315868,1.80722115,1.3430322
89,1747532684980,-1.2989947,1.51034825,0.26309371,1.3877733,1.79257375,1.5872440499999998
90,1747532684990,-1.3944211,1.36623245,0.268951085,1.3763217,1.669802,1.81760745
91,1747532685000,-1.615781,1.2573829,0.27676092,1.1725899,1.41413855,2.2985743
92,1747532685010,-1.83323595,1.1981991,0.3508323,0.96113485,1.1920309,2.8591697
93,1747532685020,-2.1606388,1.07434,0.5742667,1.0205233,1.0647318,3.4791536
94,1747532685030,-2.2487434,1.03370445,0.639552,1.13823505,1.0378339,3.6970003
95,1747532685040,-2.5545472,0.8992289,0.70874222,1.55528615,0.96246645,4.355866499999999
96,1747532685050,-2.9184367,0.7410798249999999,0.66542205,1.9430424,0.900414775,5.0357715
97,1747532685060,-3.22350815,0.60489589,0.57316843,2.052232,0.945688525,5.540973
98,1747532685070,-3.657198,0.40098605,0.46541715,2.02613305,1.1129351,6.075203
99,1747532685080,-3.7795925,0.340825925,0.477131925,1.8604844,1.3638049,6.636331200000001
100,1747532685090,-4.2358575,0.1345975545,0.58598148,1.6274578,1.5712651,7.1593762000000005
101,1747532685100,-4.74630335,-0.0955484055,0.74352041,1.27778475,1.6407736,7.931958999999999
102,1747532685110,-5.12080905,-0.28298436,0.87006405,0.9552759,1.54010615,8.7969535
103,1747532685120,-5.726559,-0.6469958,1.053107,0.74035877,1.1068097,9.78765
104,1747532685130,-5.8906876,-0.8097819500000001,1.1055793,0.6817692500000001,0.95714007,10.087522
105,1747532685140,-6.1520729,-1.16622755,1.22272675,0.507332205,0.7089334700000001,10.7200225
106,1747532685150,-6.2277308,-1.40699005,1.2688536,0.2993393099999999,0.6332997,11.049188999999998
107,1747532685160,-6.1617135,-1.48118345,1.19588055,0.110254873,0.7052050750000001,10.9756855
108,1747532685170,-6.113268,-1.5015622,1.0839803,-0.1027980169999999,0.832504175,10.8425275
109,1747532685180,-6.11070535,-1.48557645,0.9953875,-0.32410672,0.9968212,10.758905
110,1747532685190,-5.88897935,-1.50595525,0.93168855,-0.6178534,1.1646004,10.7615685
111,1747532685200,-5.444307,-1.59271755,0.87921625,-0.89828425,1.2301142,10.7905965
112,1747532685210,-4.961562000000001,-1.6807002,0.840899265,-1.0612697,1.10947295,10.762899
113,1747532685220,-4.249281,-1.7789333,0.7922098,-1.180313,0.75793564,10.561564
114,1747532685230,-4.0518385,-1.8210332,0.7581637999999999,-1.14143085,0.642088145,10.4078995
115,1747532685240,-3.4634164,-1.9323233,0.6534632650000001,-1.1025487,0.52624065,10.254235
116,1747532685250,-2.90794215,-2.0099335,0.5491288,-0.77844198,0.37763625,9.432118
117,1747532685260,-2.61653775,-2.0038321,0.471152515,-0.483097415,0.3371562,9.0693955
118,1747532685270,-2.3955439,-1.9583154,0.3843901899999999,-0.292947725,0.29694247,8.725581
119,1747532685280,-2.1491681,-1.89046745,0.25357549,-0.0945422225,0.249538205,8.2592613
120,1747532685290,-1.9318352,-1.8469032,0.12129645,0.021837922,0.22983081,7.8312914
121,1747532685300,-1.74732795,-1.85385875,0.0419778427,0.019973709,0.30999196,7.5852156
122,1747532685310,-1.45201865,-1.9115783,0.0202567512,0.026631611,0.496413235,7.33807425
123,1747532685320,-1.1842878,-2.0206719,0.0862742385,0.1041296065,0.511060625,7.1615064
124,1747532685330,-1.0924002,-2.0857131,0.13862452,0.1667139,0.41385525,7.1117053
125,1747532685340,-0.6933666199999999,-2.1824818500000003,0.11446285,0.540089075,-0.0159789649999999,6.7138291500000005
126,1747532685350,-0.2014692599999999,-2.2353203,0.0181822634999999,1.026382275,-0.38642469,6.00676
127,1747532685360,-0.05125202435,-2.169791,-0.0984771015,1.2231898499999998,-0.1725728485,5.34336665
128,1747532685370,0.0921316106499999,-2.1285453,-0.177063525,1.4199975,0.4117247165,4.32124535
129,1747532685380,0.2490604149999999,-2.1115832,-0.195001725,1.5752598,1.057807615,3.3310819
130,1747532685390,0.42526975,-2.1359889,-0.13691611,1.64556725,1.3651364,2.7832697
131,1747532685400,0.64662966,-2.1929763,-0.0449065339,1.7006947,1.43757435,2.3196134
132,1747532685410,0.8684776999999999,-2.2482553000000003,0.0203787796,1.7417074,1.32945,1.8144117
133,1747532685420,1.11302312,-2.2694883,0.006955631,1.6684705000000002,1.07378655,0.8748484249999999
134,1747532685430,1.2753212,-2.24910955,-0.0429540775,1.48657655,0.8905610799999999,-0.2031991749999999
135,1747532685440,1.29740835,-2.19212225,-0.0799287499999999,1.28470895,0.91026848,-1.0396981
136,1747532685450,1.295944,-2.156734,-0.09567044,1.1776499,0.9470201,-1.4705976
137,1747532685460,1.1392593,-2.0304343,-0.1089715575,0.809334665,1.14622455,-2.85916975
138,1747532685470,0.8723827,-1.9024263,-0.0788304874999999,0.40906155,1.3121395,-4.13349245
139,1747532685480,0.59354723,-1.76355775,-0.036974671,0.0295610849999999,1.45515125,-5.1934307
140,1747532685490,0.40196228,-1.66044355,0.019890667,-0.209324465,1.51959975,-5.7521618
141,1747532685500,0.194513635,-1.58515185,0.132157003,-0.4146542,1.51507245,-6.2088938
142,1747532685510,-0.130570615,-1.5429299,0.36120471,-0.5933523199999999,1.35847855,-6.74418925
143,1747532685520,-0.47383715,-1.526456,0.6041637,-0.662594495,1.1323761,-7.1982584
144,1747532685530,-0.733514075,-1.53841485,0.7707328,-0.557665945,0.9291769,-7.46137865
145,1747532685540,-1.066530175,-1.5745354,0.9327868,-0.348874115,0.707069265,-7.70532425
146,1747532685550,-1.4005225,-1.6058967000000002,1.0459073,-0.090014845,0.468183715,-7.932225750000001
147,1747532685560,-1.5400012,-1.6141946,1.0792211,0.0479369,0.3387541,-8.052867
148,1747532685570,-2.3131745,-1.4250503,0.86567104,0.6849651,0.13954964,-9.162339
149,1747532685580,-2.4250747500000003,-1.4133356,0.80123994,0.7366304,0.249538195,-9.3737945
150,1747532685590,-2.67218275,-1.3977159,0.7059356,0.805073625,0.507332205,-9.806026
151,1747532685600,-2.94235425,-1.3928347,0.65260911,0.780838845,0.76113148,-10.2571655
152,1747532685610,-3.4663452,-1.3618394500000002,0.61636658,0.19627497,0.8013452,-10.9245535
153,1747532685620,-4.0957687,-1.2726365,0.5817104,-0.8524779,0.54115434,-11.4143085
154,1747532685630,-4.574731,-1.1554890000000002,0.53765808,-2.02426885,0.071372715,-11.426559
155,1747532685640,-5.111535,-1.019061,0.5394885300000001,-3.45491905,-0.47084689,-11.2206965
156,1747532685650,-5.4694448,-0.92656333,0.73351405,-4.9936935,-0.8897621150000001,-10.7690245
157,1747532685660,-5.5291166,-0.91253006,0.9025237,-5.768407,-1.0418286,-10.482735
158,1747532685670,-5.1704748,-1.11741608,1.1949043,-7.4453995,-1.2282499,-9.847837
159,1747532685680,-4.773638,-1.3878315,1.6377462,-9.303221,-1.40668175,-9.242234
160,1747532685690,-4.778641,-1.4593403500000002,1.94025515,-9.4297215,-1.2346415,-9.3061505
161,1747532685700,-4.85002765,-1.3370677,2.21213485,-8.9303785,-0.5712480249999999,-9.3229285
162,1747532685710,-4.8782163,-1.2088156,2.3319669,-8.485364,-0.07190535,-9.305085
163,1747532685720,-4.78010535,-0.999048365,2.26204455,-7.9380845,0.309725655,-9.163405
164,1747532685730,-4.5980387,-0.672499745,2.11182735,-7.17961635,0.82265048,-8.873120499999999
165,1747532685740,-4.3664282,-0.43515408,1.93940085,-6.81209985,1.0641992,-8.546084
166,1747532685750,-3.98081755,-0.1182457399999999,1.7818619,-6.165483999999999,1.3744575,-7.908789499999999
167,1747532685760,-3.60496935,0.192683185,1.7236543,-5.283179,1.6114788,-7.167631999999999
168,1747532685770,-3.467077,0.30726805,1.730854,-4.891162,1.6484967,-6.885337
169,1747532685780,-2.9970231,0.6181969949999999,1.61639115,-3.37049675,1.4945659999999998,-5.79264185
170,1747532685790,-2.5306296,0.78574232,1.4213894,-2.27806805,1.2551478,-4.976383
171,1747532685800,-2.04239295,0.8607899,1.15207225,-1.7310548,1.1211908,-4.559332
172,1747532685810,-1.6478745,0.8607899,0.79538256,0.34993938,0.4048005,-2.5800705
173,1747532685820,-1.5450043999999998,0.8483430000000001,0.69873588,0.40373524,0.327302505,-2.39631235
174,1747532685830,-1.4421343,0.8358961,0.6020892,0.4575311,0.24980451,-2.2125542
175,1747532685840,-1.2727585,0.821130605,0.4361302999999999,0.06098639,0.011984228,-1.79736745
176,1747532685850,-1.19490425,0.837238435,0.38573247,-0.5669869799999999,-0.275637172,-1.5281219
177,1747532685860,-1.0821499,0.90398806,0.39366436,-1.22558675,-0.63782708,-1.2857742
178,1747532685870,-1.0739739,0.939986495,0.41843617,-1.59470095,-0.94915063,-1.12145715
179,1747532685880,-1.100088,1.023576065,0.49726664,-1.85116335,-1.26979525,-0.90946953
180,1747532685890,-1.22150655,1.1480453000000002,0.66774063,-1.9654129,-1.5369103,-0.63436498
181,1747532685900,-1.3160787,1.240421,0.844682155,-1.76354525,-1.8234664,-0.1155811949999999
182,1747532685910,-1.3381658500000002,1.249085,0.929492055,-1.27086045,-2.1275994,0.448742635
183,1747532685920,-1.368551,1.223459,0.92900395,-0.5123922,-2.3931167,0.9347696
184,1747532685930,-1.3842927,1.2046666,0.90423214,-0.5123922,-2.3931167,0.9347696
185,1747532685940,-1.49131185,1.0993559,0.74840155,0.1592570415,-2.5819347,1.34702695
186,1747532685950,-1.7174309,0.97439858,0.416849785,0.548078565,-2.9971216,1.7654096
187,1747532685960,-1.96319655,0.8600577300000001,0.017450085,0.6868292650000001,-3.42562415,2.21894585
188,1747532685970,-2.0724121,0.7928199499999999,-0.21599065,0.529170125,-3.56117905,2.55503675
189,1747532685980,-2.18943755,0.716308,-0.37352961,0.29507825,-3.6173718,2.88233935
190,1747532685990,-2.4039639,0.6199053999999999,-0.48481973,-0.143810705,-3.73348555,3.4455979
191,1747532686000,-2.7524776,0.51544887,-0.58085626,-0.61678815,-4.04694,4.2530684
192,1747532686010,-2.8554698,0.47591162,-0.6173428000000001,-0.652740805,-4.149471500000001,4.49248645
193,1747532686020,-3.0419295,0.367916305,-0.686044905,-0.68789453,-4.3318979,4.95614275
194,1747532686030,-3.2509644,0.216722835,-0.74498472,-0.66046397,-4.4418864,5.354018999999999
195,1747532686040,-3.6664719,0.0043930299999999,-0.868843785,-0.57790597,-4.5516085,5.7468352
196,1747532686050,-4.16715535,-0.184751335,-1.08947155,-0.5486112000000001,-4.6357645,6.1087589
197,1747532686060,-4.3778987,-0.2443013,-1.2129645,-0.5752428,-4.640292,6.2515044
198,1747532686070,-5.10311485,-0.4949481,-1.5584275,-0.677508175,-4.4038033,7.087737049999999
199,1747532686080,-5.4197792,-0.7131353,-1.71999345,-0.6615291999999999,-4.08289225,7.61424425
200,1747532686090,-5.75584615,-0.99258085,-1.9256117,-0.4753742399999999,-3.24293125,8.2312985
201,1747532686100,-5.9399874,-1.12742245,-2.02164815,-0.25113609,-2.1241373,8.73117375
202,1747532686110,-5.95036,-1.1507299,-1.7803977,-0.04580637,-0.8841695,9.129316
203,1747532686120,-6.095208,-1.2930153,-1.5851518,0.012783175,-0.5957491500000001,9.278986
204,1747532686130,-6.33487225,-1.53475395,-1.3535414,0.06711166,-0.11478225,9.9176125
205,1747532686140,-6.542198900000001,-1.68216455,-1.28093445,0.004261057,0.06977482,10.6683575
206,1747532686150,-6.64824165,-1.7807637,-1.1873385,-0.107059078,0.05832323,11.199924500000002
207,1747532686160,-6.5662383,-1.9352519,-1.08275995,-0.19574235,0.0679106075,11.7128495
208,1747532686170,-6.0522538,-2.24984165,-0.84907515,-0.23382555,0.0932106375,12.09954
209,1747532686180,-5.375117,-2.4819401,-0.5985503999999999,-0.1464738589999999,0.170974945,12.1599935
210,1747532686190,-4.90274415,-2.4771811,-0.506662875,0.0149137009999999,0.335558305,11.849203
211,1747532686200,-4.6690593,-2.451067,-0.47884035,0.08681905,0.4346279,11.621503
212,1747532686210,-4.10443275,-2.1368432,-0.4080637299999999,0.39547942,1.0306434,10.5871305
213,1747532686220,-3.7623866,-2.06033135,-0.297627815,0.8045409699999999,1.55581875,9.83984775
214,1747532686230,-3.4709822,-2.084371,-0.2322204749999999,1.18776985,1.85755485,9.46540725
215,1747532686240,-3.3675017,-2.0920587,-0.24332508,1.3060142,1.9148128,9.43558
216,1747532686250,-2.97957295,-2.10792235,-0.398301425,1.36433745,2.07327095,9.3500925
217,1747532686260,-2.5560116,-2.1982236,-0.522160485,0.9864349,2.2783344,9.017198
218,1747532686270,-2.19517305,-2.332211,-0.641504495,0.358461497,2.3339945,8.53703
219,1747532686280,-2.00187965,-2.4088450000000003,-0.7126472,-0.359793078,2.17686795,8.09281425
220,1747532686290,-1.7808858,-2.4476501500000003,-0.69617331,-1.099619225,2.13931735,7.660583
221,1747532686300,-1.6588572,-2.4654663,-0.65944266,-1.4136059,2.17527,7.4738955
222,1747532686310,-1.3437792000000002,-2.4963396,-0.37426178,-1.92653075,2.24371325,6.900516850000001
223,1747532686320,-1.02430828,-2.4790115,-0.0433201649999999,-1.7134779,2.2604912500000003,6.30343615
224,1747532686330,-0.73339203,-2.4278814,0.23295264,-1.1323761,2.3129555,5.65309215
225,1747532686340,-0.6048959,-2.3966422,0.3261825149999999,-0.51505535,2.37873555,5.15588
226,1747532686350,-0.48067076,-2.39957095,0.3553473499999999,0.11132014,2.47274505,4.682370000000001
227,1747532686360,0.088348724,-2.4566803,0.37121108,1.5318503,2.8426583,3.4631748
228,1747532686370,0.213550097,-2.47925555,0.371821225,1.7379790000000002,2.8423920000000003,3.16809655
229,1747532686380,0.4486992549999999,-2.5147659,0.355713445,2.10656055,2.82295085,2.54624845
230,1747532686390,0.6568800699999999,-2.5274568,0.31703037,2.37660505,2.7814054500000003,1.851696
231,1747532686400,0.8437058799999999,-2.5067118,0.261751405,2.53080205,2.75024655,1.057275
232,1747532686410,1.02455228,-2.4297119,0.18768003,2.50603465,2.71083175,-0.25353295
233,1747532686420,1.12876475,-2.35112545,0.147654635,2.34038605,2.67621065,-1.5534219500000002
234,1747532686430,1.1249819,-2.28193505,0.1735247,2.13878475,2.6535738,-2.35636505
235,1747532686440,1.07067915,-2.1710112,0.249548535,1.92812865,2.56915155,-3.1587754500000003
236,1747532686450,0.9792797,-2.0685072,0.366329935,1.79284005,2.41681875,-3.8578553
237,1747532686460,0.856274865,-1.9901648,0.5358277,1.8301243,2.01361615,-4.7050068
238,1747532686470,0.72741264,-1.9164596,0.6499244500000001,1.94783605,1.46367335,-5.5708003
239,1747532686480,0.5281398900000001,-1.85263855,0.63039987,2.0208066,1.01413175,-6.173207550000001
240,1747532686490,0.21550256,-1.7998001,0.574754835,2.0519656,0.63569658,-6.7409935
241,1747532686500,-0.2876214549999999,-1.7417145,0.4884806,1.99524035,0.1946770825,-7.40252265
242,1747532686510,-0.8978866,-1.658369,0.38487828,1.6969663,-0.41225734,-8.204667
243,1747532686520,-1.05908645,-1.65226755,0.38121742,1.5640744999999998,-0.542485935,-8.394817
244,1747532686530,-1.3734322,-1.6436035,0.390247535,1.2801815,-0.777909365,-8.8174605
245,1747532686540,-1.76221535,-1.6235908,0.460780055,0.9819075,-0.99309275,-9.284046
246,1747532686550,-2.62678815,-1.50119605,0.56352817,0.528371165,-1.26846365,-9.749833
247,1747532686560,-3.4900187000000003,-1.36391385,0.60660432,0.039681095,-1.44583025,-10.0284
248,1747532686570,-3.876239350000001,-1.3152245,0.589398275,-0.366983595,-1.38218065,-10.187657
249,1747532686580,-4.09955175,-1.28850025,0.523380755,-0.8945558250000001,-1.1829761,-10.4933875
250,1747532686590,-4.5124965,-1.3043639,0.53936651,-1.7225327,-0.9265137,-10.976751
251,1747532686600,-5.02587075,-1.32620705,0.75438098,-3.13294275,-0.63489761,-11.265704
252,1747532686610,-5.26943985,-1.32120395,1.0355349,-4.39847675,-0.60187441,-10.9993885
253,1747532686620,-5.35913085,-1.3158347,1.2570168,-5.12259025,-1.04395915,-10.411895
254,1747532686630,-5.4415002,-1.2800802999999998,1.3695271999999998,-5.804626,-1.67326415,-9.796971
255,1747532686640,-5.563284899999999,-1.18965705,1.36476815,-6.47041635,-2.09857095,-9.277122
256,1747532686650,-5.51825645,-0.94755225,1.4034512499999998,-7.166034,-1.68524835,-8.82971075
257,1747532686660,-5.1320357,-0.58988637,1.6744769,-7.3540533,-0.695884025,-8.65340925
258,1747532686670,-5.1320357,-0.58988637,1.6744769,-7.1745563,-0.23222765,-8.697351
259,1747532686680,-4.8255,-0.3016547499999999,1.9431839,-5.9958408,0.43036686,-8.7106675
260,1747532686690,-4.702861,-0.100307527,2.0104217,-5.0373693,0.6332997499999999,-8.4350305
261,1747532686700,-4.5087135,0.136305973,1.9076735,-4.1342915,0.67138295,-7.9189097
262,1747532686710,-4.0358527,0.49092115,1.5103483,-3.2136365,0.57257966,-6.9311432
263,1747532686720,-3.5221122,0.802704285,1.0977695,-2.5161545,0.4543353,-5.6288576
264,1747532686730,-3.1980042,0.974154485,0.923146535,-2.48339775,0.45566687,-5.3407035
265,1747532686740,-2.8873193,1.15878375,0.8419975049999999,-2.4109599,0.52863747,-4.7140615
266,1747532686750,-2.42763745,1.3531753,0.96829712,-2.06767835,0.737163,-3.96198475
267,1747532686760,-1.9092598,1.483624,1.2295604,-1.170193,0.9347696,-3.2037828
268,1747532686770,-1.8223754,1.49790135,1.2456682,-0.8082694,0.96246645,-3.0146984
269,1747532686780,-1.66471445,1.51205665,1.2254115,-0.0828243,1.0183928,-2.63200215
270,1747532686790,-1.4376192,1.5090059500000002,1.04249055,0.5901565,1.0644654999999998,-2.2732743
271,1747532686800,-1.24469195,1.5164497,0.81930015,1.236772,1.0143981,-1.82293375
272,1747532686810,-1.20442255,1.53829285,0.66554413,1.5851135,0.87484845,-1.3680659
273,1747532686820,-1.1931959,1.5636747999999998,0.52813989,1.5962988,0.8032094,-1.1984226
274,1747532686830,-1.16964435,1.5863721,0.4485772249999999,1.25381625,0.64901235,-0.6199839
275,1747532686840,-1.1761118499999998,1.58820255,0.446868835,1.04715495,0.5387574749999999,-0.33076461
276,1747532686850,-1.28959845,1.58307735,0.47725396,0.92757903,0.220509737,0.24394556
277,1747532686860,-1.40296305,1.581613,0.44711289,0.8498147149999999,-0.179230748,0.90414317
278,1747532686870,-1.4767904,1.5506177,0.3674281849999999,0.742755635,-0.45060686,1.3427658
279,1747532686880,-1.5849078,1.4758141,0.294577095,0.59708072,-0.64395235,1.7286579
280,1747532686890,-1.81676215,1.3615953,0.18829016,0.29001824,-0.7635282999999999,2.21495115
281,1747532686900,-2.12073545,1.2772736,0.119221965,-0.035153725,-0.7896272799999999,2.71429385
282,1747532686910,-2.38114465,1.22980445,0.154488245,-0.208791845,-0.78456728,3.14785645
283,1747532686920,-2.7460102,1.1329137,0.280543815,-0.36804888,-0.9366338,3.9539953
284,1747532686930,-3.1006253,1.04261255,0.429174685,-0.44714476,-1.1518172,4.819522600000001
285,1747532686940,-3.32869675,0.9707377,0.5443697,-0.377636255,-1.29349735,5.4203318
286,1747532686950,-3.4353497,0.9225364,0.6028214,-0.31318775,-1.3571469,5.717807
287,1747532686960,-3.8224244,0.6530972150000001,0.7463270799999999,0.170175995,-1.50095765,6.5266090000000005
288,1747532686970,-4.35166275,0.3431445,0.7473033,0.64262076,-1.5499598,7.1082435
289,1747532686980,-4.8962765,0.0277004999999999,0.70971848,0.9129316,-1.5638082,7.431285
290,1747532686990,-5.1415539,-0.19585595,0.7144775999999999,1.72306525,-1.1946941,8.566058
291,1747532687000,-5.307879,-0.4206326999999999,0.74339837,1.97047295,-1.02185495,8.8563425
292,1747532687010,-5.49458265,-0.6188071749999999,0.786108375,2.1973742,-0.93636745,9.092564500000002
293,1747532687020,-5.751208999999999,-0.841753425,0.701908625,2.4543693,-0.90680638,9.503490500000002
294,1747532687030,-5.9720809500000005,-1.02772505,0.506662835,2.588859,-0.875647395,9.979664
295,1747532687040,-6.07897775,-1.1138773,0.318738765,2.454103,-0.807736785,10.3586315
296,1747532687050,-6.1254708,-1.1475572,0.14033292,2.16461735,-0.70041137,10.6643625
297,1747532687060,-6.1824583,-1.13889315,0.0391711875,1.8226675,-0.565389085,10.869426
298,1747532687070,-6.094841499999999,-1.23431955,0.0472250775,1.325189,-0.165914935,11.0427975
299,1747532687080,-5.68201865,-1.41894885,0.15021724,0.8780442,0.3113235399999999,11.039868
300,1747532687090,-5.14985215,-1.5387809,0.28932986,0.6753776499999999,0.535828025,10.82202175
301,1747532687100,-4.6921228,-1.6265195,0.4025724149999999,0.5933523,0.6239786350000001,10.53812875
302,1747532687110,-4.2995565,-1.7445213000000002,0.474325255,0.644485,0.639691285,10.2582305
303,1747532687120,-3.6691567,-1.9636847,0.43698449,0.8780441999999999,0.585362835,9.84730475
304,1747532687130,-3.056207,-2.1451411,0.31214921,1.08044445,0.459129,9.45741775
305,1747532687140,-2.7318548500000004,-2.2035927500000003,0.18170062,1.0703245,0.299072995,9.2283855
306,1747532687150,-2.43947425,-2.243008,0.0484453625,0.93450325,0.121972778,8.967928
307,1747532687160,-2.05264355,-2.25862775,-0.1214184875,0.532632215,-0.022104237,8.4448835
308,1747532687170,-1.8084643,-2.259238,-0.22282428,0.23169503,-0.07669904,8.066715
309,1747532687180,-1.4861866,-2.30231405,-0.205984315,-0.1001348625,-0.132359108,7.5500617
310,1747532687190,-1.31192975,-2.42275625,-0.15607461,-0.218379225,-0.318780385,7.301322349999999
311,1747532687200,-1.06421165,-2.6086059500000003,-0.0688241455,-0.26924559,-0.594683885,7.107178
312,1747532687210,-0.49726665,-2.78591345,0.0198906645,-0.2308960649999999,-0.85167894,6.519951000000001
313,1747532687220,0.064797195,-2.8526631,0.049787678,-0.086819057,-0.94329167,5.5976982
314,1747532687230,0.346317225,-2.843389,0.041489733,0.168844408,-0.7845672699999999,4.6975497
315,1747532687240,0.52179441,-2.8446092500000004,0.04441842,0.548344875,-0.4791027,3.75612235
316,1747532687250,0.7346123449999999,-2.8837803500000003,0.058695765,1.201618325,0.0098536899999999,2.45357035
317,1747532687260,1.010641065,-2.9146535,0.050031733,1.77473055,0.41172472,1.07778128
318,1747532687270,1.244814,-2.9094064,0.0148874926,1.9457055,0.5454154,0.0647148199999999
319,1747532687280,1.4105289,-2.9012306,-0.0270903529,1.9499666,0.593352285,-0.90094741
320,1747532687290,1.45397105,-2.8697472,-0.0757797755,1.8434401,0.603205985,-1.86767485
321,1747532687300,1.317543,-2.7466203,-0.1206863129999999,1.4879081,0.6205165500000001,-3.1830101
322,1747532687310,1.0625032,-2.5851763,-0.1287402,1.02425178,0.61492393,-4.3886232
323,1747532687320,0.808561675,-2.4581445000000004,-0.09237567,0.63942498,0.56672068,-5.079181
324,1747532687330,0.68262815,-2.39591,-0.06955632,0.4415521,0.5411543,-5.405152
325,1747532687340,0.293478845,-2.15746605,0.0691902225,-0.0711064025,0.517718535,-6.254167799999999
326,1747532687350,-0.094206105,-1.94806495,0.30446142,-0.27510455,0.37390783,-6.788930499999999
327,1747532687360,-0.409162,-1.7895498,0.570849885,-0.26019085,0.1541970315,-7.144995
328,1747532687370,-0.55217955,-1.75001255,0.7214332,-0.087884318,-0.0854874735,-7.341003499999999
329,1747532687380,-0.719358725,-1.7363453,0.798799385,0.117978037,-0.39494678,-7.54873
330,1747532687390,-0.921560125,-1.7236543,0.7900133149999999,0.27563717,-0.711064,-7.7833547
331,1747532687400,-1.26311825,-1.67057185,0.68250608,0.22423816,-1.087635,-8.235293200000001
332,1747532687410,-1.66068755,-1.5825892,0.5863475,-0.011984225,-1.35102165,-8.766860000000001
333,1747532687420,-2.0149367,-1.5064433,0.5581589,-0.29880668,-1.3483585,-9.252088
334,1747532687430,-2.2062776,-1.4714211,0.5469323,-0.45806372,-1.3086774,-9.530921
335,1747532687440,-2.7220925,-1.4686145000000002,0.6493142999999999,-0.7068029650000001,-0.9944244,-10.2939165
336,1747532687450,-3.2931864,-1.4665400000000002,0.8621322499999999,-0.898284235,-0.80986732,-10.8425275
337,1747532687460,-4.0225514,-1.42151145,1.06506585,-1.1520834999999998,-0.80640519,-11.121094
338,1747532687470,-4.3642316,-1.3838046,1.1187584,-1.2735237,-0.87032104,-11.105914
339,1747532687480,-5.010495,-1.1499978,1.2017379,-1.5968314,-1.180313,-10.819891
340,1747532687490,-5.324963,-0.88177885,1.02491843,-2.2109564,-1.6024241,-10.21908175
341,1747532687500,-5.2894526,-1.0897156,0.856641,-2.97981095,-1.58564615,-9.96821225
342,1747532687510,-5.2676096,-1.1401134,0.84883112,-3.81684255,-1.37472375,-9.983925
343,1747532687520,-5.2491837,-1.2866699,0.9298581,-4.383297000000001,-1.12491925,-10.130665
344,1747532687530,-5.2491837,-1.2866699,0.9298581,-4.6615973,-1.0018812,-10.197244
345,1747532687540,-5.32386465,-1.21686945,1.2078393,-5.253618,-0.80560625,-10.084859
346,1747532687550,-5.130572,-0.95597225,1.3547617,-5.4509583500000005,-0.75127777,-9.569271
347,1747532687560,-4.842096,-0.7721971,1.334261,-5.4168696,-0.65673554,-8.659002
348,1747532687570,-4.6869975,-0.68067565,1.3147364,-5.2927663,-0.54168698,-8.3972135
349,1747532687580,-4.18179885,-0.45223809,1.2435937,-4.7529435,-0.062584295,-7.882957149999999
350,1747532687590,-3.72333745,-0.2346610499999999,1.15243835,-4.0298953,0.515588,-7.54659985
351,1747532687600,-3.53163055,-0.0804168614999999,1.0704351,-3.3523872,0.966993785,-7.34739545
352,1747532687610,-3.4482849,-0.006833603,1.0279691,-2.9822078,1.2042814,-7.2320805
353,1747532687620,-3.33760495,0.1548543335,0.9534096,-2.14810575,1.5094797,-6.78839775
354,1747532687630,-3.1103876,0.426612085,0.82723203,-0.9566075,1.7928401,-5.972671500000001
355,1747532687640,-2.6754775,0.7196028000000001,0.61819702,-0.321709887,1.4309165,-4.70261
356,1747532687650,-2.1909019,0.9536537,0.383413925,-0.161653887,0.8809737,-3.4991275
357,1747532687660,-1.93427575,1.0272369499999998,0.281398,-0.47484163,0.4551342349999999,-2.94439105
358,1747532687670,-1.7866211,1.06530985,0.26492414,-0.87724523,0.06498113,-2.4698157
359,1747532687680,-1.68033415,1.095817,0.30970864,-1.241832,-0.218112905,-2.03305725
360,1747532687690,-1.50070805,1.1499977,0.476521765,-1.44050385,-0.44687843,-1.5076155
361,1747532687700,-1.31583475,1.2105239,0.65688005,-1.3835122000000002,-0.57497648,-1.1174624
362,1747532687710,-1.2156492,1.2487189,0.739493425,-1.13290875,-0.554736475,-1.0258497
363,1747532687720,-1.180871,1.28923245,0.7690243750000001,-0.75607145,-0.4663195249999999,-1.01120235
364,1747532687730,-1.32144795,1.3986921,0.7381511350000001,-0.197872875,-0.2926814199999999,-0.7952199500000001
365,1747532687740,-1.51047025,1.5253578,0.680187535,0.2495382,-0.149403345,-0.34461305
366,1747532687750,-1.6261534000000002,1.58563995,0.6383317500000001,0.439155275,-0.1086569749999999,0.1568602
367,1747532687760,-1.72389835,1.6005274,0.63186425,0.5776396500000001,-0.091612745,0.68656295
368,1747532687770,-1.80699985,1.57953845,0.636745365,0.70653665,-0.084422208,1.186172
369,1747532687780,-1.9519699,1.49070165,0.61368194,0.9451559,-0.0034621099999999,1.8482339
370,1747532687790,-2.1214677,1.3517111000000002,0.5885440749999999,1.25168575,0.149403343,2.5462484
371,1747532687800,-2.28193535,1.1912433999999998,0.5698737,1.48338075,0.25832664,3.05997215
372,1747532687810,-2.44960265,1.00917665,0.5321667999999999,1.63677885,0.302801435,3.55185795
373,1747532687820,-2.7015917500000004,0.7782985499999999,0.4551667299999999,1.59736405,0.166713896,4.34548005
374,1747532687830,-2.9266125,0.571215985,0.41465327,1.38111535,-0.047936899,5.14735795
375,1747532687840,-3.0425397,0.435886235,0.46724762,1.1664645500000002,-0.19121496,5.6459017
376,1747532687850,-3.21801685,0.27334413,0.53985463,1.04662225,-0.34008567,6.119678
377,1747532687860,-3.4443798,0.0699224075,0.6028214000000001,1.0620686,-0.47564057,6.57827425
378,1747532687870,-3.840851,-0.2973837725,0.594401425,1.2397015,-0.6229134000000001,7.182812
379,1747532687880,-4.2248753,-0.60855675,0.539000425,1.38457745,-0.67271455,7.67496425
380,1747532687890,-4.42658855,-0.69556315,0.55400995,1.3803163500000002,-0.59335233,7.8904138
381,1747532687900,-4.59901475,-0.75303865,0.64662965,1.3883059,-0.54461646,8.1367563
382,1747532687910,-4.882486999999999,-0.96390405,0.77524783,1.49802815,-0.5723133300000001,8.480570499999999
383,1747532687920,-5.17328135,-1.2704399,0.81441906,1.9662119,-0.65700185,9.117066
384,1747532687930,-5.2594337,-1.3923465,0.78366786,2.3451798,-0.7073356,9.551694
385,1747532687940,-5.362182,-1.72633895,0.515204865,2.89911725,-0.4114584049999999,9.8971055
386,1747532687950,-5.3732865,-1.9223169,0.269683265,3.01576365,-0.0583232325,9.954097
387,1747532687960,-5.31568885,-2.0698495,-0.113242575,2.489523,0.4143878925,9.847837
388,1747532687970,-5.19182985,-2.1076784,-0.427100195,1.59523355,0.827444175,9.6979015
389,1747532687980,-5.04771415,-2.0818083,-0.48286727,0.792556765,0.997620175,9.610816
390,1747532687990,-4.8883446500000005,-2.05300955,-0.4019623,0.0463390049999999,1.00054965,9.5974995
391,1747532688000,-4.801338,-2.037634,-0.3277689,-0.29454562,0.9507485,9.616674
392,1747532688010,-4.12676405,-2.003344,-0.008297945,-0.785898825,0.57843861,9.778595
393,1747532688020,-3.7723927,-1.9922394,0.14594623,-0.8271778,0.36485308,9.83026
394,1747532688030,-3.4227807500000003,-2.0111538,0.14448189,-0.59068911,0.37870152,9.727462
395,1747532688040,-2.91013865,-2.03958645,0.130570625,-0.227700273,0.51612063,9.512545
396,1747532688050,-2.60238255,-2.05898905,0.10055158,0.011717907,0.7672566999999999,9.241968
397,1747532688060,-2.1746721,-2.12219975,0.02111095,0.32969934,1.0684602,8.190286
398,1747532688070,-1.78064165,-2.17076715,-0.08688438,0.32969934,1.0684602,8.190286
399,1747532688080,-1.5534244,-2.1652759,-0.174622965,0.161920195,1.001082275,7.486678599999999
400,1747532688090,-1.31473635,-2.1562457,-0.23112222,-0.062051655,1.037833925,7.0264845000000005
401,1747532688100,-1.10655555,-2.15612375,-0.211719665,-0.286289825,1.0583403,6.653908
402,1747532688110,-0.6638357,-2.2704647,-0.05222825,-0.5161206,0.70467246,6.221144
403,1747532688120,-0.530702485,-2.27717615,-0.0140332914999999,-0.47430899,0.67085031,6.076268349999999
404,1747532688130,-0.2783472999999999,-2.2772981,0.0522282485,-0.328367775,0.62664181,5.69889855
405,1747532688140,-0.0567433115,-2.27510155,0.1032362149999999,-0.07217167,0.6612629,5.1795822000000005
406,1747532688150,0.42026657,-2.3785818,0.19109683,0.4495415949999999,0.94222642,4.3129897
407,1747532688160,0.550471135,-2.4016453,0.207204605,1.1872373,1.4109428,3.1723576
408,1747532688170,0.6806757,-2.4247088,0.22331238,1.1872373,1.4109428,3.1723576
409,1747532688180,1.17049855,-2.5148879,0.286523215,1.67566105,1.50974605,1.9971046
410,1747532688190,1.3281596,-2.5477135,0.3077562,1.7821875,1.4908376,1.6218652
411,1747532688200,1.70156705,-2.5884712,0.30433939,1.84397275,1.24556045,-0.23568975
412,1747532688210,1.8336021,-2.53307,0.28725538,1.6831178,1.02851285,-1.8186727
413,1747532688220,1.7506227,-2.49219045,0.29152638,1.4402375,0.906540075,-2.9425267
414,1747532688230,1.5029046,-2.4093331,0.316786305,1.17338875,0.7819041250000001,-3.9947418
415,1747532688240,0.92375667,-2.25093995,0.3887832,0.931840075,0.6210492000000001,-4.8956892
416,1747532688250,0.32020309,-2.0672868,0.47749801,0.568318605,0.259125597,-5.882124
417,1747532688260,-0.034900185,-1.9275641,0.540464775,0.18615497,-0.1568601929999999,-6.60517225
418,1747532688270,-0.353638935,-1.7783232,0.6013570500000001,-0.06045376,-0.43169844,-6.8235514
419,1747532688280,-0.62259003,-1.6398207,0.69653935,-0.250869775,-0.71159668,-6.9354043
420,1747532688290,-0.9332749,-1.5014402,0.84614642,-0.3390204,-1.04688868,-6.963900150000001
421,1747532688300,-1.2417632,-1.4404259,0.99038434,-0.29294774,-1.5888419,-6.903446
422,1747532688310,-1.2880121,-1.47532605,0.99599767,-0.1504686115,-1.8535601,-7.0067767
423,1747532688320,-1.41309145,-1.547689,0.96109745,0.0511326935,-2.17633525,-7.3900057
424,1747532688330,-1.60931345,-1.6077271,0.84309575,0.105727498,-2.2034996,-7.983624499999999
425,1747532688340,-2.0595991,-1.6250551999999998,0.64638565,-0.026631612,-1.9630161,-8.9780485
426,1747532688350,-2.6255679,-1.6012596,0.5106898200000001,-0.23568976,-1.56700395,-9.9634185
427,1747532688360,-3.1637142000000003,-1.55086175,0.5330210200000001,-0.387223635,-1.2069446,-10.51709
428,1747532688370,-3.7549429,-1.4656858499999998,0.59586575,-0.5339638,-0.8860337,-10.9019165
429,1747532688380,-4.2276816,-1.359643,0.6539514,-0.712395575,-0.6378271,-11.03108
430,1747532688390,-4.4727151,-1.29838455,0.7191147,-0.950482225,-0.53050172,-10.926684
431,1747532688400,-4.647216,-1.37343215,0.78525422,-1.47778815,-0.88124007,-10.650514
432,1747532688410,-4.8475868,-1.45470325,0.811368345,-2.0602215,-1.2956279,-10.471816
433,1747532688420,-4.9319086,-1.4523847,0.80246025,-2.2514365,-1.3528858,-10.47155
434,1747532688430,-5.0368533,-1.4689806,0.7570656,-2.82348335,-1.04102968,-10.5431885
435,1747532688440,-5.109704499999999,-1.48374605,0.7563333999999999,-3.13241005,-0.8088020300000001,-10.6071045
436,1747532688450,-5.24930525,-1.38124195,0.85066155,-3.2754219,-0.47271111,-10.624415
437,1747532688460,-5.41514205,-1.215039,0.878728125,-3.3097767,-0.29774143,-10.409764
438,1747532688470,-5.41929105,-0.9945333,0.785376225,-3.4759579,-0.491619545,-9.7698065
439,1747532688480,-5.23148895,-0.69080405,0.6389419000000001,-3.85066465,-0.731570375,-8.8622015
440,1747532688490,-4.6730862,-0.2485723235,0.5422952000000001,-4.50500345,-0.88150635,-7.500260799999999
441,1747532688500,-4.08832505,0.1341094615,0.5627960000000001,-4.9673282,-0.935302185,-6.1857243
442,1747532688510,-3.7196765,0.367184135,0.6936107,-4.84349125,-0.875114735,-5.3574813
443,1747532688520,-3.0726807,0.6745742,0.87640953,-4.36705175,-0.6836334500000001,-4.5609298
444,1747532688530,-2.8699912,0.73302595,0.910577565,-3.6003275,-0.36911413,-3.88288895
445,1747532688540,-2.48694335,0.82015438,0.95426385,-2.64425265,-0.01890844,-3.4125748
446,1747532688550,-2.0759509,0.89117503,0.857861235,-1.0873686735,0.61705444,-3.1252196000000003
447,1747532688560,-1.773564,0.96231773,0.661883235,0.2740392765,1.320129,-2.98753415
448,1747532688570,-1.64689825,1.03394853,0.419900475,0.7970841000000001,1.76780635,-2.9238846
449,1747532688580,-1.55464465,1.1003321,0.2300239499999999,1.1653993,2.18752055,-2.7166907
450,1747532688590,-1.4999758,1.1775762,0.14887492,1.3089437,2.42081355,-2.4019051
451,1747532688600,-1.4977793,1.2322451,0.15546446,1.25062045,2.4011061,-2.0604878
452,1747532688610,-1.4977793,1.2322451,0.15546446,1.2085425,2.3595607,-1.8663434
453,1747532688620,-1.509006,1.2712942,0.17889395,1.1052119,2.146508,-1.3938985
454,1747532688630,-1.4462833,1.3204717499999998,0.26065313,0.862331585,1.3877733,-0.1768339
455,1747532688640,-1.4230978,1.2743449,0.29994635,0.73609775,0.8050736,0.58296597
456,1747532688650,-1.40967465,1.20222595,0.30360723,0.70813455,0.4945490099999999,0.99495697
457,1747532688660,-1.4213894,1.1395033,0.2826183,0.7057377,0.3403519849999999,1.34649425
458,1747532688670,-1.4399377,1.1126571,0.27724904,0.7089335,0.29507825,1.510545
459,1747532688680,-1.581979,1.0064921,0.23331872,0.7765778,0.34674358,2.1225395
460,1747532688690,-1.6822866,0.8621322,0.264314,0.8892295,0.572047,2.69298865
461,1747532688700,-1.7760046,0.7576757000000001,0.3256944,0.957140125,0.67377975,3.0908649
462,1747532688710,-1.92817425,0.67335393,0.39891158,0.980842225,0.6580671,3.46823475
463,1747532688720,-2.1112171,0.55925718,0.507028935,0.91506215,0.4801679399999999,4.07463645
464,1747532688730,-2.3054866,0.42368339,0.6201494750000001,0.8298410199999999,0.186154962,4.6610646
465,1747532688740,-2.396886,0.37121108,0.6577343,0.81013364,0.043675844,4.8421597
466,1747532688750,-2.6909752,0.25089085,0.7236297,0.8159926,-0.27164245,5.2421665
467,1747532688760,-3.2228979,0.02037878,0.80819557,0.973918015,-0.6245113,6.198241149999999
468,1747532688770,-3.62266365,-0.19012059,0.89459182,1.19309615,-0.8010789,6.9393987
469,1747532688780,-3.86989375,-0.365841805,0.965978575,1.41919855,-0.90813795,7.3745594
470,1747532688790,-4.0785628,-0.51703527,0.9920927,1.6884442000000002,-0.97604855,7.78362105
471,1747532688800,-4.2901604,-0.6527311,0.994777325,1.99417515,-0.944090635,8.17137735
472,1747532688810,-4.5615518,-0.9075269,0.9310784,2.469283,-0.742489335,8.700547499999999
473,1747532688820,-4.81085635,-1.1453607,0.8100259999999999,2.89991615,-0.46125951,9.1444965
474,1747532688830,-4.9035983,-1.1949043,0.7551131,3.09059865,-0.1531317575,9.3064165
475,1747532688840,-4.9929233,-1.2781278,0.71264714,3.163303,0.029827405,9.362609
476,1747532688850,-5.1637635,-1.38978405,0.53277697,3.000051,0.398408885,9.508817
477,1747532688860,-5.273345,-1.49143385,0.33155176,2.3856597500000003,0.490554275,9.8781975
478,1747532688870,-5.1488757,-1.51644965,0.246741875,1.66181255,0.498277455,10.2971125
479,1747532688880,-4.89115135,-1.38856365,0.347537535,1.2892363,0.533697485,10.4798055
480,1747532688890,-4.668082999999999,-1.31876335,0.4116025749999999,1.0820423,0.54781222,10.549314
481,1747532688900,-4.3592287,-1.36464615,0.434788005,0.9475527,0.5624596,10.5109645
482,1747532688910,-3.7143074,-1.4725194,0.44174363,0.83676525,0.6202502,10.1327955
483,1747532688920,-3.0206965,-1.51095835,0.4424758,0.83223788,0.79175778,9.4843155
484,1747532688930,-2.6402112,-1.5002199,0.43759465,0.93317166,1.00321283,8.9018825
485,1747532688940,-2.36820945,-1.51901235,0.416605725,1.04182858,1.16859515,8.4020075
486,1747532688950,-2.0649684,-1.5307270000000002,0.3394836249999999,1.1494203,1.31293845,7.77936025
487,1747532688960,-1.78088585,-1.5301168500000002,0.2263630999999999,1.18217725,1.4125407,7.233411999999999
488,1747532688970,-1.683263,-1.5302389,0.174745,1.1611383,1.4370418,7.0728235
489,1747532688980,-1.47398375,-1.5829553,0.034045986,0.9369001,1.41014385,6.67814285
490,1747532688990,-1.2935034,-1.6403088,-0.046981019,0.69162295,1.3725933,6.4831995
491,1747532689000,-0.97391042,-1.85324875,0.044784508,0.37550573,1.36247325,6.31302365
492,1747532689010,-0.602943435,-2.144043,0.242714935,0.0221042399999999,1.10840765,6.1535003
493,1747532689020,-0.231122212,-2.3154932500000003,0.401352155,-0.155528615,0.6825682,5.97613365
494,1747532689030,0.184629318,-2.4104314,0.530824535,-0.0798948378,0.3020024725,5.648032
495,1747532689040,0.5353395950000001,-2.4787674,0.6058721499999999,0.1222390972,-0.0924116975,5.08104515
496,1747532689050,0.7987993950000001,-2.54576115,0.64382303,0.54514909,-0.39894152,3.89221015
497,1747532689060,0.942427095,-2.5885931500000003,0.67713683,1.00214758,-0.524642725,2.65357375
498,1747532689070,0.99611973,-2.6237373,0.71020662,1.3587448,-0.570449125,1.83731485
499,1747532689080,1.0737299,-2.66534915,0.7264364350000001,1.68072095,-0.70121033,1.077514985
500,1747532689090,1.17171885,-2.6410655,0.6676186150000001,1.8623486,-1.09722238,-0.0825580149999999
501,1747532689100,1.1658615,-2.571387,0.56840935,1.85888645,-1.54782925,-1.34649425
502,1747532689110,1.01247153,-2.49389885,0.47261688,1.69643365,-1.78378535,-2.19604265
503,1747532689120,0.79977563,-2.38639175,0.375604095,1.4623418,-1.94810235,-2.979012
504,1747532689130,0.5686533899999999,-2.25630925,0.31312545,1.1896341,-2.06608035,-3.6911412
505,1747532689140,0.204397945,-2.04519975,0.291282345,0.7645936,-2.22640265,-4.576376
506,1747532689150,-0.15668476,-1.8455609,0.323009775,0.4809669,-2.3382554,-5.123922
507,1747532689160,-0.34607318,-1.7474499,0.387440875,0.1616538775,-2.7055055,-5.60728585
508,1747532689170,-0.41880223,-1.7084008,0.42002252,0.068176925,-2.843191,-5.7572217
509,1747532689180,-0.723629735,-1.6540979999999998,0.546566185,-0.09054748,-3.30871145,-6.15216875
510,1747532689190,-1.077268735,-1.6074831,0.648338085,-0.1898833899999999,-3.81204895,-6.4717479
511,1747532689200,-1.40162075,-1.52047665,0.67506235,-0.2974751,-4.294081,-6.75963545
512,1747532689210,-1.5780740999999998,-1.4216335,0.60440775,-0.39627838,-4.50580215,-6.9934612000000005
513,1747532689220,-1.82469395,-1.31156375,0.508371225,-0.5179848499999999,-4.536695,-7.3567165
514,1747532689230,-2.35612865,-1.115097625,0.279933657,-0.73689668,-4.00406285,-7.9641835
515,1747532689240,-2.8430229,-0.911675845,0.086274237,-0.96433065,-3.09113115,-8.560998
516,1747532689250,-3.03826865,-0.811124235,0.094450155,-1.10707615,-2.30736285,-8.9937615
517,1747532689260,-3.24095835,-0.74230009,0.182066715,-1.2394352,-1.7315874,-9.3815175
518,1747532689270,-3.47769395,-0.6983698,0.313247475,-1.38990375,-1.44210175,-9.615077
519,1747532689280,-3.72943875,-0.7111828250000001,0.4632206399999999,-1.59549985,-1.39602905,-9.652095
520,1747532689290,-4.013766,-0.7487676,0.5623079,-2.5017736,-2.0367856,-9.426525
521,1747532689300,-4.13347585,-0.7116709,0.58524928,-2.6237464,-2.0540962,-9.4275905
522,1747532689310,-4.3371415,-0.64138243,0.630521895,-2.7710192,-1.9395803,-9.442238
523,1747532689320,-4.46624765,-0.60355358,0.6716455649999999,-2.7153591,-1.60109245,-9.476859
524,1747532689330,-4.498341,-0.62466453,0.7071559000000001,-2.4538367,-1.18617195,-9.5314535
525,1747532689340,-4.5497155,-0.7995315,0.61941725,-1.794438,-0.6988135,-9.62786
526,1747532689350,-4.6649103,-0.69287854,0.42417148,-1.1925635,-0.67005134,-9.343967
527,1747532689360,-4.6591749,-0.59794027,0.34241231,-1.2008193500000002,-0.567519635,-9.124789
528,1747532689370,-4.54837295,-0.4195344,0.195245795,-1.32439005,-0.307062475,-8.55380725
529,1747532689380,-4.26660895,-0.261751385,0.1027481,-1.55422085,-0.10892329,-7.92849675
530,1747532689390,-3.84524405,-0.1064089615,0.106286935,-1.77393165,-0.0529969075,-7.215036
531,1747532689400,-3.504052,0.012080835,0.15290187,-1.8495654,0.0183758124999999,-6.5875955
532,1747532689410,-3.29684745,0.1036023065,0.176331365,-1.72812525,0.17710021,-6.2376562
533,1747532689420,-3.08329725,0.213306045,0.170107905,-1.47272815,0.44448157,-5.93512105
534,1747532689430,-2.8842685,0.31092893,0.1334993179999999,-1.07778137,0.8058725499999999,-5.67013635
535,1747532689440,-2.622029,0.40000983,0.081759178,-0.1677791699999999,1.40748065,-5.247759
536,1747532689450,-2.3983505,0.4742032499999999,0.0124469185,0.7941546500000001,1.91587805,-4.7737165
537,1747532689460,-2.3525898,0.53472942,-0.0910333515,1.2809805,2.07540145,-4.35906225
538,1747532689470,-2.27436945,0.66456787,-0.23783379,1.59922825,2.3574303,-3.4916705
539,1747532689480,-2.06887325,0.8041686,-0.321179345,1.6692694,2.6993802,-2.5574336
540,1747532689490,-1.85471305,0.86286435,-0.28017773,1.56300925,2.8565067,-1.99231085
541,1747532689500,-1.679602,0.8778739,-0.16998588,1.46207545,2.8735509,-1.50282185
542,1747532689510,-1.5470788999999998,0.87592145,-0.032215557,1.41041015,2.7790086,-1.05194867
543,1747532689520,-1.3648901,0.8699420499999999,0.111778218,1.5020229,2.0975058,-0.0010652645
544,1747532689530,-1.2343195,0.8577391999999999,0.20500809,1.54916085,1.9427761,0.14221280275
545,1747532689540,-1.24066505,0.85578677,0.22099385,1.64210515,1.6668726,0.425306835
546,1747532689550,-1.2417633,0.8698200700000001,0.20525215,1.7196031,1.4865766,0.6905577
547,1747532689560,-1.2285841999999998,0.8797043499999999,0.172304415,1.7670074,1.41307335,0.9150622
548,1747532689570,-1.2251674,0.8812907,0.15375607,1.7827201,1.3986923,1.0141318
549,1747532689580,-1.4301754999999998,0.92168221,0.18719191,1.7984327,1.5225292499999998,1.4857776
550,1747532689590,-1.6881441,0.9962417,0.25479576,1.7907095,1.5425029,2.098571
551,1747532689600,-1.7922345,1.01527815,0.270903545,1.7590179,1.4777881,2.3672839000000003
552,1747532689610,-2.00810305,1.05127655,0.2842046649999999,1.64396935,1.2844426,2.9521141
553,1747532689620,-2.38407315,1.091546,0.26394791,1.17472035,0.7952199,4.0093892
554,1747532689630,-2.79994665,1.11619585,0.28225221,0.537159585,0.260989795,5.16786435
555,1747532689640,-3.1158788,1.0887394,0.4255138149999999,0.089215895,-0.109455925,6.04564215
556,1747532689650,-3.37518975,0.984893,0.649924465,-0.17789917,-0.518783795,6.9742863
557,1747532689660,-3.5617716,0.649436335,0.93791205,0.109722235,-0.928377975,8.1828285
558,1747532689670,-3.62400625,0.2186753015,1.1275445,0.752343065,-0.97924435,8.9578085
559,1747532689680,-3.5778793,-0.0507639035,1.1319374999999998,1.3281185,-0.57471017,8.859538
560,1747532689690,-3.6554896,-0.191462905,1.10045415,1.8687401,-0.00772317,8.564726
561,1747532689700,-3.9363995,-0.22270223,1.0640896,2.2714101,0.56592175,8.368451499999999
562,1747532689710,-4.370577,-0.21074342,1.00063472,2.45463565,1.00161495,8.45500425
563,1747532689720,-4.618295,-0.20915705,0.95621634,2.4841967,1.1723236,8.5759115
564,1747532689730,-4.7679024,-0.32606047,0.9586569,2.0192087,1.0157297,9.359413
565,1747532689740,-4.8317232,-0.317640495,0.89520198,1.5763250000000002,0.56006281,9.693906
566,1747532689750,-4.895544,-0.30922052,0.83174706,1.1334413,0.10439592,10.028399
567,1747532689760,-4.775102,-0.6107533,0.74376445,0.22050974,-0.62051654,10.71443
568,1747532689770,-4.4788165,-0.5638943,0.7620687749999999,0.24554345,-0.63516392,10.546917
569,1747532689780,-4.411944999999999,-0.551081275,0.829306545,0.33103092,-0.5123922,10.145045499999998
570,1747532689790,-4.4397675,-0.54510185,0.7940402200000001,0.39894155,-0.1784318,9.502159
571,1747532689800,-4.259287,-0.4407674,0.71020657,0.3584615,-0.12703279,9.384447000000002
572,1747532689810,-4.110046,-0.4894568299999999,0.70227471,0.312388805,-0.15712651,9.3389065
573,1747532689820,-3.7284626,-0.6671305000000001,0.703617025,0.37310888,-0.36964677,9.476326
574,1747532689830,-3.2890376,-0.92217032,0.6865330249999999,0.525708025,-0.5928197,9.5192035
575,1747532689840,-2.86791675,-1.125348,0.59208286,0.696150325,-0.7315704000000001,9.389774
576,1747532689850,-2.0149367,-1.3266952,0.2997023,0.855939975,-0.76033252,9.092831
577,1747532689860,-1.9287845,-1.3198616,0.2272172949999999,1.037833875,-0.64395237,8.447546749999999
578,1747532689870,-1.811515,-1.3030217,0.099453326,1.17072565,-0.488157435,7.8001325
579,1747532689880,-1.7780791,-1.29838465,-0.0061014315,1.21173835,-0.358994125,7.4589815
580,1747532689890,-1.6467763,-1.41040685,-0.1262996324999999,1.24076675,-0.1784318,7.19532875
581,1747532689900,-1.4116271500000002,-1.60577465,-0.24259292,1.2333099,0.188551805,6.860037
582,1747532689910,-1.1741594,-1.78210605,-0.3248402,1.1219898,0.484162685,6.50157535
583,1747532689920,-0.8932495249999999,-1.95697305,-0.368648465,0.88843055,0.48043427,6.18412635
584,1747532689930,-0.627105075,-2.1125595500000003,-0.361570805,0.55686698,0.30519827,5.8187408000000005
585,1747532689940,-0.37011278,-2.23763895,-0.297871865,0.1882854895,0.0117179099999999,5.449893
586,1747532689950,0.30726805,-2.4420369,0.021232981,-0.22903186,-0.5992113,4.3388224
587,1747532689960,0.421242825,-2.47730305,0.0800507755,-0.126766471,-0.6804376999999999,4.0181777
588,1747532689970,0.71142685,-2.5696788,0.22013964,0.187486544,-0.82238415,3.217365
589,1747532689980,0.785986375,-2.6067754,0.228681635,0.570449135,-0.8748484249999999,2.3177491
590,1747532689990,0.9897742,-2.6788944,0.207082565,0.94409065,-0.8372978600000001,1.043959135
591,1747532690000,1.17330525,-2.7228248,0.15778301,1.1419635,-0.8476841850000001,-0.255663465
592,1747532690010,1.24762065,-2.7334411000000003,0.11726951,1.05381287,-0.97791275,-1.1568772
593,1747532690020,1.25311195,-2.7069608,0.083955695,0.8285094500000001,-1.1779161500000002,-2.06954255
594,1747532690030,1.1733053,-2.6245916,0.066261545,0.524909065,-1.38031645,-2.9683595
595,1747532690040,0.8322352749999999,-2.4416708,0.065163285,0.0338221499999999,-1.55848195,-4.2538674
596,1747532690050,0.404158825,-2.2341001,0.0937179775,-0.421045765,-1.6274578,-5.39023825
597,1747532690060,0.149363046,-2.08534715,0.1507053475,-0.66019765,-1.60748405,-5.938583
598,1747532690070,-0.021477034,-1.9557528,0.233196695,-0.8676579,-1.6298545999999998,-6.430735
599,1747532690080,-0.13471959,-1.85935025,0.33057554,-1.01386543,-1.69962945,-6.9018483
600,1747532690090,-0.40611124,-1.7542835,0.5759751,-1.02052333,-1.8343854,-7.6086513
601,1747532690100,-0.54693227,-1.75281915,0.6113634,-0.88816423,-1.99630555,-8.2952145
602,1747532690110,-0.8421195,-1.7433009,0.658222375,-0.69987875,-2.12946355,-8.672851
603,1747532690120,-0.9964857,-1.735247,0.66969305,-0.598146,-2.1917815,-8.836369
604,1747532690130,-1.36244965,-1.7040077,0.68811942,-0.30226879,-2.2658175,-9.300025
605,1747532690140,-1.6741107,-1.7046178,0.6125837000000001,-0.2002697199999999,-2.2895197,-9.6526275
606,1747532690150,-2.06142945,-1.7207255,0.45089577,-0.27563717,-2.1523669,-10.348245
607,1747532690160,-2.5252603,-1.73878585,0.316054155,-0.524642735,-1.7779264,-11.046526
608,1747532690170,-2.8076346,-1.7501346,0.26626647,-0.8468852250000001,-1.3174658,-11.346132
609,1747532690180,-3.66988875,-1.5479331,0.31300342,-1.23437515,-0.8631305300000001,-11.399395
610,1747532690190,-4.00705395,-1.3168109,0.57756145,-1.7920411499999995,-0.66898608,-10.9543805
611,1747532690200,-4.1728907500000005,-1.1806269,0.92729555,-2.1851238,-1.0096044,-10.304569
612,1747532690210,-4.2007134,-1.2151610000000002,1.1342561,-2.21069015,-1.60135885,-9.8728705
613,1747532690220,-4.1951003,-1.2432276,1.1883147,-2.1715417,-1.96274985,-9.644904
614,1747532690230,-4.2252410000000005,-1.3944211,1.0770246499999998,-2.11961,-1.93318875,-9.730658
615,1747532690240,-4.250745,-1.4497001,1.0391958,-2.092712,-1.820537,-9.855294
616,1747532690250,-4.66954725,-1.83531045,0.876775675,-1.5472966,-0.30786142,-10.844392
617,1747532690260,-4.870650550000001,-1.91414095,0.823693175,-1.4764564999999998,-0.21678131,-10.8571755
618,1747532690270,-5.0493004500000005,-1.9174357,0.77927475,-1.412807,-0.153664395,-10.747187
619,1747532690280,-5.14460465,-1.79125815,0.67945537,-1.51400715,-0.251402415,-10.408166
620,1747532690290,-5.0850545,-1.4199251,0.58598147,-1.85462545,-0.441818445,-9.520801
621,1747532690300,-4.8416075,-1.0311419,0.556084465,-2.1819279,-0.569117545,-8.5074685
622,1747532690310,-4.5343397,-0.7743936849999999,0.583052785,-2.2682143000000003,-0.54328487,-7.87443485
623,1747532690320,-4.1226151,-0.367184145,0.5695076,-2.0245351,-0.2806971815,-7.036604349999999
624,1747532690330,-3.74627865,0.039171195,0.489578845,-1.51161025,0.1541970335,-6.19904
625,1747532690340,-3.47744965,0.27505252,0.372675415,-0.83223785,0.63995764,-5.54123915
626,1747532690350,-3.3411438,0.37658033,0.2967736,-0.4165184,0.92092115,-5.1739893
627,1747532690360,-2.8283794,0.5222825,0.014887493,0.8490158,1.871137,-4.182228
628,1747532690370,-2.6208087000000004,0.6007469,-0.0518621585,1.16433405,2.16062265,-3.7015275
629,1747532690380,-2.28181325,0.72070103,-0.1225167349999999,1.50868075,2.51642095,-2.969691
630,1747532690390,-2.00493035,0.7831797,-0.09798899,1.51826815,2.54678095,-2.49857785
631,1747532690400,-1.768927,0.82906247,-0.050519853,1.4468955,2.36994715,-2.07220575
632,1747532690410,-1.53365575,0.9042321,0.021355007,1.3206617,2.05995525,-1.64636625
633,1747532690420,-1.32425455,0.952555425,0.0976229,1.1337077,1.5441009,-1.00774015
634,1747532690430,-1.21150015,0.9470641,0.118245735,1.0231865,1.0889666,-0.47936899
635,1747532690440,-1.1379169,0.940108475,0.1087275,1.04955185,0.91879057,-0.302002465
636,1747532690450,-1.1219311,0.94352535,0.08590815,1.10334765,0.84581997,-0.18402444
637,1747532690460,-1.1751356,0.9772053,0.048811448,1.1579424,0.909469535,-0.023968455
638,1747532690470,-1.2581151,1.0128376,0.031117298,1.17312245,1.024251785,0.15765914
639,1747532690480,-1.34402325,1.0297995000000002,0.0524723075,1.1632688,1.0641992,0.22903186
640,1747532690490,-1.4639774,1.0449311,0.0923756695,1.088434,1.09961925,0.62131551
641,1747532690500,-1.6217604,1.0610388999999998,0.155830557,1.02425175,1.0463559999999998,1.059405525
642,1747532690510,-1.7464735999999998,1.0348027,0.264436035,0.9108011,0.810666265,1.77526325
643,1747532690520,-1.786743,0.9994144,0.33142975,0.8277105,0.61838603,2.253567
644,1747532690530,-1.8648415,0.9025237,0.3778006,0.6838998000000001,0.329166715,2.76835595
645,1747532690540,-2.11024085,0.788670985,0.420998755,0.57604175,0.2727077,3.09485955
646,1747532690550,-2.35381005,0.7161859850000001,0.510201685,0.46232478,0.31984565,3.44533155
647,1747532690560,-2.5561335,0.65004647,0.66908295,0.400805755,0.4269047299999999,4.00459525
648,1747532690570,-2.72270265,0.571338,0.8434618300000001,0.503071125,0.41571946,4.6360309
649,1747532690580,-2.9449168500000003,0.4562650299999999,0.98379473,0.7113303200000001,0.23116239,5.12445465
650,1747532690590,-3.2261928,0.334480465,1.0554255499999998,0.9539443,-0.077231675,5.8866515
651,1747532690600,-3.6360868,0.105432735,1.16586145,1.0146644,-0.1272990975,6.15110325
652,1747532690610,-3.9974135,-0.151315495,1.30192335,1.2330436,-0.139017005,6.84485675
653,1747532690620,-4.2199937,-0.30128868,1.3708695,1.5137407500000002,-0.0727043,7.4520576
654,1747532690630,-4.4874804,-0.414165155,1.4018648,1.7936390000000002,-0.0375505735,7.8115842
655,1747532690640,-4.6363554,-0.46444094,1.4101628,1.9504992,-0.030360037,7.9932117
656,1747532690650,-5.054669499999999,-0.819178085,1.33377285,2.46209255,0.1225054185,8.537561499999999
657,1747532690660,-5.273345,-1.15280435,1.26433855,2.7912593,0.430100525,8.912801
658,1747532690670,-5.32069215,-1.3332848,1.2144288,2.93187415,0.7643272249999999,9.1674
659,1747532690680,-5.2973845,-1.46361135,1.1314494000000002,2.85171295,0.95687375,9.3101455
660,1747532690690,-5.2728567,-1.5182801,1.0821499,2.7798076,1.0306433,9.38498
661,1747532690700,-5.0696793,-1.62773985,0.83919088,2.1435784,0.86739158,9.8406465
662,1747532690710,-4.761801,-1.7038857,0.68506868,1.57446085,0.732901925,10.2015045
663,1747532690720,-4.4223175,-1.7719776500000002,0.64748387,1.20880885,0.7107977,10.355435
664,1747532690730,-3.9991223,-1.83506645,0.65285312,0.94249275,0.741690375,10.3714145
665,1747532690740,-3.3081958,-1.9063311,0.68531275,0.81572625,0.78723045,10.224142
666,1747532690750,-2.92600225,-1.91804585,0.6755504750000001,0.83090625,0.76406095,9.772736
667,1747532690760,-2.38810015,-1.9365942,0.618075,0.92970955,0.66845345,9.257681
668,1747532690770,-2.1114613,-1.94245155,0.50849328,0.9992181,0.5368933,8.9210575
669,1747532690780,-1.8819254,-1.9297606,0.38243771,1.00507705,0.377902575,8.612397000000001
670,1747532690790,-1.58942275,-1.8732614,0.211597635,0.80107885,0.20266656,8.155931
671,1747532690800,-1.3042419500000002,-1.82286365,0.0750475999999999,0.5091964,0.074834828,7.699465
672,1747532690810,-1.10594545,-1.83042945,0.041489732,0.31585091,0.0194410769,7.38175
673,1747532690820,-0.75950617,-1.8975451,0.07199689,0.170708627,-0.0133158061,7.000918
674,1747532690830,-0.656758085,-1.91023605,0.087372493,0.092678012,-0.05539375,6.552708
675,1747532690840,-0.4391810499999999,-1.9713724,0.132034973,0.098004335,-0.27324033,5.85709035
676,1747532690850,-0.27602875,-2.0338511500000003,0.15949142,0.13528859,-0.535561695,5.19822435
677,1747532690860,-0.1734026725,-2.05740275,0.16510473,0.19600865,-0.67697555,4.6237803
678,1747532690870,-0.0484453685,-2.08583535,0.199516795,0.274305595,-0.713727175,4.39794415
679,1747532690880,0.126177594,-2.1385516,0.26455806,0.460726885,-0.801877825,3.99580685
680,1747532690890,0.4538244549999999,-2.23153745,0.34619521,0.703340865,-0.925981125,3.6421392
681,1747532690900,0.777322365,-2.31439495,0.38353596,1.09642345,-1.2096078,3.01949215
682,1747532690910,0.9513352,-2.3644266,0.3393616,1.4210628,-1.5395735,2.27300805
683,1747532690920,1.06970295,-2.4110415,0.251867075,1.48444605,-1.73584845,1.62372935
684,1747532690930,1.19563645,-2.4352032,0.09847709525,1.42132915,-1.845837,0.87884319
685,1747532690940,1.3042419,-2.4103093,-0.06418705675,1.04502447,-1.79603585,-0.63756076
686,1747532690950,1.31034335,-2.33648205,-0.168643562,0.53130067,-1.6021577,-2.31481965
687,1747532690960,1.1573195,-2.2140872,-0.24064046,-0.08735169,-1.2298478,-3.9622512
688,1747532690970,1.03858565,-2.17113325,-0.22245818,-0.294012995,-1.11852765,-4.45893075
689,1747532690980,0.7719531,-2.07399855,-0.166447035,-0.68043768,-0.9193232,-5.37159615
690,1747532690990,0.32972135,-1.9090158,0.00695563,-1.09722243,-0.6953513499999999,-6.358031
691,1747532691000,-0.09139944,-1.77929935,0.232098445,-1.3342438,-0.5592638,-6.92848
692,1747532691010,-0.21818718,-1.7603849,0.32166746,-1.4498249,-0.660464,-7.2725606
693,1747532691020,-0.48652811,-1.69729605,0.45772938,-1.52252925,-1.03224125,-7.4251598
694,1747532691030,-0.95109107,-1.5785622,0.689339725,-1.53770925,-1.6631441,-7.498663
695,1747532691040,-1.2334653,-1.5439061,0.83443177,-1.3118732,-2.1869879,-7.427024
696,1747532691050,-1.2736127499999998,-1.55440065,0.83650622,-1.21573305,-2.2953786000000003,-7.500261
697,1747532691060,-1.4029631,-1.57185075,0.8096598850000001,-1.04529075,-2.47008195,-7.726096999999999
698,1747532691070,-1.62261465,-1.57953845,0.741689965,-0.9395633,-2.5172199,-8.1010695
699,1747532691080,-2.08241865,-1.6011375,0.650778665,-0.910002185,-2.3568976,-8.592156
700,1747532691090,-2.6076298,-1.6104117,0.602943435,-0.974184385,-1.6791230499999998,-9.531187
701,1747532691100,-2.8034856,-1.598819,0.60697037,-1.0365024,-1.1424961,-10.201505
702,1747532691110,-3.67562415,-1.39307875,0.7393714499999999,-1.14942035,-0.637827085,-10.854512
703,1747532691120,-4.19888285,-1.1179042,0.98635735,-1.10334765,-0.315584585,-10.5738145
704,1747532691130,-4.30895255,-0.96793102,1.24871885,-0.8724516,-0.29401299,-9.8214715
705,1747532691140,-4.02230735,-1.1002101199999998,1.35305335,-0.510528015,-0.7475493400000001,-9.214537
706,1747532691150,-3.77178275,-1.33304075,1.3253529,-0.169909679,-1.44636285,-8.895757
707,1747532691160,-3.6847763,-1.5530583,1.14536065,-0.0836232589999999,-2.09857095,-8.916796
708,1747532691170,-3.87233435,-1.7047398,0.8385807000000001,-0.6695186949999999,-2.18485735,-9.412144
709,1747532691180,-4.16142015,-1.7598968,0.6617612500000001,-1.3787185,-1.6639431,-10.0028335
710,1747532691190,-4.3553235,-1.73207435,0.7002002700000001,-1.58751035,-0.9779128,-10.306434
711,1747532691200,-4.5453220000000005,-1.6813104,0.79159969,-1.52279555,-0.3528688725,-10.4585005
712,1747532691210,-4.75814,-1.43603285,0.8858057699999999,-1.034105465,0.1629854575,-10.1335945
713,1747532691220,-4.825378,-1.0636014500000002,0.886904075,-0.4777711,0.38083203,-9.4105465
714,1747532691230,-4.67930965,-0.77317335,0.775736005,-0.10759171,0.11558119,-8.16472
715,1747532691240,-4.44440465,-0.522526575,0.59562172,-0.110521185,-0.114249615,-7.596401200000001
716,1747532691250,-4.1578815,-0.3143457349999999,0.399155615,-0.1898833899999999,-0.48203216,-6.6147597000000005
717,1747532691260,-3.72907265,-0.060404175,0.1976863575,-0.41039311,-0.63835972,-5.54337
718,1747532691270,-3.32198525,0.183531055,0.0544247655,-0.5464806499999999,-0.5233111699999999,-4.6152585
719,1747532691280,-3.05388845,0.348391745,-0.0098843189999999,-0.454867935,-0.199470774,-4.10765985
720,1747532691290,-2.761874,0.501171575,-0.064675169,-0.209857101,0.214384466,-3.6709013
721,1747532691300,-2.4664426500000003,0.6185631,-0.114340817,0.158724404,0.66525764,-3.3177662
722,1747532691310,-2.1220778,0.68775332,-0.2251428,0.72677667,1.3632722,-2.9632994
723,1747532691320,-1.9163376,0.71264714,-0.3104408,1.087635,1.8338528,-2.7627633
724,1747532691330,-1.7623373999999998,0.7485236,-0.41111443,1.07724865,2.44531455,-2.58140205
725,1747532691340,-1.7042518,0.793430115,-0.37291947,0.9062737,2.69538545,-2.40563345
726,1747532691350,-1.65177945,0.864572815,-0.28713335,0.6319681500000001,2.72787595,-2.1417142
727,1747532691360,-1.58027065,1.01381385,-0.117513565,0.09480854,2.3094933,-1.5235945
728,1747532691370,-1.5223071,1.1453607,0.071752835,-0.43223106,1.640241,-0.78696415
729,1747532691380,-1.5013182,1.1753797,0.19048669,-0.6609966,1.046888675,-0.22050974
730,1747532691390,-1.5116906,1.1703765499999998,0.2931127599999999,-0.7400925,0.463922665,0.36565203
731,1747532691400,-1.5595258,1.112779,0.314711825,-0.610929185,-0.13235912,1.23330997
732,1747532691410,-1.6200519999999998,1.03260615,0.26907312,-0.4130563,-0.43888897,1.96834245
733,1747532691420,-1.66727705,0.966588685,0.223800495,-0.2753708649999999,-0.33848779,2.2359901
734,1747532691430,-1.72743715,0.898984835,0.1969542,-0.12516857,-0.1254348928,2.4117587
735,1747532691440,-1.8611806,0.825035525,0.214160235,0.0423442649999999,0.1211738322,2.5523737
736,1747532691450,-2.0947434,0.7221654049999999,0.294088975,0.263386635,0.380033095,2.83972875
737,1747532691460,-2.2973109000000003,0.6419926,0.363157185,0.41225734,0.45859635,3.23574075
738,1747532691470,-2.4633919,0.59855042,0.37621425,0.39867522,0.247673988,3.7209687
739,1747532691480,-2.70622875,0.548274615,0.38829508,0.31798144,-0.078829567,4.3566652
740,1747532691490,-2.93808305,0.496168375,0.38768494,0.19547603,-0.380832055,5.0655988
741,1747532691500,-3.13821005,0.310074725,0.382315665,0.0681769245,-0.5821670299999999,5.83605145
742,1747532691510,-3.3130771,0.02550398,0.378410755,0.015712651,-0.721450355,6.83580215
743,1747532691520,-3.441085,-0.200126935,0.365841815,0.0625842865,-0.76006621,7.6153093
744,1747532691530,-3.5623815,-0.3479036,0.345707085,0.15020229,-0.630636585,7.871771799999999
745,1747532691540,-3.91309185,-0.34131405,0.309342565,0.197606555,-0.36618468,8.1681815
746,1747532691550,-4.461611,-0.2037878,0.19353738,0.033023197,-0.22423817,8.918926
747,1747532691560,-4.5655793,-0.2280714999999999,0.183042925,-0.0671116615,-0.2759034999999999,9.2880405
748,1747532691570,-4.7267788,-0.336798985,0.171816305,-0.237820295,-0.3936152149999999,10.027068
749,1747532691580,-4.77620035,-0.5117880349999999,0.170473995,-0.340085685,-0.510528,10.6566395
750,1747532691590,-4.6439214,-0.69458693,0.16644704,-0.35579833,-0.52144694,11.12722
751,1747532691600,-4.5954759,-0.695197065,0.188534215,-0.24341293,-0.29081719,11.004981
752,1747532691610,-4.5444679,-0.6715234999999999,0.230268005,0.036218993,0.21784659,10.705908
753,1747532691620,-4.5051747,-0.6406502700000001,0.26626645,0.1419464915,0.33103093,10.615893
754,1747532691630,-4.41060265,-0.6466296899999999,0.2944550649999999,0.316383545,0.450340535,10.457434500000002
755,1747532691640,-4.1196865,-0.71264717,0.2693171749999999,0.44528055,0.3747067699999999,10.149839
756,1747532691650,-3.8866117,-0.7660957,0.2323425,0.505468,0.29294774,9.910687
757,1747532691660,-3.2628014,-0.93888825,0.107873306,0.49694586,0.30360037,9.0377035
758,1747532691670,-3.1438235,-0.981232125,0.080538895,0.49827744,0.376038355,8.79349175
759,1747532691680,-2.90733205,-1.06750635,0.0290428145,0.50440271,0.55447017,8.3154545
760,1747532691690,-2.55735395,-1.2005176,-0.0463708775,0.4961469149999999,0.8847020999999999,7.630489499999999
761,1747532691700,-2.3248894,-1.2895985,-0.0976229,0.48309743,1.1089402,7.17935
762,1747532691710,-2.1311079,-1.37855735,-0.157538955,0.373907815,1.1446266,6.89785365
763,1747532691720,-1.9373264,-1.4675162,-0.21745501,0.2647182,1.180313,6.6163573
764,1747532691730,-1.70156715,-1.5819791,-0.294577105,-0.068975877,1.19655835,6.2427161
765,1747532691740,-1.355494,-1.7752724,-0.27200181,-0.49135323,1.2551478500000002,5.860286
766,1747532691750,-1.02345405,-1.9811347,-0.1815785999999999,-0.88843055,1.1470235,5.5388424
767,1747532691760,-0.82271695,-2.0819303,-0.100307535,-1.05780765,0.8732505500000001,5.38890645
768,1747532691770,-0.5845171,-2.1215895500000004,-0.041489734,-1.1310446,0.622913385,5.13643875
769,1747532691780,-0.364621525,-2.1093867,0.0068336024999999,-1.07991185,0.487624795,4.755873
770,1747532691790,-0.134231482245,-2.09730585,0.0982330414999999,-0.703607165,0.541953295,4.07064175
771,1747532691800,0.083589607755,-2.09755,0.1924391449999999,-0.151267555,0.7291735100000001,3.3545177500000003
772,1747532691810,0.279933665,-2.09059445,0.242958995,0.34194991,0.930774825,2.8724856
773,1747532691820,0.49079913,-2.07643915,0.2773710649999999,0.8466189500000001,1.08896665,2.35343555
774,1747532691830,0.672987845,-2.0636262,0.281153945,1.3028184500000002,1.1579425,1.7763285
775,1747532691840,0.851515715,-2.0364138,0.214404285,1.7353158,1.083107625,0.7073355935000001
776,1747532691850,0.96451426,-1.978084,0.07297312,1.9483687,0.88470215,-0.72917354
777,1747532691860,0.947796345,-1.96246435,0.03770684625,1.8793928,0.806405175,-1.04928547
778,1747532691870,0.8942257650000001,-1.9297607,-0.02831063875,1.68471575,0.650610225,-1.68418305
779,1747532691880,0.8173477250000001,-1.88363385,-0.0851759775,1.3901702,0.52304484,-2.30549855
780,1747532691890,0.659320675,-1.75184285,-0.1023820155,0.82051999,0.4543353,-3.1736892
781,1747532691900,0.47481338,-1.6039442,-0.0613803975,0.239151862,0.456465825,-3.96811025
782,1747532691910,0.35681168,-1.53463205,0.0401474205,-0.072437978,0.49135324,-4.40593375
783,1747532691920,0.291770435,-1.5137651,0.19243914,-0.2942793,0.474309,-4.8879658
784,1747532691930,0.269195135,-1.5315812,0.354249105,-0.4181163,0.35446675,-5.430185549999999
785,1747532691940,0.1055547449999999,-1.5281644,0.542661295,-0.38802258,0.05033375,-6.23845505
786,1747532691950,-0.19536784,-1.4968031,0.6786011750000001,-0.243679245,-0.27537086,-6.9830748
787,1747532691960,-0.533753215,-1.4550693,0.70837617,-0.0727042995,-0.49375006,-7.3375415
788,1747532691970,-1.05432733,-1.33926415,0.6793333699999999,0.1531317655,-0.7784420000000001,-7.691209300000001
789,1747532691980,-1.577098,-1.2139407,0.6108753,0.30866038,-0.99895175,-7.9727053
790,1747532691990,-1.63579375,-1.2478647,0.600380835,0.29880668,-1.05301395,-8.21239
791,1747532692000,-1.7725878,-1.37453045,0.571948185,0.196008655,-1.0223876,-8.5847
792,1747532692010,-2.0089573,-1.54561455,0.56755517,0.00745685,-0.94968325,-9.0677975
793,1747532692020,-2.69012105,-1.6217603500000002,0.62637292,-0.10759171,-0.9177253,-9.337576
794,1747532692030,-3.521502,-1.52962875,0.738395175,-1.15581195,-0.56938383,-10.410563
795,1747532692040,-3.99863385,-1.3377998,0.902645725,-1.63970835,-0.363521485,-10.374877
796,1747532692050,-4.161298,-1.1990533,1.0917900500000002,-2.02666565,-0.395479435,-10.090451
797,1747532692060,-3.98923765,-1.3064385,1.32071575,-2.25676275,-0.7709852,-9.7564905
798,1747532692070,-3.8225465,-1.560258,1.44872375,-2.46235885,-1.4849787,-9.7266635
799,1747532692080,-3.9134577,-1.74769395,1.4011326,-2.68127075,-1.9153455,-10.021475
800,1747532692090,-4.118831999999999,-1.87960685,1.32937985,-2.8141624,-1.73664735,-10.3437175
801,1747532692100,-4.3206675,-1.95746105,1.2782498,-2.84265815,-1.3299826,-10.581271999999998
802,1747532692110,-4.788403,-1.8432423,1.2512815000000002,-2.58140205,-0.6388923150000001,-10.481936
803,1747532692120,-5.1920737500000005,-1.551716,1.22870625,-2.1827269,-0.06924219,-9.916813
804,1747532692130,-5.2159915,-1.398204,1.2154051,-1.9145466,0.0300937199999999,-9.085108
805,1747532692140,-4.92654,-1.0811737,1.104359,-1.8013622,0.00479369,-8.629175
806,1747532692150,-4.3321383,-0.73754103,0.90118133,-1.74570215,-0.508930075,-7.372961500000001
807,1747532692160,-3.8727003,-0.497754755,0.7623128,-2.06741195,-0.86739155,-6.75617335
808,1747532692170,-3.54419915,-0.217699065,0.68177392,-2.42427555,-1.07511815,-6.206496850000001
809,1747532692180,-3.3744574,0.0294088949999999,0.67420815,-2.48179985,-1.0162623,-5.7404435
810,1747532692190,-3.1695714,0.246497815,0.689949835,-2.29111755,-0.8679242,-5.1934303
811,1747532692200,-3.052424,0.34387666,0.70215267,-2.1294637,-0.7819041,-4.9087386
812,1747532692210,-2.44813825,0.5809782800000001,0.501537635,-1.062068675,-0.385093105,-3.9859532
813,1747532692220,-2.2517942,0.65761225,0.345829135,-0.33209621,-0.028495825,-3.437342
814,1747532692230,-2.1375755,0.7579198,0.190120605,-0.11345067,0.23196134,-3.1361385000000004
815,1747532692240,-2.0681411,0.882999125,0.10164984,-0.108124345,0.47510796,-2.8189561000000003
816,1747532692250,-1.9774738,1.001855025,0.100673607,-0.179763375,0.68336715,-2.45117355
817,1747532692260,-1.79565125,1.11997875,0.213183992,-0.195209715,0.70440612,-1.9089539
818,1747532692270,-1.636892,1.20491065,0.32862307,-0.1041296065,0.5382248700000001,-1.3928333
819,1747532692280,-1.5899109,1.24542415,0.331917865,0.0095873809999999,0.301736155,-1.05807393
820,1747532692290,-1.5816129,1.28801215,0.263947935,0.0793622005,0.04234426,-0.70440611
821,1747532692300,-1.5883245,1.308635,0.21281794,0.098004326,-0.08575379,-0.51984906
822,1747532692310,-1.76599825,1.28178865,-0.0521062204999999,-0.213851845,-0.51825114,0.7219829849999999
823,1747532692320,-1.77539445,1.2337094,-0.085175978,-0.35446675,-0.5440838,1.1286477
824,1747532692330,-1.77148955,1.1733052000000002,-0.07883049,-0.43675842,-0.54248593,1.48577755
825,1747532692340,-1.80614565,1.10399295,-0.06016011,-0.463123715,-0.5374259299999999,1.8306569
826,1747532692350,-1.95502065,0.97342235,-0.0391711879999999,-0.469781615,-0.47564059,2.40643235
827,1747532692360,-2.08949625,0.8310149200000001,0.007931862,-0.478836365,-0.339020415,2.98966465
828,1747532692370,-2.13806355,0.71850452,0.095182325,-0.458063715,-0.227700275,3.36090935
829,1747532692380,-2.2582618,0.603187475,0.16961978,-0.39574575,-0.2426139849999999,3.70605505
830,1747532692390,-2.4992684,0.50117156,0.175843245,-0.331563565,-0.350472005,4.0735711
831,1747532692400,-2.8383859,0.33326018,0.133743375,-0.28016454,-0.31345406,4.7864995
832,1747532692410,-3.111974,0.123615003,0.0894469825,-0.217313945,-0.1472728125,5.5228637
833,1747532692420,-3.2851327,-0.0405135019999999,0.0501537655,-0.130228585,-0.0114515924999999,5.972671500000001
834,1747532692430,-3.4720806,-0.182188735,0.009396205,-0.0300937199999999,0.133957005,6.4049028
835,1747532692440,-3.7892329,-0.426856125,0.0239176085,0.11158645,0.321709865,7.143929999999999
836,1747532692450,-4.110168,-0.722287415,0.088226689,0.20586235,0.32703619,7.9008
837,1747532692460,-4.2692932500000005,-0.926807415,0.1076292425,0.1717738899999999,0.079362205,8.347145999999999
838,1747532692470,-4.39473875,-1.08190585,0.0616244555,0.05086638,-0.230629755,8.737033
839,1747532692480,-4.543858,-1.1990533,-0.0240396395,-0.14460965,-0.5424859399999999,9.0499545
840,1747532692490,-4.80194865,-1.3065605,-0.0490555075,-0.452471065,-0.88523478,9.3892415
841,1747532692500,-4.96924965,-1.41065095,0.006223461,-0.69322083,-1.18910145,9.716544
842,1747532692510,-4.953874,-1.5522041999999998,0.028920785,-0.75287565,-1.510545,9.9900505
843,1747532692520,-4.8191545,-1.7090109999999998,0.1021379615,-0.6878945,-1.8828549,10.2606275
844,1747532692530,-4.676259,-1.74025025,0.3167863,-0.3275688025,-1.8173411,10.3296035
845,1747532692540,-4.037927,-1.7823502,0.20085911,0.984837,-1.0684602,9.8185425
846,1747532692550,-3.9630015,-1.79089215,0.221970065,1.20055305,-0.8380967850000001,9.70083075
847,1747532692560,-3.606434,-1.8182266,0.24796216,1.7635453,0.07084008,9.352489
848,1747532692570,-3.48245295,-1.8255483,0.2500366499999999,1.876197,0.32410669,9.2582135
849,1747532692580,-3.20703425,-1.8462931,0.22233615,2.04584035,0.701742935,9.088304
850,1747532692590,-2.8172748,-1.8946164,0.08847074825,2.07060775,0.8743157850000001,8.902149
851,1747532692600,-2.485357,-1.92121865,-0.05906185425,1.94783605,0.956607475,8.73197275
852,1747532692610,-2.29755495,-1.88680655,-0.1311807725,1.72759265,1.043160175,8.59481975
853,1747532692620,-2.12012545,-1.8370189,-0.175477165,1.4444986,1.12198975,8.427041
854,1747532692630,-1.956363,-1.8256703,-0.18975451,1.13424033,1.14755615,8.216384999999999
855,1747532692640,-1.63896645,-1.85800785,-0.2081808299999999,0.68709558,1.1843078,7.71757475
856,1747532692650,-1.3082688999999998,-1.84714735,-0.231244235,0.271642435,1.2468921,7.11649925
857,1747532692660,-1.0548154,-1.7581885,-0.22428861,0.041545315,1.3004216,6.672283999999999
858,1747532692670,-0.9886759,-1.7342708999999998,-0.21782109,-0.158458095,1.3856427,6.2078285
859,1747532692680,-0.8671354,-1.6936353,-0.176331355,-0.294545625,1.49696285,5.8160775000000005
860,1747532692690,-0.6895837300000001,-1.6943674,-0.02574804,-0.308660375,1.5768577,5.49063935
861,1747532692700,-0.3687705,-1.7376877,0.24576566,-0.103863284,1.5957662,5.1777177
862,1747532692710,-0.2438131929999999,-1.7597748,0.3188608,0.044741108,1.56300925,5.08290935
863,1747532692720,-0.118855886,-1.7818619,0.39195594,0.380299425,1.4618091,4.8320395000000005
864,1747532692730,0.206838515,-1.8309174,0.48396552,0.7723167550000001,1.3046826500000002,4.4512073
865,1747532692740,0.396593035,-1.8371409,0.48152495,1.16300248,1.1355719,3.9385489
866,1747532692750,0.4842096,-1.8340902,0.4651731,1.3486248,1.0551444,3.6506612
867,1747532692760,0.85456648,-1.8772883,0.296285495,1.8594191,0.8484831500000001,1.4266554
868,1747532692770,0.98147623,-1.84885565,0.236003355,1.88312125,0.845553675,0.52304484
869,1747532692780,1.06323535,-1.77759095,0.181334535,1.7667411,0.89322424,-0.80640521
870,1747532692790,1.07141125,-1.7241424,0.16998587,1.57446085,0.948617995,-2.11188675
871,1747532692800,1.0056379,-1.6998588,0.19353739,1.38457745,0.93370433,-2.93799935
872,1747532692810,0.908015025,-1.66508065,0.2183091999999999,1.15607825,0.8436894850000001,-3.70392455
873,1747532692820,0.793918255,-1.6206621,0.237833785,0.8466189500000001,0.64155552,-4.47437695
874,1747532692830,0.64589753,-1.5461026,0.248572305,0.49641325,0.40453416,-5.1604073
875,1747532692840,0.33240597,-1.4150439,0.2826183,-0.0125168599999999,0.121173825,-5.8546934
876,1747532692850,-0.020012695,-1.2764194,0.34521899,-0.54648066,-0.170442315,-6.390255
877,1747532692860,-0.275296565,-1.146703,0.40818575,-0.9307748,-0.40533313,-6.57960575
878,1747532692870,-0.6540734,-0.9241228,0.539854645,-1.45035755,-0.801078865,-6.65231
879,1747532692880,-0.99026225,-0.71203705,0.684580585,-1.8455707,-1.21573305,-6.630205800000001
880,1747532692890,-1.1560991500000002,-0.6108753,0.76719395,-1.9161445,-1.58378195,-6.5676218
881,1747532692900,-1.3199836,-0.57451075,0.8260117499999999,-1.86714235,-1.9768646,-6.545783849999999
882,1747532692910,-1.51889025,-0.58793392,0.84053315,-1.7622138,-2.28419345,-6.6171565
883,1747532692920,-1.8359207,-0.591350735,0.7617026499999999,-1.685781,-2.30549865,-6.8983865
884,1747532692930,-2.0962077,-0.58707973,0.6927565,-1.68924305,-1.96061925,-7.27176165
885,1747532692940,-2.17540425,-0.6031875,0.719602825,-1.7196031,-1.4554176,-7.5804218
886,1747532692950,-2.23361205,-0.652731135,0.808439675,-1.6769925,-0.961667485,-7.901599
887,1747532692960,-2.3624742000000003,-0.73729698,0.9554841,-1.5164039,-0.6412892050000001,-8.21292275
888,1747532692970,-2.6256899,-0.84492623,1.07568225,-1.1816446,-0.50014167,-8.58816175
889,1747532692980,-2.83740965,-0.9437694,1.0900817,-0.942759065,-0.4663195249999999,-8.906942
890,1747532692990,-2.8784113,-0.9818423,1.0660421,-0.92731273,-0.47191215,-8.999354
891,1747532693000,-3.1092894,-1.0323621,1.0394398,-0.97738016,-0.6098639,-9.119196
892,1747532693010,-3.4830631,-1.00539385,0.9656125,-1.2141351500000002,-0.94382428,-8.856875500000001
893,1747532693020,-3.56372395,-0.99709595,0.85298005,-1.4828481,-1.1805793,-8.490957
894,1747532693030,-3.5310202,-1.0086887,0.8139309,-1.73638105,-1.3166668499999998,-8.255267
895,1747532693040,-3.27768885,-1.10143035,0.7352224700000001,-2.015214,-1.39895855,-8.123973
896,1747532693050,-3.112096,-1.1536586,0.70190865,-2.3190807,-1.41919855,-8.101602499999998
897,1747532693060,-2.95467905,-1.1900232,0.7032509499999999,-2.5494442,-1.15767612,-8.262989999999999
898,1747532693070,-2.90855215,-1.2084495,0.7366868,-2.5057684,-0.6394249949999999,-8.5356975
899,1747532693080,-3.0335096,-1.1719629,0.7989214,-2.1446437,-0.0617853399999999,-8.7633975
900,1747532693090,-3.1822625,-1.0723875500000002,0.882511025,-1.5089470500000002,0.605070235,-8.946622999999999
901,1747532693100,-3.34773325,-0.87531133,0.901547475,-0.1259675,1.21360255,-8.946356999999999
902,1747532693110,-3.4497492,-0.5845171,0.5852493,1.6053536,1.1494204,-8.379903
903,1747532693120,-3.40972385,-0.4894568,0.396959115,1.7699368999999998,0.7938883499999999,-7.9295625
904,1747532693130,-3.3190565000000003,-0.310318785,0.0347781449999999,1.8008295,0.136087525,-7.06243715
905,1747532693140,-3.1949533,-0.141187118,-0.27822525,1.33664055,-0.413588925,-6.22913385
906,1747532693150,-2.94967575,0.0923756719999999,-0.55010503,0.043143235,-0.90813795,-5.0831757
907,1747532693160,-2.656563,0.296407535,-0.67042528,-1.380316365,-1.1624698,-4.055195599999999
908,1747532693170,-2.42849155,0.3832919,-0.59818433,-2.1779331,-1.13237605,-3.50764955
909,1747532693180,-2.2533805,0.448089105,-0.454312575,-2.6919232500000003,-1.0333065,-3.04479205
910,1747532693190,-2.14123625,0.53180076,-0.272245865,-2.8956551,-0.8953547799999999,-2.6365296000000003
911,1747532693200,-1.9472108,0.741201875,0.0073217099999999,-2.57980415,-0.479901635,-2.0618195
912,1747532693210,-1.75550375,0.95853485,0.24247088,-1.97446765,0.021038975,-1.5398398
913,1747532693220,-1.69009635,1.04541925,0.3391175549999999,-1.4029533,0.3289004,-1.25860995
914,1747532693230,-1.68692365,1.07909915,0.409528075,-0.76938726,0.6213154949999999,-0.95660747
915,1747532693240,-1.73195225,1.07983125,0.4202666,-0.1536644,0.935834825,-0.59415124
916,1747532693250,-1.7292676,1.0748281,0.355591415,0.496146925,1.4644723,0.0380832099999999
917,1747532693260,-1.6759411,1.0396839,0.3316738,0.945422215,1.927596,0.65353973
918,1747532693270,-1.63823425,0.95816878,0.378654825,1.09482555,2.0527646,1.0338391
919,1747532693280,-1.6348174,0.8698200599999999,0.42514773,1.1635350999999998,2.0335899,1.3789848
920,1747532693290,-1.6747208,0.786474495,0.458217475,1.07405288,1.7976338,1.8090853
921,1747532693300,-1.76209335,0.713867485,0.467735695,0.8884305299999999,1.46101015,2.25143635
922,1747532693310,-2.0561824,0.59013045,0.49079913,0.6348976,0.9896307,2.8176246
923,1747532693320,-2.19334255,0.5560844549999999,0.4970226,0.54594802,0.806138875,3.0780818
924,1747532693330,-2.44948065,0.4922634649999999,0.514960835,0.36858149,0.455400545,3.6466667
925,1747532693340,-2.7788359,0.338751455,0.5767073,0.144343328,0.0013315849999999,4.700745700000001
926,1747532693350,-3.0630405,0.134353519,0.67640467,0.017310548,-0.323307765,5.7292585
927,1747532693360,-3.175795,-0.013423146,0.76853627,0.10359697,-0.34301516,6.241651
928,1747532693370,-3.2147222,-0.08053889,0.8110022,0.18109496,-0.32490566,6.471482
929,1747532693380,-3.3795829,-0.342412295,0.89276138,0.54834488,-0.240749765,6.8664285
930,1747532693390,-3.7435943,-0.70361703,0.95926698,1.3635385,0.011185285,7.653392500000001
931,1747532693400,-4.0746578,-0.88995475,0.89483588,1.9220034,0.169377055,8.237424
932,1747532693410,-4.350198300000001,-1.03199607,0.7728072800000001,2.0141488,0.13076121,8.612131
933,1747532693420,-4.632206500000001,-1.1283987,0.6545615300000001,1.84130965,0.081759045,9.0416985
934,1747532693430,-4.940939,-1.28727995,0.54510185,1.340369,-0.04048005,9.7295925
935,1747532693440,-5.1223955,-1.4592182500000002,0.478474245,0.8700547000000001,-0.21012342,10.3644905
936,1747532693450,-5.08529875,-1.56709155,0.486284075,0.6854976500000001,-0.2844256149999999,10.6952555
937,1747532693460,-5.1090944,-1.7217018,0.42392744,0.571248075,-0.49561429,10.96743
938,1747532693470,-5.1810913,-1.8228635,0.35119838,0.51771855,-0.69987875,11.102718
939,1747532693480,-5.04673765,-1.6562945,0.53814625,0.595216525,-0.292148786,11.161575
940,1747532693490,-4.8542985000000005,-1.6664229000000002,0.53277699,0.663926075,0.1925465539999999,11.0611735
941,1747532693500,-4.477596200000001,-1.75648,0.47334904,0.65140922,0.46845004,10.9495865
942,1747532693510,-4.10211435,-1.81432155,0.48189104,0.61945127,0.556068035,10.806575
943,1747532693520,-3.79130735,-1.82859895,0.488114505,0.612793375,0.578704935,10.606838
944,1747532693530,-3.4503593500000003,-1.83714095,0.464562985,0.6098639100000001,0.54062175,10.354903
945,1747532693540,-2.95504525,-1.83323605,0.406233295,0.613326015,0.481765865,9.9013665
946,1747532693550,-2.6394792,-1.8231077,0.36559775,0.61891866,0.45007423,9.586847
947,1747532693560,-2.4123838,-1.80577965,0.329965395,0.67670928,0.449275285,9.298427
948,1747532693570,-2.10670205,-1.7832043,0.271879775,0.79229045,0.46285741,8.8459565
949,1747532693580,-1.93671625,-1.7801536,0.217455015,0.890827375,0.51771854,8.5535415
950,1747532693590,-1.67484285,-1.7838145,0.1105579385,0.963798025,0.690824015,8.133028
951,1747532693600,-1.4133355,-1.8007765,0.011226633,0.973651715,0.8876316150000001,7.665376699999999
952,1747532693610,-1.19868715,-1.84726935,-0.0390491585,0.898284215,0.9984191,7.2789522
953,1747532693620,-0.97586295,-1.89998565,-0.087128438,0.75979985,1.0295781,6.83420425
954,1747532693630,-0.7077660699999999,-1.9231711,-0.152535785,0.43169842,0.90946955,6.15350005
955,1747532693640,-0.477375985,-1.9385467,-0.178161795,0.05486112,0.78776305,5.49010655
956,1747532693650,-0.32996539,-1.9832092,-0.1011617279999999,-0.16724652,0.79255676,4.999286
957,1747532693660,-0.151071437,-2.03958645,0.031483387,-0.124635942,0.78137148,4.874383849999999
958,1747532693670,0.166569088,-2.09230275,0.155586495,0.173904428,0.66073028,4.44268535
959,1747532693680,0.5233808,-2.12586065,0.203543745,0.56618806,0.51505538,3.8706382
960,1747532693690,0.78403393,-2.12439645,0.18987654,0.81386203,0.4641889999999999,3.25278495
961,1747532693700,0.99502138,-2.1068243,0.166447045,1.00454433,0.45034055,2.49351775
962,1747532693710,1.13205955,-2.09657375,0.1507053549999999,1.1363708,0.461525825,1.65275775
963,1747532693720,1.2748331,-2.06801905,0.14716652,1.2583436,0.529969075,0.2050634
964,1747532693730,1.3630598,-2.0400746,0.1466784,1.3278521,0.588026,-0.8085357
965,1747532693740,1.3039979000000002,-1.94635655,0.13618395,1.3161342500000002,0.5621933,-2.16621525
966,1747532693750,1.1582957500000002,-1.87533595,0.138624525,1.2032162,0.505468,-3.4141726
967,1747532693760,1.0631135,-1.8392154,0.14301755,1.2032162,0.505468,-3.4141726
968,1747532693770,0.53704795,-1.6756971,0.20622837,0.90307795,0.33529199,-4.68103825
969,1747532693780,0.37023485,-1.6122421500000002,0.2672426799999999,0.6346313,0.131826474,-5.5260593
970,1747532693790,0.2889638,-1.581979,0.2979939,0.5390238,0.035153728,-5.7923756
971,1747532693800,0.043442192,-1.4648316,0.38170554,0.259924525,-0.33316146,-6.59904685
972,1747532693810,-0.152291718,-1.41675235,0.4834774149999999,0.198671815,-0.67031766,-7.1151676
973,1747532693820,-0.31019677,-1.42651465,0.571826125,0.243679245,-1.0628676,-7.582818749999999
974,1747532693830,-0.446868855,-1.45873015,0.5893982499999999,0.32756883,-1.3414343,-7.905594
975,1747532693840,-0.6523650599999999,-1.50180625,0.58500525,0.37603836,-1.58697775,-8.282698
976,1747532693850,-0.932908825,-1.54305195,0.5665789299999999,0.34807517,-1.80908535,-8.720255
977,1747532693860,-1.4855764,-1.55000755,0.5485186799999999,0.120907522,-2.03891615,-9.3695335
978,1747532693870,-2.1226879,-1.51217865,0.57133802,-0.156327558,-2.1379857,-9.856892
979,1747532693880,-2.5946946000000004,-1.4489679,0.6572461700000001,-0.293746665,-2.0762003,-9.895241
980,1747532693890,-2.9827455,-1.38526895,0.77732232,-0.354466735,-2.0263992,-9.7652785
981,1747532693900,-3.1393082,-1.3572023,0.84102124,-0.3637878,-2.0138824,-9.667274
982,1747532693910,-3.34883165,-1.44689345,0.8634744999999999,-0.157659138,-1.8461033,-9.640377
983,1747532693920,-3.5312644,-1.6728904,0.69568517,-0.0732369305,-1.7041568,-10.0864565
984,1747532693930,-3.80973375,-1.84519485,0.48054872,-0.3009372074999999,-1.63305035,-10.6830045
985,1747532693940,-4.1396989,-1.9522139,0.31886081,-0.803742065,-1.3976269,-11.2254905
986,1747532693950,-4.62732535,-1.9856497,0.333748295,-2.088451,-1.00161488,-11.2238925
987,1747532693960,-4.91934015,-2.00371,0.518499635,-3.4149715,-0.93050853,-10.6867325
988,1747532693970,-4.9167776,-2.0203059,0.6389419,-4.0157807,-1.3140037,-10.076869
989,1747532693980,-4.7223858,-2.0788796,1.0117393,-4.391819,-1.7875137,-9.5474325
990,1747532693990,-4.58498145,-2.0831505000000003,1.19771095,-4.61951915,-2.1963089,-9.181248
991,1747532694000,-4.4954126500000005,-1.89913135,1.2582371,-4.9010155,-2.21814685,-8.9000185
992,1747532694010,-4.4333,-1.62505515,1.23859045,-5.1513527,-1.78724745,-8.704276
993,1747532694020,-4.3333582,-1.3969837,1.2432276,-5.12924835,-1.01839282,-8.5708515
994,1747532694030,-4.2291457,-1.15853975,1.2908187999999998,-4.8243165,-0.199470765,-8.386028
995,1747532694040,-4.149339149999999,-0.8837312799999999,1.33840995,-4.25067155,0.384560455,-8.0917485
996,1747532694050,-3.9040618,-0.3991556349999999,1.3202277,-2.937733,0.9470201,-7.29146875
997,1747532694060,-3.3330898,0.17547716,1.091668,-1.4546186,1.392567,-6.34604675
998,1747532694070,-3.2023972,0.23246453,1.01222738,-0.454068994,1.58085245,-5.7148775
999,1747532694080,-2.95431305,0.330209465,0.825889705,0.4138552359999999,1.66847045,-5.17185885
1000,1747532694090,-2.62983895,0.493849845,0.47347106,1.18990038,1.7984327,-4.49328535
1001,1747532694100,-2.4227564,0.61673266,0.22794947,1.5787219,1.9020296,-4.060788
