id,timestamp,acc_x,acc_y,acc_z,gyro_x,gyro_y,gyro_z
0,1747579747.6158984,-0.14936304,0.23136626,0.9989263,0.02130529,0.257794,-0.06498113
1,1747579747.6209836,-0.07272906,0.18816814,1.0811737,1.0471549,-0.5294364,-0.87777793
2,1747579747.6259825,-0.07272906,0.18816814,1.0811737,1.0471549,-0.5294364,-0.87777793
3,1747579747.6310065,-0.13740423,0.20598431,0.9584128,0.0063915867,-0.1304949,-0.340352
4,1747579747.6359644,-0.0959145,0.17913802,0.9498709,-0.013848438,-0.14913702,-0.2977414
5,1747579747.64097,-0.0959145,0.17913802,0.9498709,-0.013848438,-0.14913702,-0.2977414
6,1747579747.6459718,0.16571487,0.27334413,0.9303462,-0.046871636,-0.0793622,-0.3653857
7,1747579747.6509626,0.16571487,0.27334413,0.9303462,-0.046871636,-0.0793622,-0.3653857
8,1747579747.655966,0.13227904,0.2638259,0.9135063,-0.096939065,0.0015978967,-0.6013418
9,1747579747.6609697,0.13227904,0.2638259,0.9135063,-0.096939065,0.0015978967,-0.6013418
10,1747579747.6659744,-0.028066583,0.13276714,0.7839119,-0.43569317,-0.2711098,-0.53955644
11,1747579747.6709588,-0.028066583,0.13276714,0.7839119,-0.43569317,-0.2711098,-0.53955644
12,1747579747.6759646,-0.028066583,0.13276714,0.7839119,-0.43569317,-0.2711098,-0.53955644
13,1747579747.6809804,0.011714748,0.1403329,0.84907514,-0.4708469,-0.2034655,-0.48682585
14,1747579747.6859715,0.05344854,0.15668476,0.9830626,-0.37603834,-0.14008227,-0.51665324
15,1747579747.6909885,0.05344854,0.15668476,0.9830626,-0.37603834,-0.14008227,-0.51665324
16,1747579747.695968,-0.07858644,0.17620933,0.99038434,-0.28176245,-0.1949434,-0.5656554
17,1747579747.7009616,-0.07858644,0.17620933,0.99038434,-0.28176245,-0.1949434,-0.5656554
18,1747579747.7059627,-0.12886222,0.11617125,0.9711038,-0.2609898,-0.42290998,-0.4676511
19,1747579747.710962,-0.12886222,0.11617125,0.9711038,-0.2609898,-0.42290998,-0.4676511
20,1747579747.7159586,-0.06321083,0.09689073,0.94303715,-0.17789917,-0.61891866,-0.17630127
21,1747579747.720968,-0.06321083,0.09689073,0.94303715,-0.17789917,-0.61891866,-0.17630127
22,1747579747.725989,-0.06321083,0.09689073,0.94303715,-0.17789917,-0.61891866,-0.17630127
23,1747579747.7309837,0.045394648,0.09493827,0.9664667,-0.07829694,-0.47670585,-0.18322548
24,1747579747.7359595,0.09469421,0.12202863,1.0174747,-0.019707393,-0.37390783,-0.2050634
25,1747579747.7409697,0.09469421,0.12202863,1.0174747,-0.019707393,-0.37390783,-0.2050634
26,1747579747.7459657,0.18816814,0.21940747,1.108508,-0.041545313,-0.13102753,-0.1933455
27,1747579747.7509677,0.18816814,0.21940747,1.108508,-0.041545313,-0.13102753,-0.1933455
28,1747579747.7559721,0.031483386,0.1803583,1.3633038,-0.20399815,0.958738,-0.12037488
29,1747579747.7609673,0.031483386,0.1803583,1.3633038,-0.20399815,0.958738,-0.12037488
30,1747579747.765968,0.06687169,0.16400647,1.1629328,-0.34993938,1.5425029,-0.022370555
31,1747579747.7709658,0.06687169,0.16400647,1.1629328,-0.34993938,1.5425029,-0.022370555
32,1747579747.7759721,0.06687169,0.16400647,1.1629328,-0.34993938,1.5425029,-0.022370555
33,1747579747.780988,0.0026846298,0.15253578,1.240787,-0.30999196,1.6740631,-0.051132694
34,1747579747.785964,0.0026846298,0.15253578,1.240787,-0.30999196,1.6740631,-0.051132694
35,1747579747.7909622,0.0053692595,0.16595893,1.3901501,-0.2615224,1.6548884,-0.111852765
36,1747579747.7959585,-0.020988923,0.12837411,1.3860011,-0.16937704,1.6410398,-0.11132014
37,1747579747.8009706,-0.020988923,0.12837411,1.3860011,-0.16937704,1.6410398,-0.11132014
38,1747579747.8059669,-0.05735345,0.1181237,1.4043053,0.033023197,1.6160061,0.02876214
39,1747579747.8109653,-0.05735345,0.1181237,1.4043053,0.033023197,1.6160061,0.02876214
40,1747579747.8159695,-0.12715383,0.12495731,1.398692,0.080960095,1.5883093,0.11345066
41,1747579747.820968,-0.12715383,0.12495731,1.398692,0.080960095,1.5883093,0.11345066
42,1747579747.8259752,-0.12715383,0.12495731,1.398692,0.080960095,1.5883093,0.11345066
43,1747579747.8309846,-0.18694785,0.16010156,1.4230978,0.13102753,1.5883093,0.17097494
44,1747579747.835961,-0.20012695,0.24942651,1.4887493,0.19920446,1.5994946,0.20133498
45,1747579747.8409617,-0.20012695,0.24942651,1.4887493,0.19920446,1.5994946,0.20133498
46,1747579747.84597,-0.20671648,0.28920785,1.5087619,0.3009372,1.6186694,0.2034655
47,1747579747.850971,-0.20671648,0.28920785,1.5087619,0.3009372,1.6186694,0.2034655
48,1747579747.8559673,-0.21501444,0.31727442,1.5221851,0.6540724,1.7550232,0.20559604
49,1747579747.8609664,-0.21501444,0.31727442,1.5221851,0.6540724,1.7550232,0.20559604
50,1747579747.8659592,-0.20061506,0.34045988,1.5109584,0.8064052,1.8125474,0.19068234
51,1747579747.8709595,-0.20061506,0.34045988,1.5109584,0.8064052,1.8125474,0.19068234
52,1747579747.875967,-0.20061506,0.34045988,1.5109584,0.8064052,1.8125474,0.19068234
53,1747579747.880998,-0.16180995,0.3533949,1.4831358,0.91452956,1.8796592,0.13848437
54,1747579747.8859723,-0.06613952,0.33265,1.424074,0.9896307,1.9744676,0.032490566
55,1747579747.8909678,-0.06613952,0.33265,1.424074,0.9896307,1.9744676,0.032490566
56,1747579747.8959603,-0.039537273,0.32166746,1.411139,1.0279802,2.0634172,-0.09960223
57,1747579747.900963,-0.039537273,0.32166746,1.411139,1.0279802,2.0634172,-0.09960223
58,1747579747.90597,-0.059305906,0.3077562,1.4335922,1.0934939,2.2066953,-0.24607609
59,1747579747.910965,-0.059305906,0.3077562,1.4335922,1.0934939,2.2066953,-0.24607609
60,1747579747.9159698,-0.10030753,0.27773714,1.4743499,1.0934939,2.2066953,-0.24607609
61,1747579747.9209752,-0.10030753,0.27773714,1.4743499,1.1883025,2.31695,-0.2647182
62,1747579747.9259603,-0.10030753,0.27773714,1.4743499,1.1883025,2.31695,-0.2647182
63,1747579747.9309871,-0.13057062,0.22819352,1.518036,1.3337111,2.4868598,-0.26844665
64,1747579747.9359648,-0.15936938,0.18231077,1.534876,1.504686,2.7180223,-0.23382555
65,1747579747.940964,-0.15936938,0.18231077,1.534876,1.504686,2.7180223,-0.23382555
66,1747579747.94597,-0.16547081,0.10640897,1.4526287,1.7193369,3.042928,-0.15499598
67,1747579747.9509606,-0.16547081,0.10640897,1.4526287,1.7193369,3.042928,-0.15499598
68,1747579747.9559598,-0.14643435,0.09005712,1.3798997,1.9584887,3.415238,-0.0777643
69,1747579747.9609642,-0.14643435,0.09005712,1.3798997,1.9584887,3.415238,-0.0777643
70,1747579747.9659605,-0.14643435,0.09005712,1.3798997,1.9584887,3.415238,-0.0777643
71,1747579747.9709632,-0.15790504,0.10933765,1.30473,2.0330572,3.5079157,-0.043675844
72,1747579747.9759665,-0.15790504,0.10933765,1.30473,2.0330572,3.5079157,-0.043675844
73,1747579747.9809892,-0.16180995,0.17157225,1.1560992,2.0948424,3.530819,-0.02609898
74,1747579747.9859676,-0.1483868,0.14057697,1.1094842,2.1475732,3.5537221,-0.012250541
75,1747579747.9909663,-0.1483868,0.14057697,1.1094842,2.1475732,3.5537221,-0.012250541
76,1747579747.99596,-0.12349297,0.119588055,1.0340706,2.2162826,3.5473306,0.006924219
77,1747579748.0009608,-0.12349297,0.119588055,1.0340706,2.2162826,3.5473306,0.006924219
78,1747579748.0059726,-0.1010397,0.14497001,0.9554841,2.2407837,3.5505264,0.0053263223
79,1747579748.0109723,-0.1010397,0.14497001,0.9554841,2.2407837,3.5505264,0.0053263223
80,1747579748.015965,-0.23380683,0.19719826,0.8195442,2.2423816,3.5153728,0.036751624
81,1747579748.0209599,-0.23380683,0.19719826,0.8195442,2.2423816,3.5153728,0.036751624
82,1747579748.0259604,-0.23380683,0.19719826,0.8195442,2.2423816,3.5153728,0.036751624
83,1747579748.0309782,-0.28164205,0.16595893,0.75657743,2.193912,3.445598,0.08468852
84,1747579748.03597,-0.27871338,0.1461903,0.7285109,2.1299963,3.310842,0.13422333
85,1747579748.0409884,-0.27871338,0.1461903,0.7285109,2.1299963,3.310842,0.13422333
86,1747579748.0459704,-0.24405725,0.15229172,0.71948075,2.1076257,3.1116376,0.15978967
87,1747579748.0509613,-0.24405725,0.15229172,0.71948075,2.1076257,3.1116376,0.15978967
88,1747579748.0559597,-0.21574661,0.1615659,0.70190865,2.1342573,3.128149,0.12836437
89,1747579748.0609615,-0.21574661,0.1615659,0.70190865,2.1342573,3.128149,0.12836437
90,1747579748.065963,-0.2774931,0.19451363,0.5776835,2.1342573,3.128149,0.12836437
91,1747579748.07097,-0.2774931,0.19451363,0.5776835,2.1198764,3.170227,0.12783173
92,1747579748.075959,-0.2774931,0.19451363,0.5776835,2.1198764,3.170227,0.12783173
93,1747579748.0809853,-0.32532832,0.21281794,0.5332651,2.052232,3.204848,0.15606125
94,1747579748.085958,-0.39073566,0.21184167,0.5266756,1.9750003,3.2202945,0.19441076
95,1747579748.0909605,-0.39073566,0.21184167,0.5266756,1.9750003,3.2202945,0.19441076
96,1747579748.0959666,-0.42246306,0.20574026,0.5332651,1.929194,3.08181,0.32117724
97,1747579748.100973,-0.42246306,0.20574026,0.5332651,1.929194,3.08181,0.32117724
98,1747579748.1059616,-0.4566311,0.21721096,0.56596875,1.9941751,3.0423954,0.38242993
99,1747579748.1109676,-0.4566311,0.21721096,0.56596875,1.9941751,3.0423954,0.38242993
100,1747579748.1159594,-0.41587353,0.26968327,0.5130083,2.0777984,3.0546458,0.45060685
101,1747579748.1209621,-0.41587353,0.26968327,0.5130083,2.0777984,3.0546458,0.45060685
102,1747579748.1259606,-0.41587353,0.26968327,0.5130083,2.0777984,3.0546458,0.45060685
103,1747579748.1309679,-0.40293851,0.30409533,0.45004156,2.1321268,3.08181,0.49428272
104,1747579748.1359677,-0.41684976,0.34778157,0.38512233,2.1395836,3.097789,0.5028048
105,1747579748.1409702,-0.41684976,0.34778157,0.38512233,2.1395836,3.097789,0.5028048
106,1747579748.1459727,-0.4339338,0.37023485,0.34802565,2.0138824,3.0882018,0.4809669
107,1747579748.150968,-0.4339338,0.37023485,0.34802565,2.0138824,3.0882018,0.4809669
108,1747579748.155959,-0.5186216,0.38902727,0.34070393,1.9371834,3.0850058,0.46924898
109,1747579748.1609607,-0.5186216,0.38902727,0.34070393,1.9371834,3.0850058,0.46924898
110,1747579748.1659684,-0.5186216,0.38902727,0.34070393,1.9371834,3.0850058,0.46924898
111,1747579748.170971,-0.536926,0.39244407,0.3321619,1.8983012,3.0967238,0.48043427
112,1747579748.1759605,-0.536926,0.39244407,0.3321619,1.8983012,3.0967238,0.48043427
113,1747579748.1809607,-0.5332651,0.39976576,0.28627914,1.8844528,3.1366713,0.53103435
114,1747579748.1859744,-0.541319,0.40684342,0.24332508,1.8455707,3.246926,0.5992113
115,1747579748.1909678,-0.541319,0.40684342,0.24332508,1.8455707,3.246926,0.5992113
116,1747579748.1959653,-0.5535218,0.41807005,0.21257387,1.8551581,3.2394693,0.64182186
117,1747579748.2009704,-0.5535218,0.41807005,0.21257387,1.8551581,3.2394693,0.64182186
118,1747579748.205969,-0.5859815,0.42661208,0.18597162,1.8876486,3.1547806,0.6823019
119,1747579748.2109642,-0.5859815,0.42661208,0.18597162,1.8876486,3.1547806,0.6823019
120,1747579748.21597,-0.6057501,0.42026657,0.14911897,1.963815,3.069027,0.7387609
121,1747579748.2209766,-0.6057501,0.42026657,0.14911897,1.963815,3.069027,0.7387609
122,1747579748.225978,-0.6057501,0.42026657,0.14911897,1.963815,3.069027,0.7387609
123,1747579748.2309911,-0.5701177,0.41026023,0.073949344,2.0485036,3.0157638,0.7909589
124,1747579748.2359648,-0.54839665,0.42441553,-0.042465962,2.0879183,3.0487869,0.8335694
125,1747579748.2409732,-0.54839665,0.42441553,-0.042465962,2.0879183,3.0487869,0.8335694
126,1747579748.2459686,-0.5195979,0.42636803,-0.13447554,1.9483687,3.1329427,0.922519
127,1747579748.2509668,-0.5195979,0.42636803,-0.13447554,1.9483687,3.1329427,0.922519
128,1747579748.255977,-0.49958518,0.46273252,-0.27846932,1.8338528,3.0626354,0.92997587
129,1747579748.2609808,-0.49958518,0.46273252,-0.27846932,1.8338528,3.0626354,0.92997587
130,1747579748.2659607,-0.4737151,0.49519217,-0.3572998,1.7257284,2.9609025,0.92305166
131,1747579748.2709572,-0.4737151,0.49519217,-0.3572998,1.7257284,2.9609025,0.92305166
132,1747579748.2759612,-0.4737151,0.49519217,-0.3572998,1.7257284,2.9609025,0.92305166
133,1747579748.2809763,-0.4407674,0.5112999,-0.40147418,1.6144083,2.7595675,0.8580705
134,1747579748.285973,-0.45785138,0.5315567,-0.44784504,1.4402375,2.3004386,0.6775082
135,1747579748.2909718,-0.45785138,0.5315567,-0.44784504,1.4402375,2.3004386,0.6775082
136,1747579748.2959657,-0.43588626,0.53717,-0.5171573,1.3262542,2.1534321,0.6130597
137,1747579748.3009572,-0.43588626,0.53717,-0.5171573,1.3262542,2.1534321,0.6130597
138,1747579748.3059735,-0.42197496,0.5266756,-0.5508372,1.2117383,2.0644825,0.5571333
139,1747579748.310967,-0.42197496,0.5266756,-0.5508372,1.2117383,2.0644825,0.5571333
140,1747579748.3159666,-0.4368625,0.5339973,-0.57988006,1.1132014,2.0266657,0.5225122
141,1747579748.3209748,-0.4368625,0.5339973,-0.57988006,1.1132014,2.0266657,0.5225122
142,1747579748.3259652,-0.4368625,0.5339973,-0.57988006,1.1132014,2.0266657,0.5225122
143,1747579748.3309817,-0.42807645,0.53033644,-0.6343048,0.8069378,2.000034,0.4383563
144,1747579748.3359606,-0.44735694,0.52496713,-0.70166457,0.65247446,1.937716,0.41172472
145,1747579748.340963,-0.44735694,0.52496713,-0.70166457,0.65247446,1.937716,0.41172472
146,1747579748.3459694,-0.46078008,0.52423495,-0.7987994,0.5118596,1.8018948,0.386691
147,1747579748.3509593,-0.46078008,0.52423495,-0.7987994,0.5118596,1.8018948,0.386691
148,1747579748.3559687,-0.46639338,0.53131264,-0.81832397,0.40266997,1.5973641,0.360592
149,1747579748.3609793,-0.46639338,0.53131264,-0.81832397,0.40266997,1.5973641,0.360592
150,1747579748.3659601,-0.44955346,0.53033644,-0.8361401,0.32650355,1.3672669,0.33182988
151,1747579748.3709612,-0.44955346,0.53033644,-0.8361401,0.32650355,1.3672669,0.33182988
152,1747579748.3759646,-0.44955346,0.53033644,-0.8361401,0.32650355,1.3672669,0.33182988
153,1747579748.380992,-0.4144092,0.5344854,-0.822717,0.25566345,0.87351686,0.23861924
154,1747579748.38597,-0.39317623,0.55815893,-0.8190561,0.27004454,0.6130597,0.1784318
155,1747579748.3909707,-0.39317623,0.55815893,-0.8190561,0.27004454,0.6130597,0.1784318
156,1747579748.3959756,-0.39586085,0.5891542,-0.8839754,0.28655612,0.3222425,0.12942964
157,1747579748.4009688,-0.39586085,0.5891542,-0.8839754,0.28655612,0.3222425,0.12942964
158,1747579748.4059753,-0.37804466,0.614048,-0.93620354,0.27643612,0.010120012,0.091080114
159,1747579748.4109712,-0.37804466,0.614048,-0.93620354,0.27643612,0.010120012,0.091080114
160,1747579748.41596,-0.3414361,0.64260274,-0.94913864,0.14487597,-0.62051654,-0.04527374
161,1747579748.4209626,-0.3414361,0.64260274,-0.94913864,0.14487597,-0.62051654,-0.04527374
162,1747579748.4259694,-0.3414361,0.64260274,-0.94913864,0.14487597,-0.62051654,-0.04527374
163,1747579748.4309676,-0.32166746,0.65846646,-0.93937635,0.041012682,-0.8202536,-0.12836437
164,1747579748.4359667,-0.30848834,0.6638357,-0.9269294,-0.10333065,-0.96566224,-0.21571605
165,1747579748.4409785,-0.30848834,0.6638357,-0.9269294,-0.10333065,-0.96566224,-0.21571605
166,1747579748.4459624,-0.30433938,0.6723777,-0.88788027,-0.26045716,-1.1249193,-0.29933932
167,1747579748.4509718,-0.30433938,0.6723777,-0.88788027,-0.26045716,-1.1249193,-0.29933932
168,1747579748.4559724,-0.3328941,0.6233222,-0.8427297,-0.4245079,-1.1536814,-0.4101268
169,1747579748.4609618,-0.3328941,0.6233222,-0.8427297,-0.4245079,-1.1536814,-0.4101268
170,1747579748.465964,-0.3687705,0.61819696,-0.7695125,-0.76752305,-1.3342438,-0.5970807
171,1747579748.47097,-0.3687705,0.61819696,-0.7695125,-0.76752305,-1.3342438,-0.5970807
172,1747579748.4759672,-0.3687705,0.61819696,-0.7695125,-0.76752305,-1.3342438,-0.5970807
173,1747579748.4809935,-0.40440285,0.6033095,-0.70093244,-0.9171927,-1.4626081,-0.69348717
174,1747579748.4859633,-0.4334457,0.5850052,-0.62503064,-1.073254,-1.6010925,-0.7803062
175,1747579748.4910123,-0.4334457,0.5850052,-0.62503064,-1.073254,-1.6010925,-0.7803062
176,1747579748.4959667,-0.47493544,0.528628,-0.45467865,-1.1494204,-1.6687368,-0.8090684
177,1747579748.5009642,-0.47493544,0.528628,-0.45467865,-1.1494204,-1.6687368,-0.8090684
178,1747579748.5059638,-0.5217944,0.50446635,-0.3607166,-1.1733888,-1.6974989,-0.8213189
179,1747579748.51097,-0.5217944,0.50446635,-0.3607166,-1.1733888,-1.6974989,-0.8213189
180,1747579748.5159602,-0.5954997,0.485918,-0.2889638,-1.0887003,-1.7417074,-0.70467246
181,1747579748.5209875,-0.5954997,0.485918,-0.2889638,-1.0887003,-1.7417074,-0.70467246
182,1747579748.5259712,-0.5954997,0.485918,-0.2889638,-1.0887003,-1.7417074,-0.70467246
183,1747579748.530985,-0.66237134,0.47005424,-0.25040275,-1.0178602,-1.7608821,-0.5784386
184,1747579748.5359647,-0.6726217,0.44418418,-0.191829,-0.9331717,-1.7539579,-0.4346279
185,1747579748.5409677,-0.6726217,0.44418418,-0.191829,-0.9331717,-1.7539579,-0.4346279
186,1747579748.5459733,-0.64357895,0.45760733,-0.19475769,-0.84368944,-1.7374463,-0.3089267
187,1747579748.5509608,-0.64357895,0.45760733,-0.19475769,-0.84368944,-1.7374463,-0.3089267
188,1747579748.5559678,-0.6028214,0.47932845,-0.20647243,-0.7536746,-1.7374463,-0.21837921
189,1747579748.5609787,-0.6028214,0.47932845,-0.20647243,-0.7536746,-1.7374463,-0.21837921
190,1747579748.5659757,-0.6028214,0.47932845,-0.20647243,-0.7536746,-1.7374463,-0.21837921
191,1747579748.5709689,-0.6028214,0.47932845,-0.20647243,-0.7536746,-1.7374463,-0.21837921
192,1747579748.5759792,-0.6028214,0.47932845,-0.20647243,-0.7536746,-1.7374463,-0.21837921
193,1747579748.580978,-0.57329047,0.5015376,-0.23917611,-0.6450176,-1.9180087,-0.18429075
194,1747579748.585981,-0.5693855,0.55401,-0.28042176,-0.78936094,-2.2264028,-0.26738137
195,1747579748.5909598,-0.5693855,0.55401,-0.28042176,-0.78936094,-2.2264028,-0.26738137
196,1747579748.5959659,-0.5503491,0.5508372,-0.25162303,-0.9779128,-2.356365,-0.3291667
197,1747579748.600968,-0.5503491,0.5508372,-0.25162303,-0.9779128,-2.356365,-0.3291667
198,1747579748.6059635,-0.5503491,0.5508372,-0.25162303,-0.9779128,-2.356365,-0.3291667
199,1747579748.6109674,-0.5086153,0.5559624,-0.208913,-1.417867,-2.3483756,-0.47510794
200,1747579748.6159694,-0.49763274,0.54961693,-0.13618395,-1.6245283,-2.262089,-0.551807
201,1747579748.6209586,-0.49763274,0.54961693,-0.13618395,-1.6245283,-2.262089,-0.551807
202,1747579748.6259646,-0.49763274,0.54961693,-0.13618395,-1.6245283,-2.262089,-0.551807
203,1747579748.630968,-0.51569295,0.5379022,-0.07736614,-1.8109496,-2.1630194,-0.6109292
204,1747579748.635975,-0.51569295,0.5379022,-0.07736614,-1.963815,-2.086853,-0.67005134
205,1747579748.6409647,-0.51569295,0.5379022,-0.07736614,-1.963815,-2.086853,-0.67005134
206,1747579748.6459596,-0.51569295,0.5379022,-0.07736614,-1.963815,-2.086853,-0.67005134
207,1747579748.6509616,-0.51569295,0.5379022,-0.07736614,-1.963815,-2.086853,-0.67005134
208,1747579748.6559598,-0.5935472,0.45297024,0.2277054,-2.0181434,-2.0463731,-0.6716492
209,1747579748.6609669,-0.5935472,0.45297024,0.2277054,-2.0181434,-2.0463731,-0.6716492
210,1747579748.665977,-0.5935472,0.45297024,0.2277054,-2.0181434,-2.0463731,-0.6716492
211,1747579748.670961,-0.63064396,0.4515059,0.28408262,-1.9568908,-2.1273332,-0.6801714
212,1747579748.6759596,-0.63064396,0.4515059,0.28408262,-1.9568908,-2.1273332,-0.6801714
213,1747579748.6809666,-0.63064396,0.4515059,0.28408262,-1.9568908,-2.1273332,-0.6801714
214,1747579748.685971,-0.63064396,0.4515059,0.28408262,-1.9568908,-2.1273332,-0.6801714
215,1747579748.6909895,-0.63064396,0.4515059,0.28408262,-1.9568908,-2.1273332,-0.6801714
216,1747579748.6959922,-0.6123396,0.43173727,0.33265,-1.8157432,-2.279666,-0.67324716
217,1747579748.7009666,-0.6145361,0.43808278,0.40440285,-1.6852484,-2.449043,-0.69348717
218,1747579748.70598,-0.6145361,0.43808278,0.40440285,-1.6852484,-2.449043,-0.69348717
219,1747579748.7109683,-0.6145361,0.43808278,0.40440285,-1.6852484,-2.449043,-0.69348717
220,1747579748.7159693,-0.6145361,0.43808278,0.40440285,-1.6852484,-2.449043,-0.69348717
221,1747579748.7209587,-0.70166457,0.42514774,0.49616838,-1.5345135,-2.492719,-0.58483016
222,1747579748.725962,-0.70166457,0.42514774,0.49616838,-1.5345135,-2.492719,-0.58483016
223,1747579748.7309616,-0.677747,0.4127008,0.58183247,-1.5345135,-2.492719,-0.58483016
224,1747579748.7359707,-0.677747,0.4127008,0.58183247,-1.5345135,-2.492719,-0.58483016
225,1747579748.7409892,-0.64357895,0.41733786,0.6291796,-1.4466292,-2.4644892,-0.45859635
226,1747579748.745969,-0.5989165,0.42661208,0.68140787,-1.3401027,-2.3355923,-0.4181163
227,1747579748.750966,-0.5989165,0.42661208,0.68140787,-1.3401027,-2.3355923,-0.4181163
228,1747579748.7559674,-0.5989165,0.42661208,0.68140787,-1.3401027,-2.3355923,-0.4181163
229,1747579748.7609956,-0.5781716,0.43100512,0.69458693,-1.3310479,-2.245045,-0.42557314
230,1747579748.7659614,-0.5781716,0.43100512,0.69458693,-1.3310479,-2.245045,-0.42557314
231,1747579748.7709684,-0.6228341,0.4271002,0.70923036,-1.3358417,-2.171009,-0.4213121
232,1747579748.7759695,-0.6228341,0.4271002,0.70923036,-1.3358417,-2.171009,-0.4213121
233,1747579748.7809725,-0.7297312,0.41074833,0.8236932,-1.2942963,-2.0687435,-0.37550572
234,1747579748.7859974,-0.7577977,0.3904916,0.8717725,-1.1781825,-1.9339876,-0.28176245
235,1747579748.7909782,-0.7577977,0.3904916,0.8717725,-1.1781825,-1.9339876,-0.28176245
236,1747579748.7959697,-0.77781045,0.37804466,0.89056486,-0.7121293,-1.6458336,-0.0037284256
237,1747579748.800969,-0.77781045,0.37804466,0.89056486,-0.7121293,-1.6458336,-0.0037284256
238,1747579748.8059695,-0.7700006,0.38756293,0.86469483,-0.3797668,-1.5494272,0.18162759
239,1747579748.8109689,-0.7700006,0.38756293,0.86469483,-0.3797668,-1.5494272,0.18162759
240,1747579748.8159707,-0.6045298,0.4595598,0.6806757,-0.2130529,-1.6282567,0.2263687
241,1747579748.8209696,-0.6045298,0.4595598,0.6806757,-0.2130529,-1.6282567,0.2263687
242,1747579748.825969,-0.6033095,0.503002,0.5876899,-0.19281286,-1.8056233,0.15978967
243,1747579748.8309667,-0.6033095,0.503002,0.5876899,-0.19281286,-1.8056233,0.15978967
244,1747579748.8359575,-0.6033095,0.503002,0.5876899,-0.19281286,-1.8056233,0.15978967
245,1747579748.8409872,-0.60013676,0.524479,0.5213063,-0.31851408,-2.018676,0.06018744
246,1747579748.8459668,-0.57377857,0.5210622,0.47713193,-0.87032104,-2.2370553,-0.07456851
247,1747579748.8509595,-0.57377857,0.5210622,0.47713193,-0.87032104,-2.2370553,-0.07456851
248,1747579748.8559642,-0.528384,0.50885934,0.49738866,-1.1659319,-2.1965754,-0.14274544
249,1747579748.8609667,-0.528384,0.50885934,0.49738866,-1.1659319,-2.1965754,-0.14274544
250,1747579748.8659666,-0.5017817,0.47884035,0.601113,-1.3997575,-2.0815268,-0.20985709
251,1747579748.8709648,-0.5017817,0.47884035,0.601113,-1.3997575,-2.0815268,-0.20985709
252,1747579748.8759725,-0.50763905,0.45467865,0.66749656,-1.5590146,-1.9169434,-0.25033715
253,1747579748.8809874,-0.50763905,0.45467865,0.66749656,-1.5590146,-1.9169434,-0.25033715
254,1747579748.8859673,-0.5447358,0.43539813,0.7648754,-1.6202673,-1.6937705,-0.26365295
255,1747579748.8909705,-0.5447358,0.43539813,0.7648754,-1.6202673,-1.6937705,-0.26365295
256,1747579748.895964,-0.5193538,0.43173727,0.84053314,-1.3262542,-1.4439659,-0.21252026
257,1747579748.9009607,-0.5193538,0.43173727,0.84053314,-1.3262542,-1.4439659,-0.21252026
258,1747579748.905969,-0.49055508,0.43100512,0.8771418,-1.0753845,-1.4333134,-0.20772657
259,1747579748.9109707,-0.49055508,0.43100512,0.8771418,-1.0753845,-1.4333134,-0.20772657
260,1747579748.915957,-0.49055508,0.43100512,0.8771418,-1.0753845,-1.4333134,-0.20772657
261,1747579748.9209697,-0.50031734,0.4283205,0.8742131,-0.8346347,-1.5227956,-0.22743396
262,1747579748.9259667,-0.47835222,0.4183141,0.80563295,-0.67484504,-1.6724652,-0.24873926
263,1747579748.9309597,-0.47835222,0.4183141,0.80563295,-0.67484504,-1.6724652,-0.24873926
264,1747579748.9359639,-0.46078008,0.41245672,0.75438094,-0.60507023,-1.834918,-0.2647182
265,1747579748.9409633,-0.46078008,0.41245672,0.75438094,-0.60507023,-1.834918,-0.2647182
266,1747579748.9459572,-0.4253918,0.41026023,0.6962953,-0.6689861,-2.0208068,-0.32437304
267,1747579748.9509604,-0.4253918,0.41026023,0.6962953,-0.6689861,-2.0208068,-0.32437304
268,1747579748.9559681,-0.4131889,0.38170552,0.6936107,-0.76965356,-2.0474384,-0.38296258
269,1747579748.960968,-0.4131889,0.38170552,0.6936107,-0.76965356,-2.0474384,-0.38296258
270,1747579748.9659727,-0.44613665,0.35315084,0.75169635,-0.76965356,-2.0474384,-0.38296258
271,1747579748.9710026,-0.44613665,0.35315084,0.75169635,-0.87777793,-2.0053604,-0.43782368
272,1747579748.9759705,-0.4720067,0.319715,0.810026,-0.9166601,-1.8913771,-0.42290998
273,1747579748.9809685,-0.4720067,0.319715,0.810026,-0.9166601,-1.8913771,-0.42290998
274,1747579748.985966,-0.47078642,0.29262465,0.8515157,-0.8948221,-1.7246631,-0.35153726
275,1747579748.9909697,-0.47078642,0.29262465,0.8515157,-0.8948221,-1.7246631,-0.35153726
276,1747579748.9959617,-0.46248847,0.2762728,0.8754333,-0.68656296,-1.4615428,-0.17417073
277,1747579749.0009725,-0.46248847,0.2762728,0.8754333,-0.68656296,-1.4615428,-0.17417073
278,1747579749.0059736,-0.3682824,0.2923806,0.8581053,-0.55287224,-1.4588797,-0.14434333
279,1747579749.010971,-0.3682824,0.2923806,0.8581053,-0.55287224,-1.4588797,-0.14434333
280,1747579749.0159614,-0.31776255,0.30214286,0.8251576,-0.55287224,-1.4588797,-0.14434333
281,1747579749.020979,-0.31776255,0.30214286,0.8251576,-0.45220476,-1.5819178,-0.17044231
282,1747579749.026006,-0.31776255,0.30214286,0.8251576,-0.45220476,-1.5819178,-0.17044231
283,1747579749.0309844,-0.27651685,0.3077562,0.76511943,-0.41918156,-1.8200043,-0.25193503
284,1747579749.035971,-0.2591888,0.29823795,0.6999562,-0.7728494,-2.6296053,-0.54168695
285,1747579749.040981,-0.2591888,0.29823795,0.6999562,-0.7728494,-2.6296053,-0.54168695
286,1747579749.0459745,-0.30555966,0.27529657,0.7004443,-1.0801781,-3.0115025,-0.66525763
287,1747579749.0509698,-0.30555966,0.27529657,0.7004443,-1.0801781,-3.0115025,-0.66525763
288,1747579749.0559766,-0.43637437,0.17913802,1.0038075,-1.33957,-3.2155008,-0.7142598
289,1747579749.0609803,-0.43637437,0.17913802,1.0038075,-1.33957,-3.2155008,-0.7142598
290,1747579749.0659676,-0.42587993,0.12154051,1.2146729,-1.4583471,-3.2197618,-0.6348976
291,1747579749.070961,-0.42587993,0.12154051,1.2146729,-1.4583471,-3.2197618,-0.6348976
292,1747579749.0759573,-0.40781966,0.09615856,1.3935668,-1.4583471,-3.2197618,-0.6348976
293,1747579749.0809999,-0.40781966,0.09615856,1.3935668,-1.1414309,-2.560363,-0.27057716
294,1747579749.0859663,-0.379509,0.10079564,1.5314592,-0.7584683,-2.0154803,-0.09161274
295,1747579749.0909593,-0.379509,0.10079564,1.5314592,-0.7584683,-2.0154803,-0.09161274
296,1747579749.0959606,-0.34338856,0.17303659,1.5155954,-0.33768883,-1.5361114,0.04314321
297,1747579749.1009617,-0.34338856,0.17303659,1.5155954,-0.33768883,-1.5361114,0.04314321
298,1747579749.1059625,-0.3380193,0.20671648,1.3938109,0.018642128,-1.2138689,0.12996227
299,1747579749.110975,-0.3380193,0.20671648,1.3938109,0.018642128,-1.2138689,0.12996227
300,1747579749.115963,-0.32044718,0.2421048,1.2442038,0.43569317,-0.9060074,0.17789917
301,1747579749.1209724,-0.32044718,0.2421048,1.2442038,0.43569317,-0.9060074,0.17789917
302,1747579749.1259634,-0.27187976,0.2767609,1.0516427,0.4165184,-0.89535475,0.16405073
303,1747579749.130967,-0.27187976,0.2767609,1.0516427,0.4165184,-0.89535475,0.16405073
304,1747579749.135962,-0.22404456,0.3048275,0.9088692,0.2790993,-0.96566224,0.11824436
305,1747579749.1409605,-0.22404456,0.3048275,0.9088692,0.2790993,-0.96566224,0.11824436
306,1747579749.1459665,-0.19597797,0.33240595,0.70971847,0.04314321,-1.1025487,0.049002163
307,1747579749.1509671,-0.19597797,0.33240595,0.70971847,0.04314321,-1.1025487,0.049002163
308,1747579749.1559613,-0.17620933,0.33265,0.6855568,-0.26738137,-1.2985574,-0.041545313
309,1747579749.1609852,-0.17620933,0.33265,0.6855568,-0.26738137,-1.2985574,-0.041545313
310,1747579749.1659615,-0.13691612,0.3192269,0.72875494,-0.84581995,-1.6223978,-0.22743396
311,1747579749.1709664,-0.13691612,0.3192269,0.72875494,-0.84581995,-1.6223978,-0.22743396
312,1747579749.1759648,-0.13691612,0.3192269,0.72875494,-0.84581995,-1.6223978,-0.22743396
313,1747579749.180993,-0.13252309,0.29897013,0.8439499,-0.9997507,-1.6612799,-0.27803403
314,1747579749.1859658,-0.19915071,0.27383223,1.0196712,-0.9933591,-1.5542208,-0.2396845
315,1747579749.1909668,-0.19915071,0.27383223,1.0196712,-0.9933591,-1.5542208,-0.2396845
316,1747579749.1959665,-0.23844394,0.25430766,1.3359693,-0.76113147,-1.2980248,-0.09960223
317,1747579749.2009737,-0.23844394,0.25430766,1.3359693,-0.76113147,-1.2980248,-0.09960223
318,1747579749.2060375,-0.19231711,0.2689511,1.3850248,-0.45859635,-1.0428939,0.0015978967
319,1747579749.21097,-0.19231711,0.2689511,1.3850248,-0.45859635,-1.0428939,0.0015978967
320,1747579749.2159748,-0.1444819,0.28749946,1.3881977,0.16298546,-0.61412495,0.046871636
321,1747579749.2209594,-0.1444819,0.28749946,1.3881977,0.16298546,-0.61412495,0.046871636
322,1747579749.2259586,-0.13691612,0.31361356,1.3213259,0.31478566,-0.42663842,0.010120012
323,1747579749.2309613,-0.13691612,0.31361356,1.3213259,0.31478566,-0.42663842,0.010120012
324,1747579749.2359579,-0.1261776,0.31483385,1.2219946,0.2972088,-0.29348037,-0.02876214
325,1747579749.2409759,-0.1261776,0.31483385,1.2219946,0.2972088,-0.29348037,-0.02876214
326,1747579749.24596,-0.1313028,0.30385128,1.0780008,0.13741912,-0.18642128,-0.053263225
327,1747579749.250966,-0.1313028,0.30385128,1.0780008,0.13741912,-0.18642128,-0.053263225
328,1747579749.2559688,-0.14692247,0.3121492,1.0865428,-0.08468852,-0.1123854,-0.0793622
329,1747579749.2609706,-0.14692247,0.3121492,1.0865428,-0.08468852,-0.1123854,-0.0793622
330,1747579749.2659748,-0.16058967,0.311173,1.1319375,-0.43409526,0.006924219,-0.099069595
331,1747579749.2709653,-0.16058967,0.311173,1.1319375,-0.43409526,0.006924219,-0.099069595
332,1747579749.2759626,-0.16058967,0.311173,1.1319375,-0.4394216,0.016511599,-0.10918961
333,1747579749.2809799,-0.14911897,0.3121492,1.2071072,-0.4394216,0.016511599,-0.10918961
334,1747579749.2859774,-0.18304294,0.3248402,1.2942356,-0.4394216,0.016511599,-0.10918961
335,1747579749.290988,-0.18304294,0.3248402,1.2942356,-0.314253,0.007989483,-0.08894958
336,1747579749.2959633,-0.27358818,0.353883,1.3840486,-0.11771172,0.019707393,-0.041012682
337,1747579749.3009584,-0.27358818,0.353883,1.3840486,-0.11771172,0.019707393,-0.041012682
338,1747579749.3059711,-0.26553428,0.336799,1.3518331,0.29507825,0.13475595,0.06551377
339,1747579749.3109758,-0.26553428,0.336799,1.3518331,0.29507825,0.13475595,0.06551377
340,1747579749.3159797,-0.22355644,0.32044718,1.2727585,0.40959418,0.19920446,0.098004326
341,1747579749.3209755,-0.22355644,0.32044718,1.2727585,0.40959418,0.19920446,0.098004326
342,1747579749.3259666,-0.22355644,0.32044718,1.2727585,0.40959418,0.19920446,0.098004326
343,1747579749.330983,-0.19109683,0.32044718,1.1560992,0.42184472,0.21731395,0.11930962
344,1747579749.3359635,-0.16473864,0.3277689,1.0718994,0.35899413,0.19920446,0.10173275
345,1747579749.3409693,-0.16473864,0.3277689,1.0718994,0.35899413,0.19920446,0.10173275
346,1747579749.345975,-0.16473864,0.3277689,1.0718994,0.35899413,0.19920446,0.10173275
347,1747579749.3509865,-0.11495096,0.36462155,0.97208,0.24181503,0.16724652,0.05539375
348,1747579749.355967,-0.08419975,0.3743838,0.97476465,-0.048469532,0.14807177,-0.13954964
349,1747579749.3609679,-0.08419975,0.3743838,0.97476465,-0.048469532,0.14807177,-0.13954964
350,1747579749.365967,-0.071264714,0.36437747,0.9886759,-0.12516858,0.24074976,-0.22583607
351,1747579749.3709664,-0.071264714,0.36437747,0.9886759,-0.12516858,0.24074976,-0.22583607
352,1747579749.3759785,-0.071264714,0.36437747,0.9886759,-0.12516858,0.24074976,-0.22583607
353,1747579749.3809862,-0.06443111,0.34753752,1.0243083,-0.14594123,0.376571,-0.28975195
354,1747579749.3859644,-0.090789296,0.32581642,1.0684826,-0.11930962,0.5273059,-0.3073288
355,1747579749.390962,-0.090789296,0.32581642,1.0684826,-0.11930962,0.5273059,-0.3073288
356,1747579749.39596,-0.21745501,0.24942651,1.1641531,0.01438107,0.737163,-0.2082592
357,1747579749.4009674,-0.21745501,0.24942651,1.1641531,0.01438107,0.737163,-0.2082592
358,1747579749.4059668,-0.24161668,0.21965154,1.1883147,0.0777643,0.7755125,-0.11664646
359,1747579749.4109855,-0.24161668,0.21965154,1.1883147,0.0777643,0.7755125,-0.11664646
360,1747579749.4159632,-0.24283697,0.20866893,1.1875826,0.094808534,0.7616641,-0.03888215
361,1747579749.420974,-0.24283697,0.20866893,1.1875826,0.094808534,0.7616641,-0.03888215
362,1747579749.4259615,-0.24283697,0.20866893,1.1875826,0.094808534,0.7616641,-0.03888215
363,1747579749.4309826,-0.20403185,0.21403822,1.1824573,0.041012682,0.68389976,-0.018642128
364,1747579749.4359627,-0.18841219,0.22526483,1.2041785,-0.09640643,0.5725796,-0.05219796
365,1747579749.440969,-0.18841219,0.22526483,1.2041785,-0.09640643,0.5725796,-0.05219796
366,1747579749.4459846,-0.1718163,0.26358184,1.3140042,-0.24660872,0.7355651,-0.14168017
367,1747579749.450962,-0.1718163,0.26358184,1.3140042,-0.24660872,0.7355651,-0.14168017
368,1747579749.4559696,-0.16522676,0.27554062,1.3857571,-0.21837921,0.9869675,-0.18642128
369,1747579749.460963,-0.16522676,0.27554062,1.3857571,-0.21837921,0.9869675,-0.18642128
370,1747579749.4659643,-0.16522676,0.27554062,1.3857571,-0.21837921,0.9869675,-0.18642128
371,1747579749.4709785,-0.24625377,0.272856,1.4716653,-0.1107875,1.3113406,-0.19068234
372,1747579749.475967,-0.29823795,0.26162934,1.4694687,0.06018744,1.6426378,-0.1470065
373,1747579749.4809618,-0.29823795,0.26162934,1.4694687,0.06018744,1.6426378,-0.1470065
374,1747579749.4859571,-0.33118567,0.25479576,1.4248062,0.25726137,1.9254655,-0.0777643
375,1747579749.4909613,-0.33118567,0.25479576,1.4248062,0.25726137,1.9254655,-0.0777643
376,1747579749.4959753,-0.31385764,0.255772,1.3606192,0.57577544,2.1598237,0.042077947
377,1747579749.500971,-0.31385764,0.255772,1.3606192,0.57577544,2.1598237,0.042077947
378,1747579749.505971,-0.2762728,0.25772443,1.2932593,0.6514092,2.1587584,0.05006743
379,1747579749.5109634,-0.2762728,0.25772443,1.2932593,0.6514092,2.1587584,0.05006743
380,1747579749.5159664,-0.22916976,0.2928687,1.1873385,0.6689861,2.1342573,0.019707393
381,1747579749.5209715,-0.22916976,0.2928687,1.1873385,0.6689861,2.1342573,0.019707393
382,1747579749.5259652,-0.22916976,0.2928687,1.1873385,0.6689861,2.1342573,0.019707393
383,1747579749.5309665,-0.22160399,0.30433938,1.1492655,0.644485,2.128931,-0.02876214
384,1747579749.5359628,-0.22868164,0.30409533,1.1368186,0.55766594,2.198706,-0.17417073
385,1747579749.5409675,-0.22868164,0.30409533,1.1368186,0.55766594,2.198706,-0.17417073
386,1747579749.545962,-0.27383223,0.30043447,1.1460928,0.5523396,2.288188,-0.20559604
387,1747579749.5509565,-0.27383223,0.30043447,1.1460928,0.5523396,2.288188,-0.20559604
388,1747579749.5559585,-0.31751847,0.28579104,1.1507299,0.57311225,2.418683,-0.18695392
389,1747579749.5609725,-0.31751847,0.28579104,1.1507299,0.57311225,2.418683,-0.18695392
390,1747579749.565967,-0.37584817,0.23990828,1.1370627,0.57311225,2.418683,-0.18695392
391,1747579749.5709565,-0.37584817,0.23990828,1.1370627,0.62051654,2.5635588,-0.13741912
392,1747579749.5759704,-0.3738957,0.22892569,1.1221752,0.7030745,2.696717,-0.070307456
393,1747579749.5809798,-0.3738957,0.22892569,1.1221752,0.7030745,2.696717,-0.070307456
394,1747579749.5859604,-0.35974038,0.21672285,1.1072878,0.95660746,2.8149614,0.082558
395,1747579749.5909584,-0.35974038,0.21672285,1.1072878,0.95660746,2.8149614,0.082558
396,1747579749.59596,-0.32117933,0.20915705,1.095573,1.0785803,2.799515,0.1123854
397,1747579749.6009684,-0.32117933,0.20915705,1.095573,1.0785803,2.799515,0.1123854
398,1747579749.6059892,-0.26480213,0.20354374,1.0748281,1.194694,2.7643614,0.09161274
399,1747579749.6109931,-0.26480213,0.20354374,1.0748281,1.194694,2.7643614,0.09161274
400,1747579749.6159601,-0.26480213,0.20354374,1.0748281,1.194694,2.7643614,0.09161274
401,1747579749.6210053,-0.24869433,0.200371,0.99917036,1.2905679,2.735599,0.029827405
402,1747579749.625988,-0.30116665,0.18523945,0.95377576,1.2905679,2.735599,0.029827405
403,1747579749.6309824,-0.30116665,0.18523945,0.95377576,1.3534185,2.7292075,-0.018109497
404,1747579749.6359706,-0.3802412,0.15863721,0.9200958,1.3768543,2.727077,-0.023435818
405,1747579749.6409767,-0.3802412,0.15863721,0.9200958,1.3768543,2.727077,-0.023435818
406,1747579749.645966,-0.42954078,0.14374973,0.86664724,1.3630059,2.8740835,0.12357068
407,1747579749.6509635,-0.42954078,0.14374973,0.86664724,1.3630059,2.8740835,0.12357068
408,1747579749.655961,-0.46712556,0.15204766,0.7336361,1.3006879,2.9656963,0.23009712
409,1747579749.6609633,-0.46712556,0.15204766,0.7336361,1.3006879,2.9656963,0.23009712
410,1747579749.665967,-0.4829893,0.17352471,0.7280228,1.2117383,2.98061,0.30466563
411,1747579749.6709607,-0.4829893,0.17352471,0.7280228,1.2117383,2.98061,0.30466563
412,1747579749.6759605,-0.4829893,0.17352471,0.7280228,1.2117383,2.98061,0.30466563
413,1747579749.6809769,-0.4698102,0.19890666,0.7468152,1.1558119,2.9960563,0.34514567
414,1747579749.6859815,-0.47273886,0.19939478,0.7807391,1.180313,2.9827404,0.36485308
415,1747579749.6909661,-0.47273886,0.19939478,0.7807391,1.180313,2.9827404,0.36485308
416,1747579749.6959727,-0.48689422,0.1889003,0.78513217,1.3736585,2.9427931,0.44474792
417,1747579749.700969,-0.48689422,0.1889003,0.78513217,1.3736585,2.9427931,0.44474792
418,1747579749.7059658,-0.48128092,0.20476402,0.6889736,1.5009576,2.9598372,0.5001417
419,1747579749.710963,-0.48128092,0.20476402,0.6889736,1.5009576,2.9598372,0.5001417
420,1747579749.7159593,-0.5232587,0.23600335,0.60038084,1.5978967,2.910835,0.5475459
421,1747579749.720962,-0.5232587,0.23600335,0.60038084,1.5978967,2.910835,0.5475459
422,1747579749.7259576,-0.5232587,0.23600335,0.60038084,1.5978967,2.910835,0.5475459
423,1747579749.73098,-0.54864067,0.25796852,0.528628,1.6559536,2.8075044,0.5613944
424,1747579749.7359686,-0.536926,0.2723679,0.46590528,1.6298546,2.6003106,0.5139901
425,1747579749.740976,-0.536926,0.2723679,0.46590528,1.6298546,2.6003106,0.5139901
426,1747579749.7459655,-0.53912246,0.29213652,0.4407674,1.5765914,2.5539715,0.49055427
427,1747579749.7509692,-0.53912246,0.29213652,0.4407674,1.5765914,2.5539715,0.49055427
428,1747579749.7559748,-0.52301466,0.33655494,0.36950266,1.5094798,2.5624936,0.4841627
429,1747579749.7609787,-0.52301466,0.33655494,0.36950266,1.5094798,2.5624936,0.4841627
430,1747579749.7659774,-0.5186216,0.36510965,0.35705575,1.4365091,2.5944517,0.46818373
431,1747579749.7709715,-0.5186216,0.36510965,0.35705575,1.4365091,2.5944517,0.46818373
432,1747579749.7759666,-0.5379022,0.38683072,0.35412705,1.3662016,2.6072347,0.42557314
433,1747579749.780973,-0.5379022,0.38683072,0.35412705,1.3662016,2.6072347,0.42557314
434,1747579749.7859695,-0.5640163,0.38951537,0.34192422,1.1989552,2.6194854,0.3568636
435,1747579749.7909682,-0.5640163,0.38951537,0.34192422,1.1989552,2.6194854,0.3568636
436,1747579749.7959697,-0.5847612,0.38048524,0.33899552,1.1675298,2.683401,0.3787015
437,1747579749.8009737,-0.5847612,0.38048524,0.33899552,1.1675298,2.683401,0.3787015
438,1747579749.8059816,-0.64138246,0.36779428,0.3648656,1.1824435,2.7164245,0.406931
439,1747579749.8109884,-0.64138246,0.36779428,0.3648656,1.1824435,2.7164245,0.406931
440,1747579749.8159819,-0.6616392,0.35607952,0.3682824,1.2277173,2.7164245,0.43782368
441,1747579749.8209891,-0.6616392,0.35607952,0.3682824,1.2277173,2.7164245,0.43782368
442,1747579749.825979,-0.65212095,0.35827604,0.38829508,1.510545,2.6557043,0.56245965
443,1747579749.8310068,-0.65212095,0.35827604,0.38829508,1.510545,2.6557043,0.56245965
444,1747579749.8359964,-0.65212095,0.35827604,0.38829508,1.510545,2.6557043,0.56245965
445,1747579749.8410044,-0.6467517,0.37145513,0.3612047,1.6527578,2.6013758,0.6103965
446,1747579749.8459725,-0.66822875,0.3841461,0.27993366,1.7454358,2.5177526,0.6354303
447,1747579749.85097,-0.66822875,0.3841461,0.27993366,1.7454358,2.5177526,0.6354303
448,1747579749.855964,-0.6562699,0.37975308,0.23942018,1.8093517,2.4607608,0.67324716
449,1747579749.8609776,-0.6562699,0.37975308,0.23942018,1.8093517,2.4607608,0.67324716
450,1747579749.8659656,-0.63381666,0.38316986,0.18865626,1.8935076,2.4847293,0.7824367
451,1747579749.8709605,-0.63381666,0.38316986,0.18865626,1.8935076,2.4847293,0.7824367
452,1747579749.8759727,-0.6147802,0.4058672,0.088348724,1.8935076,2.4847293,0.7824367
453,1747579749.8809843,-0.6147802,0.4058672,0.088348724,1.8674086,2.5369272,0.8069378
454,1747579749.885984,-0.6147802,0.4058672,0.088348724,1.758219,2.5635588,0.79681784
455,1747579749.890987,-0.5859815,0.42392743,-0.036608588,1.758219,2.5635588,0.79681784
456,1747579749.89597,-0.5859815,0.42392743,-0.036608588,1.758219,2.5635588,0.79681784
457,1747579749.900967,-0.5859815,0.42392743,-0.036608588,1.758219,2.5635588,0.79681784
458,1747579749.9059625,-0.5859815,0.42392743,-0.036608588,1.758219,2.5635588,0.79681784
459,1747579749.9109702,-0.5859815,0.42392743,-0.036608588,1.758219,2.5635588,0.79681784
460,1747579749.9159677,-0.6484601,0.43979117,-0.15863721,1.1419635,2.4256072,0.68656296
461,1747579749.9209685,-0.6484601,0.43979117,-0.15863721,1.1419635,2.4256072,0.68656296
462,1747579749.9259639,-0.6484601,0.43979117,-0.15863721,1.1419635,2.4256072,0.68656296
463,1747579749.9309871,-0.6355251,0.44491637,-0.14985114,1.0902982,2.4341292,0.6940198
464,1747579749.935957,-0.63454884,0.4617563,-0.24967057,1.0274476,2.4304008,0.69348717
465,1747579749.940969,-0.63454884,0.4617563,-0.24967057,1.0274476,2.4304008,0.69348717
466,1747579749.9459696,-0.64309084,0.49226347,-0.29482117,0.95128113,2.376605,0.69508505
467,1747579749.9509718,-0.64309084,0.49226347,-0.29482117,0.95128113,2.376605,0.69508505
468,1747579749.9559593,-0.6257628,0.5112999,-0.3231318,0.8676579,2.292449,0.69668293
469,1747579749.9609704,-0.6257628,0.5112999,-0.3231318,0.8676579,2.292449,0.69668293
470,1747579749.965957,-0.59989274,0.51788944,-0.2889638,0.77870834,2.1283984,0.6668556
471,1747579749.9709647,-0.59989274,0.51788944,-0.2889638,0.77870834,2.1283984,0.6668556
472,1747579749.9759722,-0.59989274,0.51788944,-0.2889638,0.77870834,2.1283984,0.6668556
473,1747579749.9809718,-0.6045298,0.51740134,-0.2438132,0.83889574,2.1097562,0.6892261
474,1747579749.9859598,-0.5703618,0.53106856,-0.3214234,0.96140116,2.1017668,0.74461985
475,1747579749.9909606,-0.5703618,0.53106856,-0.3214234,0.96140116,2.1017668,0.74461985
476,1747579749.9959605,-0.55962324,0.5523015,-0.44345203,1.026915,2.0501015,0.7728494
477,1747579750.000971,-0.55962324,0.5523015,-0.44345203,1.026915,2.0501015,0.7728494
478,1747579750.0059779,-0.5383903,0.5718261,-0.56596875,1.0263823,1.9329224,0.7850999
479,1747579750.0109713,-0.5383903,0.5718261,-0.56596875,1.0263823,1.9329224,0.7850999
480,1747579750.015966,-0.49348375,0.5933032,-0.6557818,0.87564737,1.6314526,0.75420725
481,1747579750.0209644,-0.49348375,0.5933032,-0.6557818,0.87564737,1.6314526,0.75420725
482,1747579750.025963,-0.49348375,0.5933032,-0.6557818,0.87564737,1.6314526,0.75420725
483,1747579750.030983,-0.44052333,0.6133158,-0.72753465,0.75633776,1.5132082,0.6918893
484,1747579750.035958,-0.33435842,0.6269831,-0.86884385,0.5933523,1.4263891,0.5997439
485,1747579750.040984,-0.33435842,0.6269831,-0.86884385,0.5933523,1.4263891,0.5997439
486,1747579750.0459719,-0.29897013,0.63015586,-0.9171671,0.4016047,1.325189,0.4889564
487,1747579750.0509684,-0.29897013,0.63015586,-0.9171671,0.4016047,1.325189,0.4889564
488,1747579750.0559685,-0.28505886,0.6242984,-0.9371798,0.0127831735,0.9235843,0.17310548
489,1747579750.0609615,-0.28505886,0.6242984,-0.9371798,0.0127831735,0.9235843,0.17310548
490,1747579750.0659642,-0.28505886,0.6242984,-0.9371798,0.0127831735,0.9235843,0.17310548
491,1747579750.0709717,-0.31019676,0.6157564,-0.938156,-0.08841695,0.6263755,0.06551377
492,1747579750.0759745,-0.328257,0.6047739,-0.95792466,-0.08841695,0.6263755,0.06551377
493,1747579750.0809863,-0.328257,0.6047739,-0.95792466,-0.15925704,0.27324033,-0.019707393
494,1747579750.085967,-0.31019676,0.6257628,-0.93620354,-0.21038973,-0.11132014,-0.10918961
495,1747579750.0909646,-0.31019676,0.6257628,-0.93620354,-0.21038973,-0.11132014,-0.10918961
496,1747579750.0959632,-0.30970863,0.6457755,-0.9108216,-0.27217507,-0.48948902,-0.2146508
497,1747579750.1009638,-0.30970863,0.6457755,-0.9108216,-0.27217507,-0.48948902,-0.2146508
498,1747579750.1059651,-0.29726174,0.66017485,-0.878118,-0.48842376,-1.0056096,-0.42077947
499,1747579750.1109638,-0.29726174,0.66017485,-0.878118,-0.48842376,-1.0056096,-0.42077947
500,1747579750.1159663,-0.28115395,0.6474839,-0.85224795,-0.6514092,-1.0934939,-0.51026165
501,1747579750.12101,-0.28115395,0.6474839,-0.85224795,-0.6514092,-1.0934939,-0.51026165
502,1747579750.1260116,-0.2877435,0.6291796,-0.79489446,-0.80800307,-1.1265172,-0.5944176
503,1747579750.1309783,-0.2877435,0.6291796,-0.79489446,-0.80800307,-1.1265172,-0.5944176
504,1747579750.1359677,-0.30604777,0.6199054,-0.7236297,-0.9235843,-1.1297129,-0.6689861
505,1747579750.1409721,-0.30604777,0.6199054,-0.7236297,-0.9235843,-1.1297129,-0.6689861
506,1747579750.1459594,-0.42465958,0.57402265,-0.56645685,-0.98110855,-1.2958943,-0.7366304
507,1747579750.1509619,-0.42465958,0.57402265,-0.56645685,-0.98110855,-1.2958943,-0.7366304
508,1747579750.1559618,-0.48909074,0.5503491,-0.5037342,-0.92464954,-1.4231933,-0.7030745
509,1747579750.1609735,-0.48909074,0.5503491,-0.5037342,-0.92464954,-1.4231933,-0.7030745
510,1747579750.1659749,-0.48909074,0.5503491,-0.5037342,-0.92464954,-1.4231933,-0.7030745
511,1747579750.1709685,-0.48909074,0.5503491,-0.5037342,-0.92464954,-1.4231933,-0.7030745
512,1747579750.175967,-0.545712,0.5215503,-0.41758195,-0.83037364,-1.5558188,-0.6562029
513,1747579750.1809697,-0.5725583,0.51496077,-0.40196228,-0.7233146,-1.6825852,-0.6002765
514,1747579750.185965,-0.5725583,0.51496077,-0.40196228,-0.63010395,-1.8082864,-0.5342301
515,1747579750.190962,-0.5725583,0.51496077,-0.40196228,-0.63010395,-1.8082864,-0.5342301
516,1747579750.1959558,-0.5435155,0.5171573,-0.48518583,-0.65886605,-2.0644825,-0.48629323
517,1747579750.2009866,-0.5435155,0.5171573,-0.48518583,-0.65886605,-2.0644825,-0.48629323
518,1747579750.2059598,-0.5130083,0.5359497,-0.4915313,-0.7813715,-2.2280006,-0.5496765
519,1747579750.2109687,-0.5130083,0.5359497,-0.4915313,-0.7813715,-2.2280006,-0.5496765
520,1747579750.2159607,-0.5047104,0.54888475,-0.45174995,-0.9353022,-2.3616912,-0.6460829
521,1747579750.2209668,-0.5047104,0.54888475,-0.45174995,-0.9353022,-2.3616912,-0.6460829
522,1747579750.2259672,-0.5047104,0.54888475,-0.45174995,-0.9353022,-2.3616912,-0.6460829
523,1747579750.2309718,-0.5266756,0.5254553,-0.2882316,-1.1472899,-2.404302,-0.75793564
524,1747579750.2359676,-0.5725583,0.5025139,-0.17840585,-1.2937636,-2.3430493,-0.81066626
525,1747579750.240968,-0.5725583,0.5025139,-0.17840585,-1.2937636,-2.3430493,-0.81066626
526,1747579750.245971,-0.6372335,0.48323336,-0.08419975,-1.4311827,-2.0996363,-0.7685883
527,1747579750.2509701,-0.6372335,0.48323336,-0.08419975,-1.4311827,-2.0996363,-0.7685883
528,1747579750.255962,-0.6811638,0.47005424,-0.022453265,-1.4567492,-2.0005667,-0.71319455
529,1747579750.2609704,-0.6811638,0.47005424,-0.022453265,-1.4567492,-2.0005667,-0.71319455
530,1747579750.265961,-0.6811638,0.47005424,-0.022453265,-1.4567492,-2.0005667,-0.71319455
531,1747579750.2709734,-0.6796995,0.45980385,0.05588911,-1.4849787,-1.9627497,-0.68869346
532,1747579750.2759724,-0.6796995,0.45980385,0.05588911,-1.4737934,-1.9643476,-0.6812366
533,1747579750.280995,-0.6887296,0.46541715,0.09567044,-1.4737934,-1.9643476,-0.6812366
534,1747579750.2859674,-0.68653303,0.46956614,0.10421244,-1.3736585,-2.052232,-0.6668556
535,1747579750.2909622,-0.68653303,0.46956614,0.10421244,-1.3736585,-2.052232,-0.6668556
536,1747579750.2959723,-0.686289,0.46151224,0.10909359,-1.3044163,-2.1544974,-0.66845345
537,1747579750.3009713,-0.686289,0.46151224,0.10909359,-1.3044163,-2.1544974,-0.66845345
538,1747579750.3059669,-0.70459324,0.45638704,0.16473864,-1.2261194,-2.20563,-0.64768076
539,1747579750.310963,-0.70459324,0.45638704,0.16473864,-1.2261194,-2.20563,-0.64768076
540,1747579750.3159678,-0.77634615,0.4058672,0.22746135,-1.1361046,-2.1960428,-0.5571333
541,1747579750.3209856,-0.77634615,0.4058672,0.22746135,-1.1361046,-2.1960428,-0.5571333
542,1747579750.3259666,-0.74291027,0.38561043,0.20085911,-1.1361046,-2.1960428,-0.5571333
543,1747579750.3309784,-0.74291027,0.38561043,0.20085911,-1.071656,-2.1278658,-0.42237735
544,1747579750.3359594,-0.6975156,0.3900035,0.17523311,-1.0721886,-1.9728698,-0.24767399
545,1747579750.3409784,-0.6975156,0.3900035,0.17523311,-1.0721886,-1.9728698,-0.24767399
546,1747579750.345969,-0.6199054,0.40293851,0.183287,-1.0961571,-1.9680761,-0.27217507
547,1747579750.3509614,-0.6199054,0.40293851,0.183287,-1.0961571,-1.9680761,-0.27217507
548,1747579750.3559575,-0.57524294,0.43027294,0.19207305,-1.1211908,-2.021872,-0.34834146
549,1747579750.3609703,-0.57524294,0.43027294,0.19207305,-1.1211908,-2.021872,-0.34834146
550,1747579750.36596,-0.57524294,0.43027294,0.19207305,-1.1211908,-2.021872,-0.34834146
551,1747579750.3709605,-0.5383903,0.4556549,0.16107778,-1.1765846,-2.1337247,-0.44101948
552,1747579750.3759665,-0.5383903,0.4556549,0.16107778,-1.1765846,-2.1337247,-0.44101948
553,1747579750.3809903,-0.5320448,0.45638704,0.16913168,-1.2607405,-2.3036344,-0.545948
554,1747579750.3859696,-0.55718267,0.44906533,0.24332508,-1.3933659,-2.5747442,-0.6993461
555,1747579750.3909688,-0.55718267,0.44906533,0.24332508,-1.3933659,-2.5747442,-0.6993461
556,1747579750.3959696,-0.613804,0.42783237,0.3704789,-1.5094798,-2.8873992,-0.8580705
557,1747579750.4009616,-0.613804,0.42783237,0.3704789,-1.5094798,-2.8873992,-0.8580705
558,1747579750.4059703,-0.6543175,0.33069757,0.59794027,-1.4604776,-2.8021781,-0.8016115
559,1747579750.41097,-0.6543175,0.33069757,0.59794027,-1.4604776,-2.8021781,-0.8016115
560,1747579750.41596,-0.6543175,0.33069757,0.59794027,-1.4604776,-2.8021781,-0.8016115
561,1747579750.4209702,-0.68336034,0.2945771,0.65944266,-1.3672669,-2.6104305,-0.6854977
562,1747579750.4260173,-0.68336034,0.2945771,0.65944266,-1.3672669,-2.6104305,-0.6854977
563,1747579750.4309816,-0.733148,0.29140437,0.7226535,-1.2479573,-2.3995082,-0.53529537
564,1747579750.4359674,-0.73339206,0.3128814,0.74339837,-0.9241169,-2.1118867,-0.24607609
565,1747579750.4409902,-0.73339206,0.3128814,0.74339837,-0.9241169,-2.1118867,-0.24607609
566,1747579750.4459722,-0.70874226,0.33753118,0.7070338,-0.8000136,-2.0847225,-0.17630127
567,1747579750.4509606,-0.70874226,0.33753118,0.7070338,-0.8000136,-2.0847225,-0.17630127
568,1747579750.4559681,-0.6289356,0.39634898,0.60599416,-0.7004114,-2.1294637,-0.15606125
569,1747579750.460973,-0.6289356,0.39634898,0.60599416,-0.7004114,-2.1294637,-0.15606125
570,1747579750.4659576,-0.59159476,0.41684976,0.5620638,-0.7004114,-2.1294637,-0.15606125
571,1747579750.4709847,-0.59159476,0.41684976,0.5620638,-0.6689861,-2.202967,-0.18695392
572,1747579750.4759738,-0.59159476,0.41684976,0.5620638,-0.6689861,-2.202967,-0.18695392
573,1747579750.4809766,-0.56548065,0.43076107,0.5615757,-0.700944,-2.3409185,-0.25885928
574,1747579750.4859622,-0.6123396,0.42807645,0.5937913,-0.96779275,-2.7116306,-0.46871635
575,1747579750.4909647,-0.6123396,0.42807645,0.5937913,-0.96779275,-2.7116306,-0.46871635
576,1747579750.4959655,-0.6367454,0.40684342,0.6213697,-1.1259845,-2.7265444,-0.4825648
577,1747579750.5009713,-0.6367454,0.40684342,0.6213697,-1.1259845,-2.7265444,-0.4825648
578,1747579750.5059702,-0.5532778,0.3526627,0.78928113,-1.2287825,-2.6466496,-0.45912898
579,1747579750.5109773,-0.5532778,0.3526627,0.78928113,-1.2287825,-2.6466496,-0.45912898
580,1747579750.5159671,-0.5352176,0.3443648,0.8768977,-1.2287825,-2.6466496,-0.45912898
581,1747579750.5209744,-0.5352176,0.3443648,0.8768977,-1.2479573,-2.5049694,-0.43729106
582,1747579750.525961,-0.5613316,0.336799,0.93156654,-1.1877699,-2.3446472,-0.43303
583,1747579750.530976,-0.5613316,0.336799,0.93156654,-1.1877699,-2.3446472,-0.43303
584,1747579750.5359674,-0.59061855,0.33191785,0.9476743,-0.8612663,-2.0836573,-0.38242993
585,1747579750.5409684,-0.59061855,0.33191785,0.9476743,-0.8612663,-2.0836573,-0.38242993
586,1747579750.545973,-0.6313761,0.3275248,0.92814976,-0.6892261,-2.060754,-0.32969934
587,1747579750.5509653,-0.6313761,0.3275248,0.92814976,-0.6892261,-2.060754,-0.32969934
588,1747579750.5559702,-0.6665203,0.3316738,0.91863143,-0.52411014,-2.102832,-0.2727077
589,1747579750.5609744,-0.6665203,0.3316738,0.91863143,-0.52411014,-2.102832,-0.2727077
590,1747579750.565969,-0.6118515,0.33411437,0.86225426,-0.34780884,-2.2828617,-0.17310548
591,1747579750.5709655,-0.6118515,0.33411437,0.86225426,-0.34780884,-2.2828617,-0.17310548
592,1747579750.575961,-0.6118515,0.33411437,0.86225426,-0.34780884,-2.2828617,-0.17310548
593,1747579750.5809705,-0.53058046,0.3226437,0.78928113,-0.43888897,-2.438923,-0.18322548
594,1747579750.585959,-0.5005614,0.319715,0.7487676,-0.6151902,-2.5513084,-0.22370553
595,1747579750.590969,-0.5005614,0.319715,0.7487676,-0.6151902,-2.5513084,-0.22370553
596,1747579750.5959759,-0.44320798,0.2945771,0.7165521,-0.86179894,-2.591256,-0.26525086
597,1747579750.6009774,-0.44320798,0.2945771,0.7165521,-0.86179894,-2.591256,-0.26525086
598,1747579750.6059654,-0.4378387,0.27480847,0.7482795,-1.1307782,-2.5454495,-0.2892193
599,1747579750.6109598,-0.4378387,0.27480847,0.7482795,-1.1307782,-2.5454495,-0.2892193
600,1747579750.6159704,-0.43661842,0.255772,0.8061211,-1.1307782,-2.5454495,-0.2892193
601,1747579750.6209712,-0.43661842,0.255772,0.8061211,-1.5243934,-2.207228,-0.25672874
602,1747579750.6259592,-0.44418418,0.23551524,0.86518294,-1.530785,-2.078331,-0.22796659
603,1747579750.6309686,-0.44418418,0.23551524,0.86518294,-1.530785,-2.078331,-0.22796659
604,1747579750.635968,-0.4253918,0.24161668,0.9984382,-1.412008,-1.9947077,-0.20879184
605,1747579750.6409643,-0.4253918,0.24161668,0.9984382,-1.412008,-1.9947077,-0.20879184
606,1747579750.6459637,-0.40903994,0.24869433,1.010397,-1.2303804,-1.9856529,-0.21731395
607,1747579750.6509635,-0.40903994,0.24869433,1.010397,-1.2303804,-1.9856529,-0.21731395
608,1747579750.6559641,-0.40903994,0.24869433,1.010397,-1.2303804,-1.9856529,-0.21731395
609,1747579750.6609762,-0.37633628,0.25845662,1.0328503,-1.041296,-2.0756679,-0.24181503
610,1747579750.6659653,-0.3734076,0.2677308,1.0465174,-0.6870956,-2.4277377,-0.34301516
611,1747579750.670961,-0.3734076,0.2677308,1.0465174,-0.6870956,-2.4277377,-0.34301516
612,1747579750.6759644,-0.37682438,0.25333142,1.0257727,-0.61678815,-2.624279,-0.39041942
613,1747579750.6809623,-0.37682438,0.25333142,1.0257727,-0.61678815,-2.624279,-0.39041942
614,1747579750.6859596,-0.42587993,0.17913802,1.044565,-0.64341974,-2.7680898,-0.4111921
615,1747579750.690972,-0.42587993,0.17913802,1.044565,-0.64341974,-2.7680898,-0.4111921
616,1747579750.6959674,-0.4356422,0.15400012,1.1141213,-0.716923,-2.7739487,-0.36485308
617,1747579750.7009666,-0.4356422,0.15400012,1.1141213,-0.716923,-2.7739487,-0.36485308
618,1747579750.7059674,-0.43368974,0.14106509,1.1805049,-0.7888283,-2.3760724,-0.165116
619,1747579750.7109642,-0.43368974,0.14106509,1.1805049,-0.7888283,-2.3760724,-0.165116
620,1747579750.7159722,-0.40391475,0.1330112,1.2568948,-0.7323693,-2.040514,-0.06391586
621,1747579750.72097,-0.40391475,0.1330112,1.2568948,-0.7323693,-2.040514,-0.06391586
622,1747579750.725973,-0.3682824,0.13667206,1.3296238,-0.6045376,-1.6591494,0.012250541
623,1747579750.7309763,-0.3682824,0.13667206,1.3296238,-0.6045376,-1.6591494,0.012250541
624,1747579750.7359672,-0.311173,0.17962612,1.3950312,-0.41225734,-1.2921658,0.07829694
625,1747579750.7409656,-0.311173,0.17962612,1.3950312,-0.41225734,-1.2921658,0.07829694
626,1747579750.7459629,-0.29530928,0.20451997,1.3686731,-0.1736381,-0.99069595,0.12144015
627,1747579750.7509754,-0.29530928,0.20451997,1.3686731,-0.1736381,-0.99069595,0.12144015
628,1747579750.7559707,-0.29530928,0.20451997,1.3686731,-0.1736381,-0.99069595,0.12144015
629,1747579750.7609656,-0.30116665,0.22526483,1.2930154,0.26418558,-0.59601545,0.18109496
630,1747579750.7659585,-0.2604091,0.23795582,1.1875826,0.26418558,-0.59601545,0.18109496
631,1747579750.7709808,-0.2604091,0.23795582,1.1875826,0.3818973,-0.55553544,0.18056233
632,1747579750.7759733,-0.2604091,0.23795582,1.1875826,0.3818973,-0.55553544,0.18056233
633,1747579750.7809908,-0.22794947,0.2518671,1.0692148,0.35792887,-0.6125271,0.1635181
634,1747579750.78598,-0.21891935,0.2882316,0.8964222,0.26365295,-0.6743124,0.1304949
635,1747579750.7909677,-0.21891935,0.2882316,0.8964222,0.26365295,-0.6743124,0.1304949
636,1747579750.7959716,-0.20256752,0.2933568,0.856641,0.12250541,-0.73130405,0.0777643
637,1747579750.8009622,-0.20256752,0.2933568,0.856641,0.12250541,-0.73130405,0.0777643
638,1747579750.8059874,-0.20549619,0.29579738,0.84614646,-0.14114754,-0.7952199,-0.017576864
639,1747579750.810959,-0.20549619,0.29579738,0.84614646,-0.14114754,-0.7952199,-0.017576864
640,1747579750.8159862,-0.20085911,0.29994637,0.8644508,-0.20240025,-0.79255676,-0.039414786
641,1747579750.8209782,-0.20085911,0.29994637,0.8644508,-0.20240025,-0.79255676,-0.039414786
642,1747579750.8259742,-0.19719826,0.30360723,0.8927614,-0.20240025,-0.79255676,-0.039414786
643,1747579750.8309894,-0.19719826,0.30360723,0.8927614,-0.20080236,-0.7701862,-0.051132694
644,1747579750.8359625,-0.20574026,0.30165476,0.9354714,-0.14487597,-0.72651035,-0.05912218
645,1747579750.840986,-0.20574026,0.30165476,0.9354714,-0.14487597,-0.72651035,-0.05912218
646,1747579750.8459609,-0.22013964,0.29872608,0.94303715,0.10652645,-0.60293967,-0.016511599
647,1747579750.850972,-0.22013964,0.29872608,0.94303715,0.10652645,-0.60293967,-0.016511599
648,1747579750.855967,-0.22013964,0.29872608,0.94303715,0.10652645,-0.60293967,-0.016511599
649,1747579750.8609686,-0.22013964,0.29872608,0.94303715,0.10652645,-0.60293967,-0.016511599
650,1747579750.8659732,-0.22013964,0.29872608,0.94303715,0.10652645,-0.60293967,-0.016511599
651,1747579750.870977,-0.22013964,0.29872608,0.94303715,0.10652645,-0.60293967,-0.016511599
652,1747579750.8759737,-0.22013964,0.29872608,0.94303715,0.10652645,-0.60293967,-0.016511599
653,1747579750.8809624,-0.22013964,0.29872608,0.94303715,0.10652645,-0.60293967,-0.016511599
654,1747579750.8859699,-0.16620298,0.307024,0.8839754,0.41225734,-0.7499462,0.033023197
655,1747579750.8909817,-0.11275445,0.30604777,0.83833665,0.40053943,-0.9076053,-0.0058589545
656,1747579750.8959658,-0.010738519,0.26821893,0.75145227,0.15286545,-1.3145363,-0.13422333
657,1747579750.9009604,-0.010738519,0.26821893,0.75145227,0.15286545,-1.3145363,-0.13422333
658,1747579750.9059613,-0.010738519,0.26821893,0.75145227,-0.016511599,-1.484446,-0.20719394
659,1747579750.910986,0.016351834,0.2562601,0.75194037,-0.016511599,-1.484446,-0.20719394
660,1747579750.9159658,0.016351834,0.2562601,0.75194037,-0.016511599,-1.484446,-0.20719394
661,1747579750.9209616,-0.035632357,0.24112856,0.83736044,-0.16990969,-1.5925703,-0.2657835
662,1747579750.9259672,-0.035632357,0.24112856,0.83736044,-0.3323625,-1.6341157,-0.3009372
663,1747579750.9309664,-0.035632357,0.24112856,0.83736044,-0.3323625,-1.6341157,-0.3009372
664,1747579750.9359646,-0.11348662,0.23600335,0.98330665,-0.45806372,-1.5606124,-0.3158509
665,1747579750.9409692,-0.11348662,0.23600335,0.98330665,-0.45806372,-1.5606124,-0.3158509
666,1747579750.9459724,-0.14277348,0.26480213,1.0762925,-0.8250473,-0.964597,-0.36591834
667,1747579750.9509666,-0.14277348,0.26480213,1.0762925,-0.8250473,-0.964597,-0.36591834
668,1747579750.9559605,-0.15668476,0.2884757,1.2088156,-0.9438243,-0.6178534,-0.35579833
669,1747579750.9609616,-0.15668476,0.2884757,1.2088156,-0.9438243,-0.6178534,-0.35579833
670,1747579750.9659579,-0.15668476,0.2884757,1.2088156,-0.9438243,-0.6178534,-0.35579833
671,1747579750.9709747,-0.2238005,0.29067218,1.458242,-0.93903065,-0.25832662,-0.304133
672,1747579750.9759593,-0.22282428,0.28505886,1.5458585,-0.8271778,0.0644485,-0.23755397
673,1747579750.9809618,-0.22282428,0.28505886,1.5458585,-0.8271778,0.0644485,-0.23755397
674,1747579750.9859576,-0.18645974,0.27310005,1.5878365,-0.4133226,0.35792887,-0.11451593
675,1747579750.9909625,-0.18645974,0.27310005,1.5878365,-0.4133226,0.35792887,-0.11451593
676,1747579750.995961,-0.15326795,0.25381953,1.5975988,-0.20612867,0.29028457,-0.06870956
677,1747579751.000971,-0.15326795,0.25381953,1.5975988,-0.20612867,0.29028457,-0.06870956
678,1747579751.0059686,-0.15326795,0.25381953,1.5975988,-0.0037284256,0.13209279,-0.017044231
679,1747579751.0109723,-0.15277983,0.23161033,1.565139,-0.0037284256,0.13209279,-0.017044231
680,1747579751.0159595,-0.20256752,0.20329969,1.4384733,0.11771172,0.040480047,0.017044231
681,1747579751.0209622,-0.20256752,0.20329969,1.4384733,0.11771172,0.040480047,0.017044231
682,1747579751.0259697,-0.2238005,0.19719826,1.3530535,0.21997711,0.048469532,0.05006743
683,1747579751.0309696,-0.2238005,0.19719826,1.3530535,0.21997711,0.048469532,0.05006743
684,1747579751.0359604,-0.23307467,0.2042759,1.2708061,0.32756883,0.2790993,0.15233281
685,1747579751.040978,-0.23307467,0.2042759,1.2708061,0.32756883,0.2790993,0.15233281
686,1747579751.0459652,-0.23307467,0.22233616,1.1858741,0.35473305,0.4282363,0.21411815
687,1747579751.0509672,-0.23307467,0.22233616,1.1858741,0.35473305,0.4282363,0.21411815
688,1747579751.0559654,-0.21647878,0.23575929,1.1263242,0.3797668,0.5651228,0.25246766
689,1747579751.0609775,-0.21647878,0.23575929,1.1263242,0.3797668,0.5651228,0.25246766
690,1747579751.0659714,-0.17059602,0.24161668,1.0409042,0.40053943,0.65460503,0.26525086
691,1747579751.0709667,-0.17059602,0.24161668,1.0409042,0.40053943,0.65460503,0.26525086
692,1747579751.0759692,-0.17059602,0.24161668,1.0409042,0.40053943,0.65460503,0.26525086
693,1747579751.0809896,-0.12373702,0.24308102,1.0074683,0.41172472,0.6812366,0.26045716
694,1747579751.0859659,-0.05662128,0.24942651,0.9696394,0.39734364,0.64555025,0.23542345
695,1747579751.0909624,-0.05662128,0.24942651,0.9696394,0.39734364,0.64555025,0.23542345
696,1747579751.0959628,-0.0053692595,0.25870067,0.9279056,0.17789917,0.51984906,0.120907515
697,1747579751.100967,-0.0053692595,0.25870067,0.9279056,0.17789917,0.51984906,0.120907515
698,1747579751.1059637,0.025137896,0.25284332,0.90789294,-0.029294772,0.45486793,0.04261058
699,1747579751.110962,0.025137896,0.25284332,0.90789294,-0.029294772,0.45486793,0.04261058
700,1747579751.1159678,0.013179091,0.23527117,0.9725681,-0.25566345,0.41438788,-0.039947417
701,1747579751.1209784,0.013179091,0.23527117,0.9725681,-0.25566345,0.41438788,-0.039947417
702,1747579751.1259692,0.013179091,0.23527117,0.9725681,-0.25566345,0.41438788,-0.039947417
703,1747579751.1309714,0.013179091,0.23527117,0.9725681,-0.25566345,0.41438788,-0.039947417
704,1747579751.135973,0.013179091,0.23527117,0.9725681,-0.25566345,0.41438788,-0.039947417
705,1747579751.1409707,0.013179091,0.23527117,0.9725681,-0.25566345,0.41438788,-0.039947417
706,1747579751.145967,-0.23136626,0.18523945,1.2969202,-0.4362258,0.78776306,-0.06018744
707,1747579751.1509612,-0.23136626,0.18523945,1.2969202,-0.4362258,0.78776306,-0.06018744
708,1747579751.1559594,-0.32630453,0.19378147,1.4201691,-0.24341293,1.0120013,0.0644485
709,1747579751.1609685,-0.32630453,0.19378147,1.4201691,-0.24341293,1.0120013,0.0644485
710,1747579751.1659627,-0.32630453,0.19378147,1.4201691,-0.24341293,1.0120013,0.0644485
711,1747579751.170976,-0.29774985,0.21403822,1.4016209,0.05539375,1.3124058,0.23329292
712,1747579751.175964,-0.23575929,0.23527117,1.3384099,0.05539375,1.3124058,0.23329292
713,1747579751.1809757,-0.23575929,0.23527117,1.3384099,0.25992453,1.5217303,0.3355583
714,1747579751.1859593,-0.16058967,0.24674188,1.2571388,0.42344263,1.7241305,0.3291667
715,1747579751.190958,-0.16058967,0.24674188,1.2571388,0.42344263,1.7241305,0.3291667
716,1747579751.1959658,-0.08078295,0.255772,1.1829455,0.38935417,1.7113473,0.22583607
717,1747579751.2009687,-0.08078295,0.255772,1.1829455,0.38935417,1.7113473,0.22583607
718,1747579751.2059681,-0.08078295,0.255772,1.1829455,0.38935417,1.7113473,0.22583607
719,1747579751.2109632,-0.078830495,0.25650415,1.073852,0.29987195,1.6682042,0.10013486
720,1747579751.2159562,-0.078830495,0.25650415,1.073852,0.29987195,1.6682042,0.10013486
721,1747579751.22097,-0.14301755,0.23868799,1.0582323,0.1736381,1.6261262,-0.0127831735
722,1747579751.225958,-0.22477673,0.21428227,1.0789771,0.044208474,1.6202673,-0.090014845
723,1747579751.2309628,-0.22477673,0.21428227,1.0789771,0.044208474,1.6202673,-0.090014845
724,1747579751.2359571,-0.30409533,0.19329333,1.1302291,-0.06498113,1.7859159,-0.061252706
725,1747579751.2409675,-0.30409533,0.19329333,1.1302291,-0.06498113,1.7859159,-0.061252706
726,1747579751.2459667,-0.38512233,0.16107778,1.2124764,-0.0005326322,1.9190739,0.01438107
727,1747579751.250967,-0.38512233,0.16107778,1.2124764,-0.0005326322,1.9190739,0.01438107
728,1747579751.2559583,-0.38512233,0.1564407,1.2356619,0.11025487,2.047971,0.10013486
729,1747579751.2609644,-0.38512233,0.1564407,1.2356619,0.11025487,2.047971,0.10013486
730,1747579751.2659585,-0.35437113,0.15692882,1.2376143,0.11025487,2.047971,0.10013486
731,1747579751.2709765,-0.35437113,0.15692882,1.2376143,0.25193503,2.1555626,0.17789917
732,1747579751.2759645,-0.31751847,0.15961345,1.2171135,0.3882889,2.231729,0.23222765
733,1747579751.2809672,-0.31751847,0.15961345,1.2171135,0.3882889,2.231729,0.23222765
734,1747579751.2859664,-0.2672427,0.16888762,1.1856301,0.58962387,2.3249397,0.25992453
735,1747579751.2909791,-0.2672427,0.16888762,1.1856301,0.58962387,2.3249397,0.25992453
736,1747579751.2959683,-0.21843125,0.20256752,1.1092402,0.6711166,2.3798008,0.23169503
737,1747579751.3009615,-0.21843125,0.20256752,1.1092402,0.6711166,2.3798008,0.23169503
738,1747579751.3060315,-0.22111587,0.20671648,1.0584763,0.7281082,2.3931167,0.17417073
739,1747579751.3109615,-0.22111587,0.20671648,1.0584763,0.7281082,2.3931167,0.17417073
740,1747579751.315967,-0.26480213,0.20525214,1.0416363,0.7637946,2.3355923,0.04527374
741,1747579751.3209682,-0.26480213,0.20525214,1.0416363,0.7637946,2.3355923,0.04527374
742,1747579751.325959,-0.3338703,0.20500809,1.0287013,0.7701862,2.3622239,0.049534798
743,1747579751.3309593,-0.3338703,0.20500809,1.0287013,0.7701862,2.3622239,0.049534798
744,1747579751.3359652,-0.38561043,0.19500175,1.0025872,0.76059884,2.4176178,0.10279802
745,1747579751.3409855,-0.38561043,0.19500175,1.0025872,0.76059884,2.4176178,0.10279802
746,1747579751.3459718,-0.43710655,0.18450728,0.954996,0.73609775,2.4783378,0.16724652
747,1747579751.3509703,-0.43710655,0.18450728,0.954996,0.73609775,2.4783378,0.16724652
748,1747579751.3559592,-0.41538543,0.19231711,0.96573454,0.7073356,2.5284052,0.22903186
749,1747579751.3609645,-0.41538543,0.19231711,0.96573454,0.7073356,2.5284052,0.22903186
750,1747579751.365975,-0.41538543,0.19231711,0.96573454,0.7073356,2.5284052,0.22903186
751,1747579751.370975,-0.37023485,0.20964517,1.0067362,0.8202536,2.5875273,0.27057716
752,1747579751.375956,-0.37194324,0.21843125,1.0272369,0.9534117,2.6003106,0.26897928
753,1747579751.3809671,-0.37194324,0.21843125,1.0272369,0.9534117,2.6003106,0.26897928
754,1747579751.385961,-0.45785138,0.2208718,0.9623177,1.0934939,2.6429212,0.29614353
755,1747579751.390978,-0.45785138,0.2208718,0.9623177,1.0934939,2.6429212,0.29614353
756,1747579751.3959744,-0.45785138,0.2208718,0.9623177,1.0934939,2.6429212,0.29614353
757,1747579751.400968,-0.47932845,0.21208574,0.88031447,1.2175972,2.6455843,0.35792887
758,1747579751.405962,-0.49348375,0.21232979,0.7917217,1.2255868,2.6306705,0.406931
759,1747579751.4109607,-0.49348375,0.21232979,0.7917217,1.2255868,2.6306705,0.406931
760,1747579751.4159608,-0.49348375,0.21232979,0.7917217,1.2255868,2.6306705,0.406931
761,1747579751.4209828,-0.46712556,0.2208718,0.72338563,1.0908308,2.684999,0.44474792
762,1747579751.425956,-0.46712556,0.2208718,0.72338563,1.0908308,2.684999,0.44474792
763,1747579751.4309862,-0.44930938,0.2421048,0.69312257,1.0141318,2.7148266,0.43036684
764,1747579751.4359677,-0.4825012,0.25723633,0.6787232,0.9518138,2.7249465,0.4101268
765,1747579751.4409745,-0.4825012,0.25723633,0.6787232,0.9518138,2.7249465,0.4101268
766,1747579751.4459786,-0.49812084,0.25845662,0.7060576,0.9374327,2.7244139,0.39627838
767,1747579751.4509661,-0.49812084,0.25845662,0.7060576,0.9374327,2.7244139,0.39627838
768,1747579751.455959,-0.53131264,0.26504618,0.7385172,1.1014835,2.7499802,0.40266997
769,1747579751.460969,-0.53131264,0.26504618,0.7385172,1.1014835,2.7499802,0.40266997
770,1747579751.4659746,-0.53131264,0.26504618,0.7385172,1.1014835,2.7499802,0.40266997
771,1747579751.4709997,-0.53131264,0.26504618,0.7385172,1.1014835,2.7499802,0.40266997
772,1747579751.4759722,-0.5662128,0.26821893,0.7124031,1.1899004,2.7808728,0.4415521
773,1747579751.4809685,-0.5862255,0.26187342,0.6772589,1.2420983,2.7686224,0.50333744
774,1747579751.4859614,-0.6133158,0.28798756,0.6587105,1.2884374,2.751578,0.545948
775,1747579751.490963,-0.6133158,0.28798756,0.6587105,1.2884374,2.751578,0.545948
776,1747579751.4959614,-0.61941725,0.307024,0.61624455,1.3401027,2.7547739,0.5864281
777,1747579751.5009625,-0.61941725,0.307024,0.61624455,1.3401027,2.7547739,0.5864281
778,1747579751.50596,-0.61160743,0.32069123,0.5623079,1.3550164,2.8549087,0.6498113
779,1747579751.510967,-0.61160743,0.32069123,0.5623079,1.3550164,2.8549087,0.6498113
780,1747579751.5159643,-0.5964759,0.3338703,0.5593792,1.3731259,2.9103024,0.6599313
781,1747579751.5209687,-0.5964759,0.3338703,0.5593792,1.3731259,2.9103024,0.6599313
782,1747579751.525967,-0.5964759,0.3338703,0.5593792,1.3731259,2.9103024,0.6599313
783,1747579751.5309687,-0.5964759,0.3338703,0.5593792,1.3731259,2.9103024,0.6599313
784,1747579751.5359654,-0.60770255,0.34290043,0.56670094,1.4519554,3.0072415,0.6945524
785,1747579751.540968,-0.61941725,0.34802565,0.5723142,1.5925703,3.0988543,0.7600662
786,1747579751.54597,-0.61941725,0.34802565,0.5723142,1.5925703,3.0988543,0.7600662
787,1747579751.550966,-0.61941725,0.34802565,0.5723142,1.5925703,3.0988543,0.7600662
788,1747579751.5559764,-0.6218578,0.36803833,0.42148685,1.7246631,3.1228228,0.8271778
789,1747579751.560969,-0.6218578,0.36803833,0.42148685,1.7246631,3.1228228,0.8271778
790,1747579751.5659657,-0.6218578,0.36803833,0.42148685,1.7246631,3.1228228,0.8271778
791,1747579751.5709598,-0.6218578,0.36803833,0.42148685,1.7246631,3.1228228,0.8271778
792,1747579751.5759723,-0.59159476,0.42392743,0.25357547,1.814678,2.9001825,0.8697884
793,1747579751.5809693,-0.59159476,0.42392743,0.25357547,1.814678,2.9001825,0.8697884
794,1747579751.5859644,-0.59159476,0.42392743,0.25357547,1.814678,2.9001825,0.8697884
795,1747579751.5909648,-0.59159476,0.42392743,0.25357547,1.814678,2.9001825,0.8697884
796,1747579751.5959606,-0.59159476,0.42392743,0.25357547,1.814678,2.9001825,0.8697884
797,1747579751.6009662,-0.59159476,0.42392743,0.25357547,1.814678,2.9001825,0.8697884
798,1747579751.605966,-0.59159476,0.42392743,0.25357547,1.814678,2.9001825,0.8697884
799,1747579751.610965,-0.55620646,0.46200037,0.031239327,1.7672738,2.6296053,0.66365975
800,1747579751.6159651,-0.55620646,0.46200037,0.031239327,1.7672738,2.6296053,0.66365975
801,1747579751.620961,-0.5696296,0.4554108,-0.073461235,1.5632756,2.644519,0.6359629
802,1747579751.625964,-0.5696296,0.4554108,-0.073461235,1.5632756,2.644519,0.6359629
803,1747579751.6309605,-0.56523657,0.45419052,-0.13447554,1.3214606,2.67914,0.59761333
804,1747579751.6359684,-0.53936654,0.46736962,-0.17035197,1.0210559,2.6919234,0.5267733
805,1747579751.6409988,-0.53936654,0.46736962,-0.17035197,1.0210559,2.6919234,0.5267733
806,1747579751.6459832,-0.53936654,0.46736962,-0.17035197,1.0210559,2.6919234,0.5267733
807,1747579751.6510062,-0.5757311,0.47176263,-0.12715383,0.7451525,2.5438516,0.38722363
808,1747579751.6559846,-0.5757311,0.47176263,-0.12715383,0.72491246,2.4410534,0.38935417
809,1747579751.6609879,-0.6296677,0.47225076,-0.102748096,0.72491246,2.4410534,0.38935417
810,1747579751.665993,-0.6296677,0.47225076,-0.102748096,0.72491246,2.4410534,0.38935417
811,1747579751.6709754,-0.6587105,0.47103047,-0.14179726,0.71958613,2.2993734,0.40906155
812,1747579751.6759696,-0.6587105,0.47103047,-0.14179726,0.71958613,2.2993734,0.40906155
813,1747579751.6809645,-0.63967407,0.48006064,-0.24991462,0.7030745,2.1097562,0.41758367
814,1747579751.6859756,-0.63967407,0.48006064,-0.24991462,0.7030745,2.1097562,0.41758367
815,1747579751.6909668,-0.61624455,0.5034901,-0.27261195,0.69668293,1.923335,0.4079963
816,1747579751.6959863,-0.614048,0.51398456,-0.31605414,0.69668293,1.923335,0.4079963
817,1747579751.7009974,-0.614048,0.51398456,-0.31605414,0.67005134,1.7230653,0.3797668
818,1747579751.7059648,-0.59037447,0.51618105,-0.37706846,0.61838603,1.7465011,0.39095205
819,1747579751.7109907,-0.59037447,0.51618105,-0.37706846,0.61838603,1.7465011,0.39095205
820,1747579751.7159674,-0.59037447,0.51618105,-0.37706846,0.61838603,1.7465011,0.39095205
821,1747579751.7209744,-0.54790854,0.5127643,-0.47835222,0.5725796,1.7816548,0.4000068
822,1747579751.7259696,-0.54790854,0.5127643,-0.47835222,0.5725796,1.7816548,0.4000068
823,1747579751.7309642,-0.54107493,0.5271637,-0.51349646,0.5448828,1.7827201,0.40959418
824,1747579751.7359693,-0.54107493,0.5271637,-0.51349646,0.52464277,1.7235979,0.39947417
825,1747579751.740982,-0.55864704,0.5361938,-0.5593792,0.52464277,1.7235979,0.39947417
826,1747579751.7459574,-0.57377857,0.54253924,-0.5976962,0.50600064,1.4855113,0.4394216
827,1747579751.7509654,-0.57377857,0.54253924,-0.5976962,0.50600064,1.4855113,0.4394216
828,1747579751.7559693,-0.57377857,0.54253924,-0.5976962,0.50600064,1.4855113,0.4394216
829,1747579751.7609828,-0.5435155,0.54986095,-0.6535853,0.48522797,1.3145363,0.44794372
830,1747579751.7659674,-0.439059,0.58158845,-0.6796995,0.47564057,1.1190603,0.39947417
831,1747579751.7709665,-0.439059,0.58158845,-0.6796995,0.47564057,1.1190603,0.39947417
832,1747579751.7759614,-0.439059,0.58158845,-0.6796995,0.47564057,1.1190603,0.39947417
833,1747579751.7809613,-0.41099238,0.5876899,-0.70093244,0.46924898,0.92092115,0.31851408
834,1747579751.7859592,-0.38439015,0.5776835,-0.77634615,0.4245079,0.6562029,0.18695392
835,1747579751.790962,-0.38439015,0.5776835,-0.77634615,0.4245079,0.6562029,0.18695392
836,1747579751.7959657,-0.3743838,0.56426036,-0.84468216,0.175236,0.15126756,-0.046339005
837,1747579751.8009684,-0.3743838,0.56426036,-0.84468216,0.175236,0.15126756,-0.046339005
838,1747579751.8059745,-0.3778006,0.55767083,-0.8856837,0.015978966,-0.14327806,-0.1635181
839,1747579751.810975,-0.3778006,0.55767083,-0.8856837,0.015978966,-0.14327806,-0.1635181
840,1747579751.8159688,-0.3778006,0.55767083,-0.8856837,0.015978966,-0.14327806,-0.1635181
841,1747579751.8209865,-0.3939084,0.54034275,-0.91204196,-0.15819177,-0.4245079,-0.26205507
842,1747579751.8259747,-0.3939084,0.54034275,-0.91204196,-0.15819177,-0.4245079,-0.26205507
843,1747579751.8309736,-0.3990336,0.52960426,-0.8856837,-0.3371562,-0.66845345,-0.33502567
844,1747579751.8359587,-0.40733153,0.53814626,-0.8434618,-0.6695187,-1.0721886,-0.44687843
845,1747579751.8409667,-0.40733153,0.53814626,-0.8434618,-0.6695187,-1.0721886,-0.44687843
846,1747579751.8459563,-0.4166057,0.55864704,-0.7878168,-0.82078624,-1.2655342,-0.5091964
847,1747579751.850968,-0.4166057,0.55864704,-0.7878168,-0.82078624,-1.2655342,-0.5091964
848,1747579751.855961,-0.44101146,0.59281504,-0.5957437,-0.9422264,-1.4413028,-0.5837649
849,1747579751.860959,-0.44101146,0.59281504,-0.5957437,-0.9422264,-1.4413028,-0.5837649
850,1747579751.865959,-0.45370242,0.59086263,-0.49690056,-1.0450244,-1.5877767,-0.6828345
851,1747579751.8709576,-0.45370242,0.59086263,-0.49690056,-1.0450244,-1.5877767,-0.6828345
852,1747579751.8759713,-0.45370242,0.59086263,-0.49690056,-1.0450244,-1.5877767,-0.6828345
853,1747579751.8809743,-0.47859627,0.57377857,-0.42051062,-1.0934939,-1.6442357,-0.74941355
854,1747579751.8859715,-0.52423495,0.5520575,-0.35949633,-1.0897655,-1.6527578,-0.799481
855,1747579751.8909774,-0.52423495,0.5520575,-0.35949633,-1.0897655,-1.6527578,-0.799481
856,1747579751.8959577,-0.575487,0.53033644,-0.31312546,-1.026915,-1.6506273,-0.7621967
857,1747579751.90096,-0.575487,0.53033644,-0.31312546,-1.026915,-1.6506273,-0.7621967
858,1747579751.9059663,-0.6042857,0.49958518,-0.26821893,-0.94755274,-1.7017599,-0.7233146
859,1747579751.9109633,-0.6042857,0.49958518,-0.26821893,-0.94755274,-1.7017599,-0.7233146
860,1747579751.9159644,-0.6228341,0.49885303,-0.2626056,-0.94755274,-1.7017599,-0.7233146
861,1747579751.9209738,-0.6228341,0.49885303,-0.2626056,-0.86872315,-1.820537,-0.6988135
862,1747579751.9259665,-0.6228341,0.49885303,-0.2626056,-0.86872315,-1.820537,-0.6988135
863,1747579751.9309726,-0.6125837,0.50763905,-0.28798756,-0.82557994,-1.9989687,-0.6961503
864,1747579751.9359677,-0.5879339,0.511544,-0.2796896,-0.82557994,-1.9989687,-0.6961503
865,1747579751.9409757,-0.5879339,0.511544,-0.2796896,-0.8788432,-2.2295985,-0.74035877
866,1747579751.9459627,-0.5747548,0.5017817,-0.2328306,-1.3363743,-2.684999,-1.0684602
867,1747579751.950962,-0.5747548,0.5017817,-0.2328306,-1.3363743,-2.684999,-1.0684602
868,1747579751.9559655,-0.6203935,0.4229512,-0.09689073,-1.6287893,-2.6823359,-1.2096078
869,1747579751.9609601,-0.6203935,0.4229512,-0.09689073,-1.6287893,-2.6823359,-1.2096078
870,1747579751.9659636,-0.6203935,0.4229512,-0.09689073,-1.6287893,-2.6823359,-1.2096078
871,1747579751.9709647,-0.6555378,0.35071027,-0.011470691,-1.9403793,-2.5427864,-1.3012205
872,1747579751.9759634,-0.73339206,0.2894519,0.117635585,-1.9403793,-2.5427864,-1.3012205
873,1747579751.9809616,-0.73339206,0.2894519,0.117635585,-2.1933794,-2.2706113,-1.3177321
874,1747579751.9859722,-0.73339206,0.2894519,0.117635585,-2.1933794,-2.2706113,-1.3177321
875,1747579751.9909592,-0.8412653,0.24161668,0.28920785,-2.2003038,-1.5792545,-1.0657971
876,1747579751.9959664,-0.9276616,0.22062775,0.42563587,-1.9068234,-1.3241237,-0.80374205
877,1747579752.0009756,-0.9276616,0.22062775,0.42563587,-1.9068234,-1.3241237,-0.80374205
878,1747579752.0059679,-0.9725681,0.24259292,0.5774395,-1.4429007,-1.2000204,-0.509729
879,1747579752.0109692,-0.9725681,0.24259292,0.5774395,-1.4429007,-1.2000204,-0.509729
880,1747579752.0159698,-0.9725681,0.24259292,0.5774395,-1.4429007,-1.2000204,-0.509729
881,1747579752.0209584,-0.88885653,0.281398,0.58256465,-0.88683265,-1.2410331,-0.23595607
882,1747579752.0259683,-0.8139309,0.32923323,0.5315567,-0.21411815,-1.5350461,-0.04527374
883,1747579752.030968,-0.8139309,0.32923323,0.5315567,-0.21411815,-1.5350461,-0.04527374
884,1747579752.0359616,-0.7844,0.37072295,0.4373506,0.41172472,-2.2034996,-0.007456851
885,1747579752.0409737,-0.7844,0.37072295,0.4373506,0.41172472,-2.2034996,-0.007456851
886,1747579752.0459661,-0.74291027,0.4058672,0.19719826,0.4133226,-2.4841967,-0.056991648
887,1747579752.0509593,-0.74291027,0.4058672,0.19719826,0.4133226,-2.4841967,-0.056991648
888,1747579752.0559652,-0.7219213,0.40635532,0.12373702,0.21891184,-2.644519,-0.11717909
889,1747579752.0609744,-0.7219213,0.40635532,0.12373702,0.21891184,-2.644519,-0.11717909
890,1747579752.0659764,-0.7219213,0.40635532,0.12373702,0.21891184,-2.644519,-0.11717909
891,1747579752.0709794,-0.66969305,0.39073566,0.102259986,-0.48203218,-2.4772725,-0.24341293
892,1747579752.0759678,-0.64187056,0.37316352,0.12349297,-0.85540736,-2.2040322,-0.2876214
893,1747579752.0809693,-0.64187056,0.37316352,0.12349297,-0.85540736,-2.2040322,-0.2876214
894,1747579752.085963,-0.64357895,0.3734076,0.18768002,-1.1653993,-1.881257,-0.32117724
895,1747579752.0909684,-0.64357895,0.3734076,0.18768002,-1.1653993,-1.881257,-0.32117724
896,1747579752.0959744,-0.6787232,0.37658033,0.41099238,-1.3507553,-1.5845809,-0.33662358
897,1747579752.1009736,-0.6787232,0.37658033,0.41099238,-1.3507553,-1.5845809,-0.33662358
898,1747579752.1059704,-0.6962953,0.39244407,0.5437595,-1.3246564,-1.355549,-0.33449304
899,1747579752.110976,-0.6962953,0.39244407,0.5437595,-1.3246564,-1.355549,-0.33449304
900,1747579752.1159759,-0.6962953,0.39244407,0.5437595,-1.3246564,-1.355549,-0.33449304
901,1747579752.1209688,-0.6962953,0.39244407,0.5437595,-1.3246564,-1.355549,-0.33449304
902,1747579752.1259692,-0.73680884,0.42002252,0.6294237,-0.75101143,-1.361408,-0.23595607
903,1747579752.1309664,-0.73680884,0.42002252,0.6294237,-0.75101143,-1.361408,-0.23595607
904,1747579752.135961,-0.73680884,0.42002252,0.6294237,-0.75101143,-1.361408,-0.23595607
905,1747579752.1409755,-0.73680884,0.42002252,0.6294237,-0.75101143,-1.361408,-0.23595607
906,1747579752.1459715,-0.7250941,0.4634647,0.5274077,-0.13315806,-1.8466359,-0.1257012
907,1747579752.1509652,-0.681896,0.48689422,0.43076107,0.010120012,-2.1241374,-0.12942964
908,1747579752.155971,-0.681896,0.48689422,0.43076107,0.010120012,-2.1241374,-0.12942964
909,1747579752.160983,-0.63918597,0.48713827,0.37975308,-0.19973709,-2.58806,-0.31638354
910,1747579752.1659753,-0.63503695,0.4685899,0.37804466,-0.45859635,-2.6162896,-0.4213121
911,1747579752.1709683,-0.63503695,0.4685899,0.37804466,-0.45859635,-2.6162896,-0.4213121
912,1747579752.1759784,-0.63503695,0.4685899,0.37804466,-0.45859635,-2.6162896,-0.4213121
913,1747579752.180985,-0.61819696,0.44418418,0.4166057,-0.7866978,-2.4192157,-0.4825648
914,1747579752.1859756,-0.6252747,0.37316352,0.56718904,-0.984837,-2.1470406,-0.48469532
915,1747579752.190976,-0.6252747,0.37316352,0.56718904,-0.984837,-2.1470406,-0.48469532
916,1747579752.1959593,-0.6240544,0.3619369,0.6672525,-1.0684602,-1.8626149,-0.4575311
917,1747579752.2009678,-0.6240544,0.3619369,0.6672525,-1.0684602,-1.8626149,-0.4575311
918,1747579752.2059696,-0.6221019,0.3521746,0.7365648,-0.9518138,-1.7065537,-0.44208476
919,1747579752.2109663,-0.6221019,0.3521746,0.7365648,-0.9518138,-1.7065537,-0.44208476
920,1747579752.2159653,-0.6221019,0.3521746,0.7365648,-0.9518138,-1.7065537,-0.44208476
921,1747579752.2209754,-0.6535853,0.3414361,0.78708464,-0.80587256,-1.7880464,-0.43409526
922,1747579752.2259815,-0.6535853,0.3414361,0.78708464,-0.80587256,-1.7880464,-0.43409526
923,1747579752.2309773,-0.6667644,0.32093528,0.81295466,-0.66206187,-1.9302592,-0.4165184
924,1747579752.235968,-0.6572462,0.30970863,0.80685323,-0.5603291,-2.0879183,-0.39574575
925,1747579752.2409744,-0.6572462,0.30970863,0.80685323,-0.5603291,-2.0879183,-0.39574575
926,1747579752.2459652,-0.7055695,0.30507156,0.81734776,-0.5289038,-2.2397184,-0.39787626
927,1747579752.2509832,-0.7055695,0.30507156,0.81734776,-0.5289038,-2.2397184,-0.39787626
928,1747579752.2559674,-0.72875494,0.29701766,0.87274873,-0.50600064,-2.214152,-0.29667616
929,1747579752.260962,-0.72875494,0.29701766,0.87274873,-0.50600064,-2.214152,-0.29667616
930,1747579752.2659607,-0.72875494,0.29701766,0.87274873,-0.50600064,-2.214152,-0.29667616
931,1747579752.270961,-0.72875494,0.29701766,0.87274873,-0.50600064,-2.214152,-0.29667616
932,1747579752.2759733,-0.72875494,0.29701766,0.87274873,-0.50600064,-2.214152,-0.29667616
933,1747579752.2809818,-0.7072779,0.27871338,0.9581688,-0.330232,-1.7294569,-0.10173275
934,1747579752.2859645,-0.66920495,0.2933568,0.9471862,-0.23915187,-1.4860439,-0.041012682
935,1747579752.2909765,-0.66920495,0.2933568,0.9471862,-0.23915187,-1.4860439,-0.041012682
936,1747579752.2959669,-0.64772797,0.30507156,0.8844635,-0.1949434,-1.3305153,-0.012250541
937,1747579752.300962,-0.64772797,0.30507156,0.8844635,-0.1949434,-1.3305153,-0.012250541
938,1747579752.3059735,-0.64431113,0.30800024,0.8437059,-0.18216023,-1.1994878,0.02876214
939,1747579752.3109717,-0.64431113,0.30800024,0.8437059,-0.18216023,-1.1994878,0.02876214
940,1747579752.3159647,-0.64431113,0.30800024,0.8437059,-0.18216023,-1.1994878,0.02876214
941,1747579752.3209755,-0.596964,0.31507793,0.8085616,-0.23009712,-1.2357068,0.006924219
942,1747579752.3260179,-0.596964,0.31507793,0.8085616,-0.3089267,-1.2953615,-0.028229509
943,1747579752.3309817,-0.5764632,0.31751847,0.77781045,-0.3089267,-1.2953615,-0.028229509
944,1747579752.3359668,-0.55815893,0.30555966,0.7753699,-0.41545314,-1.3523532,-0.061252706
945,1747579752.3409693,-0.55815893,0.30555966,0.7753699,-0.41545314,-1.3523532,-0.061252706
946,1747579752.3459594,-0.5618198,0.29164842,0.8075854,-0.51026165,-1.3848438,-0.058589544
947,1747579752.3509665,-0.5618198,0.29164842,0.8075854,-0.51026165,-1.3848438,-0.058589544
948,1747579752.3559613,-0.5730464,0.28237423,0.8471227,-0.48682585,-1.3768543,-0.020772656
949,1747579752.3609693,-0.5730464,0.28237423,0.8471227,-0.48682585,-1.3768543,-0.020772656
950,1747579752.365963,-0.5730464,0.28237423,0.8471227,-0.48682585,-1.3768543,-0.020772656
951,1747579752.3709607,-0.58891016,0.27505252,0.8771418,-0.4165184,-1.3369069,0.030360037
952,1747579752.375967,-0.6016011,0.27480847,0.8983747,-0.33129725,-1.2729911,0.08841695
953,1747579752.3809676,-0.6016011,0.27480847,0.8983747,-0.33129725,-1.2729911,0.08841695
954,1747579752.3859682,-0.5515694,0.27944556,0.86201024,-0.28176245,-1.2112057,0.1454086
955,1747579752.390974,-0.5515694,0.27944556,0.86201024,-0.28176245,-1.2112057,0.1454086
956,1747579752.3959749,-0.5515694,0.27944556,0.86201024,-0.28176245,-1.2112057,0.1454086
957,1747579752.4009776,-0.50666285,0.28408262,0.84468216,-0.2876214,-1.0977551,0.15765914
958,1747579752.4059722,-0.46370876,0.29213652,0.83882475,-0.31158987,-1.0439591,0.11132014
959,1747579752.4109728,-0.46370876,0.29213652,0.83882475,-0.31158987,-1.0439591,0.11132014
960,1747579752.4159672,-0.44442827,0.30751213,0.822717,-0.36485308,-1.0120013,0.039414786
961,1747579752.4209661,-0.44442827,0.30751213,0.822717,-0.36485308,-1.0120013,0.039414786
962,1747579752.4259596,-0.44442827,0.30751213,0.822717,-0.36485308,-1.0120013,0.039414786
963,1747579752.4309602,-0.44442827,0.30751213,0.822717,-0.36485308,-1.0120013,0.039414786
964,1747579752.4359605,-0.44442827,0.30751213,0.822717,-0.36485308,-1.0120013,0.039414786
965,1747579752.4409666,-0.44442827,0.30751213,0.822717,-0.36485308,-1.0120013,0.039414786
966,1747579752.445969,-0.44442827,0.30751213,0.822717,-0.36485308,-1.0120013,0.039414786
967,1747579752.4509606,-0.40562314,0.30751213,0.8171036,-0.48203218,-1.3044163,-0.19760656
968,1747579752.455962,-0.41074833,0.2967736,0.8151512,-0.5299691,-1.4413028,-0.24554345
969,1747579752.460962,-0.41074833,0.2967736,0.8151512,-0.5299691,-1.4413028,-0.24554345
970,1747579752.4659677,-0.41074833,0.2967736,0.8151512,-0.5299691,-1.4413028,-0.24554345
971,1747579752.4709892,-0.46151224,0.28359452,0.8500514,-0.5699165,-1.5430355,-0.26312032
972,1747579752.4759755,-0.46883395,0.26553428,0.8922733,-0.5992113,-1.5888419,-0.25672874
973,1747579752.4809697,-0.46883395,0.26553428,0.8922733,-0.5992113,-1.5888419,-0.25672874
974,1747579752.4859698,-0.45004156,0.24796216,0.9488945,-0.56672066,-1.506284,-0.18162759
975,1747579752.4909742,-0.45004156,0.24796216,0.9488945,-0.56672066,-1.506284,-0.18162759
976,1747579752.495964,-0.41587353,0.23917611,0.99184865,-0.4644553,-1.3912354,-0.1257012
977,1747579752.5009756,-0.41587353,0.23917611,0.99184865,-0.4644553,-1.3912354,-0.1257012
978,1747579752.505969,-0.3939084,0.23795582,1.0311419,-0.34567833,-1.2895026,-0.083090626
979,1747579752.5109742,-0.3939084,0.23795582,1.0311419,-0.34567833,-1.2895026,-0.083090626
980,1747579752.5159674,-0.37658033,0.25089085,1.0023432,-0.22690132,-1.2000204,-0.06178534
981,1747579752.5209768,-0.37658033,0.25089085,1.0023432,-0.22690132,-1.2000204,-0.06178534
982,1747579752.5259666,-0.38390204,0.26626647,0.9669548,-0.13102753,-1.1462245,-0.035153728
983,1747579752.5309677,-0.38390204,0.26626647,0.9669548,-0.13102753,-1.1462245,-0.035153728
984,1747579752.535968,-0.3687705,0.28554696,0.9191196,-0.006924219,-1.1265172,-0.0026631611
985,1747579752.5409687,-0.3687705,0.28554696,0.9191196,-0.006924219,-1.1265172,-0.0026631611
986,1747579752.5459638,-0.3333822,0.2928687,0.8793382,0.007456851,-1.1547467,-0.024501082
987,1747579752.5509634,-0.3333822,0.2928687,0.8793382,0.007456851,-1.1547467,-0.024501082
988,1747579752.5559642,-0.30019042,0.2928687,0.8232051,-0.04314321,-1.2159994,-0.070307456
989,1747579752.560977,-0.30019042,0.2928687,0.8232051,-0.04314321,-1.2159994,-0.070307456
990,1747579752.5659792,-0.30019042,0.2928687,0.8232051,-0.04314321,-1.2159994,-0.070307456
991,1747579752.5709903,-0.2848148,0.2848148,0.77170897,-0.15126756,-1.3262542,-0.1272991
992,1747579752.5759776,-0.2848148,0.2848148,0.77170897,-0.15126756,-1.3262542,-0.1272991
993,1747579752.5809822,-0.2848148,0.2848148,0.77170897,-0.15126756,-1.3262542,-0.1272991
994,1747579752.5859706,-0.2848148,0.2848148,0.77170897,-0.15126756,-1.3262542,-0.1272991
995,1747579752.5909667,-0.2779812,0.25943285,0.8266219,-0.4809669,-1.5483619,-0.25246766
996,1747579752.5959704,-0.27139166,0.24552159,0.8851956,-0.47137952,-1.555286,-0.25246766
997,1747579752.6009765,-0.27139166,0.24552159,0.8851956,-0.47137952,-1.555286,-0.25246766
998,1747579752.6059692,-0.21965154,0.24112856,0.9825745,-0.40586576,-1.5675366,-0.2593919
999,1747579752.6109734,-0.21965154,0.24112856,0.9825745,-0.40586576,-1.5675366,-0.2593919
1000,1747579752.6159632,-0.21965154,0.24112856,0.9825745,-0.40586576,-1.5675366,-0.2593919
1001,1747579752.6209702,-0.21037734,0.23966423,1.027481,-0.29614353,-1.5968314,-0.27324033
1002,1747579752.6259637,-0.21037734,0.23966423,1.027481,-0.29614353,-1.5968314,-0.27324033
1003,1747579752.6309679,-0.21037734,0.23966423,1.027481,-0.16777915,-1.6287893,-0.28176245
1004,1747579752.635967,-0.2306341,0.24137263,1.039928,-0.16777915,-1.6287893,-0.28176245
1005,1747579752.6409798,-0.26358184,0.24503349,1.0448091,0.04527374,-1.5696672,-0.22423817
1006,1747579752.6459732,-0.26358184,0.24503349,1.0448091,0.04527374,-1.5696672,-0.22423817
1007,1747579752.6509643,-0.29116032,0.24308102,1.0311419,0.103863284,-1.4705976,-0.14753912
1008,1747579752.655967,-0.29116032,0.24308102,1.0311419,0.103863284,-1.4705976,-0.14753912
1009,1747579752.6609936,-0.277005,0.24552159,1.0196712,0.103863284,-1.4705976,-0.14753912
1010,1747579752.665982,-0.277005,0.24552159,1.0196712,0.1438107,-1.3006879,-0.050600063
1011,1747579752.6709833,-0.22233616,0.24771811,1.0028312,0.15499598,-1.1728562,-0.002130529
1012,1747579752.6759691,-0.22233616,0.24771811,1.0028312,0.15499598,-1.1728562,-0.002130529
1013,1747579752.680969,-0.16254212,0.24918245,0.97403246,0.13102753,-1.0966897,-0.002130529
1014,1747579752.6859589,-0.1403329,0.24600971,0.96573454,0.02396845,-1.0743192,-0.10066749
1015,1747579752.6909692,-0.1403329,0.24600971,0.96573454,0.02396845,-1.0743192,-0.10066749
1016,1747579752.6959686,-0.15741692,0.24332508,0.9654905,-0.04261058,-1.1153319,-0.1304949
1017,1747579752.7009726,-0.15741692,0.24332508,0.9654905,-0.04261058,-1.1153319,-0.1304949
1018,1747579752.705971,-0.200371,0.20671648,0.99965847,-0.10865697,-1.160073,-0.13315806
1019,1747579752.7109675,-0.200371,0.20671648,0.99965847,-0.10865697,-1.160073,-0.13315806
1020,1747579752.7159743,-0.19817449,0.20329969,1.04066,-0.1438107,-1.1909657,-0.10333065
1021,1747579752.7209692,-0.19817449,0.20329969,1.04066,-0.1438107,-1.1909657,-0.10333065
1022,1747579752.7259848,-0.18865626,0.20793676,1.0679946,-0.15925704,-1.2138689,-0.07350325
1023,1747579752.7309797,-0.18865626,0.20793676,1.0679946,-0.15925704,-1.2138689,-0.07350325
1024,1747579752.7359653,-0.18157859,0.21794313,1.0794652,-0.330232,-1.1169298,-0.08149273
1025,1747579752.740961,-0.18157859,0.21794313,1.0794652,-0.330232,-1.1169298,-0.08149273
1026,1747579752.7459633,-0.19280522,0.26577836,1.1868503,-0.45220476,-0.908138,-0.096939065
1027,1747579752.7509668,-0.19280522,0.26577836,1.1868503,-0.45220476,-0.908138,-0.096939065
1028,1747579752.7559662,-0.19548985,0.2806658,1.2588474,-0.535828,-0.64395237,-0.10652645
1029,1747579752.7609653,-0.19548985,0.2806658,1.2588474,-0.535828,-0.64395237,-0.10652645
1030,1747579752.7659662,-0.19548985,0.2806658,1.2588474,-0.535828,-0.64395237,-0.10652645
1031,1747579752.7709832,-0.21891935,0.30726805,1.3198615,-0.5613944,-0.20240025,-0.027696876
1032,1747579752.7759647,-0.2306341,0.3277689,1.3908823,-0.479369,-0.046871636,0.018642128
1033,1747579752.7809658,-0.2306341,0.3277689,1.3908823,-0.479369,-0.046871636,0.018642128
1034,1747579752.7859652,-0.234539,0.34192422,1.4396937,-0.3392867,0.066046394,0.053263225
1035,1747579752.7909644,-0.234539,0.34192422,1.4396937,-0.3392867,0.066046394,0.053263225
1036,1747579752.7959685,-0.20085911,0.36218095,1.4658079,-0.1486044,0.128897,0.084155895
1037,1747579752.8009596,-0.20085911,0.36218095,1.4658079,-0.1486044,0.128897,0.084155895
1038,1747579752.8060167,-0.17084008,0.35315084,1.4296874,0.05752428,0.14327806,0.11664646
1039,1747579752.810967,-0.17084008,0.35315084,1.4296874,0.05752428,0.14327806,0.11664646
1040,1747579752.815961,-0.12690976,0.34168017,1.3528093,0.45380265,0.19014971,0.1272991
1041,1747579752.8209627,-0.12690976,0.34168017,1.3528093,0.45380265,0.19014971,0.1272991
1042,1747579752.8259654,-0.10689708,0.33948365,1.2495731,0.52144694,0.24394555,0.10918961
1043,1747579752.8309734,-0.10689708,0.33948365,1.2495731,0.52144694,0.24394555,0.10918961
1044,1747579752.835967,-0.11202228,0.33484653,1.1419438,0.50653327,0.25885928,0.0958738
1045,1747579752.8409696,-0.11202228,0.33484653,1.1419438,0.50653327,0.25885928,0.0958738
1046,1747579752.8459728,-0.11202228,0.33484653,1.1419438,0.50653327,0.25885928,0.0958738
1047,1747579752.8509743,-0.10494461,0.29945824,0.9957536,0.42876893,0.25832662,0.07084008
1048,1747579752.8559616,-0.111046046,0.28432667,0.9825745,0.3121225,0.26684874,0.034088463
1049,1747579752.8609612,-0.111046046,0.28432667,0.9825745,0.3121225,0.26684874,0.034088463
1050,1747579752.865979,-0.111046046,0.28432667,0.9825745,0.3121225,0.26684874,0.034088463
1051,1747579752.870975,-0.12593354,0.27993366,1.0086887,0.084155895,0.28815404,-0.03355583
1052,1747579752.8759656,-0.12593354,0.27993366,1.0086887,0.084155895,0.28815404,-0.03355583
1053,1747579752.8809776,-0.1210524,0.27432033,1.0562798,0.017044231,0.3334278,-0.068176925
1054,1747579752.8859737,-0.107873306,0.25259924,1.1021625,-0.047404267,0.44581318,-0.10279802
1055,1747579752.8909714,-0.107873306,0.25259924,1.1021625,-0.047404267,0.44581318,-0.10279802
1056,1747579752.8959668,-0.10323621,0.24820623,1.1397473,-0.091080114,0.5368933,-0.10652645
1057,1747579752.9009619,-0.10323621,0.24820623,1.1397473,-0.091080114,0.5368933,-0.10652645
1058,1747579752.90596,-0.10323621,0.24820623,1.1397473,-0.091080114,0.5368933,-0.10652645
1059,1747579752.9109626,-0.09664667,0.23966423,1.1668377,-0.13315806,0.69135666,-0.09853696
1060,1747579752.9159698,-0.09835507,0.23380683,1.1846539,-0.13741912,0.76059884,-0.10333065
1061,1747579752.9209738,-0.09835507,0.23380683,1.1846539,-0.13741912,0.76059884,-0.10333065
1062,1747579752.9259617,-0.10909359,0.24161668,1.1953924,-0.13741912,0.82824314,-0.113983296
1063,1747579752.930966,-0.10909359,0.24161668,1.1953924,-0.13741912,0.82824314,-0.113983296
1064,1747579752.935964,-0.17718557,0.25284332,1.2154051,-0.13156016,0.90014845,-0.12357068
1065,1747579752.940966,-0.17718557,0.25284332,1.2154051,-0.13156016,0.90014845,-0.12357068
1066,1747579752.9459693,-0.21818718,0.24918245,1.2322451,-0.12463594,0.9672601,-0.1272991
1067,1747579752.9509661,-0.21818718,0.24918245,1.2322451,-0.12463594,0.9672601,-0.1272991
1068,1747579752.9559624,-0.2545517,0.24674188,1.2439598,-0.05912218,1.2394352,-0.06551377
1069,1747579752.9609652,-0.2545517,0.24674188,1.2439598,-0.05912218,1.2394352,-0.06551377
1070,1747579752.9659777,-0.2545517,0.24674188,1.2439598,-0.05912218,1.2394352,-0.06551377
1071,1747579752.970981,-0.26651052,0.24478942,1.253478,0.033023197,1.4519554,0.008522116
1072,1747579752.975973,-0.26651052,0.24478942,1.253478,0.033023197,1.4519554,0.008522116
1073,1747579752.980965,-0.26651052,0.24478942,1.253478,0.033023197,1.4519554,0.008522116
1074,1747579752.9859653,-0.26651052,0.24478942,1.253478,0.033023197,1.4519554,0.008522116
1075,1747579752.9909627,-0.26651052,0.24478942,1.253478,0.033023197,1.4519554,0.008522116
1076,1747579752.9959767,-0.2421048,0.24259292,1.1734272,0.18535602,1.7145431,0.072970614
1077,1747579753.000969,-0.2421048,0.24259292,1.1734272,0.18535602,1.7145431,0.072970614
1078,1747579753.005961,-0.24064046,0.24137263,1.1526824,0.22423817,1.8034927,0.060720075
1079,1747579753.0109692,-0.24064046,0.24137263,1.1526824,0.22423817,1.8034927,0.060720075
1080,1747579753.0159645,-0.24478942,0.23673552,1.1399914,0.24074976,1.8764633,0.055926383
1081,1747579753.0209634,-0.24478942,0.23673552,1.1399914,0.24074976,1.8764633,0.055926383
1082,1747579753.0259717,-0.25137895,0.23649146,1.1441404,0.27643612,1.973935,0.051132694
1083,1747579753.0309658,-0.25137895,0.23649146,1.1441404,0.27643612,1.973935,0.051132694
1084,1747579753.0359683,-0.26480213,0.22135992,1.1180263,0.29134983,2.0453076,0.05006743
1085,1747579753.0409703,-0.26480213,0.22135992,1.1180263,0.29134983,2.0453076,0.05006743
1086,1747579753.0459626,-0.30629185,0.21281794,1.1224194,0.33502567,2.20563,0.077231675
1087,1747579753.0509684,-0.30629185,0.21281794,1.1224194,0.33502567,2.20563,0.077231675
1088,1747579753.0559711,-0.3275248,0.208913,1.1243718,0.38083205,2.2855248,0.0974717
1089,1747579753.0609713,-0.3275248,0.208913,1.1243718,0.38083205,2.2855248,0.0974717
1090,1747579753.065966,-0.3275248,0.208913,1.1243718,0.38083205,2.2855248,0.0974717
1091,1747579753.0709782,-0.34045988,0.19231711,1.1316935,0.42397526,2.3318639,0.12357068
1092,1747579753.07596,-0.37487194,0.1696198,1.1399914,0.48469532,2.3952472,0.17630127
1093,1747579753.0809705,-0.37487194,0.1696198,1.1399914,0.48469532,2.3952472,0.17630127
1094,1747579753.085967,-0.40196228,0.13520771,1.1685461,0.55606806,2.4458473,0.24607609
1095,1747579753.0909631,-0.40196228,0.13520771,1.1685461,0.55606806,2.4458473,0.24607609
1096,1747579753.095958,-0.3802412,0.13057062,1.1641531,0.6599313,2.4841967,0.396811
1097,1747579753.1009622,-0.3802412,0.13057062,1.1641531,0.6599313,2.4841967,0.396811
1098,1747579753.1059675,-0.3402158,0.13764828,1.1499978,0.6801714,2.52734,0.42717105
1099,1747579753.1109598,-0.3402158,0.13764828,1.1499978,0.6801714,2.52734,0.42717105
1100,1747579753.1159656,-0.3402158,0.13764828,1.1499978,0.6801714,2.52734,0.42717105
1101,1747579753.1209753,-0.29604146,0.15058333,1.1434082,0.68176925,2.572081,0.4000068
1102,1747579753.1259644,-0.2848148,0.1513155,1.138283,0.6780408,2.667955,0.3472762
1103,1747579753.1309726,-0.2848148,0.1513155,1.138283,0.6780408,2.667955,0.3472762
1104,1747579753.135969,-0.3943965,0.15961345,1.1155857,0.7052051,2.8181572,0.34088463
1105,1747579753.140974,-0.3943965,0.15961345,1.1155857,0.7052051,2.8181572,0.34088463
1106,1747579753.1459622,-0.45931572,0.15375607,1.0782449,0.8042747,3.1558459,0.47031426
1107,1747579753.1509624,-0.45931572,0.15375607,1.0782449,0.8042747,3.1558459,0.47031426
1108,1747579753.1559675,-0.50837123,0.15107143,1.0311419,0.8692558,3.2740903,0.5747102
1109,1747579753.1609645,-0.50837123,0.15107143,1.0311419,0.8692558,3.2740903,0.5747102
1110,1747579753.1659627,-0.49934113,0.18084641,0.9442575,0.9598033,3.3135052,0.6737798
1111,1747579753.170961,-0.49934113,0.18084641,0.9442575,0.9598033,3.3135052,0.6737798
1112,1747579753.175965,-0.49641246,0.2020794,0.91399443,1.0652645,3.2495892,0.73769563
1113,1747579753.1809685,-0.49641246,0.2020794,0.91399443,1.0652645,3.2495892,0.73769563
1114,1747579753.1859698,-0.5027579,0.2306341,0.8742131,1.3001553,3.0850058,0.76912093
1115,1747579753.190964,-0.5027579,0.2306341,0.8742131,1.3001553,3.0850058,0.76912093
1116,1747579753.1959596,-0.49348375,0.26162934,0.8361401,1.4152038,3.003513,0.7813715
1117,1747579753.2009656,-0.49348375,0.26162934,0.8361401,1.4152038,3.003513,0.7813715
1118,1747579753.205996,-0.48738232,0.2723679,0.810026,1.4919028,2.9864688,0.809601
1119,1747579753.2109804,-0.48738232,0.2723679,0.810026,1.4919028,2.9864688,0.809601
1120,1747579753.215971,-0.4170938,0.3048275,0.74461865,1.568602,3.012568,0.8133294
1121,1747579753.220972,-0.4170938,0.3048275,0.74461865,1.568602,3.012568,0.8133294
1122,1747579753.2260032,-0.4170938,0.3048275,0.74461865,1.568602,3.012568,0.8133294
1123,1747579753.2309651,-0.41148052,0.32239962,0.694831,1.6373115,3.05145,0.7765778
1124,1747579753.2359724,-0.4271002,0.33899552,0.6142921,1.6809874,3.0871365,0.7286409
1125,1747579753.2409768,-0.4271002,0.33899552,0.6142921,1.6809874,3.0871365,0.7286409
1126,1747579753.2459676,-0.47493544,0.34387666,0.53814626,1.6325178,3.115366,0.6631271
1127,1747579753.2509594,-0.47493544,0.34387666,0.53814626,1.6325178,3.115366,0.6631271
1128,1747579753.2559628,-0.5020258,0.34168017,0.52203846,1.6261262,3.1547806,0.6780408
1129,1747579753.26098,-0.5020258,0.34168017,0.52203846,1.6261262,3.1547806,0.6780408
1130,1747579753.2659633,-0.49763274,0.35363895,0.5217944,1.6724652,3.200587,0.727043
1131,1747579753.270968,-0.49763274,0.35363895,0.5217944,1.6724652,3.200587,0.727043
1132,1747579753.2759683,-0.49763274,0.35363895,0.5217944,1.6724652,3.200587,0.727043
1133,1747579753.28098,-0.47176263,0.37291947,0.5095915,1.7635453,3.1856732,0.7616641
1134,1747579753.2859592,-0.49641246,0.3961049,0.45248213,1.9627497,3.0178943,0.69987875
1135,1747579753.2909672,-0.49641246,0.3961049,0.45248213,1.9627497,3.0178943,0.69987875
1136,1747579753.2959666,-0.5037342,0.41001618,0.36974674,1.9856529,2.9252162,0.6593987
1137,1747579753.3009715,-0.5037342,0.41001618,0.36974674,1.9856529,2.9252162,0.6593987
1138,1747579753.3059804,-0.5503491,0.42465958,0.24552159,1.9510318,2.8128307,0.6178534
1139,1747579753.3110087,-0.5503491,0.42465958,0.24552159,1.9510318,2.8128307,0.6178534
1140,1747579753.3159688,-0.5693855,0.42051062,0.20354374,1.8951055,2.7611654,0.6103965
1141,1747579753.320966,-0.5693855,0.42051062,0.20354374,1.8951055,2.7611654,0.6103965
1142,1747579753.325974,-0.5693855,0.42051062,0.20354374,1.8951055,2.7611654,0.6103965
1143,1747579753.3309703,-0.54815257,0.41636166,0.17596528,1.856756,2.7702203,0.63436496
1144,1747579753.3359683,-0.54156303,0.4166057,0.13545178,1.7976338,2.7888622,0.6940198
1145,1747579753.340975,-0.54156303,0.4166057,0.13545178,1.7976338,2.7888622,0.6940198
1146,1747579753.3459725,-0.54156303,0.4166057,0.13545178,1.7512947,2.757437,0.7030745
1147,1747579753.3509734,-0.54766446,0.4195344,0.08615221,1.7512947,2.757437,0.7030745
1148,1747579753.3559647,-0.56987363,0.4288086,0.042221904,1.7113473,2.7047064,0.7254451
1149,1747579753.3609693,-0.56987363,0.4288086,0.042221904,1.7113473,2.7047064,0.7254451
1150,1747579753.3659742,-0.56987363,0.4288086,0.042221904,1.7113473,2.7047064,0.7254451
1151,1747579753.3709695,-0.5645044,0.46200037,-0.058085624,1.6442357,2.6013758,0.74728304
1152,1747579753.3759718,-0.5645044,0.46200037,-0.058085624,1.5504924,2.4820662,0.7222493
1153,1747579753.3809748,-0.5440036,0.47542354,-0.093717985,1.5504924,2.4820662,0.7222493
1154,1747579753.3859708,-0.54083085,0.4881145,-0.1044565,1.3390374,2.2615564,0.56672066
1155,1747579753.3909655,-0.54083085,0.4881145,-0.1044565,1.3390374,2.2615564,0.56672066
1156,1747579753.3959696,-0.5603554,0.4932397,-0.119588055,1.2271847,2.197108,0.50333744
1157,1747579753.4009643,-0.5603554,0.4932397,-0.119588055,1.2271847,2.197108,0.50333744
1158,1747579753.405962,-0.5962319,0.47713193,-0.22013964,1.0562097,2.1704764,0.45593318
1159,1747579753.4109743,-0.5962319,0.47713193,-0.22013964,1.0562097,2.1704764,0.45593318
1160,1747579753.4159648,-0.6023333,0.47273886,-0.2306341,0.8378305,2.183792,0.41172472
1161,1747579753.4209642,-0.6023333,0.47273886,-0.2306341,0.8378305,2.183792,0.41172472
1162,1747579753.425964,-0.60819066,0.46883395,-0.23697957,0.61199445,2.2365227,0.37816888
1163,1747579753.4309697,-0.60819066,0.46883395,-0.23697957,0.61199445,2.2365227,0.37816888
1164,1747579753.435964,-0.6191732,0.47127452,-0.22868164,0.22849922,2.3483756,0.3270362
1165,1747579753.4409683,-0.6191732,0.47127452,-0.22868164,0.22849922,2.3483756,0.3270362
1166,1747579753.4459674,-0.64235866,0.47444725,-0.20842488,0.14008227,2.3281355,0.3254383
1167,1747579753.4509752,-0.64235866,0.47444725,-0.20842488,0.14008227,2.3281355,0.3254383
1168,1747579753.4559639,-0.7170402,0.48054874,-0.118855886,0.1123854,2.290851,0.34408042
1169,1747579753.4609652,-0.7170402,0.48054874,-0.118855886,0.1123854,2.290851,0.34408042
1170,1747579753.4661012,-0.7238738,0.47176263,-0.08371163,0.1603223,2.2642195,0.41705105
1171,1747579753.4709668,-0.7238738,0.47176263,-0.08371163,0.1603223,2.2642195,0.41705105
1172,1747579753.4759624,-0.7141115,0.46834585,-0.05759751,0.26738137,2.2349248,0.5219796
1173,1747579753.480975,-0.7141115,0.46834585,-0.05759751,0.26738137,2.2349248,0.5219796
1174,1747579753.4859698,-0.71826047,0.49885303,-0.04783522,0.6066681,2.0714068,0.6993461
1175,1747579753.4909658,-0.71826047,0.49885303,-0.04783522,0.6066681,2.0714068,0.6993461
1176,1747579753.4959595,-0.71826047,0.49885303,-0.04783522,0.6066681,2.0714068,0.6993461
1177,1747579753.500983,-0.6823841,0.53350914,-0.12080834,0.7717841,1.9228023,0.75154406
1178,1747579753.5059679,-0.6645679,0.545712,-0.18255483,0.9102685,1.7587516,0.78563255
1179,1747579753.5109625,-0.6645679,0.545712,-0.18255483,0.9102685,1.7587516,0.78563255
1180,1747579753.515967,-0.6645679,0.545712,-0.18255483,0.9102685,1.7587516,0.78563255
1181,1747579753.520973,-0.6379657,0.545468,-0.2489384,1.0897655,1.5227956,0.85700524
1182,1747579753.5260036,-0.614048,0.55645055,-0.30677995,1.1393003,1.4572818,0.86606
1183,1747579753.530979,-0.614048,0.55645055,-0.30677995,1.1393003,1.4572818,0.86606
1184,1747579753.535972,-0.58036816,0.56767714,-0.3863426,1.1403656,1.4263891,0.86499476
1185,1747579753.5409741,-0.58036816,0.56767714,-0.3863426,1.1403656,1.4263891,0.86499476
1186,1747579753.545969,-0.5012936,0.5618198,-0.5447358,1.109473,1.4040185,0.8452873
1187,1747579753.5509655,-0.5012936,0.5618198,-0.5447358,1.109473,1.4040185,0.8452873
1188,1747579753.5559714,-0.5012936,0.5618198,-0.5447358,1.109473,1.4040185,0.8452873
1189,1747579753.5609756,-0.4888467,0.5613316,-0.62600684,1.0594054,1.3891048,0.81705785
1190,1747579753.5659707,-0.4888467,0.5613316,-0.62600684,1.0594054,1.3891048,0.81705785
1191,1747579753.5709767,-0.4419877,0.5688974,-0.74315435,0.8383631,1.31933,0.7824367
1192,1747579753.5759668,-0.39268813,0.5764632,-0.86518294,0.65460503,1.2447615,0.74089146
1193,1747579753.580972,-0.39268813,0.5764632,-0.86518294,0.65460503,1.2447615,0.74089146
1194,1747579753.585962,-0.29652956,0.6216138,-0.95011485,0.4857606,1.0977551,0.6711166
1195,1747579753.590968,-0.29652956,0.6216138,-0.95011485,0.4857606,1.0977551,0.6711166
1196,1747579753.5959682,-0.26992732,0.65846646,-0.97085977,0.37923414,0.8612663,0.5928197
1197,1747579753.6009715,-0.26992732,0.65846646,-0.97085977,0.37923414,0.8612663,0.5928197
1198,1747579753.6059656,-0.2111095,0.69507504,-1.0121055,0.21411815,0.098004326,0.33449304
1199,1747579753.6109722,-0.2111095,0.69507504,-1.0121055,0.21411815,0.098004326,0.33449304
1200,1747579753.6159723,-0.14716652,0.72704655,-1.0540832,0.21411815,0.098004326,0.33449304
1201,1747579753.62098,-0.14716652,0.72704655,-1.0540832,0.09640643,-0.28229508,0.13315806
1202,1747579753.625964,-0.12568948,0.758774,-1.0477377,-0.036751624,-0.62744075,-0.080960095
1203,1747579753.6309648,-0.12568948,0.758774,-1.0477377,-0.036751624,-0.62744075,-0.080960095
1204,1747579753.6359696,-0.18011424,0.7636551,-0.93376297,-0.18002969,-0.892159,-0.25992453
1205,1747579753.640979,-0.18011424,0.7636551,-0.93376297,-0.18002969,-0.892159,-0.25992453
1206,1747579753.6459641,-0.20842488,0.75169635,-0.8473667,-0.18002969,-0.892159,-0.25992453
1207,1747579753.6509712,-0.20842488,0.75169635,-0.8473667,-0.31478566,-1.0562097,-0.4016047
1208,1747579753.6559668,-0.20842488,0.75169635,-0.8473667,-0.31478566,-1.0562097,-0.4016047
1209,1747579753.6609652,-0.20842488,0.75169635,-0.8473667,-0.31478566,-1.0562097,-0.4016047
1210,1747579753.6659737,-0.20842488,0.75169635,-0.8473667,-0.31478566,-1.0562097,-0.4016047
1211,1747579753.6709688,-0.20842488,0.75169635,-0.8473667,-0.31478566,-1.0562097,-0.4016047
1212,1747579753.6759648,-0.20842488,0.75169635,-0.8473667,-0.31478566,-1.0562097,-0.4016047
1213,1747579753.6809738,-0.33533466,0.68409246,-0.6360132,-0.7350325,-1.3949639,-0.87351686
1214,1747579753.6859708,-0.46883395,0.6079466,-0.5430274,-0.8133294,-1.4503576,-0.91346425
1215,1747579753.6909661,-0.46883395,0.6079466,-0.5430274,-0.8133294,-1.4503576,-0.91346425
1216,1747579753.6959672,-0.5015376,0.58280873,-0.4932397,-0.8815063,-1.490305,-0.9321064
1217,1747579753.7009609,-0.5015376,0.58280873,-0.4932397,-0.8815063,-1.490305,-0.9321064
1218,1747579753.7059655,-0.53863436,0.5703618,-0.4502856,-0.93423694,-1.5867114,-0.9257148
1219,1747579753.7109585,-0.53863436,0.5703618,-0.4502856,-0.93423694,-1.5867114,-0.9257148
1220,1747579753.7159722,-0.53863436,0.5703618,-0.4502856,-0.93423694,-1.5867114,-0.9257148
1221,1747579753.720966,-0.5530337,0.5679212,-0.4334457,-0.9619338,-1.6506273,-0.92305166
1222,1747579753.7259648,-0.5530337,0.5679212,-0.4334457,-0.9619338,-1.6506273,-0.92305166
1223,1747579753.7309647,-0.5523015,0.57402265,-0.4417436,-1.0162623,-1.7555559,-0.9347696
1224,1747579753.7359629,-0.5706058,0.5930591,-0.35559142,-1.0977551,-1.9148128,-0.9832391
1225,1747579753.741025,-0.5706058,0.5930591,-0.35559142,-1.0977551,-1.9148128,-0.9832391
1226,1747579753.7460053,-0.5789038,0.5942794,-0.28725538,-1.180313,-2.0431771,-1.045557
1227,1747579753.7509727,-0.5789038,0.5942794,-0.28725538,-1.180313,-2.0431771,-1.045557
1228,1747579753.7559648,-0.58891016,0.5847612,-0.24967057,-1.4274544,-2.1182783,-1.1824435
1229,1747579753.7609723,-0.58891016,0.5847612,-0.24967057,-1.4274544,-2.1182783,-1.1824435
1230,1747579753.7659688,-0.6023333,0.5649925,-0.19573392,-1.5760587,-2.0751352,-1.2458268
1231,1747579753.7709663,-0.6023333,0.5649925,-0.19573392,-1.5760587,-2.0751352,-1.2458268
1232,1747579753.775972,-0.6023333,0.5649925,-0.19573392,-1.5760587,-2.0751352,-1.2458268
1233,1747579753.7809756,-0.6289356,0.5337532,-0.13667206,-1.7038904,-1.973935,-1.2831111
1234,1747579753.7859678,-0.7302193,0.46712556,-0.014887493,-1.7848506,-1.8343854,-1.2703278
1235,1747579753.7909656,-0.7302193,0.46712556,-0.014887493,-1.7848506,-1.8343854,-1.2703278
1236,1747579753.7959697,-0.77732235,0.4322254,0.03441207,-1.7859159,-1.5542208,-1.0897655
1237,1747579753.8009822,-0.77732235,0.4322254,0.03441207,-1.7859159,-1.5542208,-1.0897655
1238,1747579753.805964,-0.8163715,0.40123013,0.08517598,-1.6974989,-1.4434333,-0.9502159
1239,1747579753.810966,-0.8163715,0.40123013,0.08517598,-1.6974989,-1.4434333,-0.9502159
1240,1747579753.815967,-0.8163715,0.40123013,0.08517598,-1.6974989,-1.4434333,-0.9502159
1241,1747579753.820968,-0.8336995,0.38951537,0.09859913,-1.5877767,-1.3885722,-0.8032094
1242,1747579753.825961,-0.7604824,0.3900035,0.09689073,-1.5243934,-1.4721955,-0.75420725
1243,1747579753.8309612,-0.7604824,0.3900035,0.09689073,-1.5243934,-1.4721955,-0.75420725
1244,1747579753.8359642,-0.68091977,0.39854547,0.1637624,-1.4620755,-1.68152,-0.83516735
1245,1747579753.8409595,-0.68091977,0.39854547,0.1637624,-1.4620755,-1.68152,-0.83516735
1246,1747579753.8459663,-0.68091977,0.39854547,0.1637624,-1.4620755,-1.68152,-0.83516735
1247,1747579753.850966,-0.68091977,0.39854547,0.1637624,-1.4620755,-1.68152,-0.83516735
1248,1747579753.8559654,-0.68091977,0.39854547,0.1637624,-1.4620755,-1.68152,-0.83516735
1249,1747579753.860965,-0.6889736,0.37999713,0.19988288,-1.31933,-2.0602214,-1.0492855
1250,1747579753.8659754,-0.6889736,0.37999713,0.19988288,-1.31933,-2.0602214,-1.0492855
1251,1747579753.870968,-0.6889736,0.37999713,0.19988288,-1.31933,-2.0602214,-1.0492855
1252,1747579753.8759708,-0.6889736,0.37999713,0.19988288,-1.31933,-2.0602214,-1.0492855
1253,1747579753.8809695,-0.8027043,0.3214234,0.27261195,-1.31933,-2.0602214,-1.0492855
1254,1747579753.885968,-0.90838104,0.28213018,0.33313814,-1.2815131,-1.9925772,-0.984837
1255,1747579753.8909702,-0.90838104,0.28213018,0.33313814,-1.2815131,-1.9925772,-0.984837
1256,1747579753.8959785,-0.9386441,0.2809099,0.35705575,-0.9528791,-1.4168017,-0.40373522
1257,1747579753.9009662,-0.9386441,0.2809099,0.35705575,-0.9528791,-1.4168017,-0.40373522
1258,1747579753.9059598,-0.9589009,0.29823795,0.36437747,-0.7281082,-1.2660668,-0.1438107
1259,1747579753.9109695,-0.9589009,0.29823795,0.36437747,-0.7281082,-1.2660668,-0.1438107
1260,1747579753.9159663,-0.9589009,0.29823795,0.36437747,-0.7281082,-1.2660668,-0.1438107
1261,1747579753.9209692,-0.8246695,0.35827604,0.379509,-0.37444046,-1.2804478,0.09960223
1262,1747579753.9259627,-0.7390053,0.40269446,0.3756041,-0.056991648,-1.4439659,0.19813919
1263,1747579753.9309654,-0.7390053,0.40269446,0.3756041,-0.056991648,-1.4439659,0.19813919
1264,1747579753.935958,-0.66847277,0.4471129,0.3116611,0.37337518,-1.9670109,0.12783173
1265,1747579753.9409637,-0.66847277,0.4471129,0.3116611,0.37337518,-1.9670109,0.12783173
1266,1747579753.9459739,-0.62356627,0.4729829,0.18645974,0.2977414,-2.2546322,-0.0127831735
1267,1747579753.9510396,-0.62356627,0.4729829,0.18645974,0.2977414,-2.2546322,-0.0127831735
1268,1747579753.95598,-0.62356627,0.4729829,0.18645974,0.2977414,-2.2546322,-0.0127831735
1269,1747579753.9609764,-0.5867136,0.49055508,-0.029774986,0.020240024,-2.4714136,-0.19867182
1270,1747579753.9659657,-0.5867136,0.49055508,-0.029774986,0.020240024,-2.4714136,-0.19867182
1271,1747579753.9709716,-0.5854933,0.48323336,-0.0388051,-0.38775626,-2.5592978,-0.38402784
1272,1747579753.9759731,-0.5920829,0.4544346,-0.009518232,-0.8431568,-2.511361,-0.5422196
1273,1747579753.980969,-0.5920829,0.4544346,-0.009518232,-0.8431568,-2.511361,-0.5422196
1274,1747579753.9859672,-0.6152683,0.41221267,0.06418706,-1.639442,-2.0847225,-0.69295454
1275,1747579753.9909673,-0.6152683,0.41221267,0.06418706,-1.639442,-2.0847225,-0.69295454
1276,1747579753.9959652,-0.6665203,0.36706212,0.1718163,-1.8897791,-1.7955033,-0.64341974
1277,1747579754.0009792,-0.6665203,0.36706212,0.1718163,-1.8897791,-1.7955033,-0.64341974
1278,1747579754.0059817,-0.7829357,0.30433938,0.43979117,-1.9142802,-1.6341157,-0.5305017
1279,1747579754.0109766,-0.7829357,0.30433938,0.43979117,-1.9142802,-1.6341157,-0.5305017
1280,1747579754.0159628,-0.7829357,0.30433938,0.43979117,-1.9142802,-1.6341157,-0.5305017
1281,1747579754.0209603,-0.7499879,0.2894519,0.56596875,-1.778459,-1.5749935,-0.36591834
1282,1747579754.025964,-0.7499879,0.2894519,0.56596875,-1.778459,-1.5749935,-0.36591834
1283,1747579754.0309622,-0.63381666,0.28627914,0.69434285,-1.5100124,-1.6820526,-0.23595607
1284,1747579754.036032,-0.58134437,0.29921418,0.82027644,-0.74941355,-2.2700787,-0.22796659
1285,1747579754.0409746,-0.58134437,0.29921418,0.82027644,-0.74941355,-2.2700787,-0.22796659
1286,1747579754.04596,-0.58134437,0.29921418,0.82027644,-0.74941355,-2.2700787,-0.22796659
1287,1747579754.051001,-0.60086894,0.32239962,0.87274873,-0.35260254,-2.5422537,-0.23861924
1288,1747579754.0559583,-0.6360132,0.32898918,0.8600578,-0.06018744,-2.7510455,-0.21837921
1289,1747579754.060964,-0.6360132,0.32898918,0.8600578,-0.06018744,-2.7510455,-0.21837921
1290,1747579754.0659702,-0.6360132,0.32898918,0.8600578,-0.06018744,-2.7510455,-0.21837921
1291,1747579754.0709732,-0.7048373,0.30409533,0.750232,0.09853696,-2.8714204,-0.16564862
1292,1747579754.0759642,-0.72485006,0.30507156,0.7153318,0.1587244,-2.8565066,-0.0644485
1293,1747579754.080974,-0.72485006,0.30507156,0.7153318,0.1587244,-2.8565066,-0.0644485
1294,1747579754.085967,-0.70996255,0.31019676,0.70337296,0.10279802,-2.5662222,0.13848437
1295,1747579754.0909648,-0.70996255,0.31019676,0.70337296,0.10279802,-2.5662222,0.13848437
1296,1747579754.0959623,-0.69287854,0.3180066,0.69165826,0.023435818,-2.3734093,0.21944448
1297,1747579754.1009583,-0.69287854,0.3180066,0.69165826,0.023435818,-2.3734093,0.21944448
1298,1747579754.1059642,-0.5930591,0.34753752,0.6045298,-0.13688648,-2.2466428,0.24234766
1299,1747579754.1109684,-0.5930591,0.34753752,0.6045298,-0.13688648,-2.2466428,0.24234766
1300,1747579754.115963,-0.5930591,0.34753752,0.6045298,-0.13688648,-2.2466428,0.24234766
1301,1747579754.120969,-0.5554743,0.35559142,0.58964235,-0.4133226,-2.2253375,0.2050634
1302,1747579754.1259587,-0.53082454,0.36584184,0.6233222,-0.72917354,-2.251969,0.1272991
1303,1747579754.1309648,-0.53082454,0.36584184,0.6233222,-0.72917354,-2.251969,0.1272991
1304,1747579754.1359708,-0.53082454,0.36584184,0.6233222,-0.72917354,-2.251969,0.1272991
1305,1747579754.1409853,-0.5122762,0.37121108,0.6745742,-1.2293152,-2.202967,-0.072970614
1306,1747579754.1459713,-0.5012936,0.36755022,0.7302193,-1.3576796,-2.1124194,-0.14008227
1307,1747579754.1509721,-0.5012936,0.36755022,0.7302193,-1.3576796,-2.1124194,-0.14008227
1308,1747579754.1560771,-0.5227706,0.35510328,0.8551766,-1.3693974,-1.937716,-0.1736381
1309,1747579754.160974,-0.5227706,0.35510328,0.8551766,-1.3693974,-1.937716,-0.1736381
1310,1747579754.1659682,-0.5227706,0.35510328,0.8551766,-1.3693974,-1.937716,-0.1736381
1311,1747579754.1709745,-0.5588911,0.3612047,0.8927614,-1.2580773,-1.7635453,-0.16298546
1312,1747579754.175966,-0.5588911,0.3612047,0.8927614,-1.2580773,-1.7635453,-0.16298546
1313,1747579754.1809762,-0.59964865,0.37365165,0.9022797,-1.0594054,-1.609082,-0.12037488
1314,1747579754.1859617,-0.56987363,0.37072295,0.8690878,-0.73343456,-1.7326527,-0.029294772
1315,1747579754.19096,-0.56987363,0.37072295,0.8690878,-0.73343456,-1.7326527,-0.029294772
1316,1747579754.1959631,-0.4790844,0.35046622,0.8019721,-0.727043,-1.988316,-0.054328486
1317,1747579754.2009737,-0.4790844,0.35046622,0.8019721,-0.727043,-1.988316,-0.054328486
1318,1747579754.205964,-0.40952805,0.35998443,0.81490713,-0.76113147,-2.2237396,-0.13635385
1319,1747579754.2109723,-0.40952805,0.35998443,0.81490713,-0.76113147,-2.2237396,-0.13635385
1320,1747579754.2159564,-0.33655494,0.35315084,0.82296103,-0.82185155,-2.394182,-0.257794
1321,1747579754.220965,-0.33655494,0.35315084,0.82296103,-0.82185155,-2.394182,-0.257794
1322,1747579754.2259798,-0.29823795,0.3226437,0.8346757,-0.92305166,-2.5001757,-0.39468047
1323,1747579754.2309744,-0.29823795,0.3226437,0.8346757,-0.92305166,-2.5001757,-0.39468047
1324,1747579754.2359583,-0.302631,0.29213652,0.86103404,-1.1590078,-2.4405208,-0.6412892
1325,1747579754.2409577,-0.302631,0.29213652,0.86103404,-1.1590078,-2.4405208,-0.6412892
1326,1747579754.2459717,-0.4080637,0.24747404,0.9608534,-1.1792477,-2.320146,-0.6737798
1327,1747579754.2509773,-0.4080637,0.24747404,0.9608534,-1.1792477,-2.320146,-0.6737798
1328,1747579754.2559597,-0.45785138,0.22746135,1.0091767,-1.1206582,-2.2077606,-0.65247446
1329,1747579754.2609658,-0.45785138,0.22746135,1.0091767,-1.1206582,-2.2077606,-0.65247446
1330,1747579754.2659643,-0.47786412,0.1969542,1.0465174,-1.1206582,-2.2077606,-0.65247446
1331,1747579754.2709675,-0.47786412,0.1969542,1.0465174,-0.8724516,-2.1299963,-0.49747851
1332,1747579754.2759671,-0.4720067,0.16815543,1.0831261,-0.72278196,-2.1427794,-0.38456047
1333,1747579754.280971,-0.4720067,0.16815543,1.0831261,-0.72278196,-2.1427794,-0.38456047
1334,1747579754.2859766,-0.44564855,0.17572121,1.1290088,-0.5539375,-2.1166804,-0.2759035
1335,1747579754.2909627,-0.44564855,0.17572121,1.1290088,-0.5539375,-2.1166804,-0.2759035
1336,1747579754.2959633,-0.4217309,0.18841219,1.1407236,-0.37923414,-2.040514,-0.18269286
1337,1747579754.3009706,-0.4217309,0.18841219,1.1407236,-0.37923414,-2.040514,-0.18269286
1338,1747579754.3062274,-0.39878955,0.2042759,1.1312053,-0.029827405,-1.7342505,-0.028229509
1339,1747579754.3109634,-0.39878955,0.2042759,1.1312053,-0.029827405,-1.7342505,-0.028229509
1340,1747579754.315967,-0.39878955,0.2042759,1.1312053,-0.029827405,-1.7342505,-0.028229509
1341,1747579754.3209662,-0.3909797,0.2238005,1.1092402,0.104928546,-1.5211977,0.035153728
1342,1747579754.325956,-0.38048524,0.2362474,1.0831261,0.2231729,-1.3171995,0.10013486
1343,1747579754.3309727,-0.38048524,0.2362474,1.0831261,0.2231729,-1.3171995,0.10013486
1344,1747579754.3359675,-0.30507156,0.21843125,0.9850151,0.2790993,-1.2032162,0.1571265
1345,1747579754.3409634,-0.30507156,0.21843125,0.9850151,0.2790993,-1.2032162,0.1571265
1346,1747579754.3459682,-0.26919514,0.2042759,0.94620997,0.24927188,-1.1994878,0.19228023
1347,1747579754.3509643,-0.26919514,0.2042759,0.94620997,0.24927188,-1.1994878,0.19228023
1348,1747579754.3559604,-0.2421048,0.19793043,0.9279056,0.24927188,-1.1994878,0.19228023
1349,1747579754.3609586,-0.2421048,0.19793043,0.9279056,0.06018744,-1.3331785,0.1933455
1350,1747579754.3659582,-0.2421048,0.19793043,0.9279056,0.06018744,-1.3331785,0.1933455
1351,1747579754.3709671,-0.22233616,0.19304928,0.92131615,-0.07190535,-1.4274544,0.16831179
1352,1747579754.375963,-0.20525214,0.18572757,0.9349833,-0.2050634,-1.5238608,0.13901702
1353,1747579754.3809597,-0.20525214,0.18572757,0.9349833,-0.2050634,-1.5238608,0.13901702
