id,timestamp,acc_x,acc_y,acc_z,gyro_x,gyro_y,gyro_z
1,1747533222180,-0.20744865,0.38927132,0.85224795,-0.054328486,-0.050600063,-0.0063915867
2,1747533222190,-0.386586695,0.567799165,0.3686485,0.75420725,0.37896782,-0.16511597
3,1747533222200,0.083589605,0.371577135,-0.889222575,1.6889768,-0.5235775,0.553404895
4,1747533222210,0.066993715,0.3250842499999999,-0.898618775,1.5747272,-0.47377637,0.532898545
5,1747533222220,0.0673598,0.256016065,-0.8590815,1.5195998,-0.3920173,0.53316486
6,1747533222230,0.07150877,0.22306833,-0.8175918,1.4732608,0.36485308,0.6593987
7,1747533222240,0.0993313,0.18645974,-0.7602383,1.5584819,0.7036072,0.73982614
8,1747533222250,0.132157005,0.18975451,-0.68885155,1.803759,0.72597775,0.77631147
9,1747533222260,0.16229808,0.1575389549999999,-0.68030955,1.93718335,0.44581318,0.7289072
10,1747533222270,0.19219509,0.098111015,-0.72631435,2.1257352,-0.087351695,0.59148808
11,1747533222280,0.19890666,0.0707766,-0.7648754,2.2525017,-0.42983422,0.48842376
12,1747533222290,0.1465563799999999,0.061380393,-0.95316555,2.3987093,-0.4801679599999999,0.428502615
13,1747533222300,0.13374338,0.05735345,-1.0143019,2.4266725,-0.43995422,0.4282363
14,1747533222310,0.1178796525,0.0574754849999999,-1.2307807,2.3507724000000003,-0.1507349174999999,0.48709215
15,1747533222320,0.131180775,0.07016646,-1.2329772,2.1513016,0.0010652635,0.536893275
16,1747533222330,0.152169695,0.07773223,-1.22187255,1.93931395,0.012250541,0.5520733
17,1747533222340,0.153145925,0.085420035,-1.1911213,1.82266755,-0.06711166,0.52810484
18,1747533222350,0.158515185,0.0733392035,-1.14926555,1.73238635,-0.13129384,0.501206915
19,1747533222360,0.16571487,0.057109397,-1.1248599,1.6980315,-0.15233281,0.4878911
20,1747533222370,0.2347830649999999,-0.102748105,-1.0594525,1.96834245,-0.077764308,0.385093095
21,1747533222380,0.21428227,-0.10665302,-1.0760484,2.07407,-0.06338324,0.35739622
22,1747533222390,0.132767135,-0.088104665,-1.21113405,2.2322617,-0.1784318,0.32277513
23,1747533222400,0.10348027,-0.07809832,-1.31912945,2.1792648000000003,-0.624244985,0.301203515
24,1747533222410,0.09542638,-0.0226973254999999,-1.43859545,1.92360135,-0.7616641,0.290284555
25,1747533222420,0.09640261,0.026846299,-1.5046129,1.7257284,-0.7813715,0.28495824
26,1747533222430,0.07468152,0.07980672,-1.564407,1.4290522,-0.51026165,0.3121225
27,1747533222440,0.0615024265,0.0932298699999999,-1.5568412,1.262072,-0.33502566,0.346477275
28,1747533222450,0.1166593625,0.0313613545,-1.3581786,0.73663037,0.308660375,0.46871637
29,1747533222460,0.19219508,-0.059916053,-1.1432862,0.785898835,0.43303,0.43809001
30,1747533222470,0.231000185,-0.13118077,-0.99111652,1.063400215,0.262854007,0.339819355
31,1747533222480,0.23161033,-0.15082738,-0.97281224,1.2250541,0.091080114,0.28549087
32,1747533222490,0.19744232,-0.136428,-1.0296775,1.4626081,-0.21411815,0.1965413
33,1747533222500,0.1090935849999999,-0.0568653369999999,-1.2753212,1.54756295,-0.5379585499999999,0.13954965
34,1747533222510,0.056377222,0.0008542015,-1.42602655,1.2945626,-0.5025385,0.1446096499999999
35,1747533222520,0.018426322515,0.0286767285,-1.4255384,0.9358348,-0.264451895,0.18935075
36,1747533222530,-0.00097622897,0.03929322,-1.4008886,0.8048073,-0.13209279,0.22210763
37,1747533222540,-0.0352662715,0.0367306144999999,-1.2133305499999998,0.5928197,0.10546118,0.31318775
38,1747533222550,-0.03099527,0.029530926,-1.1373067,0.45167214,0.22849922,0.39254996
39,1747533222560,0.0911553825,-0.059671998,-0.7527945650000001,0.53502907,0.14141386,0.403202595
40,1747533222570,0.142651455,-0.1153170525,-0.669327015,0.74888092,0.112918035,0.352336215
41,1747533222580,0.1637624,-0.13691612,-0.6440671,0.8772453,0.10759171,0.3222425
42,1747533222590,0.18255483,-0.14472595,-0.6648119,1.1547467,0.12676647,0.25033715
43,1747533222600,0.143261602,-0.148264775,-0.93278678,1.4152038999999998,0.050333746,0.106260133
44,1747533222610,0.053448537,-0.127519905,-1.155367,1.397627,-0.038349519,0.039148468
45,1747533222620,-0.008053889,-0.117025447,-1.2501832,1.3374395,-0.06764429,0.03888215
46,1747533222630,-0.025870068,-0.117391534,-1.2849613,1.24582675,-0.093476955,0.061252705
47,1747533222640,0.006345488,-0.17425688,-1.2949678,0.9443569,-0.11451593,0.13209279
48,1747533222650,0.05332651,-0.20207939,-1.25506435,0.8562063,0.032490564,0.17470337
49,1747533222660,0.0645531425,-0.194757685,-1.2448139500000002,0.82504732,0.13342437,0.2098571
50,1747533222670,0.065163285,-0.19646609,-1.2498171,0.80747044,0.15339808,0.22104238
51,1747533222680,0.06955632,-0.18523945,-1.2385906,0.7584683,0.14594123,0.23489082
52,1747533222690,0.0890808979999999,-0.166325015,-1.34060645,0.70467245,0.366983615,0.2727077
53,1747533222700,0.131424828,-0.160955755,-1.5980868,0.64049027,0.858869485,0.34967306
54,1747533222710,0.1632743,-0.16010156,-1.7747843,0.59388494,1.1749867,0.39840892
55,1747533222720,0.2186753,-0.174500935,-1.7140141,-0.0348874125,1.794438,0.45753109
56,1747533222730,0.23893206,-0.18426323,-1.6612977,-0.15073492,1.6186694,0.41438788
57,1747533222740,0.2706595,-0.20940112,-1.5290186,-0.289219305,0.5605954049999999,0.1789644325
58,1747533222750,0.29433302,-0.2707815249999999,-1.3565922,-0.13422333,-0.37976677,-0.0298274024999999
59,1747533222760,0.30128866,-0.2928686849999999,-1.3614733499999998,0.06924219,-1.058340275,-0.200536035
60,1747533222770,0.28664523,-0.2634597899999999,-1.4555574,0.11717909,-1.1851068,-0.2444782
61,1747533222780,0.237467695,-0.20110318,-1.6261535,-0.022636875,-1.075917075,-0.287887715
62,1747533222790,0.203299685,-0.1641285,-1.79540715,-0.28336035,-0.69668296,-0.25300031
63,1747533222800,0.206716485,-0.1692537,-1.8776544,-0.5336974999999999,-0.31664987,-0.2029328799999999
64,1747533222810,0.213428065,-0.175111075,-1.90938195,-0.801877825,0.02370213,-0.160322305
65,1747533222820,0.24027436,-0.195367835,-1.9030364,-1.054878125,0.264185575,-0.144609655
66,1747533222830,0.2613853,-0.21281794,-1.8943723,-1.1733888,0.35420042,-0.14647387
67,1747533222840,0.246985945,-0.20879098,-1.82017895,-1.5190671,0.325970925,-0.191747605
68,1747533222850,0.2272172949999999,-0.179992215,-1.7541615,-1.76301265,0.1121190795,-0.214118155
69,1747533222860,0.25003665,-0.17962613,-1.6974181499999998,-1.95342865,-0.1049285505,-0.25539715
70,1747533222870,0.272733965,-0.18182265,-1.5818571,-2.11641415,-0.254331895,-0.305464585
71,1747533222880,0.2806658,-0.18426323,-1.4994878,-2.1763353,-0.29667616,-0.3254383
72,1747533222890,0.2569922799999999,-0.167545305,-1.4123593,-2.2684808,-0.16937704,-0.40053943
73,1747533222900,0.23124424,-0.15839316,-1.3611073,-2.29484595,0.0023968465,-0.42717105
74,1747533222910,0.22685121,-0.16705719,-1.3179091,-2.30523225,0.05486112,-0.447411075
75,1747533222920,0.2323425,-0.17401282,-1.2983845,-2.3113575,0.05832323,-0.4884237649999999
76,1747533222930,0.20232345,-0.1432616,-1.2825208,-2.314287,0.05219796,-0.51292485
77,1747533222940,0.18792409,-0.14911897,-1.2822767,-2.4048345,0.025033714,-0.5949502
78,1747533222950,0.15229172,-0.13325526,-1.2874019,-2.459163,0.027164243,-0.6103965
79,1747533222960,0.127885995,-0.1291062875,-1.2565288,-2.5960494,-0.0402137335,-0.627440785
80,1747533222970,0.1260555625,-0.148142755,-1.20271415,-2.6708842500000003,-0.1342233175,-0.656735535
81,1747533222980,0.122760795,-0.15253578,-1.1634209,-2.6823359,-0.16937704,-0.6695187
82,1747533222990,0.13179092,-0.154488235,-1.1309613,-2.725479,-0.2735066499999999,-0.6628608
83,1747533223000,0.167545305,-0.183653075,-1.1169280499999998,-2.7318706500000003,-0.2889529899999999,-0.68363345
84,1747533223010,0.15277983,-0.1540001225,-1.1044811,-2.71056545,-0.24421188,-0.7078682350000001
85,1747533223020,0.12935033,-0.119099945,-1.0960611,-2.6961844,-0.21092236,-0.71159667
86,1747533223030,0.15570852,-0.09640261,-1.1019185,-2.7398603,-0.09054748,-0.7206514
87,1747533223040,0.10994779,-0.02477181,-1.05884235,-2.83919605,0.01917476,-0.734233525
88,1747533223050,0.095182325,-0.0200126939999999,-1.0143019,-2.91429725,0.079894835,-0.73023875
89,1747533223060,0.0799287475,-0.0194025504999999,-0.95963308,-2.96729415,0.182160217,-0.721184
90,1747533223070,0.0588177965,-0.00866403185,-0.8621322499999999,-2.9654299,0.24074976,-0.70973245
91,1747533223080,0.049787678,-0.0046370877,-0.79513854,-2.9465215,0.23009712,-0.7052051
92,1747533223090,0.07285109,0.0253819554,-0.71337937,-2.80217815,0.1603223,-0.71931983
93,1747533223100,0.08005078,0.04905551,-0.69507504,-2.7350664,0.13848437,-0.7339672
94,1747533223110,0.061502429,0.12690977,-0.72057902,-2.60270735,0.13156016,-0.77631146
95,1747533223120,0.049543623,0.1632743,-0.7482795,-2.5726137,0.13954964,-0.80107886
96,1747533223130,0.016839951,0.19109683,-0.76072645,-2.612561,0.13262543,-0.80800307
97,1747533223140,0.030751213,0.16034561,-0.74193406,-2.6493127,0.09427591,-0.81226414
98,1747533223150,-0.02281935355,0.18768002,-0.733636115,-2.63945905,0.093476955,-0.80214415
99,1747533223160,-0.035632359,0.2256309249999999,-0.70654574,-2.62827375,0.093476955,-0.7422230249999999
100,1747533223170,-0.021721095,0.24161668,-0.68580085,-2.6253443,0.08841695,-0.69987875
101,1747533223180,-0.0082979463999999,0.265412265,-0.658954575,-2.61149585,0.0996022249999999,-0.701476625
102,1747533223190,0.052472305,0.28408262,-0.5464442,-2.515622,0.12836437,-0.7387609
103,1747533223200,0.091521465,0.31739645,-0.53485147,-2.2517028,0.160588615,-0.83836312
104,1747533223210,0.071020655,0.376824395,-0.62356627,-1.99843615,0.161387565,-0.90547477
105,1747533223220,0.035754385,0.41062633,-0.747181265,-1.8503643,0.15499598,-0.9406285
106,1747533223230,0.01952458,0.4275883,-0.81490713,-1.8604844,0.16564862,-0.92997587
107,1747533223240,-0.025137896,0.45638704,-0.90642864,-1.9686087,0.2514024,-0.8745821
108,1747533223250,-0.009518232,0.47542354,-0.9408407,-2.2501048,0.458862685,-0.7914914799999999
109,1747533223260,0.158637215,0.49092115,-0.8664031999999999,-2.3568976,0.52464277,-0.80107886
110,1747533223270,0.183287,0.4932397,-0.844194,-2.4410534,0.51505536,-0.88470215
111,1747533223280,0.19036464,0.5191097,-0.8217408,-2.5268073,0.4889564,-0.98430437
112,1747533223290,0.1187338525,0.5673110699999999,-0.720090935,-2.65517165,0.5094627199999999,-1.0703244
113,1747533223300,0.063820969,0.57951397,-0.550471135,-2.8128308,0.57071542,-1.11000555
114,1747533223310,-0.022697326,0.5885440749999999,-0.349611995,-2.9617015,0.66073027,-1.1560783
115,1747533223320,-0.1635183625,0.5985504100000001,-0.181578593,-3.0421289,0.7355651000000001,-1.17045935
116,1747533223330,-0.2421048,0.59794027,-0.084687866,-3.0823426,0.7653925,-1.1648667
117,1747533223340,-0.34460884,0.55401,0.09127741,-3.123888,0.7392935,-1.1430287
118,1747533223350,-0.562185885,0.5630401,0.4557769,-3.0205573,0.58110177,-0.9779128
119,1747533223360,-0.636867405,0.57329048,0.768780325,-2.83493495,0.345944635,-0.83969472
120,1747533223370,-0.646629685,0.56926348,0.974398575,-2.7366643,0.24341293,-0.81013364
121,1747533223380,-0.6616392,0.5710939,1.0677505,-2.417085,0.087884314,-0.7552725
122,1747533223390,-0.7687803,0.6062382,1.1975889,-2.0074909,-0.01438107,-0.63862604
123,1747533223400,-0.8538343,0.60526198,1.2877681,-1.0721887,-0.3006708999999999,-0.2585929429999999
124,1747533223410,-0.848098925,0.6055060299999999,1.2856936,-0.3632552,-0.51585434,0.025033717
125,1747533223420,-0.83028275,0.60867876,1.2754432,-0.1454086,-0.567786,0.10439592
126,1747533223430,-0.7936742,0.61209553,1.2290722,0.3057309,-0.6034723,0.24181503
127,1747533223440,-0.763167,0.6042857,1.1473131,0.7520767,-0.5906891,0.38402784
128,1747533223450,-0.63589115,0.560599525,0.87628752,1.50441975,-0.5616607,0.66712186
129,1747533223460,-0.5163031,0.5302143749999999,0.6709133700000001,1.99816985,-0.51132695,0.85274418
130,1747533223470,-0.43185929,0.52582135,0.530580465,2.3246734,-0.44607949,0.9555422
131,1747533223480,-0.344486805,0.5252112,0.361570815,2.58752735,-0.4066647,1.0319748999999998
132,1747533223490,-0.25540592,0.518499585,0.17913802,2.73373485,-0.40480049,1.06286755
133,1747533223500,-0.185239455,0.535705635,-0.059794015,2.81016755,-0.38695732,1.0865697
134,1747533223510,-0.141675225,0.56584675,-0.277981185,2.79125915,-0.40400155,1.13051185
135,1747533223520,-0.108971555,0.5933032,-0.386586675,2.6759443000000003,-0.50546798,1.1723235
136,1747533223530,-0.08981306,0.6108753,-0.42905265,2.6019084,-0.57098174,1.1883025
137,1747533223540,-0.03099527,0.6157564,-0.44149956,2.3651534,-0.768055665,1.16593195
138,1747533223550,0.0843217775,0.5752429,-0.39317621,2.2905849,-0.692688215,1.06899287
139,1747533223560,0.1136086474999999,0.5419290999999999,-0.374627875,2.2812638,-0.56885123,0.99442434
140,1747533223570,0.1148289369999999,0.5197199,-0.38988145,2.443983,-0.1254348884999999,0.967260125
141,1747533223580,0.108117364,0.5205741,-0.40318257,2.514024,0.034088463,0.96299905
142,1747533223590,0.102015932,0.5104457200000001,-0.495436235,2.582201,0.1448759565,0.96459696
143,1747533223600,0.082857435,0.5032460400000001,-0.63186425,2.6996465,0.086286412,0.914529535
144,1747533223610,0.055767078,0.5049544699999999,-0.72509407,2.68366755,-0.224504483,0.8434231299999999
145,1747533223620,0.041733786,0.5037342,-0.77414954,2.6184201,-0.36591834,0.82398206
146,1747533223630,0.035510329,0.413310945,-0.83028277,2.1736722,-0.322242505,0.8119978299999999
147,1747533223640,0.036608588,0.38561043,-0.8061211,2.150769,-0.19014971,0.8362326
148,1747533223650,0.036608588,0.38561043,-0.8061211,2.150769,-0.19014971,0.8362326
149,1747533223660,0.19134088,0.2798116499999999,-0.7308294200000001,2.5497105,0.5198490649999999,0.93397062
150,1747533223670,0.21232979,0.2884757,-0.74486274,2.6711507,0.61199445,0.9337043
151,1747533223680,0.25821257,0.36730617,-0.96719885,2.914031,0.27004454,0.86392945
152,1747533223690,0.24295898,0.41916833,-1.21186625,2.7606328,-0.13369069,0.7526093
153,1747533223700,0.22453266,0.439059,-1.2817887,2.4543693,-0.45167214,0.6348976
154,1747533223710,0.148630865,0.41929035,-1.2666571000000002,1.9861856,-0.48363006,0.5784386
155,1747533223720,0.174744985,0.325816435,-1.1388932,1.7022926,-0.0154463349999999,0.63516392
156,1747533223730,0.20598431,0.26821893,-1.0640897,1.6863136,0.19707392,0.65673554
157,1747533223740,0.249304485,0.2596769,-0.95109112,2.17234055,0.782170425,0.77205042
158,1747533223750,0.2894519,0.26895109,-1.0141799,2.27593755,0.6197176,0.74222302
159,1747533223760,0.3065359,0.27871338,-1.0501783,2.3004386,0.49002165,0.7105314
160,1747533223770,0.3011666549999999,0.36144878,-1.19673465,2.1244037,-0.084155895,0.51106061
161,1747533223780,0.22074979,0.419412375,-1.3244987,1.7765947999999998,-0.2290318599999999,0.389886795
162,1747533223790,0.16205402,0.43661842,-1.3545178,1.5760587,-0.15765914,0.38029942
163,1747533223800,0.12349297,0.39244407,-1.2761754,1.2665994,0.08948222,0.4463458
164,1747533223810,0.122028625,0.2876214649999999,-1.04041605,1.1323761,0.50200589,0.5360943499999999
165,1747533223820,0.11006982,0.2706595,-0.9586569,1.144094,0.59867865,0.5699165
166,1747533223830,0.1769415,0.15936938,-0.7084982,1.4551512,0.29134983,0.59388494
167,1747533223840,0.2238005,0.102992155,-0.6726217,1.7086842,-0.053263225,0.5022722
168,1747533223850,0.1572949,0.15375606,-0.89215125,2.0535636,-0.514522725,0.3824299399999999
169,1747533223860,0.08188121,0.203543745,-1.1412116499999998,2.0146815,-0.60240705,0.37124467
170,1747533223870,0.051129995,0.198296515,-1.2412751,1.77872535,-0.36245623,0.41545315
171,1747533223880,0.0800507799999999,0.150339265,-1.2317569000000002,1.5840482,0.00452737,0.48389636
172,1747533223890,0.1133645899999999,0.11177822,-1.15634325,1.5142734,0.3472762,0.56192698
173,1747533223900,0.15619664,0.093473925,-1.08092955,1.54463345,0.5278385299999999,0.6178533799999999
174,1747533223910,0.2289257,0.0708986325,-1.03211815,1.6245283,0.3547330649999999,0.57790595
175,1747533223920,0.27529657,0.056377225,-1.0121055,1.6735305,0.14487597,0.5209143
176,1747533223930,0.26187342,0.06272271,-1.0269929,1.7198695,-0.112918034,0.42077947
177,1747533223940,0.20696054,0.08590815,-1.0750722,1.7278589,-0.33502567,0.350472
178,1747533223950,0.159857505,0.0818812075,-1.172329,1.6511599,-0.3930826,0.33289513
179,1747533223960,0.179504115,0.037096702,-1.19270775,1.47033125,-0.1882854845,0.32490567
180,1747533223970,0.20012695,0.009030119,-1.1885588,1.42345965,0.0585895455,0.335292
181,1747533223980,0.18987654,0.018792408,-1.189047,1.4333134,0.1454086,0.34621096
182,1747533223990,0.20134723,0.0,-1.2166255,1.4221281,0.2545982,0.36591834
183,1747533224000,0.21037734,-0.0012202862,-1.23615,1.383246,0.28016454,0.37017938
184,1747533224010,0.21477039,0.04759116,-1.2373703,1.2623384,0.17044231,0.35100463
185,1747533224020,0.19915071,0.06662763,-1.2324891,1.1323761,0.10759171,0.32490566
186,1747533224030,0.17645338,0.08029483,-1.1883147,1.07165605,0.1033306525,0.32463935
187,1747533224040,0.1769415,0.06443111,-1.1111927,0.9166601,0.13954964,0.3371562
188,1747533224050,0.23942016,-0.041977848,-0.96927335,0.89162636,0.24021713,0.340352
189,1747533224060,0.24393522,-0.091887555,-0.93864418,1.1110708,0.3896204749999999,0.25992453
190,1747533224070,0.204275925,-0.0921316125,-0.99563153,1.2575446,0.3834952,0.24767399
191,1747533224080,0.164372565,-0.0785864375,-1.0805635,1.3502227,0.28549087,0.23489082
192,1747533224090,0.1461903,-0.06955632,-1.1273005,1.3539511,0.16138756,0.22956449
193,1747533224100,0.0976228975,-0.0240396385,-1.2069850999999998,1.2522184,0.025566347,0.25246766
194,1747533224110,0.08249135,0.0036608587499999,-1.2063749,0.9853696,-0.06018744,0.30839407
195,1747533224120,0.083223522,0.0067115742499999,-1.1560991,0.82611257,-0.020240024,0.33822146
196,1747533224130,0.091033354,0.003172744,-1.121443,0.637028115,0.105993818,0.37497309
197,1747533224140,0.117391534,-0.022941383,-1.0267489,0.5906891,0.165116,0.37923414
198,1747533224150,0.1415532025,-0.130082505,-0.82332713,0.7091998150000001,0.27830035,0.389886795
199,1747533224160,0.17547716,-0.217943115,-0.72350775,1.006674965,0.2394182,0.368581505
200,1747533224170,0.17938207,-0.21293995,-0.750354035,1.29749215,0.1366201699999999,0.348341485
201,1747533224180,0.17962612,-0.19426957,-0.78464407,1.49616395,0.0079894849999999,0.33449305
202,1747533224190,0.215258495,-0.16242009,-0.99075035,1.5760588,-0.13635385,0.300404585
203,1747533224200,0.233318725,-0.1083614149999999,-1.2049106,1.42132915,-0.2583266349999999,0.20399815
204,1747533224210,0.20098115,-0.056499254,-1.3841707,1.11852773,-0.2676477,0.1302285799999999
205,1747533224220,0.1516815899999999,-0.047591163,-1.4054036,0.8341020800000001,-0.160588618,0.14913702
206,1747533224230,0.13374338,-0.049787678,-1.3899059,0.690824,-0.092145376,0.17044231
207,1747533224240,0.14789869,-0.094206095,-1.2852055,0.46392268,0.08948222,0.21411815
208,1747533224250,0.233196695,-0.269683255,-1.048714,0.3981425899999999,0.4737763849999999,0.285224555
209,1747533224260,0.33118568,-0.37450585,-0.96671075,0.43516052,0.61678815,0.31638354
210,1747533224270,0.37145513,-0.4002539,-0.9884319,0.67457871,0.658599775,0.30226879
211,1747533224280,0.42197499,-0.375726135,-1.2728806,1.1749867,0.366184645,0.1275654175
212,1747533224290,0.389271305,-0.31141706,-1.53426595,1.2133362,0.22849922,0.075101145
213,1747533224300,0.359252275,-0.22819353,-1.85239455,0.7419567,-0.19494339,0.02396845
214,1747533224310,0.36388935,-0.167789355,-2.0414169,0.1744370589999999,-0.271908745,0.0260989784999999
215,1747533224320,0.3743838,-0.15400012,-2.0534978,-0.041012682,-0.22370553,0.033023197
216,1747533224330,0.39195594,-0.13349932,-1.9751552,-0.49055427,-0.004261058,0.05752428
217,1747533224340,0.46346472,-0.19573391,-1.7335386499999998,-0.7105314,0.14487597,0.046339005
218,1747533224350,0.4895788399999999,-0.258578655,-1.5617223,-0.72118405,0.12996226,-0.1214401465
219,1747533224360,0.4740812,-0.284570755,-1.47837675,-0.5803028,-0.01704423,-0.26525085
220,1747533224370,0.431859285,-0.257846475,-1.5413435,-0.48895637,-0.189883385,-0.34274884
221,1747533224380,0.40733153,-0.23697957,-1.5910091,-0.46179214,-0.2860235,-0.37816888
222,1747533224390,0.37291947,-0.20940112,-1.7084008,-0.52837116,-0.50120693,-0.43356264
223,1747533224400,0.33875147,-0.17084008,-1.8150537,-0.71479243,-0.6679208,-0.47351006
224,1747533224410,0.23795582,-0.11568313,-1.866794,-0.99495703,-0.757403,-0.48203218
225,1747533224420,0.22697324,-0.12568948,-1.7740521,-1.6660736,-0.6498113,-0.3888215
226,1747533224430,0.24039638,-0.16742327,-1.43542275,-1.9465045,-0.28202877,-0.27164243
227,1747533224440,0.25528386,-0.17645338,-1.3652563,-1.9542277,-0.22423817,-0.26312032
228,1747533224450,0.26553428,-0.1766974499999999,-1.2043005,-1.8394454,-0.172572845,-0.304399325
229,1747533224460,0.26187342,-0.17059602,-1.1702545,-1.7837853,-0.17896444,-0.3270362
230,1747533224470,0.21794311,-0.120320225,-1.17904055,-1.65701885,-0.3073287999999999,-0.386158365
231,1747533224480,0.20305562,-0.09298581,-1.2073512,-1.6362462,-0.3584615,-0.40266997
232,1747533224490,0.18816813,-0.06833603,-1.23248915,-1.7992316,-0.44368264,-0.4476774
233,1747533224500,0.19353738,-0.06833603,-1.2356619,-1.845038,-0.4133226,-0.4527374
234,1747533224510,0.234539,-0.0924977,-1.2454242,-1.9398465,-0.2860235,-0.4745753
235,1747533224520,0.25381953,-0.08346757,-1.2415192,-2.0298615,-0.10972224,-0.51292485
236,1747533224530,0.261507335,-0.1147069,-1.17904055,-2.10336475,0.0159789649999999,-0.587759675
237,1747533224540,0.26919514,-0.14594623,-1.1165619,-2.165949,0.1451422849999999,-0.6764429249999999
238,1747533224550,0.22184804,-0.13398743,-1.0928884,-2.15503,0.1486044,-0.69029135
239,1747533224560,0.187802055,-0.1089715575,-1.09557295,-2.1630195,0.0503337461,-0.6804376750000001
240,1747533224570,0.18206671,-0.0946942074999999,-1.09654925,-2.22720165,-0.1475391189,-0.70573771
241,1747533224580,0.17547716,-0.08371163,-1.0921562,-2.2791333,-0.29561087,-0.72970617
242,1747533224590,0.172304415,-0.102992162,-1.0645777,-2.32573865,-0.4053331249999999,-0.740891435
243,1747533224600,0.17328064,-0.107629254,-1.0594525,-2.330266,-0.40426785,-0.7414241
244,1747533224610,0.16717921,-0.09127741,-1.0838583,-2.343582,-0.3089267,-0.7302388
245,1747533224620,0.14936304,-0.008419975,-1.15866175,-2.50150715,-0.041811625,-0.672980825
246,1747533224630,0.15119347,-0.0120808335,-1.12571405,-2.6706179,0.0604537599999999,-0.658067115
247,1747533224640,0.14472595,-0.013179091,-1.0904478,-2.7297401,0.05539375,-0.66525763
248,1747533224650,0.136916125,-0.02074486735,-0.9481624,-2.72228335,-0.1265001515,-0.657268175
249,1747533224660,0.160711705,-0.01537560785,-0.92180425,-2.59818005,-0.25965821,-0.6748450500000001
250,1747533224670,0.17401282,0.0061014313,-0.9364477,-2.5017736,-0.3222425,-0.6940198
251,1747533224680,0.17620933,0.06638357,-1.0389518,-2.5070999,-0.3153183,-0.6897587
252,1747533224690,0.20134723,0.082735404,-1.121687,-2.5987127,-0.24181503,-0.69295454
253,1747533224700,0.2186753,0.1010397,-1.1602482,-2.718555,-0.16192019,-0.71532506
254,1747533224710,0.213183995,0.1101918429999999,-1.068970725,-2.88873095,-0.20879183,-0.77205042
255,1747533224720,0.20024897,0.113730678,-0.985869225,-2.94518995,-0.318514065,-0.817057845
256,1747533224730,0.1696198,0.14545812,-0.976229,-2.948652,-0.34514567,-0.82185155
257,1747533224740,0.14814276,0.19890666,-0.98477095,-3.0285468,-0.38296258,-0.81066626
258,1747533224750,0.15741692,0.20866893,-0.9938011,-3.1478565,-0.3323625,-0.8378305
259,1747533224760,0.07785426,0.2111095,-0.8305268,-3.274623,-0.1603223,-0.8607337
260,1747533224770,0.0384390185,0.22001762,-0.67555045,-3.2517197500000004,0.1451422849999999,-0.8572715550000001
261,1747533224780,0.009518232,0.23942018,-0.6218578,-3.1973913,0.18375812,-0.85700524
262,1747533224790,0.0017084008,0.24478942,-0.58183247,-3.0376017,0.12623383,-0.8612663
263,1747533224800,-0.022209208,0.2884757,-0.6343048,-2.9550436,0.060720075,-0.88896316
264,1747533224810,-0.036120474,0.3571777849999999,-0.7513302500000001,-3.03147625,-0.00292947725,-0.90174633
265,1747533224820,-0.031605414,0.378166705,-0.77512585,-3.14173115,0.00745685165,-0.901213715
266,1747533224830,-0.020744866,0.38048524,-0.767316,-3.1776838,0.02130529,-0.9006811
267,1747533224840,-0.021477038,0.44223174,-0.7365648,-3.2692966,0.058589544,-0.9006811
268,1747533224850,0.05064188,0.459437755,-0.6466297000000001,-3.5425369,0.138750697,-0.99788647
269,1747533224860,0.00890809,0.4356421649999999,-0.507395025,-3.7087183,0.2743056,-1.067395
270,1747533224870,-0.096158555,0.38500029,-0.34168014,-3.6903424,0.418915245,-0.99841915
271,1747533224880,-0.130936715,0.378532785,-0.20476404,-3.55665165,0.568584905,-0.9001485
272,1747533224890,-0.13349932,0.39805737,-0.14472595,-3.4653053,0.64341974,-0.8538095
273,1747533224900,0.01403329,0.491653335,-0.01244692,-3.22801755,0.598146,-0.8990832
274,1747533224910,0.066017485,0.565846735,0.0327036715,-3.0338731,0.6327670999999999,-1.0381002
275,1747533224920,0.0370967,0.6037976,0.028066583,-2.9097698,0.6673882,-1.1771172
276,1747533224930,-0.038316987,0.5957437,0.029530926,-2.8953888,0.68389976,-1.2623384
277,1747533224940,-0.077122085,0.5854933,0.0302631,-2.8884647,0.71585774,-1.3262542
278,1747533224950,-0.429418745,0.54632218,0.2285596074999999,-2.7792749,0.69188928,-1.1382351
279,1747533224960,-0.59183884,0.5127643,0.35095432,-2.6221484,0.59814598,-0.86712525
280,1747533224970,-0.65797835,0.5466882200000001,0.5786597149999999,-2.42613975,0.52011535,-0.6921555500000001
281,1747533224980,-0.6706693,0.56816524,0.64479923,-2.3164175,0.4857606,-0.6135923
282,1747533224990,-0.6816518899999999,0.61539037,0.9059405,-1.803759,0.1933455035,-0.421312095
283,1747533225000,-0.704105165,0.6294236449999999,1.09203415,-1.3494237,-0.0378168895,-0.294545625
284,1747533225010,-0.7069118,0.637965645,1.1922196500000002,-0.913464225,-0.169110733,-0.190149705
285,1747533225020,-0.7030069,0.64479927,1.26079975,-0.65886605,-0.23702134,-0.13209279
286,1747533225030,-0.6977597,0.6465077,1.2905748,-0.2615224,-0.38242993,-0.058589544
287,1747533225040,-0.69239044,0.63381666,1.3340169,0.17949706,-0.47617322,0.01438107
288,1747533225050,-0.66432388,0.618319075,1.14255405,1.09402665,-0.34594464,0.275903488
289,1747533225060,-0.5819545500000001,0.601967225,0.9617076,1.6833842,-0.139017012,0.486825865
290,1747533225070,-0.5349735,0.59672,0.8671354,1.8477012,-0.043675844,0.5448828
291,1747533225080,-0.47932845,0.60184515,0.6657882,2.1230721,0.16085494,0.6423545
292,1747533225090,-0.40269446,0.6070924099999999,0.356811705,2.3158848,0.26205507,0.74302197
293,1747533225100,-0.3005565,0.616366585,0.1300825151,2.44504825,-0.0154463349999999,0.84528735
294,1747533225110,-0.21086546,0.631010015,-0.0413677049,2.475142,-0.38562573,0.8673915750000001
295,1747533225120,-0.1651047199999999,0.643578945,-0.114584875,2.4469125,-0.659665025,0.8516789300000001
296,1747533225130,-0.14082102,0.65090066,-0.14911897,2.424542,-0.79042625,0.83729786
297,1747533225140,-0.111900247,0.6822620500000001,-0.2007371,2.31242285,-0.96246645,0.7984157000000001
298,1747533225150,-0.104578532,0.6787232000000001,-0.194513635,2.24184905,-0.67324715,0.8335694499999999
299,1747533225160,-0.09859913,0.6706693,-0.1494850625,2.2711438,-0.1486044,0.92118747
300,1747533225170,-0.09615856,0.6706693,-0.122760795,2.330266,0.0777643,0.97045594
301,1747533225180,-0.044662476,0.6545615,-0.12032023,2.5710158,0.45167214,1.0657971
302,1747533225190,0.050031736,0.6543175,-0.24186075,2.863431,0.37763625,1.0562097
303,1747533225200,0.11324256,0.635281,-0.31263736,2.9422605,0.123038046,0.96992326
304,1747533225210,0.16425052,0.6322303199999999,-0.5307024899999999,2.9103025,-0.30466563,0.7906925499999999
305,1747533225220,0.17498904,0.6389419,-0.64162654,2.8570392,-0.4282363,0.7275756
306,1747533225230,0.122760795,0.6657882,-0.83784854,2.5875273,-0.43729106,0.6380934
307,1747533225240,0.013179091,0.656514,-0.88739216,1.7845843,0.415186805,0.806405185
308,1747533225250,0.0078098318,0.630888,-0.7570656,1.6847157,0.8066715,0.914263235
309,1747533225260,0.06931226,0.5791479,-0.5742667,1.6911073,0.9369001,0.9528791
310,1747533225270,0.12593354,0.5462001,-0.42636803,1.8492991,0.96086854,0.95607483
311,1747533225280,0.182798885,0.53411928,-0.369258615,2.3281355,0.26684874,0.7483483
312,1747533225290,0.233196705,0.4846977,-0.3961049199999999,2.5300031,-0.02050634,0.58696072
313,1747533225300,0.21281792,0.43844886,-0.570117745,2.79765085,-0.253799255,0.394147845
314,1747533225310,0.18682583,0.440401315,-0.769024375,2.86636045,-0.038349522,0.365385715
315,1747533225320,0.157660985,0.461756305,-1.01954915,2.6791401,0.609064923,0.44980794
316,1747533225330,0.14619029,0.46834585,-1.1573195,2.40723135,1.19149825,0.579503875
317,1747533225340,0.16376241,0.455044745,-1.12730045,2.27007855,1.27938265,0.655670255
318,1747533225350,0.2018353399999999,0.4323474149999999,-1.0612829499999998,2.19604265,1.1424962,0.68256818
319,1747533225360,0.2486943449999999,0.4095280599999999,-0.9830626,2.18831955,0.8269115499999999,0.6516755
320,1747533225370,0.27310006,0.3813394599999999,-0.9196077,2.27833435,0.3502056875,0.54621433
321,1747533225380,0.2767609,0.36266908,-0.8944698,2.3574302,0.060720075,0.47031426
322,1747533225390,0.23331872,0.36022848,-0.9872115,2.3776703,0.06924219,0.41864893
323,1747533225400,0.151071435,0.3747498999999999,-1.09325445,2.312689,0.25566345,0.43729106
324,1747533225410,0.13349932,0.37926495,-1.1221752,1.9403793,0.66579026,0.5475459
325,1747533225420,0.0170840071199999,0.345829115,-1.0423685,1.7177389,0.73343458,0.6793724
326,1747533225430,0.00024405724,0.33142975,-1.0006347,1.6482304,0.65513763,0.772316725
327,1747533225440,0.002928687,0.29604146,-0.9015475,1.6330504,0.5853628,0.81705785
328,1747533225450,0.0824913465,0.24625375,-0.77744435,1.72572845,0.1608549255,0.857537875
329,1747533225460,0.11226633,0.23478307,-0.7580418,1.86740855,-0.2306297495,0.8000136
330,1747533225470,0.144725945,0.217088915,-0.7728072500000001,2.0080235,-0.464188975,0.735831425
331,1747533225480,0.14106509,0.20549619,-0.7905014,2.0516994,-0.4596616,0.7222493
332,1747533225490,0.166569075,0.17059602,-0.8379706149999999,2.1273332,-0.2647182,0.7440872
333,1747533225500,0.18743597,0.16205402,-0.856641,2.2003038,0.006924219,0.76912093
334,1747533225510,0.269317165,0.137404225,-0.990018225,2.2588934,0.424507885,0.7611314499999999
335,1747533225520,0.30165476,0.13276714,-1.0545714,2.2706113,0.5502091,0.7419567
336,1747533225530,0.27187978,0.15302389,-1.1753797,2.16648165,0.272707705,0.672448175
337,1747533225540,0.22977989,0.172914565,-1.2258996,2.0341225,-0.07696536,0.6165218
338,1747533225550,0.20476402,0.18182266,-1.244448,1.9558256,-0.27537087,0.588026
339,1747533225560,0.14277348,0.19939478,-1.2542102,1.5744609,-0.66046397,0.59415127
340,1747533225570,0.1338654,0.139966825,-1.0887394,1.36300585,-0.51319116,0.6721818850000001
341,1747533225580,0.16107778,0.12886222,-1.0345587,1.3443637,-0.34408042,0.71159667
342,1747533225590,0.22502078,0.11348662,-0.916435,1.4008228,0.021837922,0.7526093
343,1747533225600,0.337531165,0.0191584975,-0.7349784,1.5345135,0.27537087,0.7584683
344,1747533225610,0.40184025,-0.0317274425,-0.73424623,2.1656827,0.1115864533,0.5805691
345,1747533225620,0.37999713,-0.0217210955,-0.90752688,2.3608924,-0.1392833316999999,0.4450142
346,1747533225630,0.35241866,-0.008786061,-1.0196712,2.422944,-0.27537087,0.3787015
347,1747533225640,0.2523552,0.035144243,-1.253478,2.2876554,-0.5752428,0.2972088
348,1747533225650,0.19500174,0.056133164,-1.34792815,1.9984361,-0.6961503,0.31052458
349,1747533225660,0.11690342,0.055523025,-1.4106509,1.345429,-0.3281014525,0.505734285
350,1747533225670,0.19329334,0.02684629815,-1.2605557,1.006142275,0.1286306875,0.6503439
351,1747533225680,0.24454537,0.0056133163,-1.1739154,0.95447695,0.28708878,0.6785734
352,1747533225690,0.31654227,-0.05588911,-1.03163,1.02531703,0.47670585,0.6383597299999999
353,1747533225700,0.34570709,-0.10421244,-0.89959503,1.30681315,0.264451915,0.4977448299999999
354,1747533225710,0.2923805849999999,-0.11116807,-0.9326648,1.5757924,-0.064714815,0.365652025
355,1747533225720,0.23758974,-0.0990872375,-1.02943355,1.62639245,-0.26152243,0.335558295
356,1747533225730,0.217943135,-0.0999414399999999,-1.12839875,1.59283665,-0.331563565,0.339553045
357,1747533225740,0.256260115,-0.1029921575,-1.23761435,1.4516890999999998,-0.120641195,0.37417415
358,1747533225750,0.31471182,-0.102504045,-1.31461435,1.2748552,0.209857095,0.396544695
359,1747533225760,0.335456685,-0.1065309899999999,-1.3182752,1.1454256,0.430633155,0.38642467
360,1747533225770,0.33777523,-0.10836142,-1.3069266,1.0844392,0.51984906,0.3787015
361,1747533225780,0.3075121349999999,-0.116293277,-1.2438376999999998,0.99762017,0.57364494,0.34141725
362,1747533225790,0.242226825,-0.12154051,-1.1925857,0.9321064,0.49002165,0.30360037
363,1747533225800,0.19744232,-0.12471326,-1.1604922,0.88949585,0.19547603,0.29028457
364,1747533225810,0.168277475,-0.17389078,-1.08751905,0.89002845,-0.43915528,0.308926685
365,1747533225820,0.17718557,-0.1803583,-1.0853225,0.8990832,-0.50600064,0.31691617
366,1747533225830,0.21599068,-0.16888762,-1.1221752,0.90494215,-0.48149952,0.33129725
367,1747533225840,0.32874511,-0.161443875,-1.2008836500000002,0.859668425,-0.204530785,0.31931302
368,1747533225850,0.36230299,-0.1632742999999999,-1.21625925,0.79229045,0.0833569449999999,0.25592978
369,1747533225860,0.33301612,-0.17413485,-1.19832105,0.7400925,0.22929818,0.18402443
370,1747533225870,0.3162982,-0.18255483,-1.1883147,0.7302388,0.19760656,0.16298546
371,1747533225880,0.3065359,-0.20525214,-1.1775762,0.72491246,-0.012250541,0.12357068
372,1747533225890,0.3065359,-0.203787805,-1.26982985,0.73263565,-0.3025351,0.0644485035
373,1747533225900,0.30055649,-0.13752626,-1.6343294,0.514256435,0.1230380599999999,0.1280980535
374,1747533225910,0.30458344,-0.0873725,-1.9444041,0.0743022,0.8048073,0.232227645
375,1747533225920,0.31239328,-0.0873725,-1.9646608,-0.14487597,1.0349044,0.2647182
376,1747533225930,0.31483385,-0.10933765,-1.8084643,-0.5603291,1.1648667,0.26844665
377,1747533225940,0.321057315,-0.17389079,-1.40271905,-0.809601,0.9310411,0.20080236
378,1747533225950,0.32069123,-0.19841854,-1.2688537,-0.7984157,0.28708878,0.049002163
379,1747533225960,0.32801294,-0.256382135,-1.02357607,-0.02716424,-1.06792762,-0.21571605
380,1747533225970,0.32410803,-0.25162303,-1.053107,0.13901702,-1.2474247,-0.25246766
381,1747533225980,0.325816415,-0.24234885,-1.11973465,0.235157135,-1.34489635,-0.27963191
382,1747533225990,0.32715873,-0.173402675,-1.36659855,0.2245044849999999,-1.16752985,-0.394680465
383,1747533226000,0.32679266,-0.11373068,-1.5468348,0.03781689,-0.8199873,-0.398675215
384,1747533226010,0.30092257,-0.08078295,-1.6376241,-0.06924219,-0.6066681,-0.396811
385,1747533226020,0.24234885,-0.06882414,-1.7088889,-0.7552725,0.39468047,-0.25885928
386,1747533226030,0.15631867,-0.118489795,-1.5653831500000002,-1.15474665,0.6727145,-0.160588615
387,1747533226040,0.16876559,-0.15461027,-1.41907085,-1.27805105,0.6138586699999999,-0.1438107049999999
388,1747533226050,0.18377511,-0.18536148,-1.2922831,-1.28950265,0.37630469,-0.170442315
389,1747533226060,0.20525215,-0.220993835,-1.21101205,-1.2322447,0.0221042399999999,-0.220243425
390,1747533226070,0.2203837,-0.24112856,-1.1812371,-1.1909657,-0.1784318,-0.24767399
391,1747533226080,0.23405088,-0.18475133,-1.2542102,-1.0247844,-0.82877576,-0.3749731
392,1747533226090,0.21184167,-0.15375607,-1.3269392,-1.0450244,-0.8969527,-0.3834952
393,1747533226100,0.223068325,-0.116537335,-1.4018648,-1.2703279,-0.5874933600000001,-0.33981936
394,1747533226110,0.23136626,-0.10201593,-1.4138237,-1.4303839,-0.278034025,-0.31691618
395,1747533226120,0.232098435,-0.0984771,-1.2893544499999998,-1.5094798,-0.1107875,-0.3057309
396,1747533226130,0.23429495,-0.11006982,-1.2483528,-1.7241305,0.31318775,-0.29561087
397,1747533226140,0.2208718,-0.14374973,-1.1597601,-1.7454358,0.30679616,-0.32330775
398,1747533226150,0.21013328,-0.14765464,-1.0965492,-1.6969663,0.15233281,-0.3552657
399,1747533226160,0.20622836,-0.13276714,-1.0797093,-1.6261262,-0.0628506,-0.396811
400,1747533226170,0.20915705,-0.097622897,-1.1061895,-1.6197346,-0.201867615,-0.423708925
401,1747533226180,0.21208574,-0.062478654,-1.1326697,-1.613343,-0.34088463,-0.45060685
402,1747533226190,0.22819352,-0.049787678,-1.147069,-1.6437031,-0.22903186,-0.4575311
403,1747533226200,0.22819352,-0.049787678,-1.147069,-1.6437031,-0.22903186,-0.4575311
404,1747533226210,0.22819352,-0.049787678,-1.147069,-1.6437031,-0.22903186,-0.4575311
405,1747533226220,0.19890666,-0.0434421915,-1.1230294,-1.88711595,0.0189084432,-0.520648
406,1747533226230,0.207570695,-0.0370967014999999,-1.0995999,-1.88072435,0.0631169165,-0.511326925
407,1747533226240,0.2360033549999999,-0.033557871,-1.0921561,-1.866077,0.15526229,-0.50227216
408,1747533226250,0.276516855,-0.023185438,-1.0888614,-1.83332015,0.30652984,-0.50440271
409,1747533226260,0.329599305,0.0156196655,-1.1052133,-1.76780635,0.31957933,-0.585629135
410,1747533226270,0.35229663,0.049299567,-1.1492656,-1.7278589,0.24501082,-0.66206187
411,1747533226280,0.3431445,0.054912884,-1.1741594,-1.7651432,-0.053263225,-0.7819041
412,1747533226290,0.287255385,0.0512520199999999,-1.22272675,-1.89111075,-0.4263720949999999,-0.8732505500000001
413,1747533226300,0.27480847,0.04490653,-1.2344415,-1.9350529,-0.50173956,-0.8852348
414,1747533226310,0.313857625,0.058207654,-1.2431056,-2.12759935,-0.1946770825,-0.84901578
415,1747533226320,0.3427784,0.0617464825,-1.22406915,-2.20802685,0.0306263575,-0.871386345
416,1747533226330,0.35412705,0.060770255,-1.2115002,-2.2487733,0.15126756,-0.89588743
417,1747533226340,0.32630453,0.08444381,-1.1617125,-2.290851,0.21624869,-0.958738
418,1747533226350,0.25357547,0.10030753,-1.1131451,-2.3419838,0.14008227,-1.005077
419,1747533226360,0.12629962,0.08590815,-1.015644235,-2.3760724,-0.217580266,-1.0167948999999998
420,1747533226370,0.07492557,0.08664032,-0.97085977,-2.3707461,-0.40852892,-1.0098706
421,1747533226380,0.041001618,0.117391534,-0.9679311,-2.3835292,-0.56245965,-0.9784454
422,1747533226390,0.0434421895,0.136428,-0.968785265,-2.48712625,-0.5733786000000001,-0.92385058
423,1747533226400,0.052716363,0.1313028,-0.95987713,-2.5262747,-0.5289038,-0.9044095
424,1747533226410,0.0329477284999999,0.1923171149999999,-0.8574951,-2.60244105,0.045273738,-0.804274675
425,1747533226420,0.0456387065,0.1875579949999999,-0.796602825,-2.6130936,0.118776985,-0.7914915
426,1747533226430,0.0420998754999999,0.191096815,-0.735466525,-2.5875273,0.21571605,-0.8016115
427,1747533226440,0.029530926,0.2042759,-0.707522,-2.5086977,0.21252026,-0.8223842
428,1747533226450,-0.02940889855,0.25076882,-0.67860118,-2.3904534,-0.1454086,-0.8564726
429,1747533226460,-0.0707766025,0.2508908549999999,-0.684214505,-2.3363913,-0.3810983599999999,-0.839162085
430,1747533226470,-0.09139944,0.290184075,-0.698735895,-2.3180156,-0.41918156,-0.81545997
431,1747533226480,-0.096280585,0.3394836249999999,-0.72131117,-2.288188,-0.44581318,-0.7456851
432,1747533226490,-0.042343933,0.35827602,-0.67359798,-2.37127865,-0.43169841,-0.6282397
433,1747533226500,0.0203787795,0.36401138,-0.5759750800000001,-2.36195755,-0.34434673,-0.58296595
434,1747533226510,0.034900185,0.37267542,-0.5347294,-2.24664265,-0.2412823999999999,-0.5672533
435,1747533226520,0.0741934,0.40562314,-0.49031103,-2.179531,-0.19760656,-0.561927
436,1747533226530,0.14570218,0.422219,-0.5276518,-2.062352,-0.15499598,-0.60933125
437,1747533226540,0.1572949,0.474203245,-0.59037445,-1.9454392,-0.147006495,-0.779507275
438,1747533226550,0.0228193499999999,0.50287995,-0.6417485,-1.93771605,-0.1017327515,-0.84209155
439,1747533226560,-0.119344,0.498853,-0.6570021,-1.9590213,-0.02743055925,-0.81253045
440,1747533226570,-0.14692247,0.48835856,-0.6462636,-1.9590213,0.0010652645,-0.7819041
441,1747533226580,-0.19353738,0.5269196,-0.6203935,-1.9403793,0.030360037,-0.7105314
442,1747533226590,-0.19231711,0.54888475,-0.59745216,-1.953695,0.0026631611,-0.63383234
443,1747533226600,-0.1441158049999999,0.61636658,-0.502879975,-1.9771309,-0.025033714,-0.5901565
444,1747533226610,-0.0970127574999999,0.659930795,-0.40159619,-2.0317257,-0.024767398,-0.5350290799999999
445,1747533226620,-0.070532545,0.66188323,-0.36047253,-2.0516994,-0.029294772,-0.5320996
446,1747533226630,-0.03441207,0.66237134,-0.2489384,-2.0591562,0.0026631611,-0.56938386
447,1747533226640,-0.094694211,0.6986138550000001,-0.0679699395,-1.9568908,0.09480854,-0.66871978
448,1747533226650,-0.2806658199999999,0.716308,0.1087275005,-1.9190739,0.1304949,-0.69135666
449,1747533226660,-0.49360577,0.711304845,0.28090989,-1.7305221,0.28842035,-0.5904228
450,1747533226670,-0.5640163,0.70190865,0.33533466,-1.6788567,0.30999196,-0.5475459
451,1747533226680,-0.7065457,0.7143555,0.45370242,-1.551025,0.30200246,-0.41225734
452,1747533226690,-0.81466305,0.7226535,0.6037976,-1.3014868000000002,0.0980043295,-0.1691107349999999
453,1747533226700,-0.86384064,0.70959645,0.833821575,-0.96939065,-0.1845570705,0.07217167
454,1747533226710,-0.830404785,0.684580575,0.9867234,-0.520648,-0.41065945,0.327302505
455,1747533226720,-0.79831123,0.66920495,1.0323621,-0.3110572,-0.45007423,0.42290998
456,1747533226730,-0.7143555,0.6445552,1.0848345,0.112918034,-0.40426785,0.57098174
457,1747533226740,-0.54961692,0.6253967,1.02540657,0.59761333,-0.3153183,0.70147663
458,1747533226750,-0.375238015,0.608434715,0.784033895,1.453287,-0.2564624199999999,0.8428905
459,1747533226760,-0.2167228299999999,0.59623185,0.465051085,1.9550266,-0.321177235,0.8847020999999999
460,1747533226770,-0.17352471,0.5952556,0.33899552,2.0751352,-0.3669836,0.8831042
461,1747533226780,-0.122272685,0.6147802,0.09127741,2.1848574,-0.49321744,0.8692558
462,1747533226790,-0.055523025,0.64089432,-0.2507688125,2.1662152,-0.61625546,0.8681905
463,1747533226800,-0.01952458,0.65382934,-0.38194957,1.9100192000000005,-0.64235445,0.89855058
464,1747533226810,0.0291648414999999,0.68348235,-0.43173729,1.7041568,-0.5139901,0.93130748
465,1747533226820,0.049299564,0.68482465,-0.43246946,1.6341157,-0.4394216,0.9395633
466,1747533226830,0.097378845,0.6617612150000001,-0.25589402,1.4855113,-0.08149273,0.96939063
467,1747533226840,0.14130915,0.61282775,-0.1760873,1.56700405,0.0697748235,0.930242165
468,1747533226850,0.169619785,0.5802461,-0.119343995,1.7283916,0.1360875349999999,0.872984215
469,1747533226860,0.18938842,0.54595605,-0.1007956449999999,2.0125508,0.17736653,0.801078885
470,1747533226870,0.20110317,0.520086,-0.10470056,2.1923141,0.18908444,0.76059884
471,1747533226880,0.21794313,0.48128092,-0.33777523,2.7771444,0.19813919,0.6151902
472,1747533226890,0.18548352,0.52496713,-0.55791485,2.8525119,0.02130529,0.55233962
473,1747533226900,0.1466784,0.5710939,-0.788793,2.67807485,-0.150202285,0.520648
474,1747533226910,0.0959145,0.61746484,-0.9610975,2.5470474,-0.24021713,0.5075985
475,1747533226920,-0.0562551944999999,0.63393868,-0.96280585,1.81467795,-0.188551815,0.55207332
476,1747533226930,-0.08322352,0.6169767,-0.8944698,1.4631407,-0.05006743,0.598146
477,1747533226940,-0.11153416,0.54766446,-0.7094744,1.2958943,0.17470337,0.6812366
478,1747533226950,-0.0401474175,0.36584182,-0.394640585,1.4676681500000002,0.533431175,0.79229045
479,1747533226960,-0.011958805,0.31654227,-0.3116611,1.5973641,0.63223445,0.8175905
480,1747533226970,0.13496366,0.2506468,-0.25381953,2.4639566,0.77870834,0.85594
481,1747533226980,0.21599068,0.24137263,-0.4275883,2.95078255,0.59548285,0.73955985
482,1747533226990,0.25943285,0.29726174,-0.7106947,3.045591,0.359526755,0.627973385
483,1747533227000,0.23819989,0.35559142,-0.98403883,3.0360036,0.21997711,0.57151437
484,1747533227010,0.172548485,0.38731885,-1.159882065,2.7462517,0.009321065,0.527039585
485,1747533227020,0.07224095,0.41587353,-1.3747745,1.8210696,0.0284958219999999,0.60400495
486,1747533227030,0.103480275,0.37511599,-1.23615,1.5632756,0.35366782,0.702541925
487,1747533227040,0.160467645,0.332528,-1.084712435,1.43704175,0.6937535,0.787230425
488,1747533227050,0.2816420699999999,0.25760242,-0.869209885,1.4580807,0.916127425,0.8213189000000001
489,1747533227060,0.384390175,0.19622203,-0.72143322,1.7507621,0.795486225,0.724912475
490,1747533227070,0.40123013,0.18548352,-0.70410514,2.12866465,0.41518682,0.557665925
491,1747533227080,0.37877685,0.2042759,-0.7468152,2.2599585,0.22050974,0.4878911
492,1747533227090,0.318128625,0.212817925,-0.8904428499999999,2.4567661000000003,-0.331563565,0.312388805
493,1747533227100,0.29774985,0.20964517,-0.95060295,2.4799356,-0.49002165,0.25992453
494,1747533227110,0.204886065,0.276882945,-1.1825794,2.1816616,-0.254065586,0.262321375
495,1747533227120,0.16400647,0.29823795,-1.2664131,1.9616845,-0.029294772,0.30360037
496,1747533227130,0.141675235,0.3022648999999999,-1.1988092,1.5787219,0.2213087,0.35952675
497,1747533227140,0.160345615,0.23551524,-1.0865429,1.41067645,0.279365615,0.362456235
498,1747533227150,0.1831649699999999,0.109703734,-0.92217033,1.4647386,0.3896204749999999,0.368048875
499,1747533227160,0.187069885,0.02062283785,-0.8099039800000001,1.70522205,0.4711132,0.38988679
500,1747533227170,0.1851174199999999,0.0024405724699999,-0.82625583,1.96701085,0.33076461,0.395479435
501,1747533227180,0.1871919,0.00024405724,-0.85273606,2.1007016,0.19867182,0.38935417
502,1747533227190,0.18792409,0.0197686375,-0.9613415,2.24211535,-0.23355924,0.32517198
503,1747533227200,0.1572949,0.067603862,-1.1065556,2.18139525,-0.45460163,0.299605625
504,1747533227210,0.12056428,0.116049227,-1.2543322,1.9819245,-0.502538515,0.302801415
505,1747533227220,0.10225999,0.1178796525,-1.2954558,1.7302558,-0.36911413,0.3339604
506,1747533227230,0.09615856,0.111290105,-1.2927712,1.5952336,-0.27803403,0.3536678
507,1747533227240,0.12520137,0.04881145,-1.206619,1.3928332,-0.04474111,0.40373522
508,1747533227250,0.15424417,-0.015375607,-1.0882512,1.3321131,0.21518342,0.44368264
509,1747533227260,0.24027437,-0.1592473549999999,-0.9183874,1.73185375,0.47537427,0.45726477
510,1747533227270,0.24234885,-0.1581491,-0.9200958,1.8413097,0.43036684,0.43888897
511,1747533227280,0.22672918,-0.12666571,-0.97281224,2.011752,0.19707392,0.39414784
512,1747533227290,0.22526484,-0.09689073,-1.13938125,2.0809941,-0.13156016,0.34461305
513,1747533227300,0.176697445,-0.0202567535,-1.2948457,1.83065695,-0.47857006,0.244211875
514,1747533227310,0.113974735,0.0462488464999999,-1.3863672,1.4756576,-0.4527373999999999,0.226102375
515,1747533227320,0.097866957,0.0362425,-1.36342585,1.14436037,-0.12277173,0.282028765
516,1747533227330,0.1169034219999999,-0.0098843199999999,-1.26287425,0.96566224,0.11132014,0.32170987
517,1747533227340,0.14435986,-0.0541807099999999,-1.12278535,0.80054625,0.7920240999999999,0.42903526
518,1747533227350,0.207204595,-0.132034975,-0.9436473,0.92491585,1.01253385,0.46072687
519,1747533227360,0.27602875,-0.22062776,-0.82161865,1.1805793,0.8863000000000001,0.412257345
520,1747533227370,0.27724904,-0.246375795,-0.8365062,1.4245249,0.548611165,0.309193
521,1747533227380,0.26211748,-0.24649782,-0.8644508,1.5462314,0.35100463,0.25566345
522,1747533227390,0.1726705,-0.198784635,-1.07617045,1.70042835,-0.21278658,0.159523345
523,1747533227400,0.112754445,-0.1635183599999999,-1.26885365,1.4982945,-0.42077947,0.18908444
524,1747533227410,0.08908089,-0.14570218,-1.3818521,1.2958943,-0.4708469,0.23489082
525,1747533227420,0.13154686,-0.147898695,-1.38014375,0.95128113,-0.029561085,0.3635214799999999
526,1747533227430,0.15009521,-0.14570218,-1.3591548,0.84688526,0.14114754,0.406931
527,1747533227440,0.20110317,-0.1564407,-1.2783719,0.7030745,0.47510794,0.4607269
528,1747533227450,0.27310005,-0.296529545,-1.02028135,0.71133035,0.674312375,0.43995422
529,1747533227460,0.28542495,-0.349367945,-0.97305625,0.892158975,0.539556445,0.3818973
530,1747533227470,0.2848148,-0.36291313,-0.9652464,0.99921805,0.43356264,0.35100463
531,1747533227480,0.24332508,-0.32850105,-1.0152781,1.2032162,0.13635385,0.30200246
532,1747533227490,0.2113535799999999,-0.265534285,-1.17757625,1.26580045,-0.394680475,0.2655171699999999
533,1747533227500,0.20061506,-0.1969542,-1.2877681,1.04875285,-0.49428269,0.255929775
534,1747533227510,0.215258495,-0.169619785,-1.32730535,0.8671253,-0.47830373,0.25566345
535,1747533227520,0.23673552,-0.19134088,-1.3210819,0.6689861,-0.25300032,0.27537087
536,1747533227530,0.28457075,-0.26236153,-1.2725145,0.55340487,0.08362326,0.28549087
537,1747533227540,0.31019676,-0.27456442,-1.2146729,0.53529537,0.44900897,0.29241508
538,1747533227550,0.343388535,-0.2246546999999999,-1.3234004499999998,0.527572215,0.91639378,0.286822455
539,1747533227560,0.3612047,-0.19134088,-1.432616,0.49641323,1.099353,0.27856666
540,1747533227570,0.34997809,-0.186947845,-1.53597425,0.186154955,1.1259845,0.251402415
541,1747533227580,0.3533949,-0.19426957,-1.5331676,0.07669904,1.0945592,0.24341293
542,1747533227590,0.37609223,-0.201957375,-1.4039393,-0.354200435,0.52624062,0.095607482
543,1747533227600,0.382925825,-0.214282265,-1.2870359,-0.4048005,0.37603834,0.051132694
544,1747533227610,0.38548842,-0.24417927,-1.1750136,-0.410925765,-0.0748348299999999,-0.0841558915
545,1747533227620,0.38121742,-0.26114124,-1.1294969,-0.38456047,-0.20453078,-0.12676647
546,1747533227630,0.31800659,-0.300312445,-1.04395495,-0.13422333,-0.4926848,-0.23222765
547,1747533227640,0.30677995,-0.29823795,-1.0533512,0.039414786,-0.61625546,-0.24607609
548,1747533227650,0.31068486,-0.25870067,-1.1194906,0.13475595,-0.65513766,-0.26418558
549,1747533227660,0.30507156,-0.22526483,-1.1907552,0.15286545,-0.6412892,-0.28336033
550,1747533227670,0.3231318,-0.18792409,-1.3576905,0.07669904,-0.56672066,-0.27537087
551,1747533227680,0.33362624,-0.18865626,-1.4201691,-0.25300032,-0.13209279,-0.26525086
552,1747533227690,0.339727685,-0.205862295,-1.4388395,-0.35286886,-0.0229031849999999,-0.26578349
553,1747533227700,0.3516864899999999,-0.26504616,-1.4439647,-0.6854977,0.24181502,-0.287887705
554,1747533227710,0.3487578,-0.27505252,-1.4338363,-0.74781567,0.2647182,-0.30200246
555,1747533227720,0.30165476,-0.31434575,-1.3623276,-0.932639,-0.0010652645,-0.36272255
556,1747533227730,0.2848148,-0.3014107,-1.3288918,-1.005077,-0.188818125,-0.3797667799999999
557,1747533227740,0.270415425,-0.27090354,-1.2992388,-1.05514445,-0.241548705,-0.37603836
558,1747533227750,0.277127,-0.26236154,-1.27593135,-1.10281505,-0.240217125,-0.36645098
559,1747533227760,0.302020835,-0.237833795,-1.2385906,-1.1355719,-0.1917476,-0.365119395
560,1747533227770,0.31751847,-0.21306199,-1.2168695,-1.1462245,-0.15499598,-0.36911413
561,1747533227780,0.3156880549999999,-0.197930435,-1.2072292,-1.1872372,-0.0663127125,-0.404267865
562,1747533227790,0.310684885,-0.17742962,-1.18807065,-1.25168575,0.031425301,-0.455666875
563,1747533227800,0.305315615,-0.17852788,-1.1667157,-1.28071425,0.0274305585,-0.479901625
564,1747533227810,0.31410167,-0.17694151,-1.1541468,-1.27006155,-0.066579025,-0.5246427499999999
565,1747533227820,0.32508424,-0.16888762,-1.1534146,-1.2538162,-0.14753912,-0.5613944
566,1747533227830,0.3226437,-0.16180995,-1.1944162,-1.2836437,-0.20772657,-0.5997439
567,1747533227840,0.31898284,-0.14936304,-1.2476206,-1.38937125,-0.1821602199999999,-0.6327670750000001
568,1747533227850,0.3014107,-0.119099945,-1.2805684,-1.4333134,-0.15446335,-0.64075655
569,1747533227860,0.27187976,-0.0976229,-1.2913069,-1.5478293,-0.09534117,-0.63862604
570,1747533227870,0.22965787,-0.108727505,-1.1580517,-1.78218745,-0.1059938119999999,-0.63596287
571,1747533227880,0.2238005,-0.10860548,-1.1163179,-1.78618215,-0.14993597,-0.631435485
572,1747533227890,0.2328306,-0.117391534,-1.0592085,-1.74943055,-0.2000034,-0.6364955000000001
573,1747533227900,0.244545365,-0.100551585,-1.0335824,-1.69483575,-0.226635015,-0.6546050000000001
574,1747533227910,0.23917611,-0.07541369,-1.044565,-1.6666062,-0.22903186,-0.66525763
575,1747533227920,0.23514916,-0.070532545,-1.05994065,-1.65675255,-0.212253945,-0.6753776650000001
576,1747533227930,0.224288615,-0.05405868,-1.08556665,-1.67406315,-0.2106560499999999,-0.69668297
577,1747533227940,0.218065145,-0.045638705,-1.0836142,-1.68950945,-0.25033715,-0.7110640500000001
578,1747533227950,0.21062139,-0.03904916,-1.0831261,-1.6985642,-0.2759035,-0.716923
579,1747533227960,0.21062139,-0.03904916,-1.0831261,-1.6985642,-0.2759035,-0.716923
580,1747533227970,0.21062139,-0.03904916,-1.0831261,-1.6985642,-0.2759035,-0.716923
581,1747533227980,0.21062139,-0.03904916,-1.0831261,-1.6985642,-0.2759035,-0.716923
582,1747533227990,0.21062139,-0.03904916,-1.0831261,-1.6985642,-0.2759035,-0.716923
583,1747533228000,0.21062139,-0.03904916,-1.0831261,-1.6985642,-0.2759035,-0.716923
584,1747533228010,0.21062139,-0.03904916,-1.0831261,-1.6985642,-0.2759035,-0.716923
585,1747533228020,0.21062139,-0.03904916,-1.0831261,-1.6985642,-0.2759035,-0.716923
586,1747533228030,0.21062139,-0.03904916,-1.0831261,-1.6985642,-0.2759035,-0.716923
587,1747533228040,0.240274355,0.0582076545,-1.16805795,-1.8189391,-0.50227221,-0.8713863
588,1747533228050,0.22514281,0.116537335,-1.1548789,-2.00802355,-0.61465762,-0.9342369
589,1747533228060,0.17328065,0.160101555,-1.1902672,-2.11747945,-0.5438175199999999,-0.91373055
590,1747533228070,0.15009521,0.17425688,-1.206619,-2.1885858,-0.5139901,-0.8948221
591,1747533228080,0.15936938,0.17035197,-1.1741594,-2.3542345,-0.4958806,-0.8745821
592,1747533228090,0.2042759,0.15229172,-1.07434,-2.4628913,-0.49641323,-0.8996158
593,1747533228100,0.2042759,0.15229172,-1.07434,-2.4628913,-0.49641323,-0.8996158
594,1747533228110,0.2042759,0.15229172,-1.07434,-2.4628913,-0.49641323,-0.8996158
595,1747533228120,0.2042759,0.15229172,-1.07434,-2.4628913,-0.49641323,-0.8996158
596,1747533228130,0.2042759,0.15229172,-1.07434,-2.4628913,-0.49641323,-0.8996158
597,1747533228140,0.2042759,0.15229172,-1.07434,-2.4628913,-0.49641323,-0.8996158
598,1747533228150,0.2042759,0.15229172,-1.07434,-2.4628913,-0.49641323,-0.8996158
599,1747533228160,0.2042759,0.15229172,-1.07434,-2.4628913,-0.49641323,-0.8996158
600,1747533228170,0.174744985,0.20390983,-1.0509105,-2.4453145000000003,-0.541420665,-1.0692592
601,1747533228180,-0.026114125,0.26236153,-0.78610843,-2.8826056,-0.5704491,-1.0860372
602,1747533228190,-0.034412071,0.266266465,-0.575486985,-2.7750139,-0.40320259,-0.98403805
603,1747533228200,-0.01000634745,0.291282325,-0.496534465,-2.5640915,-0.24474451,-0.94409065
604,1747533228210,-0.0019524579,0.31483385,-0.4932397,-2.411226,-0.14807177,-0.9353022
605,1747533228220,0.046858992,0.35949633,-0.50324607,-2.282329,-0.18429075,-0.9832391
606,1747533228230,0.046858992,0.35949633,-0.50324607,-2.282329,-0.18429075,-0.9832391
607,1747533228240,0.046858992,0.35949633,-0.50324607,-2.282329,-0.18429075,-0.9832391
608,1747533228250,0.046858992,0.35949633,-0.50324607,-2.282329,-0.18429075,-0.9832391
609,1747533228260,0.046858992,0.35949633,-0.50324607,-2.282329,-0.18429075,-0.9832391
610,1747533228270,0.046858992,0.35949633,-0.50324607,-2.282329,-0.18429075,-0.9832391
611,1747533228280,0.046858992,0.35949633,-0.50324607,-2.282329,-0.18429075,-0.9832391
612,1747533228290,0.046858992,0.35949633,-0.50324607,-2.282329,-0.18429075,-0.9832391
613,1747533228300,0.046858992,0.35949633,-0.50324607,-2.282329,-0.18429075,-0.9832391
614,1747533228310,0.015863721,0.4443062399999999,-0.409650105,-2.03918245,-0.0173105449999999,-0.87697895
615,1747533228320,-0.01513155,0.52911615,-0.31605414,-1.48417965,0.324373035,-0.8394284000000001
616,1747533228330,-0.073095148,0.5997707,-0.413432955,-1.3432984499999998,0.4026699649999999,-0.88283793
617,1747533228340,-0.168765585,0.67018123,-0.485917955,-1.34596165,0.47137949,-0.90121373
618,1747533228350,-0.24308101,0.709352405,-0.474935395,-1.49856075,0.51319112,-0.8676579
619,1747533228360,-0.27407628,0.72704655,-0.45248213,-1.5893745,0.52144694,-0.8426242
620,1747533228370,-0.27407628,0.72704655,-0.45248213,-1.5893745,0.52144694,-0.8426242
621,1747533228380,-0.27407628,0.72704655,-0.45248213,-1.5893745,0.52144694,-0.8426242
622,1747533228390,-0.27407628,0.72704655,-0.45248213,-1.5893745,0.52144694,-0.8426242
623,1747533228400,-0.27407628,0.72704655,-0.45248213,-1.5893745,0.52144694,-0.8426242
624,1747533228410,-0.27407628,0.72704655,-0.45248213,-1.5893745,0.52144694,-0.8426242
625,1747533228420,-0.27407628,0.72704655,-0.45248213,-1.5893745,0.52144694,-0.8426242
626,1747533228430,-0.27407628,0.72704655,-0.45248213,-1.5893745,0.52144694,-0.8426242
627,1747533228440,-0.27407628,0.72704655,-0.45248213,-1.5893745,0.52144694,-0.8426242
628,1747533228450,-0.54571202,0.665178025,0.227583385,-0.4186488999999999,0.06231797,-0.37896784
629,1747533228460,-0.81734776,0.6033095,0.9076489,0.7520767,-0.396811,0.08468852
630,1747533228470,-0.7824476,0.5959878,0.7797629,1.3640711,-0.08575379,0.4181163
631,1747533228480,-0.643823,0.5645044,0.49470404,1.645301,0.1123854,0.6173208
632,1747533228490,-0.484697715,0.5523015499999999,0.258944735,1.8823223,0.25033715,0.788828335
633,1747533228500,-0.4368625,0.5525456,0.18475133,1.9457055,0.2775014,0.8346347
634,1747533228510,-0.4368625,0.5525456,0.18475133,1.9457055,0.2775014,0.8346347
635,1747533228520,-0.4368625,0.5525456,0.18475133,1.9457055,0.2775014,0.8346347
636,1747533228530,-0.4368625,0.5525456,0.18475133,1.9457055,0.2775014,0.8346347
637,1747533228540,-0.4368625,0.5525456,0.18475133,1.9457055,0.2775014,0.8346347
638,1747533228550,-0.4368625,0.5525456,0.18475133,1.9457055,0.2775014,0.8346347
639,1747533228560,-0.4368625,0.5525456,0.18475133,1.9457055,0.2775014,0.8346347
640,1747533228570,-0.4368625,0.5525456,0.18475133,1.9457055,0.2775014,0.8346347
641,1747533228580,-0.4368625,0.5525456,0.18475133,1.9457055,0.2775014,0.8346347
642,1747533228590,0.05515694,0.4932397,-0.2072046,2.1955101,0.7094661,1.1265172
643,1747533228600,0.09396204,0.38902727,-0.19426957,2.3579628,0.8346347,1.071656
644,1747533228610,0.083833663,0.34107,-0.3864646499999999,2.78140545,0.741690375,0.98829915
645,1747533228620,0.078586433,0.375604095,-0.650778625,2.95344565,0.492418495,0.926513775
646,1747533228630,0.05857374,0.4199004899999999,-0.8682336500000001,2.78859605,0.28708877,0.8724515749999999
647,1747533228640,0.03636453,0.44394013,-0.96353805,2.6439865,0.2034655,0.8447547
648,1747533228650,0.03636453,0.44394013,-0.96353805,2.6439865,0.2034655,0.8447547
649,1747533228660,0.03636453,0.44394013,-0.96353805,2.6439865,0.2034655,0.8447547
650,1747533228670,0.03636453,0.44394013,-0.96353805,2.6439865,0.2034655,0.8447547
651,1747533228680,0.03636453,0.44394013,-0.96353805,2.6439865,0.2034655,0.8447547
652,1747533228690,0.03636453,0.44394013,-0.96353805,2.6439865,0.2034655,0.8447547
653,1747533228700,0.03636453,0.44394013,-0.96353805,2.6439865,0.2034655,0.8447547
654,1747533228710,0.03636453,0.44394013,-0.96353805,2.6439865,0.2034655,0.8447547
655,1747533228720,0.156562715,0.279079462,-0.8324793,2.91083515,0.467384775,0.7752462
656,1747533228730,0.1760873,0.29469913,-1.3541516,2.87727925,0.384560465,0.69055765
657,1747533228740,0.136428,0.349734035,-1.46873655,2.48393035,0.27989824,0.7249124250000001
658,1747533228750,0.100673615,0.360106465,-1.3602531,1.8996328,0.2279666,0.8072041249999999
659,1747533228760,0.08786061,0.34656128,-1.2210184,1.5318503,0.21784659,0.8676579
660,1747533228770,0.16937573,0.26480213,-0.9964857,1.3805827,0.3073288,0.8745821
661,1747533228780,0.16937573,0.26480213,-0.9964857,1.3805827,0.3073288,0.8745821
662,1747533228790,0.16937573,0.26480213,-0.9964857,1.3805827,0.3073288,0.8745821
663,1747533228800,0.16937573,0.26480213,-0.9964857,1.3805827,0.3073288,0.8745821
664,1747533228810,0.16937573,0.26480213,-0.9964857,1.3805827,0.3073288,0.8745821
665,1747533228820,0.16937573,0.26480213,-0.9964857,1.3805827,0.3073288,0.8745821
666,1747533228830,0.16937573,0.26480213,-0.9964857,1.3805827,0.3073288,0.8745821
667,1747533228840,0.16937573,0.26480213,-0.9964857,1.3805827,0.3073288,0.8745821
668,1747533228850,0.16937573,0.26480213,-0.9964857,1.3805827,0.3073288,0.8745821
669,1747533228860,0.12764194,0.24393522,-1.6276178,1.30415,0.6034723200000001,0.8823052650000001
670,1747533228870,0.12861817,0.2443013,-1.5744133,1.0583402,0.6514092,0.98750013
671,1747533228880,0.24088451,0.1581491,-1.398448,0.921986375,0.75926725,1.047953865
672,1747533228890,0.405135035,0.071142688,-1.00405148,0.678307145,1.1249193,1.11772875
673,1747533228900,0.410138205,0.033557872,-0.75816383,0.87964212,0.9984191,1.0080065
674,1747533228910,0.37682438,0.017084008,-0.7038611,1.0663297,0.8319715,0.9219864
675,1747533228920,0.37682438,0.017084008,-0.7038611,1.0663297,0.8319715,0.9219864
676,1747533228930,0.37682438,0.017084008,-0.7038611,1.0663297,0.8319715,0.9219864
677,1747533228940,0.37682438,0.017084008,-0.7038611,1.0663297,0.8319715,0.9219864
678,1747533228950,0.37682438,0.017084008,-0.7038611,1.0663297,0.8319715,0.9219864
679,1747533228960,0.37682438,0.017084008,-0.7038611,1.0663297,0.8319715,0.9219864
680,1747533228970,0.37682438,0.017084008,-0.7038611,1.0663297,0.8319715,0.9219864
681,1747533228980,0.37682438,0.017084008,-0.7038611,1.0663297,0.8319715,0.9219864
682,1747533228990,0.382315685,-0.19756434,-1.1319375,1.2351741,0.499076395,0.940362185
683,1747533229000,0.437960745,-0.2595548749999999,-1.095695,1.3211942,0.39707733,0.88150632
684,1747533229010,0.437960745,-0.26114125,-1.1370627,1.40561645,0.1475391355,0.81119885
685,1747533229020,0.43076107,-0.2545517,-1.1700104,1.4375744,-0.002130529,0.7707188
686,1747533229030,0.38146147,-0.2203837,-1.2512815,1.3800501,-0.38456047,0.6828345
687,1747533229040,0.26199546,-0.174134855,-1.2892324,1.08497182,-0.5403554,0.7355651350000001
688,1747533229050,0.26480212,-0.183531045,-1.23017055,0.87351687,-0.365918345,0.829574705
689,1747533229060,0.32715875,-0.187313925,-1.15097395,0.80693785,-0.10812434,0.87218527
690,1747533229070,0.40757561,-0.2040318549999999,-1.0808075,0.8016115,0.13209279,0.86819055
691,1747533229080,0.4515059,-0.22697324,-1.0545714,0.8117315,0.24021713,0.8538095
692,1747533229090,0.4515059,-0.22697324,-1.0545714,0.8117315,0.24021713,0.8538095
693,1747533229100,0.4515059,-0.22697324,-1.0545714,0.8117315,0.24021713,0.8538095
694,1747533229110,0.4515059,-0.22697324,-1.0545714,0.8117315,0.24021713,0.8538095
695,1747533229120,0.4515059,-0.22697324,-1.0545714,0.8117315,0.24021713,0.8538095
696,1747533229130,0.4515059,-0.22697324,-1.0545714,0.8117315,0.24021713,0.8538095
697,1747533229140,0.4515059,-0.22697324,-1.0545714,0.8117315,0.24021713,0.8538095
698,1747533229150,0.4515059,-0.22697324,-1.0545714,0.8117315,0.24021713,0.8538095
699,1747533229160,0.46041401,-0.18206672,-1.069703,0.7403588000000001,0.08229168,0.5683186
700,1747533229170,0.4729829,-0.14936304,-1.0211354,0.4149205,0.2561961,0.62531024
701,1747533229180,0.48787045,-0.16888762,-0.9518233,0.40852892,0.3520699,0.55340487
702,1747533229190,0.47676584,-0.23697959,-0.8786061000000001,0.59548284,0.234358173,0.432231055
703,1747533229200,0.4876264,-0.29213652,-0.869576,0.7089335,0.108124346,0.38722363
704,1747533229210,0.5366819,-0.32801294,-0.92814976,0.8410263,-0.015446335,0.31638354
705,1747533229220,0.5366819,-0.32801294,-0.92814976,0.8410263,-0.015446335,0.31638354
706,1747533229230,0.5366819,-0.32801294,-0.92814976,0.8410263,-0.015446335,0.31638354
707,1747533229240,0.5366819,-0.32801294,-0.92814976,0.8410263,-0.015446335,0.31638354
708,1747533229250,0.5366819,-0.32801294,-0.92814976,0.8410263,-0.015446335,0.31638354
709,1747533229260,0.5366819,-0.32801294,-0.92814976,0.8410263,-0.015446335,0.31638354
710,1747533229270,0.5366819,-0.32801294,-0.92814976,0.8410263,-0.015446335,0.31638354
711,1747533229280,0.5366819,-0.32801294,-0.92814976,0.8410263,-0.015446335,0.31638354
712,1747533229290,0.5335091700000001,-0.31654225,-1.06323543,0.3238404,0.2378202825,0.19254655
713,1747533229300,0.528628,-0.33118567,-1.1290088,-0.128897,0.390419425,0.0354200445
714,1747533229310,0.4933617299999999,-0.29250261,-1.1487774,0.0002663149999999,0.0149137099999999,-0.0596548104999999
715,1747533229320,0.4803047,-0.26919514,-1.2012497,0.06498113,-0.25992453,-0.12144015
716,1747533229330,0.477498015,-0.25992097,-1.24090905,0.04314321,-0.360858335,-0.147006495
717,1747533229340,0.4702983,-0.2255089,-1.3264512,-0.087884314,-0.61838603,-0.21891184
718,1747533229350,0.4740812,-0.216356745,-1.37697105,-0.26072348,-0.5880259999999999,-0.2514024
719,1747533229360,0.46736963,-0.225508895,-1.38978395,-0.441552135,-0.35979308,-0.2777677
720,1747533229370,0.45858356,-0.22990192,-1.3899059,-0.613326015,-0.101466441,-0.2924151
721,1747533229380,0.42514774,-0.23502712,-1.3528093,-0.66525763,-0.021837922,-0.2908172
722,1747533229390,0.42514774,-0.23502712,-1.3528093,-0.7435546,0.07190535,-0.29561087
723,1747533229400,0.42514774,-0.23502712,-1.3528093,-0.7435546,0.07190535,-0.29561087
724,1747533229410,0.42514774,-0.23502712,-1.3528093,-0.7435546,0.07190535,-0.29561087
725,1747533229420,0.42514774,-0.23502712,-1.3528093,-0.7435546,0.07190535,-0.29561087
726,1747533229430,0.42514774,-0.23502712,-1.3528093,-0.7435546,0.07190535,-0.29561087
727,1747533229440,0.42514774,-0.23502712,-1.3528093,-0.7435546,0.07190535,-0.29561087
728,1747533229450,0.42514774,-0.23502712,-1.3528093,-0.7435546,0.07190535,-0.29561087
729,1747533229460,0.42514774,-0.23502712,-1.3528093,-0.7435546,0.07190535,-0.29561087
730,1747533229470,0.4207547,-0.191462905,-1.2597015,-0.90707265,0.003728425,-0.427969985
731,1747533229480,0.400741995,-0.1524137549999999,-1.16049225,-1.11186975,0.0159789649999999,-0.5683186
732,1747533229490,0.32630453,-0.15180361,-1.065554,-1.2378373,0.29614353,-0.545948
733,1747533229500,0.338385375,-0.143139575,-1.0334605,-1.2378373,0.29614353,-0.545948
734,1747533229510,0.35620156,-0.1400888599999999,-0.9853812,-1.2386362000000002,0.153398075,-0.581900725
735,1747533229520,0.3619369,-0.14570218,-0.9693954,-1.2325109,0.03888215,-0.61412495
736,1747533229530,0.3829258,-0.16644704,-0.9442575,-1.1797804,-0.10173275,-0.65886605
737,1747533229540,0.39634898,-0.16180995,-1.0206474,-1.10627715,-0.179763375,-0.70493874
738,1747533229550,0.40123011,-0.14875289,-1.06555395,-1.07005815,-0.227966595,-0.780039915
739,1747533229560,0.40611124,-0.13569583,-1.1104605,-1.0375676,-0.24980451,-0.79042625
740,1747533229570,0.3099527,-0.099087246,-1.194172,-1.2378373,-0.09640643,-0.7685883
741,1747533229580,0.3044614249999999,-0.1029921575,-1.1628107,-1.3499563499999998,0.006657903,-0.699612435
742,1747533229590,0.311173,-0.102504045,-1.1448725,-1.3736585,0.029827405,-0.68336713
743,1747533229600,0.351320415,-0.087250465,-1.0904478000000002,-1.4397049,-0.0362189905,-0.70174295
744,1747533229610,0.36877051,-0.091765525,-1.0825159,-1.449026,-0.054861119,-0.7190535
745,1747533229620,0.37365166,-0.08334555,-1.07031305,-1.4354439,-0.0854874725,-0.7382282499999999
746,1747533229630,0.368770515,-0.080416865,-1.0676284,-1.4146712,-0.136886485,-0.75553878
747,1747533229640,0.36254704,-0.075169635,-1.0848344,-1.3877733,-0.20612868,-0.768588305
748,1747533229650,0.366329925,-0.0607702559999999,-1.11119265,-1.36513645,-0.248206625,-0.77577886
749,1747533229660,0.3682824,-0.035022215,-1.1431642000000002,-1.3709954,-0.2428803,-0.78483361
750,1747533229670,0.363279215,-0.0056133165,-1.1825794,-1.4154702,-0.236222395,-0.796817825
751,1747533229680,0.357177765,0.0139112635,-1.2118663,-1.4988271000000002,-0.2346245,-0.81093255
752,1747533229690,0.34204623,0.0119588053,-1.2075953,-1.6319851,-0.24554346,-0.82584625
753,1747533229700,0.3137356,0.0107385188,-1.1840437499999998,-1.7414410500000002,-0.26365295,-0.8277105
754,1747533229710,0.306169835,0.0034168015,-1.1523162999999998,-1.78405165,-0.30706248,-0.8127968
755,1747533229720,0.3231317999999999,-0.011958805,-1.11131465,-1.7912422,-0.39867523,-0.809601
756,1747533229730,0.32386397,0.014887493,-1.07653655,-1.7688717,-0.498011125,-0.82504735
757,1747533229740,0.328134985,0.0461268215,-1.035779,-1.7419737,-0.650610275,-0.85673895
758,1747533229750,0.32264368,0.0737052915,-1.00441755,-1.71800525,-0.7715178,-0.891093725
759,1747533229760,0.27920149,0.12568948,-0.9986822,-1.7124127,-0.7819041,-0.895621095
760,1747533229770,0.25284332,0.153512,-0.9994144,-1.7172064,-0.7803062,-0.88843054
761,1747533229780,0.231488295,0.18951045,-0.997706,-1.778459,-0.76592517,-0.86659265
762,1747533229790,0.25601605,0.17999222,-0.92998015,-1.9244002,-0.70946615,-0.8676579
763,1747533229800,0.29335681,0.169619785,-0.8493192199999999,-1.95129815,-0.64555025,-0.90281162
764,1747533229810,0.29701768,0.19341536,-0.80441267,-1.89723605,-0.6317018,-0.95261272
765,1747533229820,0.2923806,0.20598431,-0.7839119,-1.8663434,-0.6412892,-0.9757822
766,1747533229830,0.29921418,0.18133454,-0.7597502,-1.7949706,-0.71798825,-1.0279802
767,1747533229840,0.2494264949999999,0.204886055,-0.72973115,-1.5994946,-0.959270665,-1.12731615
768,1747533229850,0.1907307349999999,0.2231903499999999,-0.75645545,-1.485245,-1.0594055,-1.14542565
769,1747533229860,0.17596528,0.22184804,-0.7753699,-1.4631407,-1.0418286,-1.1302456
770,1747533229870,0.16083373,0.2438132,-0.81783587,-1.4413028,-0.89855057,-1.0823087
771,1747533229880,0.19841854,0.23819989,-0.8710403,-1.4519554,-0.4841627,-0.98856544
772,1747533229890,0.1986626,0.2523552,-0.899595,-1.4444987,-0.35739622,-0.9917612
773,1747533229900,0.1986626,0.2523552,-0.899595,-1.4444987,-0.35739622,-0.9917612
774,1747533229910,0.20500809,0.25845662,-0.90374404,-1.4647386,-0.43782368,-1.0018812
775,1747533229920,0.20183535,0.24991462,-0.8839754,-1.4263891,-0.5773733,-1.0365024
776,1747533229930,0.13789235,0.31190515,-0.88031447,-1.3773869,-0.70680296,-1.0375676
777,1747533229940,0.09554841,0.36010647,-0.918997585,-1.45168915,-0.79122518,-0.964064335
778,1747533229950,0.095304355,0.385854515,-0.914482515,-1.5680693,-0.715591415,-0.921187435
779,1747533229960,0.097988985,0.41209069,-0.877385775,-1.6450346,-0.5896239000000001,-0.915328485
780,1747533229970,0.09493827,0.42929673,-0.85639685,-1.6767262,-0.52464277,-0.9187906
781,1747533229980,0.0545467949999999,0.42221904,-0.718626585,-1.7438379,-0.20293288,-0.95634118
782,1747533229990,0.01940255125,0.454556615,-0.66249341,-1.7395768,-0.14913702,-0.96406436
783,1747533230000,-0.0170840077499999,0.488114465,-0.607946605,-1.73957685,-0.066579027,-0.98377171
784,1747533230010,-0.0302630989999999,0.52252655,-0.5233807699999999,-1.7449032,-0.04527374,-0.98803276
785,1747533230020,-0.02391761,0.5354616,-0.46590528,-1.7550232,0.002130529,-1.0189254
786,1747533230030,-0.091643495,0.570971935,-0.4382047799999999,-1.76940425,0.0825579945,-1.03277385
787,1747533230040,-0.24381318,0.61844107,-0.342534365,-1.90256235,0.30945932,-0.988831715
788,1747533230050,-0.267974855,0.6070923699999999,-0.275296585,-1.9736687,0.42930157,-0.966461165
789,1747533230060,-0.28213018,0.6042857,-0.23551524,-1.9989687,0.48842376,-0.958738
790,1747533230070,-0.34045988,0.6282034,-0.13227904,-1.9851203,0.6114618,-0.92464954
791,1747533230080,-0.439791165,0.64345695,0.11458488,-1.7398431,0.6082660200000001,-0.81785678
792,1747533230090,-0.45248213,0.6474839,0.16083373,-1.6655409,0.55553544,-0.80107886
793,1747533230100,-0.44686884,0.6325964,0.23771177,-1.4716629,0.37390783,-0.7824367
794,1747533230110,-0.52106222,0.742788255,0.2098892299999999,-1.0546118,-0.135554895,-0.7190535
795,1747533230120,-0.601235025,0.7598722250000001,0.1608337249999999,-0.83836312,-0.443150015,-0.585362825
796,1747533230130,-0.68836349,0.76524147,0.134719595,-0.7970841200000001,-0.477238475,-0.3938815249999999
797,1747533230140,-0.738273215,0.7809831700000001,0.145336095,-0.76272935,-0.4396878899999999,-0.1510012275
798,1747533230150,-0.7492558,0.7905014,0.15961345,-0.7435546,-0.4101268,-0.022370555
799,1747533230160,-0.585493325,0.74400851,0.318006605,-0.47777112,-0.3089267,0.30812774
800,1747533230170,-0.49860895,0.71728426,0.39781332,-0.28815404,-0.2657835,0.41918156
801,1747533230180,-0.45052966,0.70068836,0.44418418,0.0026631611,-0.19973709,0.48522797
802,1747533230190,-0.364255465,0.623322215,0.480060625,0.43782368,-0.09534117,0.54275227
803,1747533230200,-0.3233758599999999,0.6024552999999999,0.39671506,1.22718467,0.0545948015,0.6191849700000001
804,1747533230210,-0.2970176599999999,0.6064822249999999,0.225508885,1.7251958,0.12969595,0.67963874
805,1747533230220,-0.2882316,0.61038715,0.1415532,1.8423749,0.13901702,0.69774824
806,1747533230230,-0.2749304999999999,0.6504125599999999,-0.1410650925,1.92839495,0.1272991,0.7419567149999999
807,1747533230240,-0.27139166,0.657978325,-0.2762728,1.8708707,0.135022265,0.78829572
808,1747533230250,-0.26992732,0.6552937,-0.3355787,1.8232001,0.14327806,0.81545997
809,1747533230260,-0.231244235,0.5809783,-0.38561043,1.5185345,0.299871935,1.05807395
810,1747533230270,-0.20110317,0.5339973,-0.35876414,1.4892397,0.33609092,1.1100056
811,1747533230280,-0.114340825,0.46663746,-0.27139166,1.6415725,0.31372038,1.1837751
812,1747533230290,-0.023551522,0.46529515,-0.281764075,1.8948391,0.157925462,1.1528825
813,1747533230300,0.049421593,0.48555191,-0.371943235,2.0993699,-0.0002663155,1.0665961
814,1747533230310,0.061624454,0.50507647,-0.4774979849999999,2.1182784,-0.0311589845,0.987500165
815,1747533230320,0.058573738,0.51496077,-0.5232587,2.1049626,-0.025033714,0.95128113
816,1747533230330,0.07468152,0.47103047,-0.5747548,2.040514,0.104928546,0.8942895
817,1747533230340,0.077122085,0.39854547,-0.58964235,2.0149477,0.27643612,0.85700524
818,1747533230350,0.037340759,0.318372685,-0.61746485,2.21521735,0.5619270199999999,0.90840426
819,1747533230360,0.073217173,0.27224585,-0.64968038,2.2647521,0.5502091,0.92038846
820,1747533230370,0.09640261,0.2550398,-0.67018116,2.3686156,0.4495416,0.90494215
821,1747533230380,0.12032023,0.29530928,-0.7455949,2.4362597,0.34141725,0.86233157
822,1747533230390,0.146800435,0.2946991399999999,-0.7934300999999999,2.4362597,0.34141725,0.86233157
823,1747533230400,0.16620298,0.33484653,-1.0267489,2.4362597,0.2695119,0.8064052
824,1747533230410,0.0699224015,0.409283995,-1.0695809,1.98032665,0.762729345,0.75713672
825,1747533230420,0.0444184185,0.37023483,-1.0138138,1.7449031499999998,0.903344245,0.8341020699999999
826,1747533230430,0.070532542,0.25833459,-0.82088657,1.5994946,0.8974853199999999,0.8990832
827,1747533230440,0.123492965,0.153023895,-0.64943637,1.7286579,0.7017429799999999,0.93929693
828,1747533230450,0.183653075,0.09310784,-0.6186851,2.00456145,0.504935355,0.95367798
829,1747533230460,0.2724899149999999,0.0545467935,-0.6768927499999999,2.2306638000000003,0.47191216,0.93157375
830,1747533230470,0.32410803,0.044418417,-0.7319277,2.3350596,0.48522797,0.912399
831,1747533230480,0.40781966,0.077122085,-0.9003272,2.4458473,0.60720074,0.8378305
832,1747533230490,0.45687518,0.13764828,-1.073852,2.4341292,0.8026768,0.7499462
833,1747533230500,0.36694007,0.206838525,-1.317421,1.9574234,1.0474213,0.63516392
834,1747533230510,0.32203354,0.18951045,-1.313272,1.8503643,1.0327739,0.6317018
835,1747533230520,0.29872608,0.18011424,-1.2978964,1.655421,0.9731191,0.6530071
836,1747533230530,0.26529023,0.17596528,-1.2376143,1.46074385,0.86099995,0.723048225
837,1747533230540,0.260165,0.14399378,-1.1480453,1.4157364,0.8271778,0.74675035
838,1747533230550,0.38292583,-0.014399377,-0.93693578,1.5448998,0.577639625,0.735831415
839,1747533230560,0.404890965,-0.034168014,-0.90508628,1.7156084,0.4599279149999999,0.683100815
840,1747533230570,0.40733153,-0.030751213,-0.895446,1.8120148,0.39627838,0.6514092
841,1747533230580,0.37999713,-0.029042812,-0.9303462,1.9755329,0.22050974,0.5917544
842,1747533230590,0.31825064,-0.0128130054999999,-1.15536695,2.00882235,-0.0647148115,0.50120692
843,1747533230600,0.239786245,0.0530824515,-1.3301120000000002,1.9483687,-0.14753912,0.47404268
844,1747533230610,0.20232345,0.08517598,-1.3803878,1.7315874,-0.1470065,0.49641323
845,1747533230620,0.16010156,0.09567044,-1.4267586,1.4370418,-0.05912218,0.5486112
846,1747533230630,0.15888128,0.0388051,-1.3935668,1.1387677,0.1603223,0.6295713
847,1747533230640,0.18157859,-0.0102504045,-1.2800802,0.9321064,0.46339005,0.72651035
848,1747533230650,0.36120473,-0.148996955,-0.99148263,1.04715498,1.0556771,0.8857674
849,1747533230660,0.4097721,-0.16571487,-0.95377576,1.1510183,1.0982877,0.88470215
850,1747533230670,0.47688788,-0.17084008,-0.93059033,1.3480922,0.9997507,0.8271778
851,1747533230680,0.4662713699999999,-0.065529372,-1.10765385,1.5920377499999998,0.2378202875,0.5712481
852,1747533230690,0.44052333,-0.04002539,-1.1607363,1.5749935,0.060720075,0.5182512
853,1747533230700,0.35925224,-0.0024405725,-1.2527459,1.4402375,-0.21518342,0.45540056
854,1747533230710,0.28994003,0.0014643435,-1.3032657,1.2506205,-0.28495824,0.45220476
855,1747533230720,0.266388475,-0.0115927195,-1.2304146500000002,0.8772453,0.013315806,0.5704491
856,1747533230730,0.27407628,-0.014887493,-1.159272,0.8772453,0.013315806,0.5704491
857,1747533230740,0.324230065,-0.067847915,-1.0031973,0.6886934499999999,0.44394895,0.621848125
858,1747533230750,0.3333822,-0.07541369,-0.9589009,0.6945524,0.4809669,0.6135923
859,1747533230760,0.35656762,-0.102992155,-0.8859278,0.7701862,0.49375007,0.5795039
860,1747533230770,0.38829508,-0.18426323,-0.835652,1.0780476,0.33076462,0.49375007
861,1747533230780,0.375116,-0.16791138,-0.89764255,1.2367721,0.15606125,0.4415521
862,1747533230790,0.328256995,-0.120564275,-1.0562798,1.2841763,-0.115314875,0.3949468
863,1747533230800,0.310196755,-0.09213161,-1.1442624499999998,1.2607405,-0.19867182,0.38775626
864,1747533230810,0.298970135,-0.10372433,-1.19185365,1.0357034,-0.258859265,0.3888215299999999
865,1747533230820,0.298604045,-0.12935034,-1.18489795,0.82078628,-0.05432849,0.45140578
866,1747533230830,0.30604777,-0.13203497,-1.1653733,0.70467246,0.11771172,0.5049353
867,1747533230840,0.323253825,-0.1424074,-1.1395033,0.68709558,0.19041602,0.5230448
868,1747533230850,0.399765765,-0.168887615,-1.0505444,0.66845345,0.31798145,0.535828
869,1747533230860,0.41087038,-0.185117425,-1.0197932,0.6791061,0.27696875,0.48948902
870,1747533230870,0.40781966,-0.200371,-1.0047837,0.7339672,0.05912218,0.37550572
871,1747533230880,0.41026023,-0.24845028,-1.019183,0.7771104,-0.02609898,0.33981937
872,1747533230890,0.4217309,-0.29116032,-1.0611609,0.8431568,-0.056459017,0.31372038
873,1747533230900,0.43332365,-0.25479576,-1.17733215,0.8420915499999999,-0.0679106095,0.27963193
874,1747533230910,0.43539813,-0.23795582,-1.2161373,0.8186557,-0.077231675,0.26525086
875,1747533230920,0.42539178,-0.18560554,-1.2814225499999998,0.572845965,-0.0881506355,0.200003405
876,1747533230930,0.4148973099999999,-0.18389714,-1.24286155,0.43409526,-0.070307456,0.16990969
877,1747533230940,0.40952805,-0.2146483599999999,-1.18489795,0.32490566,-0.009054748,0.15978967
878,1747533230950,0.40562314,-0.244057255,-1.1254699499999998,0.264185595,0.099069595,0.154995975
879,1747533230960,0.4041588,-0.24991462,-1.0972813,0.26205507,0.1304949,0.15339808
880,1747533230970,0.398545485,-0.231488295,-1.06384555,0.321976185,0.0724379865,0.0804274675
881,1747533230980,0.367550225,-0.22611904,-1.0761704,0.315051965,0.030626354,0.055127436
882,1747533230990,0.337043065,-0.22990193,-1.08520055,0.29800773,-0.0066579024999999,0.054861119
883,1747533231000,0.340459855,-0.242958995,-1.1060675,0.28735508,-0.0396811,0.06711166
884,1747533231010,0.358154015,-0.24576565,-1.1410897,0.2727077,-0.070307455,0.068443237
885,1747533231020,0.36462155,-0.24478942,-1.1587838,0.2593919,-0.08522116,0.06391586
886,1747533231030,0.39464056,-0.27773714,-1.2156491,0.18855181,-0.10013486,0.04527374
887,1747533231040,0.450773765,-0.323741945,-1.2677554,0.1126517175,-0.0450074269999999,0.0111852768499999
888,1747533231050,0.4849417649999999,-0.338995515,-1.3295019,0.096939065,-0.017576864,-0.0053263223
889,1747533231060,0.48713827,-0.3350906,-1.41162715,0.0290284595,-0.070573768,-0.10146644
890,1747533231070,0.48103684,-0.3270367,-1.4475036,-0.007456851,-0.11345066,-0.12037488
891,1747533231080,0.458095445,-0.28798756,-1.5256019,-0.209857095,-0.29534456,-0.181361275
892,1747533231090,0.44394013,-0.27358818,-1.5490314,-0.28868666,-0.34834146,-0.19813919
893,1747533231100,0.35424911,-0.220139635,-1.5302389,-0.748082,-0.344613045,-0.187486545
894,1747533231110,0.34839172,-0.230268015,-1.4733736,-0.92225275,-0.26338664,-0.15686019
895,1747533231120,0.35534734,-0.24234885,-1.4357888,-1.0040118,-0.21358553,-0.14274544
896,1747533231130,0.3841461,-0.24698594,-1.3415827,-1.0487529,-0.14008227,-0.15925704
897,1747533231140,0.377922635,-0.229901925,-1.24579025,-1.03863285,-0.140881225,-0.231695015
898,1747533231150,0.3696247,-0.2147703799999999,-1.21735755,-1.0229202,-0.196274975,-0.288952985
899,1747533231160,0.3579099599999999,-0.200248975,-1.2227268,-1.02238755,-0.24660872,-0.321443555
900,1747533231170,0.35095432,-0.20256752,-1.2298045,-1.0247844,-0.2727077,-0.33449304
901,1747533231180,0.31873876,-0.20256752,-1.249085,-1.0498182,-0.30626354,-0.3371562
902,1747533231190,0.2871333499999999,-0.16876559,-1.28008015,-1.12811505,-0.34301515,-0.2924150749999999
903,1747533231200,0.30299708,-0.152901875,-1.31412615,-1.2804479,-0.39521311,-0.268180325
904,1747533231210,0.32557235,-0.145214065,-1.32950185,-1.4578144000000002,-0.4442152849999999,-0.265517175
905,1747533231220,0.33265,-0.1466784,-1.3230344,-1.5174692,-0.45859635,-0.26844665
906,1747533231230,0.35461518,-0.17059602,-1.3039979,-1.613343,-0.43089947,-0.28176245
907,1747533231240,0.39720316,-0.16547082,-1.23834645,-1.7057547,-0.35206989,-0.3307645999999999
908,1747533231250,0.4253917849999999,-0.167179215,-1.1996634,-1.7536916,-0.35979306,-0.39867522
909,1747533231260,0.43857088,-0.19231711,-1.18245735,-1.7699369,-0.4247742,-0.47058057
910,1747533231270,0.44149956,-0.20647243,-1.1746475,-1.7715348,-0.46392268,-0.5075985
911,1747533231280,0.39756927,-0.19939478,-1.1751356,-1.7518274,-0.5107943,-0.5608617
912,1747533231290,0.35193056,-0.15546447,-1.1972228,-1.81068325,-0.5360943499999999,-0.507598505
913,1747533231300,0.310806915,-0.103114185,-1.215161,-1.9086875,-0.54994277,-0.472711105
914,1747533231310,0.32423006,-0.088592778,-1.19685675,-1.952097,-0.55287224,-0.46978164
915,1747533231320,0.33313814,-0.082491346,-1.1827015,-2.0399814,-0.56725335,-0.4825648
916,1747533231330,0.3171524,-0.079196577,-1.12620215,-2.1134846,-0.5613944,-0.50333744
917,1747533231340,0.3227657,-0.102992163,-1.08202785,-2.1632858,-0.4990764,-0.5139901
918,1747533231350,0.34338853,-0.095304358,-1.074462,-2.14011625,-0.4247742,-0.5643238500000001
919,1747533231360,0.334724515,-0.057109396,-1.09935585,-2.13851835,-0.3933489,-0.63063655
920,1747533231370,0.31654227,-0.042465962,-1.1109486,-2.1624868,-0.40906155,-0.6508766
921,1747533231380,0.30433938,-0.059305906,-1.0926442,-2.209891,-0.49215218,-0.6743124
922,1747533231390,0.2801777,-0.05344854,-1.0618931,-2.2184132,-0.625043925,-0.67830715
923,1747533231400,0.21196372,0.00036608588,-1.0435888,-2.2730081,-0.7302388,-0.6202502350000001
924,1747533231410,0.216600805,0.0228193535,-1.0431007,-2.3507724,-0.77364833,-0.5720469850000001
925,1747533231420,0.22306833,0.045638707,-1.0438329,-2.3755398,-0.75633776,-0.5725796
926,1747533231430,0.2208718,0.08371163,-1.0216236,-2.4266725,-0.66632295,-0.567786
927,1747533231440,0.24332508,0.076389916,-0.9886759,-2.5063009,-0.460460565,-0.60373863
928,1747533231450,0.22868164,0.097988982,-0.798677335,-2.44930925,-0.369646765,-0.6482133999999999
929,1747533231460,0.224776725,0.0849319219999999,-0.74022562,-2.31748285,-0.356064645,-0.68469872
930,1747533231470,0.21769907,0.09030118,-0.72118914,-2.249306,-0.37444046,-0.70627034
931,1747533231480,0.14350566,0.1598575,-0.7324158,-2.0980383,-0.49667953,-0.7155914
932,1747533231490,0.12080834,0.17084008,-0.77659017,-2.0682108,-0.545948,-0.70627034
933,1747533231500,0.12190659,0.244911445,-0.93095637,-2.08845105,-0.635163935,-0.6974819000000001
934,1747533231510,0.083345547,0.27968961,-0.97378842,-2.1832595,-0.6836334850000001,-0.67351348
935,1747533231520,0.062478654,0.29018408,-0.99404514,-2.34597865,-0.78190415,-0.6002765299999999
936,1747533231530,0.03904916,0.280787855,-0.8570070249999999,-2.45490195,-0.86020107,-0.524642735
937,1747533231540,0.0495436195,0.27566266,-0.774027555,-2.43040085,-0.84821682,-0.489222685
938,1747533231550,0.0506418775,0.281275975,-0.71106078,-2.3481092500000003,-0.7973504499999999,-0.46365635
939,1747533231560,0.06833603,0.2837165499999999,-0.67738085,-2.22587015,-0.7582019799999999,-0.450873185
940,1747533231570,0.086518295,0.322399635,-0.7219213250000001,-2.0229372,-0.8005462299999999,-0.494282705
941,1747533231580,0.08517598,0.36388937,-0.77732235,-1.88871385,-0.89295793,-0.5520733
942,1747533231590,0.07199689,0.41148052,-0.865427,-1.92493285,-0.97578228,-0.58003648
943,1747533231600,0.0384390185,0.42612395,-0.970737735,-2.0234698,-0.983239115,-0.5952165
944,1747533231610,0.016839951,0.42856455,-0.9952655,-2.2431806,-0.780306215,-0.53502907
945,1747533231620,-0.042221904,0.460536,-1.0089327,-2.4016387,-0.6045376,-0.47510794
946,1747533231630,-0.026602242,0.42612398,-0.9471862,-2.5891253,-0.2857571949999999,-0.40639839
947,1747533231640,0.010494461,0.4053791,-0.8336995,-2.6269422,-0.19068234,-0.39148468
948,1747533231650,0.045516679,0.42917468,-0.68702113,-2.5800705,-0.0575242805,-0.4162520899999999
949,1747533231660,0.089446982,0.4641969099999999,-0.6249086,-2.49937675,-0.124635943,-0.52624064
950,1747533231670,0.11800168,0.50702896,-0.59232697,-2.4511735,-0.20240025,-0.6199839
951,1747533231680,0.11202228,0.5276518,-0.5847612,-2.470881,-0.22370553,-0.7094661
952,1747533231690,0.0622346,0.5405868,-0.6020892,-2.5406556,-0.15020229,-0.7520767
953,1747533231700,-0.0558891125,0.5699957,-0.512032115,-2.7355992,0.16618126,-0.7036071850000001
954,1747533231710,-0.1081173649999999,0.59964865,-0.38914928,-2.805374,0.29667616,-0.67537767
955,1747533231720,-0.1244692,0.6208816,-0.33777523,-3.0178943,0.7030745,-0.5901565
956,1747533231730,-0.16693515,0.6555378,-0.22428861,-3.1111047,0.721184,-0.5789712
957,1747533231740,-0.248206225,0.6208816500000001,0.0103724325,-3.27222615,0.57604176,-0.5656554300000001
958,1747533231750,-0.30592576,0.59733012,0.368526455,-3.16383545,0.4764395299999999,-0.5283711600000001
959,1747533231760,-0.3333822,0.59232694,0.613804,-3.0274816,0.4245079,-0.49960902
960,1747533231770,-0.35583547,0.6208816,0.8156393,-2.7249465,0.37017938,-0.4910869
961,1747533231780,-0.37828872,0.6474839,0.9850151,-2.3734093,0.27324033,-0.49747851
962,1747533231790,-0.46871195,0.66774062,1.1611023,-1.7507621,0.0612527074999999,-0.48842375
963,1747533231800,-0.5453459,0.67908927,1.1901451,-1.11160342,-0.0908137924999999,-0.399740475
964,1747533231810,-0.6072143999999999,0.6872652,1.1641530000000002,-0.43968791,-0.175502315,-0.246076085
965,1747533231820,-0.6135599199999999,0.6815298700000001,1.12107695,-0.18642128,-0.18002969,-0.16831179
966,1747533231830,-0.60843474,0.67628264,1.1009423,0.44874267,-0.09800433,0.0245010825
967,1747533231840,-0.5730464,0.6718896,1.0357789,0.660464,-0.07350325,0.08628642
968,1747533231850,-0.40733154,0.64174855,0.7405917,1.38963745,-0.0287621414999999,0.26445189
969,1747533231860,-0.3316737899999999,0.6214918,0.5835409,1.8658107,0.01091896,0.34434673
970,1747533231870,-0.3031191,0.6152683,0.5020258,2.12360465,0.0956074865,0.37736994
971,1747533231880,-0.29067218,0.63625723,0.32337585,2.2391858,0.14966966,0.39894155
972,1747533231890,-0.22855962,0.6559038500000001,-0.017816175,2.417884,0.207992885,0.50333743
973,1747533231900,-0.184629305,0.68287215,-0.248816355,2.3630229500000004,0.124103312,0.59228702
974,1747533231910,-0.17669745,0.7004443,-0.31068486,2.2786007,0.043675844,0.64341974
975,1747533231920,-0.15326795,0.7326599,-0.3968371,2.0831246,-0.087884314,0.68656296
976,1747533231930,-0.10945968,0.750354025,-0.417337895,1.7302558,-0.18722023,0.713460875
977,1747533231940,-0.0467369648,0.6714015,-0.25577199,1.5749935000000002,-0.0463390049999999,0.7105314
978,1747533231950,0.00122028625,0.57536495,-0.060160113,1.6476978,0.2282329,0.69109032
979,1747533231960,-0.01549763495,0.56218585,0.005491288,1.96887505,0.5099953500000001,0.68922612
980,1747533231970,-0.029042812,0.5684093,0.021965152,2.1758027,0.6593987,0.6988135
981,1747533231980,-0.0065895454,0.5449798,-0.044662476,2.485262,0.7616641,0.7078682
982,1747533231990,0.016595893,0.5215503,-0.16595893,2.713761,0.7483483,0.6711166
983,1747533232000,-0.0154976355,0.56084355,-0.527651755,2.7987161,0.43063316,0.6002765
984,1747533232010,-0.047225081,0.5652365699999999,-0.66212727,2.7542412,0.22264028,0.5725796
985,1747533232020,-0.07248501,0.56767714,-0.7228975,2.5624936,0.060720075,0.5587312
986,1747533232030,-0.1210524,0.55913514,-0.7473033,2.3382554,-0.056459017,0.58429754
987,1747533232040,-0.075291662,0.4167277649999999,-0.6119735550000001,2.22267425,0.169643365,0.6876282
988,1747533232050,-0.0247718104999999,0.36071661,-0.51032372,2.3936492,0.54648067,0.7864315
989,1747533232060,0.0428320465,0.345096945,-0.51288634,2.499643,0.68816084,0.8245147
990,1747533232070,0.09298581,0.32069123,-0.5357057,2.6871295,0.9464875,0.85061365
991,1747533232080,0.15888128,0.31483385,-0.6284474,2.812298,1.1472899,0.82557994
992,1747533232090,0.16254212,0.3660859,-0.7050814,2.886334,1.2037488,0.79735047
993,1747533232100,0.149363035,0.38853914,-0.836140125,2.8117655,0.99096225,0.768588305
994,1747533232110,0.102504045,0.39451852,-1.026138675,2.484463,0.38429416,0.715058745
995,1747533232120,0.10457852,0.312149215,-1.057256,2.1302626,-0.06844324,0.6913566250000001
996,1747533232130,0.1403329,0.24625377,-1.0294335,2.0287962,-0.1272991,0.6924219
997,1747533232140,0.21159762,0.17328064,-0.97281224,2.2181469,0.393082585,0.7763115
998,1747533232150,0.28627914,0.28090989,-1.04114825,2.3840619,0.713460875,0.831172585
999,1747533232160,0.30848834,0.29067218,-1.0811737,2.3957798,0.727043,0.82611257
1000,1747533232170,0.31312546,0.2933568,-1.1563432,2.273807,0.6013418,0.7456851
1001,1747533232180,0.26675457,0.32923323,-1.1497537,2.0916467,0.38136467,0.664725
