timestamp,acc_x,acc_y,acc_z,gyro_x,gyro_y,gyro_z,id
1747532562220,-0.16034561,0.25674823,0.97208,0.16405073,0.5725796,-0.012250541,1
1747532562230,0.36950266,-1.4682485,1.3615954,-6.048039,-1.1856394,-1.7129452,2
1747532562240,0.3443648,-1.3730661,1.5575734,-5.812083,-1.325189,-1.7704695,3
1747532562250,0.2689511,-1.0677505,2.0644803,-5.60915,-1.4311827,-1.8338528,4
1747532562260,0.205984325,-0.994777375,2.1297655,-5.461078199999999,-1.4418354,-1.89137705,5
1747532562270,0.107385196,-0.788549,2.3719923,-5.3380404,-1.407747,-2.072472,6
1747532562280,0.0873725,-0.6357691,2.6116564,-5.642706,-1.3390374,-2.3174827,7
1747532562290,-0.016595893,-0.4144092,2.8193493,-6.1092916,-1.186172,-2.5321336,8
1747532562300,-0.2806658,0.1564407,3.4604878,-6.6595006,-1.0247844,-2.6844664,9
1747532562310,-0.37121108,0.4002539,3.7496955,-7.311975,-0.69721556,-2.6754117,10
1747532562320,-0.3943965,0.47713193,4.013766,-7.1729584,-0.5795039,-2.6754117,11
1747532562330,-0.43503205,0.4723728,4.0810035,-7.0094402,-0.51638696,-2.6977823,12
1747532562340,-0.613926025,0.555718335,4.1503155,-6.7066385,-0.30519826,-2.69964645,13
1747532562350,-0.957436575,0.9574366,4.134085649999999,-6.5481806,0.10759171,-2.3318639,14
1747532562360,-1.18087095,1.3607412,4.159955650000001,-6.9279473,0.21944448,-1.65488835,15
1747532562370,-1.138527,1.5046129,4.304682,-7.512778,0.19707392,-0.36272255,16
1747532562380,-1.0257727,1.4904575,4.351541,-7.4009247,0.096939065,0.080960095,17
1747532562390,-1.01015297,1.50400275,4.3244505,-7.021691,-0.034088463,0.43089947,18
1747532562400,-0.699224,1.5160836,3.7379808,-6.514092,-0.034621093,0.6961503,19
1747532562410,-0.54253924,1.517548,3.4558508,-5.962285,0.0237021355,0.6926882,20
1747532562420,-0.4131889,1.5612342,3.1707919,-4.8597364,0.2247708,0.47617322,21
1747532562430,-0.31947094,1.564651,2.852541,-4.326039,0.38722363,0.18588865,22
1747532562440,-0.18963248,1.4767904,2.1357448,-3.2453282,0.62104917,-0.46392268,23
1747532562450,-0.13496366,1.4291992,1.7855228,-2.8884647,0.86233157,-0.7456851,24
1747532562460,-0.118855886,1.4167523,1.517548,-2.6312032,1.0317086,-0.9720538,25
1747532562470,-0.1666911,1.432128,1.3449996,-2.4405208,1.0572749,-1.045557,26
1747532562480,-0.21281794,1.4475036,1.1704986,-2.3062975,1.0040118,-0.9108011,27
1747532562490,-0.10152781,1.4438426,0.92229235,-2.092712,0.72970617,-0.45859635,28
1747532562500,-0.0034168016,1.5331676,1.0318741,-2.092712,0.72970617,-0.45859635,29
1747532562510,0.08932495,1.5890567,1.0731196,-1.4375744,0.18695392,-0.28655612,30
1747532562520,0.1867038,1.5853959,1.0042956,-0.69295454,-0.03888215,-0.36911413,31
1747532562530,0.24234885,1.534876,0.87982637,0.05219796,-0.087884314,-0.5683186,32
1747532562540,0.07516963,1.4431105,0.6379657,1.6250609,0.08841695,-0.97897804,33
1747532562550,-0.061746486,1.411139,0.5122762,2.237588,0.18482338,-1.005077,34
1747532562560,-0.18011424,1.389662,0.28554696,2.6290727,0.26684874,-0.8788432,35
1747532562570,-0.19915071,1.3647681,0.09615856,2.8144288,0.32863408,-0.6498113,36
1747532562580,-0.18304294,1.3008251,-0.02391761,2.8261466,0.29507825,-0.37710363,37
1747532562590,-0.17303659,1.206375,-0.0019524579,2.583799,0.20080236,0.19441076,38
1747532562600,-0.18548352,1.240543,0.1969542,2.530003,0.14061491,0.39894155,39
1747532562610,-0.2037878,1.2852055,0.38805103,2.57794,0.11771172,0.5858955,40
1747532562620,-0.208913,1.3264512,0.6321083,2.7324033,0.12410331,0.753142,41
1747532562630,-0.16547081,1.2947236,1.1360865,3.2927325,-0.049002163,0.96566224,42
1747532562640,-0.13032657,1.2525018,1.3952752,3.6533244,-0.105993815,0.91452956,43
1747532562650,-0.14765464,1.2454242,1.6049205,4.0394826,-0.03195793,0.7387609,44
1747532562660,-0.20183535,1.2505494,1.8592281,4.4416203,0.16192019,0.49002165,45
1747532562670,-0.32801294,1.227608,2.1518528,4.860269,0.41918156,0.25672874,46
1747532562680,-0.54790854,1.2012497,2.4967055,5.3694654,0.6844324,0.13422333,47
1747532562690,-1.0008788,1.3120518,3.3565192,6.060822,0.9044095,0.5970807,48
1747532562700,-1.2154051,1.4123594,3.970323,6.319681,0.75580513,1.0945592,49
1747532562710,-1.31156365,1.46153685,4.30016635,6.4304687000000005,0.61572285,1.3997575,50
1747532562720,-1.479475,1.2439598,5.6438236,6.9929285,-0.28975195,2.599778,51
1747532562730,-1.3306,0.8808026,5.8217416,7.3151712,-0.37230992,2.6423886,52
1747532562740,-1.2493291,0.5315567,5.821009,7.7098513,-0.3254383,2.378203,53
1747532562750,-1.2263877,0.19744232,5.6662774,8.264321,0.08681905,1.7374463,54
1747532562760,-1.2642166,0.053204483,5.5443707,8.42011625,0.356064645,1.49509865,55
1747532562770,-1.3628157,-0.19939478,5.016597,8.679242,1.1749867,0.9347696,56
1747532562780,-1.5900329,-0.33484653,4.2263393,8.243016,1.8242654,1.1222562,57
1747532562790,-1.6947334,-0.49397188,3.921756,7.8414116,1.9489013,1.6607473,58
1747532562800,-1.6486067,-0.7294871,3.5664086,7.428089,1.9547603,2.326005,59
1747532562810,-1.479231,-0.95792466,3.1556602,7.0424633,1.7230653,2.9912627,60
1747532562820,-1.0133257,-1.551716,2.387856,6.3718796,0.85753787,4.0458746,61
1747532562830,-0.75047606,-1.7750283,1.9207305,5.888782,0.26045716,4.454936,62
1747532562840,-0.45516676,-1.8526386,1.3906382,5.4765244,-0.17896444,4.576376,63
1747532562850,-0.20281157,-1.8179823,0.97500867,4.99396,-0.46871635,4.4528055,64
1747532562860,-0.0784644025,-1.7810077,0.809171785,4.5327,-0.49801114,4.045342,65
1747532562870,0.409284,-1.5880805,0.09542638,3.6618466,0.04527374,2.6152241,66
1747532562880,0.47884035,-1.512911,-0.070532545,3.264503,0.505468,1.7907095,67
1747532562890,0.46736962,-1.4643435,-0.13081467,2.9134984,0.8378305,1.0546118,68
1747532562900,0.42246306,-1.4572659,-0.13057062,2.6509106,1.0327739,0.48363006,69
1747532562910,0.36559775,-1.478987,-0.11202228,2.463424,1.1456919,-0.0015978967,70
1747532562920,0.25601605,-1.5836874,0.028066583,2.4213462,1.099353,-0.33609092,71
1747532562930,0.18231077,-1.7235322,0.047347106,2.4304008,1.0285128,-0.30519825,72
1747532562940,0.13398743,-1.8257922,-0.040269446,2.3643544,0.86392945,-0.12037488,73
1747532562950,0.19719826,-1.9131647,-0.17840585,2.1576931,0.50387007,0.1272991,74
1747532562960,0.39268813,-1.9976085,-0.58891016,1.149953,-0.52144694,0.47031426,75
1747532562970,0.41001618,-1.9534342,-0.6796995,0.4394216,-0.81013364,0.5049353,76
1747532562980,0.42441553,-1.9038906,-0.69971216,-0.31691617,-0.88683265,0.41598576,77
1747532562990,0.44320798,-1.8619128,-0.6560259,-1.1930962,-0.82185155,0.1470065,78
1747532563000,0.44540447,-1.8296971,-0.5635282,-1.7651432,-0.68389976,-0.12676647,79
1747532563010,0.41099238,-1.7247525,-0.39976576,-2.2077606,-0.5278385,-0.40266997,80
1747532563020,0.41904628,-1.6490947,-0.31898284,-2.835734,-0.037284255,-0.9603359,81
1747532563030,0.42417148,-1.5639188,-0.25943285,-3.0866039,0.18801917,-1.2442288,82
1747532563040,0.45248213,-1.4733735,-0.15229172,-3.3140378,0.30519825,-1.5419703,83
1747532563050,0.481158865,-1.45214055,-0.083467577,-3.6096487,0.205329715,-1.8263959,84
1747532563060,0.4761557,-1.4043053,0.04002539,-4.3532033,-0.1949434,-2.28659,85
1747532563070,0.38512233,-1.3008251,0.25552794,-4.9833074,-0.44741106,-2.412824,86
1747532563080,0.366085875,-1.2377363,0.39061362,-5.21606755,-0.483363745,-2.45064085,87
1747532563090,0.29091623,-1.0579882,0.7975791,-5.8184743,-0.51292485,-2.5502431,88
1747532563100,0.09811102,-0.83784854,1.4416462,-6.0954432,-0.7813715,-2.483664,89
1747532563110,0.014399378,-0.7058135,1.8221315,-6.0299296,-1.0487529,-2.3883228,90
1747532563120,-0.02318544,-0.50568664,2.195783,-5.919142,-1.3795174,-2.3584955,91
1747532563130,-0.12324891,-0.18133454,2.6236155,-5.8168764,-1.6484967,-2.3707461,92
1747532563140,-0.3192269,0.2672427,2.9411337,-5.7332535,-1.6575515,-2.3467777,93
1747532563150,-0.4455265,0.5419291,2.93051735,-5.72393225,-1.2825784,-2.3393208000000003,94
1747532563160,-0.5872017,0.7697565,2.8868312,-5.830724999999999,-0.76246305,-2.4082966,95
1747532563170,-0.62600684,0.554254,2.89159,-6.412892,-0.3371562,-2.7047064,96
1747532563180,-0.7568215,0.5213063,3.0585253,-7.0770845,0.05486112,-2.795254,97
1747532563190,-0.92595315,0.6286915,3.3875144,-7.809454,0.3009372,-2.6668897,98
1747532563200,-0.9230245,1.0452971,4.4682,-8.560465,0.13156016,-2.0676782,99
1747532563210,-0.925099,1.1414557,4.599991,-8.490423750000001,-0.0303600349999999,-1.9126823,100
1747532563220,-1.0967933,1.4804512,4.7349544,-8.018778,-0.55127436,-1.4082797,101
1747532563230,-1.2500613,1.6771613,4.471373,-7.695203999999999,-0.62477763,-1.115065625,102
1747532563240,-1.2124764,1.6678872,3.6911218,-6.429404,-0.55606806,0.021837922,103
1747532563250,-1.0831261,1.5463467,3.2898917,-6.1124873,-0.37444046,0.28549087,104
1747532563260,-0.9169231,1.4438426,2.8854887,-5.921805,-0.1555286,0.39947417,105
1747532563270,-0.7214332,1.3969837,2.4669306,-5.8222027,0.12623383,0.3355583,106
1747532563280,-0.53961056,1.4162643,2.2323916,-5.7151437,0.47617322,0.098004326,107
1747532563290,-0.27480847,1.4672722,1.9180459,-5.247493,0.92038846,-0.51718587,108
1747532563300,-0.22502078,1.5087619,1.8270127,-4.7627974,0.7946873,-0.6695187,109
1747532563310,-0.21916342,1.5829554,1.6778935,-4.305799,0.5539375,-0.5432849,110
1747532563320,-0.19646609,1.6617858,1.5080298,-3.7992656,0.30626354,-0.27057716,111
1747532563330,-0.061502427,1.7716117,1.1465809,-3.2447956,0.06391586,0.03834952,112
1747532563340,0.02391761,1.7620933,0.9781815,-2.0085561,-0.2615224,0.43516052,113
1747532563350,0.13325526,1.7640458,0.84931916,-1.3464943,-0.33981937,0.45540056,114
1747532563360,0.23014598,1.7845466,0.7292431,-0.6823019,-0.34514567,0.3616573,115
1747532563370,0.32166746,1.7784452,0.6025773,-0.051665325,-0.2790993,0.1736381,116
1747532563380,0.36144876,1.6390884,0.3704789,0.5134575,-0.21837921,-0.0777643,117
1747532563390,0.27334413,1.5841756,0.28359452,1.3747238,-0.07989483,-0.60240704,118
1747532563400,0.15277983,1.5802706,0.26455808,1.5787219,-0.006924219,-0.6828345,119
1747532563410,0.04905551,1.599063,0.27505252,1.7140105,0.03834952,-0.6535397,120
1747532563420,-0.025137896,1.619808,0.31751847,1.8210696,0.07456851,-0.5342301,121
1747532563430,-0.106042873,1.6522676,0.467247585,1.88338755,0.06231797,-0.443682635,122
1747532563440,-0.2884757,1.75648,0.8705522,2.3659523,-0.0005326322,0.14221281,123
1747532563450,-0.35632357,1.8250601,1.1148535,2.6674223,-0.006924219,0.47564057,124
1747532563460,-0.361204735,1.83897135,1.2383465,2.8426583,-0.019973708,0.626109185,125
1747532563470,-0.33655494,1.8157859,1.6588572,3.2637041,-0.0809600985,0.9025453,126
1747532563480,-0.30409533,1.6781375,2.281203,4.3542686,-0.2231729,1.1472899,127
1747532563490,-0.34900185,1.5849078,2.6060433,4.7611995,-0.2428803,1.1270498,128
1747532563500,-0.40220633,1.5561091,2.9696887,5.150021,-0.19387813,1.1030813,129
1747532563510,-0.4372285449999999,1.56538325,3.18031005,5.33138225,-0.155794925,1.1030813,130
1747532563520,-0.54986095,1.6295702,3.875873,5.869607,-0.10759171,1.1408982,131
1747532563530,-0.92180425,1.5958903,4.8921275,6.7537766,-0.28016454,1.3587449,132
1747532563540,-1.147069,1.4243181,5.316543,7.487211,-0.47830373,1.5563514,133
1747532563550,-1.4143118,1.1909994,5.624299,8.125304,-0.48682585,1.7092168,134
1747532563560,-1.5086399,1.07397393,5.718383299999999,8.419317,-0.504669025,1.78458425,135
1747532563570,-1.722312,0.4424758,5.5893993,9.337043,-0.1736381,2.1379857,136
1747532563580,-1.670816,0.18548352,5.353396,9.348228,0.033023197,2.279666,137
1747532563590,-1.568556,-0.09030118,4.9731545,9.162872,0.12942964,2.4240093,138
1747532563600,-1.4865527,-0.2706595,4.6495347,8.841695,0.19600865,2.5529063,139
1747532563610,-1.4362769,-0.4217309,4.356178,8.484832,0.25300032,2.6754117,140
1747532563620,-1.3454876,-0.6020892,4.0772204,8.154599,0.32490566,2.7915256,141
1747532563630,-1.040172,-1.0328503,3.3826334,7.6081185,0.31372038,2.928412,142
1747532563640,-0.8754333,-1.232001,2.9569976,7.411577,0.19547603,2.9699574,143
1747532563650,-0.8019721,-1.3254749,2.71891975,7.2896045,0.0948085377499999,2.9952574,144
1747532563660,-0.59037447,-1.5673357,2.0024896,6.8374,-0.31052458,3.0439932,145
1747532563670,-0.30458343,-1.6398207,1.1421878,5.9574914,-0.8671253,2.9150963,146
1747532563680,-0.16595893,-1.6571487,0.79538256,5.442969,-1.1488878,2.7302728,147
1747532563690,-0.045882765,-1.7079126,0.47932845,4.8693237,-1.3214606,2.4357271,148
1747532563700,0.07785426,-1.8172504,0.10689708,4.2322955,-1.1952267,1.9084213,149
1747532563710,0.10348027,-1.8714309,0.011714748,3.7896783,-0.91612744,1.4322481,150
1747532563720,0.17059602,-1.922927,-0.06443111,2.99073,-0.21944448,0.4527374,151
1747532563730,0.22404456,-1.9343977,-0.13325526,2.591256,0.08948222,-0.06391586,152
1747532563740,0.2328306,-1.922683,-0.16986385,2.2008364,0.33289513,-0.5411543,153
1747532563750,0.16083373,-2.002734,-0.17230442,1.5760587,0.57151437,-1.1669972,154
1747532563760,0.11373068,-2.066921,-0.21818718,1.3385048,0.57790595,-1.2873721,155
1747532563770,0.028066583,-2.1157322,-0.26162934,1.1105382,0.42557314,-1.2330436,156
1747532563780,-0.00976229,-2.1738179,-0.32117933,0.7302388,0.090014845,-0.958738,157
1747532563790,-0.0046370877,-2.2279985,-0.41196862,0.31372038,-0.1917476,-0.65726817,158
1747532563800,0.04234393115,-2.22287335,-0.47737596,0.06364955,-0.3323625149999999,-0.43169842,159
1747532563810,0.19060871,-2.2311714,-0.5503491,-1.3203954,-0.4543353,-0.15659387,160
1747532563820,0.33655494,-2.2572856,-0.5615757,-1.9403793,-0.4463458,-0.23382555,161
1747532563830,0.45052966,-2.2275105,-0.5337532,-2.6019084,-0.45486793,-0.4293016,162
1747532563840,0.5269196,-2.1623473,-0.46810177,-3.2980587,-0.49055427,-0.71479243,163
1747532563850,0.5620638,-1.9861377,-0.1461903,-4.012851,-0.5251754,-1.0604708,164
1747532563860,0.4888467,-1.8270127,0.17035197,-5.305017,-0.4841627,-1.9212044,165
1747532563870,0.39024755,-1.6896083,0.52374685,-5.6208677,-0.54648066,-2.263687,166
1747532563880,0.2801777,-1.5407335,0.8188121,-5.762548,-0.65513766,-2.4980452,167
1747532563890,0.07272906,-1.2600676,1.2256554,-5.6618805,-0.98430437,-2.6120284,168
1747532563900,-0.0010982549999999,-1.17843045,1.3008251,-5.587312,-1.038366535,-2.5664884,169
1747532563910,-0.18304294,-0.9686632,1.4426224,-5.3721285,-1.1361046,-2.390986,170
1747532563920,-0.26553428,-0.9130182,1.4982674,-5.315137,-1.2133362,-2.2466428,171
1747532563930,-0.3360668,-0.88373125,1.5722169,-5.417935,-1.2655342,-2.143312,172
1747532563940,-0.49104318,-0.59989274,1.995656,-6.461894,-0.9491506,-2.160889,173
1747532563950,-0.66798466,-0.27334413,2.523064,-7.1580443,-0.7781757,-2.1385183,174
1747532563960,-0.8581053,0.15546446,3.0070293,-7.768441,-0.396811,-1.9558256,175
1747532563970,-0.98818773,0.51788944,3.2781768,-8.230233,0.0053263223,-1.6229304,176
1747532563980,-0.9469421,0.7873287,3.5771472,-8.504539,0.2743056,-1.2468921,177
1747532563990,-0.9025237,1.0418804,4.0249925,-8.573248,0.44048685,-0.8740495,178
1747532564000,-0.71826047,1.2300485,4.486748,-8.317584499999999,0.511593255,-0.5486112000000001,179
1747532564010,-0.55718267,1.1878266,4.615611,-7.688546,0.6125271,0.11558119,180
1747532564020,-0.28701133,1.2366381,4.5084696,-7.326889,0.406931,0.24021713,181
1747532564030,-0.1871919,1.3913703,4.3757024,-7.209177,0.36485308,0.11930962,182
1747532564040,-0.08566409,1.6813104,4.0013185,-7.0563116,0.64075655,-0.74941355,183
1747532564050,-0.1253233899999999,1.70327555,3.89759425,-6.97268845,0.712928225,-1.018126525,184
1747532564060,-0.31312546,1.6447018,3.5749507,-6.680806,0.932639,-1.7603495,185
1747532564070,-0.56670094,1.6300584,3.4580472,-6.4720144,1.0183928,-2.069276,186
1747532564080,-0.80563295,1.7640458,3.4412072,-6.1993065,1.0274476,-2.0831246,187
1747532564090,-0.9510911,1.9685657,3.1173432,-5.230981,0.61678815,-1.1158645,188
1747532564100,-0.843095775,2.03494935,3.04681075,-4.934571350000001,0.4817658649999999,-0.8000136,189
1747532564110,-0.39195594,2.0918145,2.723923,-3.985687,-0.087884314,0.022903185,190
1747532564120,-0.056377225,1.978328,2.4115295,-3.3204293,-0.509729,0.24714136,191
1747532564130,0.22062775,1.7279254,1.8482454,-2.0165455,-0.91133374,-0.25193503,192
1747532564140,0.22062775,1.7279254,1.8482454,-2.0165455,-0.91133374,-0.25193503,193
1747532564150,0.024161667,1.6127303,1.2329772,-1.4556838,-0.754473535,-0.7387609150000001,194
1747532564160,-0.13911264,1.581491,0.9454777,-0.46552056,-0.36591834,-1.5973641,195
1747532564170,-0.2706595,1.5482991,0.6733539,-0.128897,-0.1555286,-1.8269285,196
1747532564180,-0.5254553,1.487773,0.14789869,0.30466563,0.37710363,-1.794438,197
1747532564190,-0.6272271,1.4631232,-0.0017084008,0.38136467,0.6135923,-1.5371766,198
1747532564200,-0.68311626,1.4831358,-0.008297946,0.43196473,0.7653925,-1.1387677,199
1747532564210,-0.6970275,1.5107143,0.06980037,0.468183715,0.758201965,-0.86685895,200
1747532564220,-0.6711574499999999,1.4903355500000002,0.193293345,0.572047,0.69828084,-0.284159294,201
1747532564230,-0.5259434,1.3977158,0.38829508,1.1835088,0.2727077,1.24849,202
1747532564240,-0.42099872,1.32157,0.42587993,1.5281218,0.14966966,1.7358484,203
1747532564250,-0.26504618,1.2556745,0.44101146,1.9286613,0.10013486,2.0431771,204
1747532564260,-0.084931925,1.2161373,0.48567393,2.05303095,0.103330655,2.0469056,205
1747532564270,0.13496366,1.2900866,0.71899265,2.5220137,0.32650355,1.617604,206
1747532564280,0.13325526,1.3742863,0.9279056,2.684999,0.43409526,1.3054816,207
1747532564290,0.01415532,1.4445748,1.1888028,2.8873992,0.44368264,1.1222562,208
1747532564300,-0.18743597,1.496803,1.5326794,3.1627703,0.41864893,1.1334413,209
1747532564310,-0.34168017,1.5268221,1.8794849,3.529221,0.3222425,1.3347764,210
1747532564320,-0.5508372,1.4765464,2.5406358,4.470915,-0.011185277,2.100169,211
1747532564330,-0.5725583,1.4201691,2.9638312,5.129248,-0.2806972,2.556102,212
1747532564340,-0.5945235,1.4047935,3.3967886,5.6730657,-0.5049353,2.7696877,213
1747532564350,-0.59733013,1.4097967,3.60753215,5.93938185,-0.6002765,2.78460135,214
1747532564360,-0.62063754,1.4367651,4.2253633,6.696785,-0.8271778,2.6535738,215
1747532564370,-0.8297946,1.3801438,4.823059,7.4707,-0.85594,2.1800637,216
1747532564380,-0.9994144,1.2400548,5.0202575,7.8019967,-0.83996105,2.0128171,217
1747532564390,-1.1734272,1.0809295,5.195491,8.125837,-0.81545997,1.9531624,218
1747532564400,-1.334505,0.88788027,5.277494,8.4203825,-0.71585774,2.005893,219
1747532564410,-1.415044,0.6653,5.2528443,8.7112,-0.5278385,2.128931,220
1747532564420,-1.4736177,0.43100512,5.1603465,8.877914,-0.37444046,2.2194786,221
1747532564430,-1.5461026,-0.01415532,4.6866317,9.068596,-0.12783173,2.47674,222
1747532564440,-1.4860646,-0.33069757,4.297848,9.013735,-0.13369069,2.5928538,223
1747532564450,-1.4000344,-0.5637722350000001,3.9104072,8.7538105,-0.151533865,2.6650254,224
1747532564460,-1.1785524,-0.878362,3.098795,8.3098615,-0.17417074,2.7553065,225
1747532564470,-1.04066,-0.9984382,2.718798,7.76418,-0.20399815,2.7696877,226
1747532564480,-0.9054524,-1.1507299,2.3829749,7.4163713,-0.22104238,2.7254791,227
1747532564490,-0.76292294,-1.2813005,2.0351934,6.965764,-0.30999196,2.632801,228
1747532564500,-0.5027579,-1.470689,1.1485333,6.1646852,-0.58962387,2.5241442,229
1747532564510,-0.43954709,-1.50497905,0.952555365,5.9319251,-0.658866035,2.4884578,230
1747532564520,-0.25674823,-1.5907651,0.4148973,5.1707935,-0.8724516,2.3473103,231
1747532564530,-0.12373702,-1.6534878,0.04344219,4.570517,-0.9550096,2.20563,232
1747532564540,-0.07773223,-1.67398865,-0.094938265,4.23362715,-0.946487465,2.118811,233
1747532564550,0.046736965,-1.73231835,-0.37255336,3.164368,-0.77737674,1.7763285,234
1747532564560,0.2186753,-1.8277446,-0.58183247,1.7251958,-0.376571,1.1297129,235
1747532564570,0.319715,-1.9087718,-0.62478656,0.9598033,-0.104928546,0.5320996,236
1747532564580,0.37999713,-1.9729588,-0.6313761,0.4543353,0.07350325,0.029827405,237
1747532564590,0.37218732,-2.0217702,-0.63113207,0.034088463,0.2050634,-0.41705105,238
1747532564600,0.3272807749999999,-2.0583788,-0.594889555,-0.2916161685,0.31771512,-0.7432882749999999,239
1747532564610,0.20696054,-2.1015768,-0.5274077,-0.9166601,0.5001417,-1.2815131,240
1747532564620,0.13935669,-2.084737,-0.48542988,-1.2378373,0.5784386,-1.4146712,241
1747532564630,0.114462845,-2.0796118,-0.4271002,-1.603223,0.6641924,-1.4982945,242
1747532564640,0.15717287,-2.101089,-0.3968371,-2.0463731,0.6609966,-1.6165388,243
1747532564650,0.160101555,-2.0467862,-0.37889888,-2.68579805,0.5749765,-1.72013575,244
1747532564660,0.14350566,-1.9187781,-0.2818861,-3.973969,0.34780884,-1.8642128,245
1747532564670,0.07834238,-1.8470252,-0.15546446,-4.6131277,0.17576863,-1.8317223,246
1747532564680,-0.01513155,-1.7589207,0.008053889,-5.177185,0.041545313,-1.6825852,247
1747532564690,-0.05344854,-1.6132184,0.40513504,-5.8600197,-0.28868666,-1.2117383,248
1747532564700,-0.010006348,-1.58319935,0.481769,-5.93325665,-0.362189915,-1.11479925,249
1747532564710,0.16742326,-1.4924101,0.707766,-6.086921,-0.62264705,-0.9422264,250
1747532564720,0.2860351,-1.4118712,0.84834296,-6.139652,-0.8090684,-1.005077,251
1747532564730,0.36022848,-1.2781278,1.0513986,-6.1428475,-0.89162636,-1.2868395,252
1747532564740,0.43149322,-1.0291895,1.4104068,-5.901565,-0.968858,-2.1012342,253
1747532564750,0.393664345,-0.98318465,1.4723974000000002,-5.7851848,-0.979776975,-2.31375445,254
1747532564760,0.2776151249999999,-0.898374735,1.6152929500000002,-5.5353803,-1.025583375,-2.6828686,255
1747532564770,0.021965152,-0.80392456,1.8174944,-5.1883707,-1.1957593,-2.99073,256
1747532564780,-0.2362474,-0.79489446,2.0195737,-5.2059474,-1.3736585,-2.871953,257
1747532564790,-0.34265637,-0.8095379,2.106214,-5.54843,-1.4215955,-2.6652918,258
1747532564800,-0.41343296,-0.73583263,2.2184803,-6.326073,-1.25861,-2.4362597,259
1747532564810,-0.50690687,-0.49006698,2.4054282,-7.1868067,-0.8607337,-2.354767,260
1747532564820,-0.59232694,-0.1466784,2.857422,-8.074172,-0.4511395,-2.3489082,261
1747532564830,-0.5359497,0.55742675,4.018891,-8.917329,0.5123922,-2.5513084,262
1747532564840,-0.41465324,0.6965394,4.509202,-8.6723175,0.63436496,-2.8330708,263
1747532564850,-0.45004156,0.6745742,4.950457,-8.078433,0.5571333,-3.0850058,264
1747532564860,-0.55913514,0.6733539,5.1684003,-7.310377,0.40852892,-3.184608,265
1747532564870,-0.6411384,0.7397375,5.027091,-6.672284,0.2775014,-3.2059133,266
1747532564880,-1.2283401,1.1997855,4.4952903,-6.3974457,-0.2828277,-2.6535738,267
1747532564890,-1.5336558,1.4848443,4.246108,-6.560431,-0.2876214,-2.0809941,268
1747532564900,-1.6656907,1.5880805,4.1888765,-6.5836005,-0.30146985,-1.7006947499999998,269
1747532564910,-2.0310445,1.8262804,4.0008307,-6.461894,-0.36218992,-0.29028457,270
1747532564920,-1.735491,1.8094405,3.508811,-5.790245,-0.39734364,1.875398,271
1747532564930,-1.3057063,1.8096845,3.273784,-5.3620086,-0.4293016,2.582201,272
1747532564940,-1.0577441,1.81371145,3.15407385,-5.1199273000000005,-0.448210035,2.7499802,273
1747532564950,-0.33191785,1.8060236,2.779324,-4.3153863,-0.49960902,2.8479846,274
1747532564960,0.046858992,1.7542835,2.5037832,-3.5095139,-0.5278385,2.2610238,275
1747532564970,0.28749946,1.6852154,2.19139,-2.8107002,-0.4394216,1.5590146,276
1747532564980,0.35559142,1.543174,1.6659348,-1.4343786,0.011717909,0.04474111,277
1747532564990,0.27529657,1.4816716,1.415044,-0.819721,0.25353295,-0.5763081,278
1747532565000,0.15326795,1.4426224,1.1741594,-0.29667616,0.44101948,-1.0104034,279
1747532565010,0.07675600362,1.4266366,1.031752015,-0.09001485,0.49215219,-1.1230551,280
1747532565020,-0.2809099,1.3369455,0.469078,0.42237735,0.58483016,-1.2639363,281
1747532565030,-0.38512233,1.3093672,0.30507156,0.8048073,0.608266,-0.8069378,282
1747532565040,-0.41758195,1.2715383,0.15302388,0.94755274,0.6641924,-0.2908172,283
1747532565050,-0.390125515,1.24823085,0.119466015,0.99362542,0.6793724,-0.07776431,284
1747532565060,-0.24478942,1.1685461,0.08688438,1.1297129,0.64714813,0.51505536,285
1747532565070,0.008053889,1.0692148,0.21452633,1.2420983,0.31318775,1.0540792,286
1747532565080,0.11519502,1.0330943,0.3402158,1.6149409,0.15126756,1.1914983,287
1747532565090,0.18572757,0.99965847,0.4417436,1.8951055,0.018109497,1.2357068,288
1747532565100,0.24869433,0.99087244,0.56596875,2.2327943,-0.07829694,1.2069446,289
1747532565110,0.2831064,0.9984382,0.7292431,2.6189528,-0.20186761,1.144094,290
1747532565120,0.27846932,0.9108216,0.9349833,3.567038,-0.47351006,0.9571401,291
1747532565130,0.24527753,0.8932495,0.9558502,3.74706765,-0.53636068,0.914263225,292
1747532565140,0.08005078,0.8844635,1.0140579,4.2093925,-0.7004114,0.85594,293
1747532565150,-0.067847915,0.9454777,1.091668,4.4149885,-0.7094661,0.9155948,294
1747532565160,-0.16986385,1.0377314,1.2647047,4.5641255,-0.6918893,1.0290455,295
1747532565170,-0.15888128,1.1392592,1.7459855,4.86453,-0.61412495,1.1835088,296
1747532565180,-0.17084008,1.142432,1.9978526,5.036038,-0.5502091,1.1781825,297
1747532565190,-0.19915071,1.1641531,2.3341637,5.2677326,-0.43036684,1.1126688,298
1747532565200,-0.554254,1.462391,3.2598727,5.706089,-0.45167214,1.176052,299
1747532565210,-0.72704655,1.5673357,3.6476796,5.921805,-0.3888215,1.3443637,300
1747532565220,-0.8437059,1.6432374,3.9671504,6.1588264,-0.267914,1.5180018,301
1747532565230,-0.8881243,1.6505592,4.2656326,6.4437847,-0.19760656,1.6634104,302
1747532565240,-0.93010217,1.5436621,4.517744,6.7846694,-0.14487597,1.743838,303
1747532565250,-0.967931085,1.40613585,4.7397139,7.6384788,0.10918961,1.6527578,304
1747532565260,-1.0379754,1.1321816,5.034413,7.9692435,0.27483824,1.546764,305
1747532565270,-1.0972813,0.9159469,4.918974,8.2818985,0.4564658,1.4929681,306
1747532565280,-1.1431642,0.694831,4.7439847,8.373511,0.55127436,1.5275892,307
1747532565290,-1.15768555,0.49031102,4.4906533500000005,8.3468795,0.5688512299999999,1.5800535,308
1747532565300,-1.1541467,0.025626011,3.9158986,7.97457,0.39148468,2.016013,309
1747532565310,-1.1351103,-0.19963883,3.623762,7.811052,0.21252026,2.2594259,310
1747532565320,-1.0672623,-0.4283205,3.2601168,7.6501966,-0.0026631611,2.5177526,311
1747532565330,-0.96353805,-0.6562699,2.8042178,7.4461985,-0.22530343,2.7382622,312
1747532565340,-0.8256457,-0.8747012,2.37907,7.1857414,-0.37923414,2.8453214,313
1747532565350,-0.4971446,-1.0887394,1.4477476,6.42461,-0.4777711,2.654639,314
1747532565360,-0.37243137,-1.1497537,1.0736078,6.002765,-0.5044027,2.4543693,315
1747532565370,-0.29091623,-1.2051547,0.7985553,5.5516257,-0.49002165,2.2413163,316
1747532565380,-0.22331238,-1.2610438,0.596964,5.0663977,-0.48682585,2.036253,317
1747532565390,-0.12129646,-1.3240106,0.38390204,4.538027,-0.5225122,1.8535602,318
1747532565400,-0.0466149384999999,-1.38185215,0.213672115,3.9811598,-0.577107,1.650361,319
1747532565410,0.059305906,-1.4638554,-0.09689073,2.8953888,-0.63223445,1.2314457,320
1747532565420,0.06955632,-1.4882611,-0.21843125,2.3185482,-0.5273059,0.99921805,321
1747532565430,0.09127741,-1.5492754,-0.27822527,1.9297266,-0.47990164,0.8250473,322
1747532565440,0.16132185,-1.7188951,-0.3990336,1.2389026,-0.4628574,0.43888897,323
1747532565450,0.18938842,-1.7557478,-0.45907167,0.8926916,-0.4213121,0.20453078,324
1747532565460,0.18109047,-1.7684387,-0.5120321,0.5251754,-0.37337518,-0.011717909,325
1747532565470,0.18523945,-1.7916242,-0.5252112,0.14221281,-0.29987195,-0.20612867,326
1747532565480,0.22599702,-1.846293,-0.5005614,-0.22956449,-0.23542345,-0.40586576,327
1747532565490,0.27017137,-1.9339097,-0.47786412,-0.9528791,-0.2727077,-0.83250415,328
1747532565500,0.24869433,-1.9346417,-0.46102414,-1.242631,-0.26897928,-0.9507485,329
1747532565510,0.25357547,-1.939767,-0.45126185,-1.5536882,-0.2657835,-1.041296,330
1747532565520,0.27993366,-1.9434278,-0.4566311,-1.923335,-0.27643612,-1.1334413,331
1747532565530,0.30958663,-1.90291435,-0.4612681899999999,-2.8799424,-0.33182988,-1.3619406,332
1747532565540,0.35363895,-1.7850347,-0.43808278,-3.4631748,-0.4362258,-1.4695324,333
1747532565550,0.3577879,-1.7191393,-0.3431445,-3.7635794,-0.49161955,-1.5235945000000002,334
1747532565560,0.3431445,-1.6571487,-0.16571487,-4.5950184,-0.6487461,-1.6793894,335
1747532565570,0.30897647,-1.5722169,0.032703668,-5.078648,-0.74089146,-1.7486316,336
1747532565580,0.20476402,-1.380876,0.5137405,-5.3305836,-0.84848315,-1.7603495,337
1747532565590,0.1444819,-1.2810564,0.6982478,-5.559615,-1.0434265,-1.7315874,338
1747532565600,0.12202863,-1.1905112,0.8031924,-5.6128783,-1.144094,-1.7172064,339
1747532565610,0.06345488,-1.0760484,0.8854397,-5.6629457,-1.2234563,-1.700162,340
1747532565620,-0.00976229,-0.96256185,0.99136055,-5.7167416,-1.2522184,-1.6458336,341
1747532565630,-0.11568313,-0.9257092,1.227364,-5.924468,-1.2751216,-1.4871092,342
1747532565640,-0.13569583,-0.9371798,1.3864892,-6.2286015,-1.1147993,-1.484446,343
1747532565650,-0.159491415,-0.8901988000000001,1.5019283,-6.4581659,-0.98883175,-1.5259912999999998,344
1747532565660,-0.29579738,-0.6240544,2.0447116,-7.3146386,-0.6306366,-1.68152,345
1747532565670,-0.47469133,-0.31556603,2.6253238,-7.9415464,-0.29188246,-1.7592843,346
1747532565680,-0.55571836,0.43539813,3.8009474,-8.532236,0.23648871,-1.8221349,347
1747532565690,-0.48445365,0.8117344,4.2778354,-8.443819,0.47510794,-1.9845877,348
1747532565700,-0.38658667,1.1700104,4.790844,-8.175372,0.6743124,-2.2876554,349
1747532565710,-0.41294485,1.3537855,4.975595,-7.756723,0.7520767,-2.5731463,350
1747532565720,-0.5632841,1.2712942,4.775468,-7.1623054,0.6764429,-2.6003106,351
1747532565730,-1.0299215,1.0001466,4.263924,-6.702644,0.34514567,-1.6213325,352
1747532565740,-1.1407236,0.9959976,3.9002788,-6.869358,0.19920446,-0.85487473,353
1747532565750,-1.1480453,1.0667742,3.6776986,-7.231015,0.16884442,-0.13741912,354
1747532565760,-1.069947,1.1202227,3.6025293,-7.4126425,0.203199195,0.14034859,355
1747532565770,-0.7067898,1.0794652,3.649388,-7.5836177,0.63649553,0.8309063,356
1747532565780,-0.5176454,1.0858107,3.5961833,-7.1910677,0.8250473,0.7355651,357
1747532565790,-0.3912238,1.1787965,3.4951437,-6.511429,0.94968325,0.5305017,358
1747532565800,-0.3546152,1.2310248,3.3975209,-6.217416,0.917725325,0.48389638,359
1747532565810,-0.27383223,1.3153466,3.18824195,-5.3337793,0.7344999,0.41545314,360
1747532565820,-0.01586372,1.4514085,2.5255044,-4.2290998,0.24873926,0.43196473,361
1747532565830,0.060770255,1.4616588,2.2650955,-3.7012613,-0.036218993,0.4362258,362
1747532565840,0.107385196,1.4353007,1.9932156,-3.1782165,-0.23808661,0.38083205,363
1747532565850,0.08786061,1.4426224,1.7469617,-2.6578348,-0.35420042,0.28815404,364
1747532565860,0.08908089,1.4572659,1.4972912,-2.16515,-0.37550572,0.15180019,365
1747532565870,0.040269446,1.5063213,1.0467615,-1.171791,-0.19547603,-0.30839407,366
1747532565880,-0.008297946,1.5656272,0.87030816,-0.77391464,-0.072970614,-0.51026165,367
1747532565890,-0.0605262,1.6295702,0.7004443,-0.4000068,0.03834952,-0.6380934,368
1747532565900,-0.07919658,1.6555623000000002,0.637477525,-0.219710793,0.0897485299999999,-0.6554039650000001,369
1747532565910,-0.12568948,1.7027875,0.5098356,0.33182988,0.23276028,-0.6045376,370
1747532565920,-0.17816179,1.6447018,0.5005614,1.1121361,0.2759035,-0.15126756,371
1747532565930,-0.20476402,1.6217605,0.50715095,1.4897723,0.17576863,0.21252026,372
1747532565940,-0.19817449,1.5768539,0.49592432,1.8375812,0.0314253,0.6215818,373
1747532565950,-0.165958935,1.5248697,0.48408754,2.0224046,-0.063383235,0.8394283499999999,374
1747532565960,-0.07150877,1.381608,0.46590528,2.4351945,-0.32170987,1.28897,375
1747532565970,0.024161667,1.2883781,0.49177536,2.7510455,-0.35313517,1.4098775,376
1747532565980,0.061502427,1.2498171,0.5405868,2.8644962,-0.2759035,1.3411679,377
1747532565990,0.10470056,1.2385906,0.6889736,2.9752836,-0.1454086,1.1994878,378
1747532566000,0.11153416,1.2688537,0.91863143,3.1089742,-0.034088463,1.0205233,379
1747532566010,0.07516963,1.4350566,1.5153515,3.6043222,0.17310548,0.61678815,380
1747532566020,-0.013667206,1.4497001,1.9012059,4.14015,0.11664646,0.4841627,381
1747532566030,-0.1718163,1.4028411,2.2089622,4.6637278,-0.022370555,0.5305017,382
1747532566040,-0.379509,1.364524,2.4820623,5.22672,-0.15925704,0.76113147,383
1747532566050,-0.46285455,1.3393861500000002,2.583346,5.49223715,-0.18588865,0.955275935,384
1747532566060,-0.6325964,1.2073512,3.2000787,6.5764103,-0.257794,1.9606192,385
1747532566070,-0.61709875,1.22834015,3.35810565,6.7106335,-0.31691617,2.07992885,386
1747532566080,-0.57524294,1.3061944,3.8207161,7.0073094,-0.52411014,2.2833943,387
1747532566090,-0.6303999,1.2766634,4.3759465,7.0989223,-0.69348717,2.2221417,388
1747532566100,-0.75047606,1.2122324,4.6097536,7.229150799999999,-0.6703176500000001,2.01681195,389
1747532566110,-0.8959341,1.1604922,4.8352623,7.5985312,-0.5006743,1.6575515,390
1747532566120,-1.0033194,1.0343146,4.9848695,7.923437,-0.33129725,1.5595472,391
1747532566130,-1.095573,0.83882475,4.9975605,8.26805,-0.1603223,1.5126755,392
1747532566140,-1.2381024,0.613804,4.8672338,8.54928,-0.120907515,1.5744609,393
1747532566150,-1.36574435,0.418192105,4.58742215,8.6568715,-0.0772316725,1.85329385,394
1747532566160,-1.517304,-0.013911263,3.9359112,8.682971,0.015446335,2.5204158,395
1747532566170,-1.4736177,-0.24015234,3.543955,8.385762,-0.0063915867,2.9656963,396
1747532566180,-1.4201692,-0.3197149999999999,3.347123,7.982559,0.0058589545,3.2591765,397
1747532566190,-1.0255286,-0.5183776,2.5406358,7.4728303,-0.00958738,3.490339,398
1747532566200,-0.7309515,-0.5715821,2.179187,6.552974,0.08628642,3.552657,399
1747532566210,-0.44027928,-0.7292431,1.8714309,6.2051654,0.041012682,3.2953956,400
1747532566220,-0.22697324,-0.8988628,1.5893008,5.8994346,-0.13475595,2.944391,401
1747532566230,-0.057109397,-1.0164984,1.2212625,5.5958343,-0.350472,2.5656893,402
1747532566240,0.18109047,-1.1158297,0.5222825,4.822452,-0.72437984,1.5957662,403
1747532566250,0.208302855,-1.13572035,0.377678585,4.63549825,-0.74328827,1.3638048,404
1747532566260,0.21745501,-1.2249234,0.04271002,4.046407,-0.7137272,0.6849651,405
1747532566270,0.17816179,-1.313028,-0.1461903,3.6048548,-0.5608617,0.30999196,406
1747532566280,0.11543907,-1.3972276,-0.33142975,3.1148334,-0.3089267,0.017044231,407
1747532566290,0.011470691,-1.5112025,-0.6240544,2.0048277,0.19707392,-0.40746364,408
1747532566300,-0.02391761,-1.5317032,-0.6816519,1.3880396,0.42663842,-0.545948,409
1747532566310,-0.010494461,-1.5465908,-0.6967834,0.72491246,0.5837649,-0.65247446,410
1747532566320,0.019768637,-1.5424417,-0.6879974,0.044208474,0.6508766,-0.7339672,411
1747532566330,0.059794027,-1.534388,-0.46224442,-1.1712582,0.78989357,-0.8825716,412
1747532566340,0.07004443,-1.5409775,-0.33826336,-1.474326,0.7781757,-0.9257148,413
1747532566350,0.06858008,-1.5680678,-0.22453266,-1.6373115,0.65194184,-0.9214538,414
1747532566360,0.07468152,-1.6044323,-0.10323621,-1.6841831,0.41438788,-0.8591358,415
1747532566370,0.08322352,-1.6063848,-0.008297946,-1.5978967,-0.13422333,-0.5651228,416
1747532566380,0.0976229,-1.6067509,0.010006347,-1.5978967,-0.13422333,-0.5651228,417
1747532566390,0.20183535,-1.6015036,-0.07809832,-1.613343,-0.5592638,-0.4032026,418
1747532566400,0.23405088,-1.569044,-0.19475769,-1.8679413,-0.65886605,-0.49534798,419
1747532566410,0.27041543,-1.5565971,-0.34265637,-2.23599,-0.6247776,-0.6492787,420
1747532566420,0.290184065,-1.55086175,-0.396348965,-2.4860608500000003,-0.55340489,-0.7611314650000001,421
1747532566430,0.358032,-1.509006,-0.42051062,-3.9254994,-0.17044231,-1.4487597,422
1747532566440,0.36047253,-1.4736177,-0.23209843,-4.4639907,-0.10705908,-1.7086842,423
1747532566450,0.3568117,-1.4135796,-0.020988923,-4.9071407,-0.1107875,-1.8919097,424
1747532566460,0.34778157,-1.3508569,0.19475769,-5.264537,-0.14647387,-2.0240026,425
1747532566470,0.2967736,-1.3039979,0.42075467,-5.532451,-0.24607609,-2.1241374,426
1747532566480,0.13764828,-1.0985017,0.96671075,-5.7992997,-0.5203817,-2.2903185,427
1747532566490,0.0388051,-0.99111646,1.2232149,-5.772668,-0.6860303,-2.3073628,428
1747532566500,-0.0095182324999999,-0.95951103,1.3286476500000002,-5.716741600000001,-0.8127968,-2.28206275,429
1747532566510,-0.1038463524999999,-0.903865985,1.50070805,-5.5923719,-1.02425175,-2.21601635,430
1747532566520,-0.22013964,-0.70459324,1.9473327,-5.446697,-1.2245215,-2.1427794,431
1747532566530,-0.26748675,-0.5769514,2.1430666,-5.656554,-1.2101405,-2.2993734,432
1747532566540,-0.36022848,-0.36584184,2.3341637,-6.049104,-0.9901633,-2.5640914,433
1747532566550,-0.390491575,-0.2123298165,2.43727785,-6.393717199999999,-0.65726817,-2.803776,434
1747532566560,-0.465417135,0.1127544385,2.7139166,-7.0358055,-0.091080115,-3.2426650500000003,435
1747532566570,-0.7512082,0.6157564,3.6808712,-7.7513967,0.40373522,-3.695935,436
1747532566580,-0.90081537,0.51691324,4.015474,-7.6997313,0.35579833,-3.6320193,437
1747532566590,-1.1856301,0.45711923,4.319325,-7.407316,0.06711166,-3.167564,438
1747532566600,-1.35183305,0.539488515,4.38192585,-7.407316,0.06711166,-3.167564,439
1747532566610,-1.6001613,0.711548885,4.39803385,-7.213171949999999,-0.34035199,-1.8524949,440
1747532566620,-1.4311516,1.0450531,4.2219462,-7.919176,-0.3121225,0.13315806,441
1747532566630,-1.26665705,1.04285655,4.21608875,-7.978032,-0.140082285,0.161653885,442
1747532566640,-0.83125895,0.9784255,4.200713,-7.877098,0.33076462,-0.08628642,443
1747532566650,-0.741079805,0.95816875,4.1760635,-7.68321985,0.4535363599999999,-0.32277511,444
1747532566660,-0.53814626,0.99038434,4.0867386,-6.9386,0.74461985,-1.0796455,445
1747532566670,-0.5017817,1.19344,3.586421,-5.6320534,0.7222493,-1.8540928,446
1747532566680,-0.5747548,1.296188,3.2369313,-4.9753175,0.60560286,-1.9648803,447
1747532566690,-0.6133158,1.3657444,2.8076346,-4.387824,0.4111921,-1.8077538,448
1747532566700,-0.5945234500000001,1.3850248500000002,2.59262015,-4.14547645,0.288686675,-1.63757775,449
1747532566710,-0.49006698,1.4221216,1.9480649,-3.4573157,-0.13795175,-0.9672601,450
1747532566720,-0.44003524,1.4260265,1.6676432,-3.2112397,-0.323307775,-0.62557655,451
1747532566730,-0.39342028,1.4199251,1.163909,-2.7462518,-0.6631271,0.02130529,452
1747532566740,-0.3807293,1.4216335,0.97354436,-2.523079,-0.7882957,0.3222425,453
1747532566750,-0.34070391,1.4115050999999998,0.88629388,-2.3952471500000003,-0.8138620350000001,0.43356265,454
1747532566760,-0.21428227,1.3449996,0.64943635,-1.9808593,-0.82078624,0.6295713,455
1747532566770,-0.08956901,1.3176651,0.4720067,-1.2868395,-0.5539375,0.35313517,456
1747532566780,-0.079562664,1.3379217,0.44394013,-0.77604514,-0.33981937,0.07403588,457
1747532566790,-0.08786061,1.3691611,0.41562948,-0.3392867,-0.14274544,-0.09534117,458
1747532566800,-0.11714748,1.39564135,0.4024504,-0.128896985,-0.059122179,-0.1107875,459
1747532566810,-0.21501444,1.4562895,0.38902727,0.4511395,0.077231675,0.0058589545,460
1747532566820,-0.23966423,1.453605,0.45589894,1.0002834,-0.03568636,0.6125271,461
1747532566830,-0.19426957,1.453605,0.5527897,1.2000204,-0.16937704,0.9267801,462
1747532566840,-0.119588055,1.4572659,0.6901939,1.391768,-0.33289513,1.1632688,463
1747532566850,-0.0668716875,1.462025,0.8244254,1.6543557,-0.4226436649999999,1.24103305,464
1747532566860,-0.011714748,1.4687365,1.0823939,2.2125542,-0.41278997,1.2410331,465
1747532566870,-0.02831064,1.4504322,1.2456682,2.3877902,-0.344346735,1.16646455,466
1747532566880,-0.0179382075,1.43505665,1.3373117,2.7664918,-0.18029601,0.972586425,467
1747532566890,-0.032703668,1.4184607,1.6444578,3.41364,0.05486112,0.6002765,468
1747532566900,-0.096768699,1.40406135,1.92524565,3.88954685,0.1789644299999999,0.455933185,469
1747532566910,-0.22892569,1.3296238,2.4786453,4.8288436,0.38402784,0.31691617,470
1747532566920,-0.27456442,1.2634844,2.7414951,5.2453623,0.4000068,0.42876893,471
1747532566930,-0.358032,1.2136967,3.0455904,5.4823835,0.36245623,0.549676445,472
1747532566940,-0.416239625,1.20393435,3.25255095,5.910353349999999,0.269511905,0.774180945,473
1747532566950,-0.6579782949999999,1.1862402,3.8348714,6.54285425,0.049534795,1.055677115,474
1747532566960,-1.0457853,1.138527,4.52775,7.4531226,-0.19867182,1.3725933,475
1747532566970,-1.228096,1.0631135,4.830137,7.898936,-0.23489082,1.4556838,476
1747532566980,-1.3913703,0.92131615,4.9802322,8.254202,-0.16884442,1.5435683,477
1747532566990,-1.7127937,0.40513504,4.9394746,8.728245,-0.23861924,2.1502364,478
1747532567000,-1.74952435,0.253331425,4.8807788,8.793492,-0.16112125,2.4612936,479
1747532567010,-1.60321205,0.02904281,4.724094,8.849951,0.06870956,2.8700888,480
1747532567020,-1.2878901,-0.19329333,4.34788,8.709602,0.13422333,2.7260118,481
1747532567030,-1.3327967,-0.35583547,4.177528,8.530638,0.35473305,2.5582325,482
1747532567040,-1.2537221,-0.531800735,3.9521411,8.4166545,0.499076395,2.55077575,483
1747532567050,-1.1164399,-0.8121005,3.57641485,8.098673,0.62238077,2.5715485,484
1747532567060,-0.9786696,-1.0589644,3.1048963,7.7242327,0.46924898,2.6727486,485
1747532567070,-0.86664724,-1.1741594,2.7263634,7.544203,0.29827404,2.7366643,486
1747532567080,-0.66749656,-1.2898425,2.3039005,7.2752237,0.06657903,2.7153592,487
1747532567090,-0.26480213,-1.4060138,1.4475036,6.1535,-0.644485,2.3174827,488
1747532567100,-0.14911897,-1.3493925,1.1131451,5.5718656,-0.9257148,2.0165455,489
1747532567110,-0.10177187,-1.312784,0.8407772,5.0003514,-1.1547467,1.6927053,490
1747532567120,-0.09152147,-1.2913069,0.61770886,4.479437,-1.2650015,1.3789848,491
1747532567130,-0.07687803,-1.2649487,0.38756293,4.013384,-1.2996227,1.0657971,492
1747532567140,-0.012446919,-1.2522577,-0.027822526,3.1941955,-1.0588728,0.3797668,493
1747532567150,0.0082979465,-1.25750495,-0.1149509629999999,3.00484475,-0.92731265,0.197340251,494
1747532567160,0.047347106,-1.2737348,-0.3360668,2.3552997,-0.44687843,-0.4079963,495
1747532567170,0.06443111,-1.2942356,-0.41172457,2.001632,-0.19707392,-0.6988135,496
1747532567180,0.032459613,-1.334505,-0.4656612,1.65941575,-0.0894822115,-0.87484845,497
1747532567190,0.042954076,-1.3757507,-0.45516676,0.98590225,0.026631612,-1.1233214,498
1747532567200,0.05296042,-1.4328601,-0.4378387,0.6673882,-0.025033714,-1.133974,499
1747532567210,0.031483386,-1.4867967,-0.4144092,0.36911413,-0.13422333,-1.0450244,500
1747532567220,-0.017084008,-1.5558649,-0.3790209,0.11132014,-0.2743056,-0.8564726,501
1747532567230,-0.035632357,-1.6220044,-0.4339338,-0.36432046,-0.60560286,-0.3073288,502
1747532567240,-0.020988923,-1.6434816,-0.4898229,-0.6178534,-0.660464,-0.1107875,503
1747532567250,-0.0082979463,-1.6500711,-0.5077611,-0.774713575,-0.6340986850000001,-0.0471379505,504
1747532567260,0.039781332,-1.6595892,-0.5618198,-1.3241237,-0.4958806,0.07456851,505
1747532567270,0.10201593,-1.6471423,-0.59745216,-1.8093517,-0.3334278,0.06178534,506
1747532567280,0.26968327,-1.5558649,-0.59672,-3.0146985,0.087884314,-0.21092236,507
1747532567290,0.3270367,-1.5195004,-0.50715095,-3.6384108,0.17949706,-0.39787626,508
1747532567300,0.358032,-1.504857,-0.37633628,-4.196077,0.20612867,-0.561927,509
1747532567310,0.35876414,-1.4763023,-0.17987019,-4.6456184,0.21198763,-0.69774824,510
1747532567320,0.28969595,-1.3162007,0.36974674,-5.238438,0.23861924,-0.95234644,511
1747532567330,0.27993366,-1.2395668,0.5950116,-5.3337793,0.23702134,-1.0578076,512
1747532567340,0.2711476,-1.1570754,0.76804817,-5.362541,0.23169503,-1.1632688,513
1747532567350,0.25601605,-1.0618931,0.92156017,-5.3534865,0.15286545,-1.2548815,514
1747532567360,0.21599068,-0.9725681,1.0633575,-5.328985,-0.0005326322,-1.3049489,515
1747532567370,0.107385196,-0.844194,1.2988727,-5.265602,-0.3371562,-1.2575446,516
1747532567380,0.048323333,-0.80685323,1.4404259,-5.289571,-0.47297743,-1.1765846,517
1747532567390,0.008542004,-0.75438094,1.6434816,-5.45735,-0.5592638,-1.0940266,518
1747532567400,-0.028066583,-0.6379657,1.9763755,-5.7492323,-0.5336975,-1.0482203,519
1747532567410,-0.060770255,-0.4170938,2.3129306,-6.1748056,-0.4383563,-0.98377174,520
1747532567420,-0.026602242,0.12739788,2.7976282,-7.197992,-0.13102753,-0.8586032,521
1747532567430,-0.0019524579,0.3392396,3.124421,-7.6491313,0.006924219,-0.908138,522
1747532567440,-0.017084008,0.5132524,3.4717143,-7.991614,0.20399815,-1.0689929,523
1747532567450,-0.023673553,0.68433654,3.8478065,-8.157263,0.44048685,-1.3102753,524
1747532567460,-0.07834238,0.8107582,4.1587353,-8.135425,0.5656554,-1.562743,525
1747532567470,-0.29482117,0.9279056,4.514815,-7.5884113,0.27057716,-1.7283915,526
1747532567480,-0.35461518,0.9220483,4.413287,-7.2757564,0.025033714,-1.6335831,527
1747532567490,-0.42978483,0.90838104,4.208035,-7.0382023,-0.2412824,-1.4572818,528
1747532567500,-0.4551667849999999,0.88324317,4.08722665,-6.9599054,-0.311856165,-1.3733922,529
1747532567510,-0.4058672,0.96402615,3.6596384,-6.83100845,-0.3619235899999999,-1.2801816,530
1747532567520,-0.48323336,1.0199152,3.5642118,-6.7143617,-0.14061491,-1.4551512,531
1747532567530,-0.5767073,1.0428566,3.4170454,-6.4395237,0.22690132,-1.9755329,532
1747532567540,-0.65114474,1.0377314,3.2730517,-6.106096,0.40906155,-2.207228,533
1747532567550,-0.689095645,1.0628693,3.23473475,-5.9178105,0.40213734,-2.2421154000000003,534
1747532567560,-0.728999025,1.12778855,3.1375999,-5.4909057,0.373375195,-2.2612902,535
1747532567570,-0.7492558,1.2183337,2.669742,-4.710067,0.26365295,-2.1534321,536
1747532567580,-0.83809257,1.2332213,2.4086008,-3.5329497,-0.18642128,-1.6745957,537
1747532567590,-0.92229235,1.2603117,2.079856,-2.9838057,-0.3073288,-1.1835088,538
1747532567600,-0.899106875,1.26287425,1.93451985,-2.7481159,-0.32943303,-0.90840425,539
1747532567610,-0.8152732,1.2579931,1.6702058,-2.3196133,-0.36511938,-0.396811,540
1747532567620,-0.49397188,1.21931,1.1016744,-1.5217303,-0.3637878,0.41758367,541
1747532567630,-0.4195344,1.189535,0.9130182,-1.3203954,-0.3089267,0.48735848,542
1747532567640,-0.35071027,1.1775762,0.7822035,-1.1052119,-0.21624869,0.4660532,543
1747532567650,-0.306413875,1.1940501,0.66908295,-0.8436894500000001,-0.0836232634999999,0.349140425,544
1747532567660,-0.25162303,1.2464004,0.46688148,-0.257794,0.21411815,0.10333065,545
1747532567670,-0.25723633,1.2610438,0.40123013,0.091080114,0.39468047,0.034088463,546
1747532567680,-0.23722363,1.2551864,0.35363895,0.44208476,0.53316486,0.05486112,547
1747532567690,-0.17450093,1.2368821,0.35046622,0.7637946,0.5656554,0.15286545,548
1747532567700,-0.13252309,1.189535,0.3900035,1.1030813,0.41545314,0.3552657,549
1747532567710,-0.15692882,1.155367,0.40830776,1.5441009,0.0479369,0.87138635,550
1747532567720,-0.21843125,1.1019185,0.46273252,1.7512947,-0.16564862,1.1691277,551
1747532567730,-0.26651052,1.0382195,0.49885303,1.9446403,-0.3568636,1.4705976,552
1747532567740,-0.2894519,0.9791577,0.5344854,2.1092236,-0.46711847,1.7267936,553
1747532567750,-0.26626646,0.977083185,0.63284045,2.2370553,-0.468716365,1.82240115,554
1747532567760,-0.22074978,0.997828035,0.8328453499999999,2.443184,-0.4293015799999999,1.8623486,555
1747532567770,-0.16083373,1.0733638,1.1929518,2.8250813,-0.19014971,1.4833808,556
1747532567780,-0.18133454,1.1355984,1.5295068,3.1792817,-0.039414786,1.1526161,557
1747532567790,-0.25748038,1.1741594,1.8279889,3.6112466,0.10439592,0.9012137,558
1747532567800,-0.34887983,1.13694065,2.13916185,4.1111218,0.16058862,0.8151936200000001,559
1747532567810,-0.50617474,1.05237485,2.6106804,4.862932000000001,0.233292915,0.77258307,560
1747532567820,-0.61978338,0.965246425,2.8858550000000003,5.561213,0.27643612,1.0040118,561
1747532567830,-0.7507201,0.87299275,3.2432766,5.9212723,0.23116238,1.2809805,562
1747532567840,-0.796602825,0.874945225,3.53821995,6.22647065,0.039681095,1.5504924,563
1747532567850,-0.875677375,0.8726267,3.99314265,6.689860749999999,-0.22343922,1.85648965,564
1747532567860,-1.0035634,0.7455949,4.4023046,7.253918,-0.3392867,1.8487664,565
1747532567870,-1.0919122,0.5554743,4.561674,7.652327,-0.23542345,1.7225326,566
1747532567880,-1.1570754,0.3692586,4.5426373,8.076303,0.018109497,1.5792545,567
1747532567890,-1.2261436,0.2441792725,4.4446485,8.122641999999999,0.2908171985,1.5393071,568
1747532567900,-1.3268171999999998,0.1062869355,4.30065485,8.0491385,0.66339345,1.5643408,569
1747532567910,-1.3630598,0.03734076,4.1589794,7.632087,0.86606,1.8620822,570
1747532567920,-1.3266952,-0.077122085,4.055255,7.3418026,0.8863,2.1821942,571
1747532567930,-1.24591225,-0.2507688074999999,3.8517114,7.2547173,0.89215897,2.3539681000000003,572
1747532567940,-1.052863,-0.61819696,3.3160057,7.12875,0.8772453,2.5896578,573
1747532567950,-0.9530435,-0.8088057,2.9225855,7.0467243,0.8527442,2.6232138,574
1747532567960,-0.9530435,-0.8088057,2.9225855,7.0467243,0.8527442,2.6232138,575
1747532567970,-0.72167724,-1.1458488,2.0649683,6.6760125,0.8042747,2.6881948,576
1747532567980,-0.43051702,-1.2813005,1.25299,5.9345884,0.58429754,2.6871295,577
1747532567990,-0.30360723,-1.3052181,0.92131615,5.419,0.35633096,2.6482475,578
1747532568000,-0.24222682,-1.3011911500000002,0.757675725,5.027248999999999,0.197606555,2.6083001,579
1747532568010,-0.07492557,-1.2817887,0.3275248,3.93775,-0.34674358,2.5033715,580
1747532568020,-0.014887493,-1.2483528,0.09322987,3.2421324,-0.6562029,2.4346619,581
1747532568030,0.13447554,-1.2029582,-0.1581491,2.0426445,-0.8974853,2.120409,582
1747532568040,0.19768637,-1.1922196,-0.23917611,1.5760587,-0.8878979,1.8524948,583
1747532568050,0.24747404,-1.1758678,-0.26553428,1.2181299,-0.7584683,1.5329156,584
1747532568060,0.30067852,-1.1717188,-0.26797485,0.96140116,-0.5933523,1.1467572,585
1747532568070,0.33313814,-1.1748916,-0.2626056,0.7824367,-0.4426174,0.70467246,586
1747532568080,0.30873242,-1.1519502,-0.26406994,0.5267733,-0.0793622,-0.24234766,587
1747532568090,0.28749946,-1.1531705,-0.24869433,0.44794372,0.06711166,-0.5816344,588
1747532568100,0.2757847,-1.1684241000000002,-0.2438131949999999,0.412523675,0.113450665,-0.722781925,589
1747532568110,0.24259292,-1.2180897,-0.23942018,0.30253512,0.19121496,-1.0796455,590
1747532568120,0.20696054,-1.3537855,-0.25772443,0.19813919,0.15819177,-1.2255868,591
1747532568130,0.207814735,-1.3795336,-0.2793235,-0.01784318,0.0788295689,-1.2729911,592
1747532568140,0.21403822,-1.4277349,-0.37218732,-0.5853628,-0.07989483,-1.3145363,593
1747532568150,0.2229463,-1.4248062,-0.4020843349999999,-0.8546083999999999,-0.11797804,-1.3121395,594
1747532568160,0.23844394,-1.4121152,-0.47103047,-1.6000272,-0.18056233,-1.3321131,595
1747532568170,0.23575929,-1.3701375,-0.44345203,-2.583799,-0.07882957,-1.3640711,596
1747532568180,0.234539,-1.3293798,-0.39488465,-3.0461237,-0.033023197,-1.3752564,597
1747532568190,0.25357547,-1.2837411,-0.30458343,-3.45412,-0.025566347,-1.3933659,598
1747532568200,0.274076285,-1.2673893,-0.246375785,-3.62775805,-0.033023197,-1.4053501000000002,599
1747532568210,0.31275936,-1.23517375,-0.12056428,-4.088485,-0.082558,-1.4471618,600
1747532568220,0.35705575,-1.1643971,0.25552794,-4.534298,-0.41438788,-1.5238608,601
1747532568230,0.34265637,-1.1290088,0.44784504,-4.759069,-0.7440872,-1.5414376,602
1747532568240,0.302631,-1.0599406,0.6552937,-4.903945,-1.0285128,-1.5318503,603
1747532568250,0.28200815,-1.0056379,0.765729635,-4.95268085,-1.17791615,-1.5022892,604
1747532568260,0.2299019199999999,-0.92473293,0.958900935,-5.03870085,-1.4647386,-1.40748065,605
1747532568270,-0.07809832,-0.9520673,1.4526287,-5.132977,-1.7912422,-1.1297129,606
1747532568280,-0.18109047,-0.9794017,1.6183436,-5.2317803000000005,-1.82559695,-0.88656632,607
1747532568290,-0.2255089,-0.9449896,1.7945529,-5.5910406,-1.8365159,-0.48043427,608
1747532568300,-0.19256116,-0.8449261,1.9746673,-6.0192766,-1.6261262,-0.42663842,609
1747532568310,-0.15936938,-0.38927132,2.7634604,-6.740461,-1.2799152,-0.5368933,610
1747532568320,-0.16400647,-0.08029483,3.234979,-7.513843,-0.4628574,-1.0460896,611
1747532568330,-0.23380683,0.1466784,3.6020408,-7.5649757,0.013848438,-1.4040185,612
1747532568340,-0.35412705,0.30800024,3.9415247,-7.4461985,0.42344263,-1.6863136,613
1747532568350,-0.5005614,0.41514137,4.1641045,-7.234211,0.6860303,-1.7923075,614
1747532568360,-0.6672525,0.46151224,4.2170653,-6.8784127,0.7526093,-1.540905,615
1747532568370,-0.7695125,0.54815257,4.1584916,-6.925817,0.7185209,-1.2740563,616
1747532568380,-0.80563295,0.78610843,4.171182,-7.1942635,0.7637946,-0.9768475,617
1747532568390,-0.811856425,0.956338315,4.1765515,-7.3167689,0.80773675,-0.917192685,618
1747532568400,-0.801972125,1.2377363,4.1922935,-7.48081965,0.963798,-0.854874735,619
1747532568410,-0.745106775,1.4200471,4.199981299999999,-7.1790835,1.18031305,-0.9632654,620
1747532568420,-0.67750293,1.5033927,3.9966815,-6.191317,1.2687299,-1.1504856,621
1747532568430,-0.67750293,1.5380487,3.7467668,-5.4749265,1.1797804,-1.1552793,622
1747532568440,-0.6740861149999999,1.5847857,3.6168064,-5.114334599999999,1.09615715,-1.10148345,623
1747532568450,-0.5845171,1.6616637500000002,3.1284478,-4.408597,0.91985585,-0.94089485,624
1747532568460,-0.4983649,1.6918048,2.7700496,-3.66956975,0.74195667,-0.67164925,625
1747532568470,-0.22819352,1.4928981,2.088398,-2.2008364,0.2828277,-0.15073492,626
1747532568480,-0.13081467,1.4265146,1.8069998,-1.7465011,0.19387813,-0.11345066,627
1747532568490,-0.04783522,1.3740423,1.5297508,-1.3448963,0.17789917,-0.17630127,628
1747532568500,0.013789235,1.3193735,1.2627522,-1.0040117,0.209590785,-0.365652035,629
1747532568510,0.08053889,1.24713255,0.8805585499999999,-0.5158543,0.27803403,-0.67644295,630
1747532568520,0.07565775,1.1966126,0.54912883,-0.092145376,0.41438788,-1.0317086,631
1747532568530,0.043930303,1.1863623,0.3648656,0.22956449,0.60720074,-1.2543489,632
1747532568540,0.026602239,1.19649065,0.286523215,0.34647727,0.6956176700000001,-1.28550785,633
1747532568550,-0.03087324,1.22394705,0.142285373,0.6375607750000001,0.82877573,-1.1707256,634
1747532568560,-0.0987211574999999,1.2536,0.078708463,0.8831042250000001,0.794154645,-0.8394284,635
1747532568570,-0.16180995,1.253478,0.076633975,1.0988203,0.46498793,-0.14966966,636
1747532568580,-0.150949405,1.2219946,0.0627227125,1.1696604000000002,0.315318275,0.12596752,637
1747532568590,-0.077366147,1.12876475,0.04954362,1.37738695,-0.10492855,0.81599255,638
1747532568600,0.0370967,1.0599406,0.10055158,1.6836505,-0.44101948,1.4152038,639
1747532568610,0.0673598,1.06823855,0.139112625,1.75449055,-0.38163099,1.3994912,640
1747532568620,0.121784565,1.0794652,0.23075612,1.89617075,-0.24474451,1.3030848000000002,641
1747532568630,0.152901865,1.0850785,0.35229662,2.03918245,-0.114249613,1.1102719,642
1747532568640,0.10933765,1.134134,0.7980672,2.437325,0.0010652645,0.6002765,643
1747532568650,-0.04344219,1.2329772,1.1019185,2.6977823,-0.09321064,0.5571333,644
1747532568660,-0.17620933,1.3100992,1.3423148,3.0397322,-0.18535602,0.6348976,645
1747532568670,-0.29579738,1.3403623,1.5736811,3.458381,-0.23009712,0.7978831,646
1747532568680,-0.42417148,1.325963,1.8016307,3.9084554,-0.24980451,1.0226538,647
1747532568690,-0.6716455,1.3115636,2.391517,4.796886,-0.25885928,1.7694043,648
1747532568700,-0.6773808800000001,1.32608505,2.53343635,4.9478872,-0.252734,1.93185705,649
1747532568710,-0.6399181,1.3874654,2.9831119,5.338573,-0.29880667,2.2807312,650
1747532568720,-0.6067263,1.4277349,3.377264,5.562811,-0.4527374,2.3020365,651
1747532568730,-0.60843474,1.2856936,4.1760635,5.8328557,-0.6002765,2.193912,652
1747532568740,-0.6970275,1.1377949,4.4179244,6.5843997,-0.85487473,1.7395768,653
1747532568750,-0.8683557,0.97330034,4.530191,7.0142336,-0.8426242,1.5180018,654
1747532568760,-1.0084445,0.8002637,4.5089574,7.4472637,-0.65460503,1.3017532,655
1747532568770,-1.0926442,0.59794027,4.404501,7.6011944,-0.45806372,1.1504856,656
1747532568780,-1.3196175,0.44003522,4.2788115,7.5218325,-0.91133374,1.2751216,657
1747532568790,-1.056768,0.24991462,3.9493346,7.035539,0.31798145,1.2090752,658
1747532568800,-1.0560358,0.11543907,3.7067416,6.840063,0.21358553,1.0828413,659
1747532568810,-1.0716554,-0.099087246,3.4787917,6.720221,0.2876214,1.1190603,660
1747532568820,-1.05933045,-0.181578593,3.34089945,6.682404,0.30919301,1.16140455,661
1747532568830,-0.9615856,-0.63064396,2.5093966,6.3612266,0.31691617,1.4311827,662
1747532568840,-0.9615856,-0.63064396,2.5093966,6.3612266,0.31691617,1.4311827,663
1747532568850,-0.7473033,-0.87299275,1.6678872,5.6911755,0.3392867,1.6714,664
1747532568860,-0.61819696,-0.9178993,1.3135161,5.218198,0.3057309,1.7646105,665
1747532568870,-0.47859627,-0.9715919,1.0365112,4.696751,0.2727077,1.7997643,666
1747532568880,-0.23868799,-0.95646036,0.5703618,3.6112466,0.17204021,1.7353158,667
1747532568890,-0.13374338,-0.91619086,0.422219,3.1095068,0.13315806,1.619202,668
1747532568900,-0.09359596,-0.90166948,0.37291945,2.8881982500000003,0.133690695,1.52599135,669
1747532568910,-0.023673553,-0.88055855,0.27383223,2.301504,0.17097494,1.2170646,670
1747532568920,-0.03465613,-0.9003272,0.17718557,1.7374463,0.26418558,0.8942895,671
1747532568930,-0.007565775,-0.9440134,0.13691612,1.5494272,0.29454562,0.77231675,672
1747532568940,0.021721095,-0.9647583,0.09176553,1.371528,0.3392867,0.6295713,673
1747532568950,0.02831064,-0.95572823,0.062478654,1.196292,0.35792887,0.49321744,674
1747532568960,0.024649782,-0.94035256,0.04783522,1.0290455,0.36751625,0.39041942,675
1747532568970,0.05515694,-1.0294335,0.102504045,0.81013364,0.4101268,0.23276028,676
1747532568980,0.10592084,-1.1177822,0.12544543,0.7866978,0.3920173,0.15020229,677
1747532568990,0.17279254,-1.2197981,0.12861817,0.8319715,0.34141725,0.010120012,678
1747532569000,0.217577035,-1.2795921,0.10726316,0.8575378499999999,0.29774141,-0.054594804,679
1747532569010,0.28994,-1.3946651,0.04783522,0.8847020999999999,0.16378441,-0.17097495,680
1747532569020,0.35022214,-1.6254213,-0.19109683,0.8149273,-0.17789917,-0.29614353,681
1747532569030,0.37194324,-1.6490947,-0.31995904,0.32330775,-0.5858955,-0.35792887,682
1747532569040,0.42563587,-1.6803342,-0.45199403,-0.105993815,-0.7339672,-0.4032026,683
1747532569050,0.451994045,-1.6929031499999998,-0.508005165,-0.3802994225,-0.8167915,-0.44155212,684
1747532569060,0.49812083,-1.709743,-0.61331585,-0.982706515,-0.96646115,-0.54221962,685
1747532569070,0.47835222,-1.6312786,-0.626495,-2.0516994,-1.0594054,-0.77870834,686
1747532569080,0.42978483,-1.5802706,-0.40342662,-3.8136468,-0.89322424,-1.252751,687
1747532569090,0.409284,-1.5055892,-0.16205402,-4.4714475,-0.7637946,-1.4450313,688
1747532569100,0.405135025,-1.4698348,-0.0179382099999999,-4.74788355,-0.7155914,-1.5371766,689
1747532569110,0.42051062,-1.3733101,0.44369608,-5.2472263,-0.714259835,-1.7212010000000002,690
1747532569120,0.40318257,-1.232001,1.1673259,-5.945241,-1.1105382,-2.2194786,691
1747532569130,0.31751847,-1.1739154,1.6095576,-5.9505672,-1.3092101,-2.4277377,692
1747532569140,0.14643435,-1.1536586,2.0864456,-5.8126154,-1.490305,-2.5571673,693
1747532569150,0.0439303059999999,-1.15146205,2.2901113,-5.694371,-1.6695357,-2.5166873,694
1747532569160,-0.23917611,-0.8639627,2.959438,-5.4530888,-2.3430493,-2.0831246,695
1747532569170,-0.22135992,-0.6160005,3.0250895,-5.6288576,-2.3185482,-2.0548952,696
1747532569180,-0.25015867,-0.38048524,3.0936697,-5.9633503,-2.1427794,-2.2248049,697
1747532569190,-0.3277689,-0.14985114,3.2332704,-6.4075656,-1.7491642,-2.5662222,698
1747532569200,-0.45907167,0.034900185,3.317226,-6.946057,-1.1488878,-2.996589,699
1747532569210,-0.75535715,0.5449798,4.061845,-7.901599,0.03195793,-3.5840824,700
1747532569220,-0.8949579,0.73729694,4.352029,-8.220646,0.26312032,-3.5473306,701
1747532569230,-1.0789771,0.8817788,4.6280575,-8.34901,0.13422333,-3.2431977,702
1747532569240,-1.2854495,1.0030752,4.785719,-8.394816,-0.10279802,-2.6743464,703
1747532569250,-1.4394495,1.1761118,4.7605805,-8.376707,-0.29294774,-1.9062908,704
1747532569260,-1.539025,1.5641629,4.5260415,-8.276039,-0.42876893,-1.1052119,705
1747532569270,-1.5622104,1.7259729,4.4491634,-7.7892137,-0.46871635,0.21784659,706
1747532569280,-1.4504322,1.8904674,4.328843,-7.359912,-0.29933932,0.7669904,707
1747532569290,-1.18111505,1.92256095,4.0092502,-6.7308735,-0.161387569,0.9827065,708
1747532569300,-0.7674380000000001,1.9430618,3.4681755,-5.796903,0.0588558609999999,1.13051195,709
1747532569310,-0.39293218,1.9109682,2.8457074,-4.919391,0.36751625,0.8309063,710
1747532569320,-0.28310641,1.9009618,2.6533903,-4.65920035,0.452737405,0.6969493,711
1747532569330,0.032703668,1.8562995,2.1291554,-3.9292278,0.6002765,0.2695119,712
1747532569340,0.19207305,1.8079761,1.8572757,-3.4839475,0.5566007,-0.051665325,713
1747532569350,0.24796216,1.786255,1.4445748,-2.514024,0.3920173,-0.63862604,714
1747532569360,0.2072046,1.8043152,1.2017379,-1.9499665,0.24873926,-0.8410263,715
1747532569370,0.18353106,1.8128573,0.8927614,-1.3677995,0.14594123,-0.9752496,716
1747532569380,0.13764828,1.7840585,0.5869577,-0.6098639,0.11345066,-1.0663297,717
1747532569390,0.028798755,1.6124862,0.30116665,-0.004261058,0.16192019,-1.067395,718
1747532569400,-0.029530926,1.5468348,0.18572757,1.0306433,0.18695392,-0.9374327,719
1747532569410,-0.08346757,1.5321914,0.040513504,1.3693974,0.1667139,-0.777643,720
1747532569420,-0.09298581,1.5309712,-0.13447554,1.5638082,0.1486044,-0.551807,721
1747532569430,-0.05198419,1.4970472,-0.23039004,1.6490294,0.101200126,-0.3392867,722
1747532569440,-0.041245673,1.4553133,-0.23356278,1.6847157,0.016511599,-0.18695392,723
1747532569450,-0.18060236,1.4409139,-0.06711575,1.8887138,-0.10865697,0.07456851,724
1747532569460,-0.26943922,1.4335922,0.05198419,2.072472,-0.104928546,0.22903186,725
1747532569470,-0.3499781,1.4467713,0.1871919,2.304167,-0.049534798,0.4079963,726
1747532569480,-0.35656764,1.4714211499999998,0.26529023,2.4234767,-0.0045273755,0.4966795499999999,727
1747532569490,-0.346195205,1.54695685,0.57365656,2.7795414,0.0724379835,0.70680297,728
1747532569500,-0.340093775,1.62212645,0.94730818,3.14705755,0.0809601,0.855141045,729
1747532569510,-0.3900035,1.6842391,1.3759948,3.4306842,0.0378168885,0.8964200250000001,730
1747532569520,-0.41026023,1.6776495,1.6178555,3.953729,0.054328486,0.90494215,731
1747532569530,-0.44491637,1.5153515,2.1003566,4.5119276,0.18588865,0.8479505,732
1747532569540,-0.50788313,1.4550693,2.3783379,5.517537,0.40426785,0.77604514,733
1747532569550,-0.555840365,1.4384734,2.54722545,5.7686731,0.483630075,0.8050736199999999,734
1747532569560,-0.72582626,1.427979,3.1910486,6.509831,0.61678815,0.97738016,735
1747532569570,-0.8034364549999999,1.445307,3.4847715,6.7354007,0.560861725,1.09056448,736
1747532569580,-0.971836,1.4824038,4.254162,7.335411,0.33129725,1.4498249,737
1747532569590,-1.0958171,1.275199,4.8137856,7.804127,-0.23861924,1.71188,738
1747532569600,-1.2254114,1.1185144,4.8672338,8.00493,-0.3584615,1.6410398,739
1747532569610,-1.359887,0.9442575,4.808904,8.13862,-0.17310548,1.4817829,740
1747532569620,-1.4819156,0.76804817,4.796457,8.204667,0.18908444,1.3092101,741
1747532569630,-1.5329236000000002,0.590984635,4.6738182,8.124506,0.62584287,1.24449525,742
1747532569640,-1.6012596,0.27846932,4.323718,7.760452,1.3630059,1.2836437,743
1747532569650,-1.6608096,0.15839316,4.0989413,7.564177,1.4514228,1.40401855,744
1747532569660,-1.6786258,0.07492557,3.88832,6.931676,1.6708673,1.8807244,745
1747532569670,-1.5727049,-0.23161033,3.303803,6.1316624,1.716141,2.7537086,746
1747532569680,-1.3947871,-0.42465958,2.885733,5.5968995,1.619202,3.2543828,747
1747532569690,-1.1870944,-0.5962319,2.5645535,5.1319118,1.5313177,3.5760927,748
1747532569700,-0.98477095,-0.7297312,2.2270224,4.6770434,1.4056164,3.8344195,749
1747532569710,-0.7604824,-0.82711005,1.8829017,4.2647862,1.2239889,4.0011334,750
1747532569720,-0.29262465,-0.97085977,1.2603117,3.6208339,0.753142,3.9771647,751
1747532569730,-0.0976229,-1.0152781,1.0069802,3.3667684,0.52357745,3.80619,752
1747532569740,0.08053889,-1.0550594,0.7468152,3.1190944,0.2247708,3.5313516,753
1747532569750,0.19963883,-1.0665302,0.46541715,2.8469193,-0.09054748,3.202185,754
1747532569760,0.29311275,-1.0482259,0.23136626,2.5065672,-0.37337518,2.7105653,755
1747532569770,0.37706846,-1.082638,-0.026602242,2.0266657,-0.25672874,1.7331853,756
1747532569780,0.37487194,-1.12217525,-0.032581642,1.9379824,-0.136353853,1.47698915,757
1747532569790,0.38853914,-1.2171135,-0.060770255,1.7113473,0.23915187,0.70147663,758
1747532569800,0.39244406,-1.23981085,-0.0805388925,1.65728515,0.347276215,0.439421575,759
1747532569810,0.3704789,-1.3064384,-0.088836834,1.5249261,0.58056915,-0.31691617,760
1747532569820,0.23819989,-1.4204131,-0.08542004,1.4689997,0.62903863,-0.71319455,761
1747532569830,0.1786499,-1.4824038,-0.11202228,1.3986923,0.5390238,-1.1286477,762
1747532569840,0.14594623,-1.5714846,-0.14887492,1.3725933,0.43036684,-1.135572,763
1747532569850,0.13789234,-1.6249332,-0.17755164,1.33983635,0.323041445,-1.08497185,764
1747532569860,0.0993313,-1.7821059,-0.28359452,1.1909657,-0.07456851,-0.8250473,765
1747532569870,0.07907455,-1.9163376,-0.45858356,0.7888283,-0.5954828,-0.2876214,766
1747532569880,0.11568313,-1.9680777,-0.5691415,0.45007423,-0.76752305,-0.09267801,767
1747532569890,0.1696198,-1.9793042,-0.6660322,-0.013315806,-0.8357,0.007456851,768
1747532569900,0.20610636,-1.97735175,-0.703495,-0.314519323,-0.80587257,0.009321064,769
1747532569910,0.3099527,-1.9619763,-0.7792748,-1.3369069,-0.67697555,-0.06551377,770
1747532569920,0.44808912,-1.8692344,-0.6850687,-3.1563785,-0.4990764,-0.41598576,771
1747532569930,0.4983649,-1.8255482,-0.42734426,-3.8589206,-0.42557314,-0.6327671,772
1747532569940,0.5942794,-1.7608731,-0.15180361,-4.3995423,-0.36645097,-0.88470215,773
1747532569950,0.65334125,-1.72536265,-0.0129350349999999,-4.5846319,-0.39867522,-1.040497075,774
1747532569960,0.73180565,-1.6467762,0.292502605,-4.944425,-0.5592638,-1.556884,775
1747532569970,0.6718896,-1.4562895,1.0977695,-4.838964,-0.8522116,-2.290851,776
1747532569980,0.5801241,-1.4055257,1.3750186,-4.6509447,-0.9528791,-2.6413233,777
1747532569990,0.4600479,-1.3911263,1.6471423,-4.3755736,-1.0333065,-3.03121,778
1747532570000,0.358642115,-1.39283475,1.77661465,-4.2943473,-1.07378655,-3.1254859,779
1747532570010,0.137770312,-1.36989335,2.0209159,-4.2077947,-1.2397015,-3.20857655,780
1747532570020,-0.37316352,-0.9886759,2.60946,-4.9833074,-1.9323897,-2.538525,781
1747532570030,-0.4898229,-0.5137405,3.0170357,-5.7992997,-2.0373182,-2.1742048,782
1747532570040,-0.58183247,0.006833603,3.3975208,-6.7207537,-1.9387813,-1.903095,783
1747532570050,-0.6672525,0.5637722,4.1968083,-8.013452,-1.1680624,-1.6644757,784
1747532570060,-0.65138876,0.554254,4.49407,-8.190286,-0.88896316,-1.6666062,785
1747532570070,-0.72753465,0.57377857,4.7144537,-8.272843,-0.628506,-1.7044232,786
1747532570080,-0.9225364,0.8844635,4.9289804,-8.505072,-0.31691617,-1.6868463,787
1747532570090,-1.0645777,1.3613514,5.1776743,-8.798019,0.07563378,-1.603223,788
1747532570100,-1.4104068,2.0859573,5.667742,-8.907208,0.3898868,-1.4386396,789
1747532570110,-1.5727049,2.127203,5.406112,-8.010256,0.23222765,-0.48043427,790
1747532570120,-1.5043689,2.1042616,4.984137,-7.328487,0.340352,0.16777915,791
1747532570130,-1.3291358,2.1291554,4.5272617,-6.730341,0.4213121,0.6492787,792
1747532570140,-1.0794652,2.2533808,3.5793436,-6.476808,0.47164585,0.9502159,793
1747532570150,-1.0794652,2.2533808,3.5793436,-6.223275,0.5219796,1.2511531,794
1747532570160,-0.9828185,2.3046324,3.3323576,-5.4914384,0.9571401,1.4972292,795
1747532570170,-0.5142286,2.2314155,2.8295999,-4.6701193,1.0444918,1.6479641,796
1747532570180,-0.27944556,2.182604,2.536731,-4.1518683,1.0897655,1.510545,797
1747532570190,-0.0306291899999999,2.11316975,2.25301445,-3.61311075,1.12704975,1.22505415,798
1747532570200,0.3922,1.9578272,1.6964419,-2.5545042,1.1004182,0.5752428,799
1747532570210,0.5210622,1.8570317,1.3930788,-2.30949335,1.0543455000000002,0.38083204,800
1747532570220,0.63235235,1.7401282,1.0313859,-1.5126755,0.8767126,-0.3323625,801
1747532570230,0.659808775,1.692293,0.8854397,-1.3078784,0.819720975,-0.5424859,802
1747532570240,0.68409246,1.4828918,0.2723679,-0.27803403,0.69987875,-1.5441009,803
1747532570250,0.6677406100000001,1.4644655,0.173036595,-0.0660463999999999,0.711596675,-1.6948358,804
1747532570260,0.60599413,1.4393276,-0.0139112599999999,0.345412015,0.71133035,-1.92573185,805
1747532570270,0.519597885,1.4359107999999998,-0.140821025,0.72597773,0.652208165,-1.9947077,806
1747532570280,0.41465324,1.4160202,-0.23161033,1.2090752,0.43303,-1.7971011,807
1747532570290,0.29433304,1.3413386,-0.3065359,1.6964337,-0.21145499,-1.1169298,808
1747532570300,0.21574661,1.3100992,-0.30848834,1.8796592,-0.45912898,-0.8367652,809
1747532570310,0.17108414,1.2986286,-0.2865232,2.0714068,-0.61625546,-0.6146576,810
1747532570320,0.177673685,1.2859376,-0.28640117,2.1699438,-0.65433868,-0.545681725,811
1747532570330,0.26455808,1.1958805,-0.23185438,2.6130936,-0.77231675,-0.5139901,812
1747532570340,0.27529657,1.214917,-0.10128376,2.7782097,-0.7728494,-0.6801714,813
1747532570350,0.264314,1.2517697,0.033679903,2.9379995,-0.69668293,-0.9086706,814
1747532570360,0.20574026,1.274711,0.22355644,3.1089742,-0.6098639,-1.1414309,815
1747532570370,0.14643435,1.29740835,0.341314055,3.320962,-0.5187838,-1.3124058,816
1747532570380,-0.0087860599999999,1.37294405,0.58903216,3.4762242,-0.445014235,-1.3326458,817
1747532570390,-0.30555966,1.5524482,1.1487775,4.1966095,-0.20186761,-0.98803276,818
1747532570400,-0.3248402,1.5753895,1.3689171,4.5050035,-0.23009712,-0.721184,819
1747532570410,-0.3277689,1.5956463,1.5827112,4.8426924,-0.294013,-0.45699844,820
1747532570420,-0.33411437,1.5805148,1.8816814,5.233112,-0.34993938,-0.21997711,821
1747532570430,-0.422219,1.4855764,2.5294094,6.176936,-0.30679616,0.082558,822
1747532570440,-0.4600479,1.48948135,2.6629087,6.40170685,-0.248206615,0.108390665,823
1747532570450,-0.55193548,1.57868435,2.9290531,6.80357785,-0.0625842849999999,0.14434334,824
1747532570460,-0.74193406,1.9073074,3.3277204,7.0579095,0.23435818,0.24554345,825
1747532570470,-0.85566473,2.1411142,3.9317625,7.0014505,0.3057309,0.41385525,826
1747532570480,-0.99819416,2.0088353,4.1191983,6.820356,-0.051665325,1.0157297,827
1747532570490,-1.2000295,1.5446383,4.109192,6.8160944,-0.34194988,1.6399746,828
1747532570500,-1.0494461,1.534632,4.385953,6.932741,-0.02130529,1.8924423,829
1747532570510,-0.8361401,1.4401819,4.311271,6.973754,0.34674358,1.9100192,830
1747532570520,-0.7725632,1.3602531,4.1641045,6.9287465,0.38802259,1.793639,831
1747532570530,-0.9076489,1.0077124,3.603017,6.343117,0.8516789,1.3821807,832
1747532570540,-1.0003906,0.88983274,3.3084402,6.0182114,1.045557,1.397627,833
1747532570550,-1.0184509,0.82649987,3.1578568,5.665609,1.2138689,1.5403724,834
1747532570560,-1.0162543,0.5930591,2.7248993,5.3060822,1.3342438,1.7427727,835
1747532570570,-0.818568,0.20134723,2.0874217,4.5742455,1.1483551,2.2807312,836
1747532570580,-0.6733539,0.016839951,1.7835704,4.220045,0.96619487,2.5289378,837
1747532570590,-0.5130083,-0.16937573,1.5109584,3.8722363,0.7323693,2.711098,838
1747532570600,-0.3590082,-0.3431445,1.2698299,3.4461305,0.47137952,2.8288097,839
1747532570610,-0.11006982,-0.6440671,0.85444444,3.1212249,0.2860235,2.8202877,840
1747532570620,-0.048567392,-0.7473033,0.73290396,2.5150893,-0.015446335,2.549178,841
1747532570630,-0.013911263,-0.8156393,0.63454884,2.23599,-0.091080114,2.343582,842
1747532570640,0.040513504,-0.8583493,0.52911615,2.0980383,-0.107325397,2.22160915,843
1747532570650,0.09567044,-0.8937377,0.41294485,1.6879115,-0.13475595,1.8072212,844
1747532570660,0.13325526,-0.9183875,0.3231318,1.4375744,-0.12410331,1.454086,845
1747532570670,0.1564407,-0.9686632,0.21159762,1.0567423,0.082558,0.700944,846
1747532570680,0.1849954,-1.0240642,0.1969542,0.9491506,0.24607609,0.27696875,847
1747532570690,0.22013964,-1.1094842,0.19939478,0.9550096,0.32277513,-0.04527374,848
1747532570700,0.21684487,-1.1614684,0.19915072,0.9930928,0.29827404,-0.17656758,849
1747532570710,0.2007370949999999,-1.26006755,0.18365308,1.0860371,0.20586235,-0.39095205,850
1747532570720,0.13935669,-1.4567777,0.053204484,1.3001553,-0.19014971,-0.5086638,851
1747532570730,0.10982577,-1.5204766,-0.009030119,1.284709,-0.44741106,-0.39734364,852
1747532570740,0.09567044,-1.5812469,-0.08078295,1.1851068,-0.6812366,-0.22903186,853
1747532570750,0.11275445,-1.6366479,-0.17132819,1.0002834,-0.8873653,-0.066046394,854
1747532570760,0.208913,-1.6681312,-0.4288086,0.24660872,-1.4098775,0.07190535,855
1747532570770,0.25992095,-1.6537318,-0.5276518,-0.23595607,-1.4530207,-0.0037284256,856
1747532570780,0.30946457,-1.6320108,-0.5747548,-0.81013364,-1.3571469,-0.17736652,857
1747532570790,0.34802565,-1.5873483,-0.5930591,-1.470065,-1.2048141,-0.43036684,858
1747532570800,0.34802565,-1.5873483,-0.5930591,-1.470065,-1.2048141,-0.43036684,859
1747532570810,0.49543622,-1.4770344,-0.3431445,-3.7609162,-1.2916331,-1.401888,860
1747532570820,0.4639528,-1.4189488,-0.09469421,-4.4107275,-1.3235911,-1.6969663,861
1747532570830,0.409284,-1.3615954,0.20012695,-4.9843726,-1.3401027,-2.05383,862
1747532570840,0.29164842,-1.2908187,0.63454884,-5.2160673,-1.3640711,-2.2935145,863
1747532570850,0.256382145,-1.25787105,0.8316250700000001,-5.23018215,-1.4269217,-2.3683493,864
1747532570860,0.22111587,-1.2249234,1.0287013,-5.244297,-1.4897723,-2.4431841,865
1747532570870,0.082247294,-0.9999026,1.6378682,-4.791826,-2.09777205,-2.53239985,866
1747532570880,-0.009274175,-0.93473923,1.6922929,-4.261058,-2.6146915,-2.4959147,867
1747532570890,-0.11324256,-0.82076454,1.7611171,-4.2290998,-2.67914,-2.3979104,868
1747532570900,-0.44394013,-0.58964235,1.786743,-5.1739893,-2.4527714,-2.076733,869
1747532570910,-0.44394013,-0.58964235,1.786743,-5.1739893,-2.4527714,-2.076733,870
1747532570920,-0.6616392,-0.37755656,2.19139,-7.124489,-1.3124058,-1.9702066,871
1747532570930,-0.6616392,-0.37755656,2.19139,-7.124489,-1.3124058,-1.9702066,872
1747532570940,-0.76536355,0.073217185,3.3698206,-8.572982,-0.586428065,-1.89643705,873
1747532570950,-0.8232051,0.36462155,4.0262127,-8.970592,-0.35899413,-1.8706044,874
1747532570960,-1.1357204,0.9035,4.991703,-9.7434415,0.075367459,-1.4120080499999998,875
1747532570970,-1.321936,1.2554305499999998,5.40477,-9.561281,0.2117213,-1.06020445,876
1747532570980,-1.4736177,1.7457415,5.5662136,-9.001485,0.42397526,-0.37124467,877
1747532570990,-1.0801975,2.0403185,5.205985,-7.826498,0.76912093,0.21624869,878
1747532571000,-0.9614636,2.1043836,5.05540175,-7.5175712,0.828243115,0.166447575,879
1747532571010,-0.6274712,2.1938305,4.50066,-6.585465,1.0530139,-0.19068234,880
1747532571020,-0.52301466,2.1579542,4.1001616,-5.899967,1.1462245,-0.6125271,881
1747532571030,-0.54790854,2.148924,3.704545,-5.258678,1.1856394,-0.9667275,882
1747532571040,-0.6583444199999999,2.1862648,3.31295515,-4.7140615,1.18910145,-1.0120011999999998,883
1747532571050,-0.77231915,2.22690045,2.69231765,-3.98089325,1.16832875,-0.8748484,884
1747532571060,-0.626495,2.174306,2.0134723,-3.458381,1.0535465,-0.128897,885
1747532571070,-0.3904916,2.1223218,1.7074246,-3.246926,0.86606,0.26844665,886
1747532571080,-0.11348662,2.0537417,1.4733735,-3.0067089,0.6199839,0.52144694,887
1747532571090,0.4024504,1.8631331,1.1197346,-2.2434468,0.11771172,0.44048685,888
1747532571100,0.510689775,1.79919005,0.9990483,-1.97473395,0.0396811,0.2540655699999999,889
1747532571110,0.660907,1.6937573,0.773661435,-1.0897655,-0.05965481,-0.47404268,890
1747532571120,0.6958072,1.6034561,0.4502856,-0.43196473,0.07563378,-1.099353,891
1747532571130,0.6323523,1.56855595,0.2083028485,0.2101234349999999,0.2897519249999999,-1.6674052,892
1747532571140,0.485918,1.5094941,-0.28969595,1.1851068,0.6194513,-2.4746094,893
1747532571150,0.43539813,1.5116906,-0.4463807,1.3528858,0.6780408,-2.5497105,894
1747532571160,0.38487828,1.5163277,-0.5105677,1.3885722,0.6087986,-2.4644892,895
1747532571170,0.33826336,1.5216969,-0.46151224,1.3768543,0.43196473,-2.2594259,896
1747532571180,0.18548352,1.5675796,-0.049787678,1.5835156,-0.12996227,-1.5962988,897
1747532571190,0.114218794,1.5551329,0.15277983,1.9084213,-0.45327002,-1.196292,898
1747532571200,0.0976229,1.5016843,0.29213652,2.3537018,-0.7057377,-0.8511463,899
1747532571210,0.11275445,1.4736177,0.41904628,2.945989,-0.8181231,-0.6412892,900
1747532571220,0.14911897,1.5195004,0.6147802,3.3550503,-0.7669904,-0.6812366,901
1747532571230,0.17108414,1.5539125,0.73558855,3.9169774,-0.25513083,-1.0871024,902
1747532571240,0.16034561,1.5875924,0.92156017,4.1108556,-0.020772656,-1.3523532,903
1747532571250,0.12373702,1.6390884,1.1712307,4.29994,0.1635181,-1.6016251,904
1747532571260,0.08139309,1.6971740999999998,1.3655003,4.4229780000000005,0.21438448,-1.67965575,905
1747532571270,-0.1508273849999999,1.8090744,1.9002297,4.9620017,0.2077265749999999,-1.54916085,906
1747532571280,-0.536926,1.777469,2.5081763,5.937784,-0.006924219,-0.74089146,907
1747532571290,-0.7165521,1.666667,2.7568707,6.612629,-0.15393071,0.15286545,908
1747532571300,-0.7736614749999999,1.65824695,2.8468058000000003,7.027017,-0.1304949,0.8069378,909
1747532571310,-0.8644508,1.7725879,3.1610296,7.283746,0.027696876,1.2655342,910
1747532571320,-0.78586435,2.234344,3.9144342,7.4009247,0.12676647,1.4588797,911
1747532571330,-0.7602383,2.3217165,4.3432426,7.4589815,0.3355583,1.2245215,912
1747532571340,-0.7687803,2.2138433,4.643677,7.5825524,0.44048685,0.9752496,913
1747532571350,-0.8191781499999999,2.0627719,4.702373,7.680290449999999,0.488956395,0.9137306,914
1747532571360,-1.1158297,1.2964321,4.648314,8.067247,0.5635249,0.9102685,915
1747532571370,-1.19344,1.0389518,4.370333,8.349543,0.59761333,1.4594123,916
1747532571380,-1.2393227,0.7941623,4.061845,8.232364,0.5454154,1.75236,917
1747532571390,-1.2898425,0.5645044,3.678187,8.000136,0.5209143,2.0501015,918
1747532571400,-1.2930154,0.40342662,3.274028,7.6778936,0.58429754,2.312689,919
1747532571410,-1.1612244,0.064919226,2.4759607,6.9194255,0.7025419,2.674879,920
1747532571420,-1.044321,-0.117391534,2.1394057,6.5226145,0.73822826,2.781938,921
1747532571430,-0.9171671,-0.2767609,1.8270127,6.1050305,0.74461985,2.851713,922
1747532571440,-0.77097684,-0.41538543,1.5419537,5.5335164,0.74728304,2.9092371,923
1747532571450,-0.6768927849999999,-0.49433795,1.40247495,5.2765212,0.7222493,2.91696035,924
1747532571460,-0.4053791,-0.69898,1.0374874,4.4629254,0.5336975,2.9033782,925
1747532571470,-0.09737884,-0.88104665,0.6518769,3.3518546,0.14913702,2.6466496,926
1747532571480,-0.09737884,-0.88104665,0.6518769,3.3518546,0.14913702,2.6466496,927
1747532571490,0.10933765,-1.0099089,0.3909797,2.4133565,-0.033023197,2.0128171,928
1747532571500,0.13740423,-1.0440769,0.34936795,2.2197447500000003,-0.0181094952,1.79497055,929
1747532571510,0.19109683,-1.1687901,0.13764828,1.6868463,0.12357068,1.0849719,930
1747532571520,0.1701079,-1.2195541,0.059305906,1.0125339,0.6306366,-0.036218993,931
1747532571530,0.14204131,-1.2605556,0.029774986,0.73290193,0.8607337,-0.4676511,932
1747532571540,0.09274176,-1.3010693,0.023673553,0.47564057,1.0210559,-0.79628515,933
1747532571550,0.0800507825,-1.33157635,0.023063409,0.2444782,1.1462245,-1.0135992,934
1747532571560,0.04881145,-1.5358523,0.04807928,0.034088463,1.1856394,-1.109473,935
1747532571570,0.07687803,-1.5927176,0.009274175,-0.42184472,0.7488809,-0.892159,936
1747532571580,0.12349297,-1.6256653,-0.029286869,-0.6450176,0.42397526,-0.6631271,937
1747532571590,0.17791773,-1.6427493,-0.067359805,-0.83942837,0.07243799,-0.43888897,938
1747532571600,0.21037735,-1.6438476,-0.0850539505,-0.941161135,-0.1067927549999999,-0.350205685,939
1747532571610,0.29506522,-1.6383562,-0.12154051,-1.0428939,-0.2860235,-0.2615224,940
1747532571620,0.36364532,-1.6058967,-0.18255483,-1.5377092,-0.5811018,-0.48043427,941
1747532571630,0.38829508,-1.5807588,-0.20622836,-1.7614148,-0.5704491,-0.71958613,942
1747532571640,0.39586085,-1.551472,-0.2169669,-1.89856755,-0.54008905,-0.870853665,943
1747532571650,0.410260215,-1.5436621499999998,-0.2024454949999999,-2.2050974,-0.4881574199999999,-1.2008193,944
1747532571660,0.48152497,-1.5556209,-0.17938207,-2.8314729,-0.6013418,-1.7741979,945
1747532571670,0.36950266,-1.4726415,0.051496077,-4.0762343,-0.83250415,-2.5001757,946
1747532571680,0.24088451,-1.4165082,0.24283697,-4.512993,-0.9108011,-2.6578348,947
1747532571690,0.12642166,-1.3532975,0.4166057,-4.832572,-1.0407634,-2.680738,948
1747532571700,-0.005857374,-1.2263877,0.8473667,-5.147358,-1.4088123,-2.4511735,949
1747532571710,-0.018060237,-1.1302291,1.0904478,-5.161739,-1.6777915,-2.2892532,950
1747532571720,-0.018304294,-1.0645777,1.3118078,-5.0956926,-1.9867182,-2.13479,951
1747532571730,-0.0328257,-1.0557916,1.3999123999999998,-5.0418968,-2.1214741,-2.0652815,952
1747532571740,-0.11275445,-1.0462735,1.5785623,-4.9188585,-2.3995082,-1.8988339,953
1747532571750,-0.29555333,-0.78635246,1.7506226,-5.5734634,-2.1933794,-2.02347,954
1747532571760,-0.4191683149999999,-0.6452873800000001,1.86838015,-5.926066199999999,-2.03811715,-2.06554785,955
1747532571770,-0.780251,-0.16205402,2.378094,-7.1319456,-1.4524881,-2.1294637,956
1747532571780,-0.8236932,0.030019035,2.6388690500000003,-7.51837015,-1.2543489,-2.09244575,957
1747532571790,-0.84663457,0.5027579,3.3909314,-8.320781,-0.7584683,-1.8967034,958
1747532571800,-0.852003835,0.4068433999999999,3.67660045,-8.14501225,-0.91133375,-1.55262295,959
1747532571810,-0.891053,0.23600334,3.99070225,-7.795605399999999,-1.0431602,-0.9752496,960
1747532571820,-0.94718615,0.21196372,4.02560235,-7.59613465,-0.77844197,-0.48735849,961
1747532571830,-0.9691513,0.39634898,4.02169735,-7.785219,-0.274039273,-0.091612741,962
1747532571840,-0.77805454,0.91472656,4.24806,-8.786834,0.5342301,0.12942964,963
1747532571850,-0.6382097,1.1165619,4.677357,-10.236659,1.866876,-0.58962387,964
1747532571860,-0.53985465,1.4106508,5.2035446,-10.252105,2.4138892,-1.33957,965
1747532571870,-0.564016325,1.5894228,5.5399773,-9.88885,2.4501082,-1.70974945,966
1747532571880,-0.6488262,1.8949825,5.92729615,-8.84489075,2.3033681,-2.30975965,967
1747532571890,-0.9362036,2.0300681000000003,5.24369215,-6.40090775,1.42159548,-2.17660155,968
1747532571900,-1.270562,1.8816814,3.739201,-3.503122,0.3637878,-0.6498113,969
1747532571910,-1.0858107,1.8253042,3.0546205,-2.7654266,-0.011185277,0.47723848,970
1747532571920,-0.7490117,1.8748478,2.4222682,-2.401106,-0.30146983,1.310808,971
1747532571930,0.011226633,1.9041346,1.4950947,-2.4213462,-0.40586576,1.8908445,972
1747532571940,0.3807293,1.798946,1.1795286,-2.4857945,-0.34248254,1.6463662,973
1747532571950,0.6047739,1.6815544,0.9684192,-2.4495757,-0.27057716,1.1052119,974
1747532571960,0.6745742,1.5963784,0.7968469,-2.3036344,-0.18269286,0.41172472,975
1747532571970,0.6257628,1.5412215,0.65212095,-2.0639498,-0.04314321,-0.25885928,976
1747532571980,0.4698102,1.5443943,0.524479,-1.2692626,0.38402784,-1.4215955,977
1747532571990,0.36803833,1.6058967,0.5095915,-0.84422207,0.43782368,-1.6831179,978
1747532572000,0.29579738,1.6591012,0.5183776,-0.37603834,0.39894155,-1.7731327,979
1747532572010,0.19158493,1.6603215,0.53058046,0.12463594,0.20559604,-1.700162,980
1747532572020,-0.10323621,1.6483628,0.528628,0.38456047,0.06578008,-1.58324925,981
1747532572030,-0.14911898,1.6215164,0.5166691999999999,1.1494203,-0.331829875,-1.0183928,982
1747532572040,-0.21843125,1.5068095,0.511544,2.0602214,-0.7595336,-0.090014845,983
1747532572050,-0.16913168,1.428467,0.52496713,2.4309335,-0.9012137,0.34248254,984
1747532572060,-0.071264714,1.3584226,0.5513253,2.6184201,-0.932639,0.51505536,985
1747532572070,0.014887493,1.3154685,0.6208816,2.7601001,-0.8676579,0.53742594,986
1747532572080,0.11495096,1.2886223,0.93059033,3.0626354,-0.644485,0.15978967,987
1747532572090,0.09200958,1.2956998,1.1177822,3.2629051,-0.4809669,-0.118776985,988
1747532572100,0.0516181065,1.3031435999999998,1.22846215,3.39126945,-0.39254995,-0.2359560775,989
1747532572110,0.011226633,1.3105874,1.3391421,3.5196338,-0.304133,-0.35313517,990
1747532572120,-0.20598432,1.38734345,1.8863185,4.2690475,-0.27164243,-0.1576591375,991
1747532572130,-0.41929033,1.3960074,2.5079324,5.1409664,-0.65460503,0.61572284,992
1747532572140,-0.52252656,1.3520772,2.8112955,5.616074,-0.9139969,1.1084076,993
1747532572150,-0.65919864,1.3252308,3.0582814,6.101302,-1.1020161,1.5068166,994
1747532572160,-0.79538256,1.3733101,3.2979457,6.552974,-1.1211908,1.76248,995
1747532572170,-1.0082005,1.5507398,3.7182121,7.1351414,-0.6689861,1.8333201,996
1747532572180,-1.0438329,1.6649586,3.9339588,7.213438,-0.340352,1.6990968,997
1747532572190,-1.1077759,1.7296337,4.122615,7.2251563,-0.025033714,1.587244,998
1747532572200,-1.1473131,1.7188951499999998,4.2468403,7.2938657,0.24074976,1.5733956,999
1747532572210,-1.2737348,1.5282865,4.634403,7.5665736,0.3584615,1.7619474,1000
1747532572220,-1.3266952,1.0689708,4.7862067,8.151403,0.25672874,2.3499734,1001
