timestamp,acc_x,acc_y,acc_z,gyro_x,gyro_y,gyro_z,id
1747533719110,-0.2734661399999999,0.2410065384999999,0.7626789350000001,0.101732755,-0.79735048,-1.0684602550000002,1
1747533719120,1.1431642000000002,-1.38966195,1.26092175,4.00353005,6.0080915,3.23760495,2
1747533719130,1.0995999,-1.4062578,1.2906966999999998,4.1002028,5.48797615,3.4104441,3
1747533719140,1.0731196,-1.4189488,1.2822767,4.160923,5.1782503,3.5270905,4
1747533719150,1.0765365,-1.5360963,1.2239472,4.244014,4.442153,3.888748,5
1747533719160,1.211012,-1.6786258,1.2456682,4.454936,3.4748926,4.476241,6
1747533719170,1.5368285,-1.7174308,1.121687,4.726578,2.543319,4.871987,7
1747533719180,2.4792556,-1.56672545,0.34241234,4.7369647,-0.15126756,4.1936798,8
1747533719190,2.5821257,-1.5163277,0.18279888,4.660532,-0.4079963,3.8589206,9
1747533719200,2.430078,-1.1902672,-0.25089085,3.9270973,-0.039947417,2.411226,10
1747533719210,2.1850445,-1.1580516,-0.27139166,3.4882085,0.37017938,1.850897,11
1747533719220,1.8555672,-1.16586145,-0.257114315,3.1664987,0.8410263,1.5057513,12
1747533719230,1.7818619,-1.1856301,-0.27139166,2.855974,1.1755193,1.2367721,13
1747533719240,1.4938744000000002,-1.3845368,-0.6127056900000001,2.5872611,1.37738695,0.8229168,14
1747533719250,1.351345,-1.4631232,-0.91619086,2.454902,1.5584819,0.6428871,15
1747533719260,1.2483528,-1.4721533,-1.2754432,2.2136195,1.5195998,0.57577544,16
1747533719270,1.2256554,-1.4911898,-1.6234688,1.9563582,1.2713932,0.5001417,17
1747533719280,1.3923466000000002,-1.6119981,-2.34160715,1.36407115,0.94994958,0.046072695,18
1747533719290,1.4853324,-1.6498269,-2.7019577,1.0162623,0.78776306,-0.25033715,19
1747533719300,1.45189665,-1.7204815999999998,-3.0274081500000003,0.074302205,0.325171985,-0.8809736799999999,20
1747533719310,1.3908823,-1.7249967,-3.098795,-0.20932446,0.16831179,-1.0572749,21
1747533719320,0.94877255,-1.6043103,-3.08561585,-1.01226755,-0.3683152,-1.1829762,22
1747533719330,0.7907455,-1.5392691,-3.0365603,-1.2447615,-0.58056915,-1.1275824,23
1747533719340,0.74315435,-1.4147999,-2.7588232,-1.8631475,-1.6303873,-0.5992113,24
1747533719350,0.95426387,-1.4357888,-2.676576,-2.0804615,-1.9462382,-0.5432849,25
1747533719360,1.1316935,-1.4055257,-2.6360621,-2.2871227,-2.1475732,-0.6423545,26
1747533719370,1.3122958,-1.309001,-2.5740718,-2.7486487,-2.53825895,-0.9603359,27
1747533719380,1.3879536,-1.30314365,-2.3181777,-2.9395974,-2.6823359,-1.107875,28
1747533719390,1.4133356,-1.3079028,-2.106214,-3.3289514,-3.123888,-1.6463662,29
1747533719400,1.38331655,-1.32303435,-2.03726785,-3.3955305,-3.298325,-1.75795265,30
1747533719410,1.2688537,-1.3798997,-1.9248794,-3.6772928,-3.829093,-2.014415,31
1747533719420,1.13242565,-1.51962245,-1.8102947,-4.161722,-4.3374905,-2.113751,32
1747533719430,1.04090415,-1.68204255,-1.5846637499999998,-4.837365999999999,-4.970524,-2.06847725,33
1747533719440,1.0373653,-1.89778915,-1.25225775,-5.6565543,-5.77613,-1.9803266,34
1747533719450,1.11497555,-2.131596,-0.88727015,-6.2283348,-6.38199915,-1.9550266,35
1747533719460,1.1703765000000002,-2.3547864,-0.50507649,-6.6954533000000005,-6.870423150000001,-1.9699403,36
1747533719470,1.17708805,-2.6192224,0.0261141199999999,-7.14046765,-7.32103,-1.9776635,37
1747533719480,1.1668377,-2.8768249,0.558158935,-7.74180935,-7.8816255,-1.90416025,38
1747533719490,1.1629328,-2.962123,0.73510045,-8.124772,-8.220646,-1.8311896,39
1747533719500,1.1050912,-3.1815302,1.1072878,-8.53463275,-8.10533075,-1.6000272,40
1747533719510,0.99868225,-3.14077285,1.5936938500000002,-8.71492875,-7.871239000000001,-1.32918375,41
1747533719520,1.1392592499999998,-3.13235285,2.0800999,-8.7479515,-7.428888000000001,-0.989364365,42
1747533719530,1.3207158,-3.1135603,2.5373411,-8.5870965,-6.9889337000000005,-0.80986729,43
1747533719540,1.3635478,-3.0873241,2.6680338,-8.465124,-6.8581724,-0.81439465,44
1747533719550,1.381608,-2.9240499,2.915752,-8.109325,-6.568953,-0.8479505,45
1747533719560,1.3813640500000002,-2.72123835,3.21850485,-7.3905385,-6.441121600000001,-0.9590043,46
1747533719570,1.3676969,-2.6497297,3.2725637,-7.135674,-6.4453826,-1.0056096,47
1747533719580,1.15414665,-2.1065802,2.9223415,-6.3306005,-5.592105849999999,-0.9707222,48
1747533719590,1.1636649,-1.9983407,2.8486362,-6.239254,-5.393434,-0.9337043,49
1747533719600,1.3171769,-1.850442,2.7605317,-6.127934,-5.2070127,-0.9395633,50
1747533719610,1.6660568,-1.71535635,2.71147595,-5.8901135,-4.734567800000001,-1.40934485,51
1747533719620,1.7635576,-1.6908286,2.703422,-5.819007,-4.5497446,-1.6282567,52
1747533719630,1.5857619500000002,-1.5435400499999998,2.800923,-5.5068846,-3.3843453,-2.892193,53
1747533719640,1.4482356,-1.5077857,2.8327725,-5.238438,-2.7542412,-3.4882085,54
1747533719650,0.86335253,-1.45079825,2.7773714500000004,-4.86346485,-2.2650186,-4.18595665,55
1747533719660,0.45907168,-1.43505655,2.70830325,-4.63816135,-2.016812,-4.5002095,56
1747533719670,0.2511349,-1.4238299,2.664861,-4.31618515,-1.79070955,-4.598746500000001,57
1747533719680,-0.56426036,-1.3374337,2.584078,-4.1012683,-1.7017599,-4.577974,58
1747533719690,-1.027481,-1.2607998,2.6114125,-3.9159122,-1.8301244,-4.2205777,59
1747533719700,-1.3803878,-1.2222387,2.740275,-3.6181707,-1.9228023,-3.635215,60
1747533719710,-1.6051645,-1.2161373,2.9101386,-3.2075112,-2.1097562,-2.910835,61
1747533719720,-1.6133404,-0.98928602,3.2803735,-1.7654095,-3.0386668500000003,-1.2929647000000002,62
1747533719730,-1.581979,-0.94157284,3.3045352,-1.4183996,-3.2149682,-1.0189254,63
1747533719740,-1.5011961,-0.861278,3.1776254,-0.7707188,-3.4967306,-0.56938386,64
1747533719750,-1.4426224,-0.7392494,2.9496758,-0.32330775,-3.8328216,-0.22690132,65
1747533719760,-1.398204,-0.5950116,2.7410069,-0.018109497,-4.153466,0.0644485,66
1747533719770,-1.330112,-0.37243137,2.4049401,0.09534117,-4.1934137,0.17949706,67
1747533719780,-1.3235224,-0.32996538,2.301948,-0.19760656,-3.9979374,0.2428803,68
1747533719790,-1.2849613,-0.27724904,2.3441699,-0.55074173,-3.6346824,0.1438107,69
1747533719800,-1.3105874,-0.232586565,2.45960905,-0.712129295,-3.42589055,0.04048005,70
1747533719810,-1.6616638,-0.1018939,3.0253337,-1.4602113,-2.58832635,-0.3155846,71
1747533719820,-1.8279889,-0.13105874,3.2662184,-2.0181435,-2.2575617,-0.443416335,72
1747533719830,-2.1885833000000003,-0.47493542,3.91589865,-2.46848405,-2.1244036,-0.426638415,73
1747533719840,-2.302436,-0.605262,4.2253633,-2.6716833,-2.0426445,-0.38722363,74
1747533719850,-2.3478308,-0.8254016,5.010495,-2.898052,-1.7028252,-0.34887412,75
1747533719860,-2.48401475,-1.19343995,6.3298688,-2.36675135,-0.445014242,-0.287887725,76
1747533719870,-2.6299609000000004,-1.42248765,7.284987,-0.48496165,0.928644273,0.067644295,77
1747533719880,-2.5984775,-1.5565970999999998,7.795676999999999,1.9893813,1.77606215,0.57897124,78
1747533719890,-2.489384,-1.5949141,7.765658,2.9374666,1.7997643,0.7749799,79
1747533719900,-2.1254945,-1.6952217,7.3060975,4.679174,1.7369137,0.98430437,80
1747533719910,-1.7882075,-1.8099285,6.596867,6.356433,2.2855248,0.9965549,81
1747533719920,-1.1791626,-1.81212505,4.25550415,6.9926622,4.6331015,0.7211840199999999,82
1747533719930,-1.1401134,-1.78723125,3.5688491,6.66003325,6.45630145,0.5265069499999999,83
1747533719940,-1.147069,-1.7611171,3.2715874,6.4091635,7.0131683,0.4990764,84
1747533719950,-1.16573945,-1.62261455,2.7600434,5.798767,7.7519293,0.5747102,85
1747533719960,-1.16268875,-1.6260314,2.7150148,4.697283499999999,8.225173250000001,0.95394432,86
1747533719970,-1.1645192,-1.7102312,2.8276473,4.1204427500000005,8.68856325,1.34196685,87
1747533719980,-1.138161,-1.81664015,2.93271385,3.926831,9.242767,1.7733989,88
1747533719990,-1.1121689,-1.8831457,2.9857962,3.840811,9.545835,2.0415792,89
1747533720000,-0.70776605,-2.3028022,3.1799438,3.875432,10.053166999999998,2.9782132,90
1747533720010,-0.34961199,-2.6688881,3.3107585,4.0301618,10.049172,3.64773195,91
1747533720020,-0.13093671,-2.91563,3.40545285,4.2099253,9.637181,4.0392165,92
1747533720030,0.013667206,-3.0959883,3.4437699000000004,4.4200485,9.1860415,4.41871685,93
1747533720040,0.055645052,-3.162982,3.4309568,4.526841,9.000952,4.6173887,94
1747533720050,0.37072295,-3.3489537,3.2581644,4.7670584,8.803346,5.6592174,95
1747533720060,0.802948365,-3.50576035,3.19763805,4.835501750000001,8.3466135,6.3425846,96
1747533720070,0.9359596,-3.5288239,3.1776254,4.90527665,7.8906803,6.5865302,97
1747533720080,1.1856301,-3.5127158,3.14663,4.9513493,7.6230326,6.6829367,98
1747533720090,1.4426224,-3.478548,3.1058726,5.0797133,7.047257,6.7553744,99
1747533720100,1.98845645,-3.38800295,3.04375995,5.40834765,5.3897057,6.332997300000001,100
1747533720110,2.1042615,-3.2640217,2.9533367,5.59210575,5.0560115,5.9985041500000005,101
1747533720120,2.200176,-3.09305955,2.76675495,5.69144165,4.96013765,5.604888900000001,102
1747533720130,2.26716975,-2.7877439500000003,2.366135,5.64057515,5.09915465,5.07944725,103
1747533720140,2.2887688,-2.5757802,2.0713139,5.573996,5.242699,4.767591,104
1747533720150,2.190414,-2.32855,1.8772882,4.8709216,6.2286015,3.849333,105
1747533720160,2.0349494000000004,-2.0149367,1.6559284,4.2908852,6.6206185,3.39579675,106
1747533720170,1.9010839,-1.82396185,1.60040535,3.9686428,6.509032,3.2306808,107
1747533720180,1.85849595,-1.81468755,1.7290235,3.9494681,5.799832500000001,3.20218505,108
1747533720190,1.97881615,-1.90730735,1.7251186,4.252269500000001,5.0155315,3.1782166,109
1747533720200,2.1387956,-1.9009619,1.38368255,4.5689193,4.463458,3.0312101,110
1747533720210,2.26399705,-1.8731394,0.8599357000000001,4.7151268,3.9721048,2.7936561500000003,111
1747533720220,2.3501492500000003,-1.85812995,0.2051301099999999,4.6506782,3.9121838,2.5425200500000003,112
1747533720230,2.4461858000000003,-1.73951805,-0.79892144,4.1111217,4.465056000000001,2.2884544,113
1747533720240,2.6165378,-1.6235908,-1.72353225,3.4008567000000003,5.02511885,2.1438447,114
1747533720250,2.8193493,-1.6554402499999998,-2.12793505,2.9563752,4.88716735,2.1225394,115
1747533720260,3.0082497,-1.6835068999999998,-2.4269053,2.6080337,4.070641999999999,2.09644045,116
1747533720270,3.102944,-1.6783818,-2.5928643,2.4527714,3.50472,2.0762005,117
1747533720280,3.333578,-1.61992995,-3.34541465,1.6743294,1.36247326,1.87513175,118
1747533720290,3.4499934,-1.5975988,-3.6855083,1.2335763,0.37230992,1.7502295,119
1747533720300,3.614854,-1.4462833,-4.0522045,0.27430562,-0.6894924149999999,1.43997125,120
1747533720310,3.7628746,-1.3723339,-4.0557435,-0.38562573,-1.2743226,1.131044575,121
1747533720320,3.84036275,-1.37684895,-3.9577545,-0.9928265,-1.69456945,0.6756439949999999,122
1747533720330,3.8348715,-1.3794116,-3.90516,-1.90096455,-1.96834245,0.06977482,123
1747533720340,3.2757363,-1.1973449,-3.7614102,-2.518818,-2.0762005,-0.2727077,124
1747533720350,3.0315571500000003,-1.1659835,-3.3450487,-3.4376085,-2.5025725,-0.50813115,125
1747533720360,2.94869975,-1.21796775,-2.9568756,-3.89780285,-2.72947385,-0.7291734999999999,126
1747533720370,2.78310685,-1.2621421,-2.3442919,-4.2267033000000005,-3.22535445,-1.0519486,127
1747533720380,2.6259339,-1.2836191,-1.7413484499999998,-4.4251088,-3.9009986,-1.35315215,128
1747533720390,2.5979893,-1.2935034,-1.5387809,-4.453871,-4.164119,-1.4524881,129
1747533720400,2.5061018500000003,-1.3661104000000002,-1.011739325,-4.4525392,-4.802744499999999,-1.85169595,130
1747533720410,2.38980865,-1.40027845,-0.7414459250000001,-4.4791707,-5.0866376,-2.12040895,131
1747533720420,2.3256216,-1.4174845,-0.6279593,-4.503938,-5.1990232,-2.2487733,132
1747533720430,2.01322815,-1.61346245,-0.103480275,-4.84242585,-5.4344468,-2.84398975,133
1747533720440,1.9453802,-1.6459221,-0.01586372,-4.9497514,-5.4323163,-2.9609025,134
1747533720450,1.8870505,-1.7677068,0.1466784,-5.190501,-5.4317837,-3.125486,135
1747533720460,1.8706989,-1.9702741,0.32557237,-5.4759917,-5.4829164,-3.3001893,136
1747533720470,1.93818075,-2.3296483,0.868111635,-6.08612205,-5.76547765,-3.66610765,137
1747533720480,2.0488607,-2.6054331,1.4294433,-6.4054351,-6.00862415,-4.03362395,138
1747533720490,2.080344,-2.7051306,1.6295702,-6.4453826,-6.07254,-4.194479,139
1747533720500,2.036902,-2.8664525,1.9209745,-6.456035,-6.1332603,-4.5529404,140
1747533720510,1.8523946,-2.9926298,2.1350129,-6.4456489,-5.92819675,-4.940962750000001,141
1747533720520,1.4309076,-3.047787,2.433251,-6.4411216,-5.7982345,-5.0173955,142
1747533720530,1.39198045,-3.07780585,2.7045204,-6.23818865,-5.18171265,-5.00328075,143
1747533720540,1.3972276,-3.0800023,2.7956758,-6.1460433,-5.1132693,-5.012069,144
1747533720550,1.4052817,-3.0931816,2.9052575,-5.905826,-5.134575,-5.0397663,145
1747533720560,1.381364,-3.1197836,2.9391813,-5.681588,-5.2379055,-5.046158,146
1747533720570,1.2572609,-3.11770925,3.03192315,-5.389173,-5.652826,-4.9289784,147
1747533720580,1.2434716,-3.1041641,3.0604777,-5.27545585,-5.871205,-4.8072722,148
1747533720590,1.2229708,-3.0690198,3.0638947,-5.2533517,-5.901565,-4.776113,149
1747533720600,1.2356619,-3.0626745,3.0133748,-5.324724,-5.5942364,-4.799549,150
1747533720610,1.257627,-3.0817108,3.0912292,-5.3646717,-4.995558,-4.9667954,151
1747533720620,0.80136193,-2.9382052,3.4446241,-4.88610185,-4.18116305,-5.535114350000001,152
1747533720630,0.44869923,-2.7923809,3.4930694,-4.5140581,-4.25493265,-5.5545551500000006,153
1747533720640,0.28042176,-2.7156248,3.4900186,-4.3164515,-4.3585296,-5.5196676,154
1747533720650,0.018792408,-2.545761,3.355787,-3.9974048,-4.588094,-5.3055496,155
1747533720660,-0.16717921,-2.4195836,3.1898282,-3.774232,-4.479437,-5.031244,156
1747533720670,-0.51459473,-1.91767985,3.01483915,-3.38514415,-4.0067259,-4.1622545,157
1747533720680,-0.556938645,-1.73061,3.06487085,-3.2328112,-3.80299415,-3.9017974,158
1747533720690,-0.56596875,-1.649339,3.1144145,-3.13241,-3.671434,-3.7918088,159
1747533720700,-0.551203275,-1.556231,3.2093529,-2.6578349,-2.9787458,-3.67942335,160
1747533720710,-0.56645685,-1.5287746,3.234979,-2.475142,-2.7153592,-3.6559875,161
1747533720720,-0.8173477,-1.45140845,3.2543814,-1.3337111,-2.6743464,-3.3755567,162
1747533720730,-0.8834872,-1.4355447,3.2010548,-0.9089369,-2.8517129,-3.3297503,163
1747533720740,-1.1661055,-1.4828918,3.0380247,-0.7121293,-2.922553,-3.3300166,164
1747533720750,-1.752575,-1.4980234,2.7763953,-0.32863408,-2.9758162,-3.251187,165
1747533720760,-2.82776915,-1.29655415,2.4764489,-0.045007427,-3.45598425,-2.32840175,166
1747533720770,-3.45548435,-1.0611609,2.4064044,0.186953913,-4.09727335,-1.25701205,167
1747533720780,-3.68685065,-0.8014840000000001,2.38578155,0.356064645,-4.581436200000001,-0.3816309874999999,168
1747533720790,-3.7721486,-0.6406503,2.3754091,0.43036684,-4.840562,0.053263225,169
1747533720800,-3.734076,-0.41977844,2.3566167,0.43089947,-5.3391056,0.90014845,170
1747533720810,-2.90928445,-0.02562601,2.5915219,-0.0258326649999999,-4.792625,1.3358416,171
1747533720820,-2.2737593,0.07260703525,2.77224625,-0.683633465,-3.7918089,0.81492727,172
1747533720830,-2.21201285,-0.16010155475,2.8788992,-1.495365,-2.96995725,0.0689758799999999,173
1747533720840,-2.2809591,-0.31483385,2.9604144,-1.9691414,-2.5608957,-0.31052458,174
1747533720850,-3.2344906,-1.0323621,3.9695914,-4.2445464,-0.77444726,-0.9768475,175
1747533720860,-3.7007621,-1.81578585,5.96988435,-4.5747783,0.710265075,-0.70094402,176
1747533720870,-3.90369565,-2.1769906,7.1340375,-3.8091194,1.52812185,-0.33742251,177
1747533720880,-4.1423838,-2.36430465,7.8248413,-2.3044333,2.01468145,0.2327602899999999,178
1747533720890,-4.2634363,-2.4129941,7.9970236,-1.3891048,2.1481059,0.58749336,179
1747533720900,-4.0381714,-2.4669307,7.9970236,1.1510183,2.4003072000000003,1.68977578,180
1747533720910,-2.5954268000000003,-2.6034807,7.03653675,6.26322245,2.94465725,3.82509825,181
1747533720920,-2.1418464,-2.6441162,6.569533,6.9465895,3.0796795,4.0719733,182
1747533720930,-0.548640705,-2.41177365,4.285645199999999,7.6493977,3.5920716500000003,4.1268344,183
1747533720940,0.17132819,-2.179187,3.0843954,7.697601,3.7758298,4.024569,184
1747533720950,0.5095915,-1.9378146,2.3075612,5.9287295,4.64189,2.663161,185
1747533720960,0.4318593149999999,-1.5556209,1.93439775,3.9004657,6.1076937,1.4599449,186
1747533720970,0.32557237,-1.4462832,1.9290285,3.165966,6.8075724,1.0791129,187
1747533720980,-0.06369894,-1.4089426,2.2753458,2.3206787,7.929296,0.78563255,188
1747533720990,-0.3824377,-1.4655638,2.7073271,1.8077538,8.641425,0.7419567,189
1747533721000,-0.9531656,-1.70071305,3.40703915,1.9180086,9.6257295,1.6383768,190
1747533721010,-0.998438225,-1.7862550499999998,3.49148295,2.2431806,9.71175,2.2983081,191
1747533721020,-0.902157605,-1.88046115,3.47073815,2.60031055,9.4760605,3.01922585,192
1747533721030,-0.555108205,-2.03019025,3.25291705,3.04372685,8.717858499999998,4.05466285,193
1747533721040,-0.28920785,-2.1333044,3.0704844,3.309244,8.158328,4.7249804,194
1747533721050,0.10348027,-2.2226293,2.792259,3.3593116,7.9388833,5.0829096,195
1747533721060,0.45687518,-2.263875,2.600918,3.2740903,7.8099866,5.218198,196
1747533721070,0.864572825,-2.35564055,2.3806566,2.86023505,7.824899800000001,4.96892595,197
1747533721080,0.87567745,-2.40542815,2.3384347,2.48393035,7.8978705,4.73962775,198
1747533721090,0.7829357,-2.4012792,2.3690639,2.3600934,7.949536,4.705273,199
1747533721100,0.48274522,-2.4006691,2.6320354,2.2407837,7.91385,4.850682,200
1747533721110,0.40049794,-2.4164107,2.7190418,2.2775354,7.599064,5.181446,201
1747533721120,0.358032,-2.4835265,2.8706014,2.4714136,7.0142336,5.6267266,202
1747533721130,0.79294205,-2.58175955,2.8224,3.3752904,5.3082128,6.456035,203
1747533721140,0.9061846,-2.5987215,2.754186,3.7880805,4.5625277,6.6089005,204
1747533721150,1.27702955,-2.63166925,2.36833155,4.1252365,3.9057922,6.571084,205
1747533721160,1.3874654,-2.6275203,2.2101824,4.216583,3.4930020500000003,6.16654975,206
1747533721170,1.5312152,-2.5887153,1.8426323,3.79234145,3.8024613,5.6451028,207
1747533721180,1.65324385,-2.5325820500000003,1.6478745,3.2711607000000003,4.3223104,5.1066115,208
1747533721190,1.6847272,-2.5091527,1.6918048,3.1089742,4.5188518,4.9204564,209
1747533721200,1.69619785,-2.28840275,1.8152978,2.8794099500000003,4.8512144,4.21045775,210
1747533721210,1.6239569,-2.1352569,1.8780205,2.94332575,4.79528815,3.84054475,211
1747533721220,1.4006445,-1.96954205,1.7988239,3.27142715,4.253601,3.5276232,212
1747533721230,1.17342725,-1.8018746,1.51083635,3.62296435,3.6820866,3.4133736,213
1747533721240,1.1185144,-1.7286574,1.3284036,3.720436,3.5611792,3.4471958,214
1747533721250,1.39637355,-1.6985163,0.767071925,3.7763624,3.6378782,3.5025895,215
1747533721260,1.73488095,-1.68179845,0.18048034,3.4693,4.053065,3.0911311,216
1747533721270,1.9417195,-1.6447018,-0.23771177,3.1968586,4.25946,2.7739487,217
1747533721280,2.15514755,-1.3746524,-0.9259532,2.5084314,4.68263625,2.3805997000000003,218
1747533721290,2.217016,-1.2642165,-1.104115,2.2583606,4.8075385,2.26635,219
1747533721300,2.3383124,-1.0682385,-1.2595794,1.8524948,4.7665257,2.0655477,220
1747533721310,2.61775805,-0.871162355,-1.32852565,1.78085585,3.0666299,1.90895395,221
1747533721320,2.8840245,-0.8284523349999999,-1.57148465,1.8975023,1.80003065,1.77180115,222
1747533721330,3.01630355,-0.92241435,-1.88790485,1.938515,1.64476835,1.55635135,223
1747533721340,3.0643828,-0.9730562,-2.0683851,1.9350529,1.6463662,1.4407701,224
1747533721350,3.0724368,-0.87396896,-2.570411,1.7294569,1.6399746,1.3299826,225
1747533721360,3.47476495,-0.618197,-3.41314065,0.8295747,0.5970807340000001,1.27458895,226
1747533721370,3.7533562,-0.5618198,-3.6818476,0.3073288,-0.048469532,1.1739215,227
1747533721380,4.016938,-0.53863436,-3.7655594,-0.58775966,-1.0817761,0.57417754,228
1747533721390,4.1548305,-0.5349735,-3.636697,-0.8942895,-1.4578145,0.33182988,229
1747533721400,4.088447,-0.53302103,-3.3164937,-1.3821807,-2.1779332,-0.14327806,230
1747533721410,3.767756,-0.406843425,-2.7380782,-1.93238965,-3.1036481,-0.8490157650000001,231
1747533721420,3.57641505,-0.339849725,-2.3907847,-2.2618227,-3.77636255,-1.3094763,232
1747533721430,3.50185535,-0.34204623,-2.2244597,-2.48765875,-4.18702195,-1.598163,233
1747533721440,3.467077,-0.34656128,-2.153561,-2.6130936,-4.3558664,-1.7427727,234
1747533721450,3.40557465,-0.53387521,-1.72218985,-2.90311195,-4.61206245,-2.1401163,235
1747533721460,3.2610929,-0.827476055,-1.14218787,-3.43441265,-5.01260175,-3.03334045,236
1747533721470,3.0741451,-1.056523835,-0.8371163699999999,-3.7888793,-5.2432315,-3.74893185,237
1747533721480,2.8594967,-1.3090011,-0.52362485,-4.01924265,-5.4357782,-4.1420145,238
1747533721490,2.7488167,-1.4387175,-0.366574,-4.1364217,-5.5420384,-4.3153863,239
1747533721500,2.5660179,-1.7105973,-0.0061014313,-4.4357612,-5.88292285,-4.7231165,240
1747533721510,2.280959,-2.2139653,0.7736614500000001,-4.58516455,-6.16335365,-5.086637850000001,241
1747533721520,2.07887955,-2.5323379,1.27202635,-4.6211173500000005,-6.33645915,-5.416603350000001,242
1747533721530,1.9968764,-2.6194663,1.4104068,-4.604073,-6.3559003,-5.519135,243
1747533721540,1.8048034,-2.7446678,1.6410409,-4.546549,-6.3937173,-5.6762614,244
1747533721550,1.5973547,-2.834725,1.8470252,-4.422179,-6.3535035,-5.778527,245
1747533721560,1.4589742,-2.8754826,1.9231712,-4.3846283,-6.301572,-5.796104,246
1747533721570,1.2517697,-2.954557,2.0722902,-4.2770367,-6.139652,-5.672533,247
1747533721580,1.2517697,-2.954557,2.0722902,-4.2770367,-6.139652,-5.672533,248
1747533721590,1.2498172,-3.0645049,2.13367045,-4.24348085,-6.3881248,-5.497297,249
1747533721600,1.23615,-3.227413,2.2074978,-4.287689,-7.0126357,-5.1478906,250
1747533721610,1.3659884,-3.270855,2.3907847,-4.5332327,-7.2390046,-4.857606,251
1747533721620,1.46056065,-3.3416317,2.56638395,-4.4908886,-7.0579098,-4.9667955,252
1747533721630,1.52743235,-3.4122864,2.7644365,-4.412858,-6.8097032,-5.1657335,253
1747533721640,1.4997318,-3.4121644,2.7868898,-4.3771715,-6.7425914,-5.255482,254
1747533721650,1.385513,-3.4248552,2.7812765,-4.3377566,-6.5524416,-5.413674,255
1747533721660,0.9617076,-3.2962371,2.7472304000000003,-4.371313000000001,-4.94335965,-5.5763931,256
1747533721670,0.813442815,-3.23046375,2.8415586,-4.2480085,-4.4392233,-5.5090151,257
1747533721680,0.683360315,-3.163348,2.9312495,-4.0037965,-4.33908845,-5.3707972,258
1747533721690,0.622346,-3.12076,2.959438,-3.85679,-4.4139233,-5.2826467,259
1747533721700,0.45833953,-2.9106267,2.6649831,-3.3949978,-5.54843,-4.858671,260
1747533721710,0.38853915,-2.85742235,2.55296085,-3.3601104,-6.09278,-4.5774415,261
1747533721720,0.2946991399999999,-2.79775025,2.50854245,-3.40698205,-6.1327275,-4.42510865,262
1747533721730,0.15424419,-2.7462542,2.48206225,-3.50605165,-5.9734705,-4.32870215,263
1747533721740,0.06589546,-2.7285602,2.4608293,-3.5744948,-5.852563,-4.304201,264
1747533721750,-0.66652033,-2.34209535,2.8327725,-3.75772035,-4.25679685,-3.90339525,265
1747533721760,-0.90777095,-2.1441649,3.13149845,-3.5049864,-3.74680135,-3.5292211,266
1747533721770,-1.04737175,-1.94452615,3.40069355,-3.021889,-3.478621,-3.04985215,267
1747533721780,-1.0811737,-1.8497099,3.5122278,-2.7281423,-3.4285536,-2.7915256,268
1747533721790,-0.89764255,-1.5468348,3.645727,-2.0708742,-3.584615,-2.294047,269
1747533721800,-0.72314161,-1.7240204,3.5789776,-0.472178465,-4.7385625000000005,-1.67859045,270
1747533721810,-0.70288485,-1.8111488,3.4941676,-0.141413855,-4.7476172000000005,-1.8461033,271
1747533721820,-0.96402615,-1.9702741,3.2261927,-0.03355583,-4.6727824,-1.9680761,272
1747533721830,-2.12171165,-1.8699666,2.6890228,-0.3568636149999999,-3.76224765,-1.97686455,273
1747533721840,-2.7036662,-1.7528191,2.4771812,-0.6487461,-3.2394693,-1.8514296,274
1747533721850,-3.234979,-1.6015036,2.6441162,-0.9667275,-3.0115025,-1.2873721,275
1747533721860,-3.4107,-1.5138872,2.9740815,-1.2144015,-3.2858083,-0.5209143,276
1747533721870,-3.2778108,-1.32937985,3.6586622,-1.24609315,-3.62429605,0.293480363,277
1747533721880,-3.137722,-1.219554,4.0168162,-1.3004215499999998,-3.2261535,0.4407531799999999,278
1747533721890,-3.0919614,-1.2363939,4.096501,-1.4045511,-2.867692,0.39254996,279
1747533721900,-3.100259,-1.560258,4.3010206,-1.8114822,-2.2807312,0.16724652,280
1747533721910,-3.2715874,-1.9178019,4.6268373,-2.3004386,-1.3821807,-0.007989483,281
1747533721920,-3.5258949,-2.0783916,5.1183686,-2.670618,-0.2727077,-0.009054748,282
1747533721930,-3.62620255,-2.57639035,6.907308,-1.8338528,1.7512948000000002,0.92145375,283
1747533721940,-3.5405385,-2.6846297,7.233857,-1.31933,2.0330572,1.1616709,284
1747533721950,-3.2720757,-2.7729783,7.533315,0.11984225,2.3552997,1.6287893,285
1747533721960,-2.9008644,-2.694392,7.3229375,2.030394,2.931075,2.1363878,286
1747533721970,-2.07521875,-2.6295948,5.98403955,4.2903526,4.53456445,2.7105653,287
1747533721980,-1.4542151,-2.6356963,4.75216085,5.3686666,5.5806542,3.0160299,288
1747533721990,-1.2522577,-2.651438,4.304926,5.53831,5.7854514,3.075951,289
1747533722000,-0.9022797,-2.5660179,3.2847664,5.407815,5.824333,3.0626354,290
1747533722010,-0.717650365,-2.3478308,2.348929,4.4578655000000005,5.5976985,2.9025793,291
1747533722020,-0.7826916,-2.22653435,2.19932185,3.2719598,5.9465725,2.8983183,292
1747533722030,-0.90325585,-2.1962713000000003,2.44667385,2.29058495,6.528473,3.0780816,293
1747533722040,-0.9405966,-2.2155519,2.634598,2.1007016,6.71809,3.2085764,294
1747533722050,-0.90642864,-2.251184,3.0126426,1.9632823,7.0142336,3.564375,295
1747533722060,-0.7465711,-2.324157,3.2789092,2.014415,7.477624,3.9361522,296
1747533722070,-0.21550256,-2.5772445,3.5173528,2.3861923,8.557802,4.5673213,297
1747533722080,0.084687866,-2.70391,3.4612198,2.5896578,8.728777,4.807006,298
1747533722090,0.38536641,-2.7789578500000003,3.2889154,2.7521107,8.756474,5.047223,299
1747533722100,0.56340616,-2.7987265,3.19751595,2.8714204,8.605739,5.293299,300
1747533722110,0.6489482,-2.801045,3.1510231,2.9694247,8.148208,5.5750613,301
1747533722120,1.02967753,-2.8354571,2.8350909,2.94332565,7.3093122,5.76414585,302
1747533722130,1.0550595,-2.8138579000000004,2.75003695,2.86502875,7.1519195,5.7622817,303
1747533722140,1.0499343,-2.797384,2.7166011,2.8224182,7.089335,5.7662764,304
1747533722150,1.0035634,-2.7602875,2.6675458,2.7292075,7.0451264,5.820072,305
1747533722160,0.940108475,-2.8177629,2.7318548,2.55583575,6.760168,5.98119355,306
1747533722170,0.92753955,-2.86950315,2.8581544,2.5193505,6.421680500000001,6.0674801,307
1747533722180,0.90154745,-2.85388355,2.92124315,2.65517165,6.31329,6.12553685,308
1747533722190,0.8873921,-2.8448534,2.9328359,2.84558765,6.2893215,6.2355253,309
1747533722200,1.04017195,-2.91770445,2.87743495,3.0578416,6.1585603,6.3942498,310
1747533722210,1.2723925,-2.9835999,2.7230688,3.4040525,5.4914383,6.55004465,311
1747533722220,1.4461613,-2.93722905,2.4749845,3.6818203,4.7265783500000005,6.59372065,312
1747533722230,1.6486068,-2.8642558,2.20371485,3.7326868,4.5103297,6.571084,313
1747533722240,1.7579445,-2.8342366,2.0832727,3.7199035,4.191283,6.3559003,314
1747533722250,1.8829016,-2.60043,1.61297435,3.4312169,4.076234299999999,5.4280550000000005,315
1747533722260,1.86105845,-2.3357499,1.2761754,3.0866038,4.33056615,4.66292885,316
1747533722270,1.82859895,-2.1871189,1.15976005,2.8373319,4.6581352,4.1689124500000005,317
1747533722280,1.75855455,-2.0696054,1.06482175,2.6738138,4.99688935,3.7015276,318
1747533722290,1.61968595,-1.94257375,0.92619722,2.58326635,5.18437565,3.3398703000000003,319
1747533722300,1.4404259,-1.8195688,0.711670935,2.49777885,5.0725228,3.12548585,320
1747533722310,1.23956675,-1.7363452,0.4220970149999999,2.31801545,4.6144593,3.0615700500000003,321
1747533722320,1.1251039,-1.65324375,0.173890785,2.14357845,4.1638525,3.1276165,322
1747533722330,1.19917525,-1.54195365,-0.0446624699999999,1.9630162,3.9561259,3.24159975,323
1747533722340,1.43444645,-1.4798411,-0.252355195,1.73558215,4.0006007,3.3174999,324
1747533722350,2.0542299,-1.42700275,-0.495070115,1.5094797,4.32976745,3.0852722,325
1747533722360,2.6201987,-1.3185193,-0.755479225,1.34702685,4.450675,2.6586337,326
1747533722370,2.7549183,-1.2001515,-0.98904205,1.3166668,4.3611927,2.4847293,327
1747533722380,2.78994045,-1.0930103999999998,-1.2420073500000002,1.2777847,3.698332,2.16941105,328
1747533722390,2.7907946,-1.039928,-1.355738,1.2618058,3.410977,2.0980384,329
1747533722400,2.7832289,-0.8932495,-1.5722169,1.25221835,2.637861,2.11215305,330
1747533722410,3.0656031,-0.6284474250000001,-1.9802805,1.3382385,1.9289275,2.26315425,331
1747533722420,3.4128965,-0.5174013749999999,-2.40420795,1.38990385,1.203748825,2.36888185,332
1747533722430,3.512472,-0.47932845,-2.5906677,1.3598101,0.93903065,2.378203,333
1747533722440,3.6906335,-0.40513504,-2.9465032,1.1446266,0.3254383,2.4021714,334
1747533722450,4.0789288,-0.335944805,-3.3194228,0.663659775,-0.34168357,2.263687,335
1747533722460,4.43378815,-0.198052445,-3.45280005,0.127831735,-1.273257335,1.845837,336
1747533722470,4.71408765,-0.08993509,-3.4617082000000003,-0.42211104,-2.39178505,1.25195205,337
1747533722480,4.78523,-0.08981306,-3.4343739,-0.8828379,-3.18567335,0.53902382,338
1747533722490,4.79975195,-0.22514281,-3.0267979,-1.1526161,-3.5808864,0.09161274,339
1747533722500,4.6211021,-0.355225325,-2.7596773,-2.3489082000000003,-4.17423885,-2.02826345,340
1747533722510,4.3329925,-0.52679756,-2.41055345,-2.8216193,-4.4368263500000005,-2.78726435,341
1747533722520,3.95409335,-0.7490116499999999,-1.97759585,-3.24825765,-4.6837015,-3.417102,342
1747533722530,3.3524923500000003,-1.1440183,-1.3118077,-3.614975,-4.872519799999999,-3.9278964,343
1747533722540,2.76407045,-1.530239,-0.6892176649999999,-3.7822216,-4.9508166,-4.156662,344
1747533722550,2.39627615,-1.7298779,-0.32276571,-4.3755736,-5.033374500000001,-4.8850365,345
1747533722560,2.0913267,-1.9086498,0.0017084049999999,-4.575310699999999,-5.20648,-5.01846075,346
1747533722570,1.8599604,-2.1034075,0.29530928,-4.76066685,-5.3596118,-5.0946271,347
1747533722580,1.696686,-2.37772785,0.73168358,-4.9177935,-5.314337999999999,-5.2256546,348
1747533722590,1.6130963500000002,-2.62861865,1.1994193,-4.96599675,-5.231780049999999,-5.411277,349
1747533722600,1.58307735,-2.762972,1.4954608,-4.87891125,-5.29809285,-5.587578499999999,350
1747533722610,1.50925005,-2.9035489,1.71767495,-4.71379515,-5.3803845,-5.7902450000000005,351
1747533722620,1.3320645,-3.00190415,1.8421442,-4.50473715,-5.3921025,-5.942045,352
1747533722630,1.06579805,-3.05315625,1.8768003,-4.302337,-5.60701965,-5.8562915,353
1747533722640,0.916435,-3.086348,1.8816814,-4.20886,-5.8291273,-5.72846,354
1747533722650,0.8920292,-3.1707919,1.9461124,-4.162521,-6.1210093,-5.5196676,355
1747533722660,0.9668328,-3.1950755,2.0827845,-4.10180065,-6.591590200000001,-5.2411010000000005,356
1747533722670,1.1243718,-3.16725295,2.1773567,-4.07943,-6.730341,-5.167065,357
1747533722680,1.2453021,-3.10038125,2.22018875,-4.00299765,-6.5127605,-5.1167313,358
1747533722690,1.2485968,-3.0548646,2.2157958,-3.9867523,-6.215818,-5.1564126,359
1747533722700,1.26275215,-3.0047108,2.21909045,-4.04800485,-5.44030545,-5.23444315,360
1747533722710,1.2555524500000002,-3.009714,2.28242335,-4.0461407000000005,-5.0283146,-5.309810649999999,361
1747533722720,1.20222595,-3.03375365,2.3929814,-4.0045953,-4.85014915,-5.363074,362
1747533722730,1.03480272,-3.03472985,2.4958514000000003,-3.91644465,-5.01393335,-5.3617425,363
1747533722740,0.8302827500000001,-2.97164105,2.5501542,-3.8384141,-5.3156695,-5.295163499999999,364
1747533722750,0.70569153,-2.89415285,2.58517645,-3.82216885,-5.341768500000001,-5.20275165,365
1747533722760,0.64553143,-2.8121496500000003,2.59652505,-3.8288268,-4.9718555,-5.13883565,366
1747533722770,0.6286914800000001,-2.7034221,2.6860942000000003,-3.7414751,-3.8892805,-5.244562999999999,367
1747533722780,0.6240544,-2.6389909,2.774443,-3.6469328,-3.110572,-5.366802,368
1747533722790,0.5025139,-2.6394792,2.9572418,-3.3518546,-2.9901974,-5.503156,369
1747533722800,0.0855420625,-2.47486255,3.0559628,-2.7795412500000003,-3.29459665,-5.49516665,370
1747533722810,-0.2424708675,-2.3128085,3.02203885,-2.38858925,-3.4919369,-5.294897150000001,371
1747533722820,-0.40611124,-2.2199447,2.9789627,-1.9504992,-3.3795514,-4.6759785,372
1747533722830,-0.56072151,-1.88216945,2.72856,-1.6218650499999998,-3.07568475,-3.9840891,373
1747533722840,-0.45931572,-1.8938842,2.7222145,-1.5398397,-2.9411952,-3.7651772,374
1747533722850,0.03673061,-1.92927255,2.79042855,-1.27139315,-2.6687538,-3.47675685,375
1747533722860,0.268585005,-2.0493487000000004,2.9497978500000004,-1.1494204,-2.656237,-3.4471958,376
1747533722870,0.0690682099999999,-2.17113325,3.0067853,-0.4202468361499999,-3.71404435,-4.06638075,377
1747533722880,-0.19085276,-2.1682045,2.945283,-0.0053263223,-4.432565,-4.4091296,378
1747533722890,-0.9076489,-2.1254945,2.7139168,0.15286545,-5.0099387,-4.376639,379
1747533722900,-1.7070584,-2.13818565,2.4488704,0.0812264155,-4.9718555,-3.83654995,380
1747533722910,-2.0237227,-2.2017624500000004,2.4171430000000003,-0.3038666795,-4.677842500000001,-3.14705755,381
1747533722920,-2.0991365,-2.315249,2.58786105,-0.6199839,-4.483698,-2.6775422,382
1747533722930,-2.02787175,-2.3944455500000004,2.9563875,-0.98030965,-4.40406965,-2.1928469,383
1747533722940,-1.9917512,-2.4122617,3.1900723,-1.0258497,-4.4517403,-2.1097562,384
1747533722950,-2.2034708,-2.06838515,3.6507304,-0.78057252,-4.71885515,-2.283128,385
1747533722960,-2.7007376,-1.89791115,3.78886675,-0.60267337,-4.93776705,-2.54198735,386
1747533722970,-3.2459615,-2.0597211,3.82303475,-0.83569995,-4.70154455,-2.8455878,387
1747533722980,-3.401914,-2.2772982,3.8390205,-1.1408982,-4.3798347,-2.9971216,388
1747533722990,-3.8268178,-2.9284427,4.063797,-1.8551581,-3.652259,-3.1643682,389
1747533723000,-4.468688,-3.337239,4.4462347,-2.5193505,-2.4074976,-3.1425302,390
1747533723010,-5.50825,-3.546396,5.5925717,-2.4913872,0.8040083149999999,-1.90975285,391
1747533723020,-5.99746275,-3.62595845,6.407479049999999,-1.47752175,2.72601175,-0.4048005,392
1747533723030,-5.9203405,-3.53919605,6.65544135,-0.20559605,3.13533965,1.06073705,393
1747533723040,-5.773662,-3.4626842,6.700348,0.4788364,3.2240229,1.8636801,394
1747533723050,-3.5111295,-3.1623719,6.118393299999999,2.92947725,3.5241611,4.115649250000001,395
1747533723060,-1.61480465,-3.00556505,5.3670630500000005,4.4048686,3.98488795,4.8378985,396
1747533723070,-1.1133891,-2.9569976,5.0195255,4.7452207,4.1646514,4.8229847,397
1747533723080,-0.564016267,-2.81202755,4.18863245,4.65334155,4.5100634,4.2634545500000005,398
1747533723090,-0.014643434,-2.6670575,3.3577394,4.5614624,4.8554754,3.7039244,399
1747533723100,0.088104665,-2.4051843,2.630937,3.7774277,5.393434,3.134008,400
1747533723110,-0.005857374,-2.2594821,2.3212285,2.32866805,6.8065074,2.5188179,401
1747533723120,-0.72289755,-2.3058529,2.70220185,1.2743226,8.4462154,2.479403,402
1747533723130,-0.8617661,-2.3200083,2.835213,0.6791061,9.505887,2.5885925,403
1747533723140,-1.0516427,-2.4283698,3.1232007,0.5091964,10.19032,3.05145,404
1747533723150,-1.0904478,-2.5357547,3.3228395,0.62317973,10.496583,3.6618466,405
1747533723160,-0.624908595,-2.84912415,3.47464285,1.6977652499999998,9.0685965,5.4477625,406
1747533723170,-0.333504235,-2.9889691000000003,3.43144485,2.3505061,7.96791215,6.1558969,407
1747533723180,-0.045516675,-3.13003435,3.3055113,2.8948562,6.9279473,6.6855998,408
1747533723190,0.245277535,-3.2547475,3.0984287000000004,3.139867,6.4166203,6.9210234,409
1747533723200,0.3939084,-3.3008742,2.9750578,3.4637074,5.8024955,7.215569,410
1747533723210,0.97561882,-3.1782355,2.4482603,3.3646378500000003,6.33805715,7.2033182,411
1747533723220,1.2642165,-3.0512037,2.1928544,3.1696944,6.9439263,7.099455,412
1747533723230,1.55549885,-2.8382637,2.11133915,2.5566346,7.61770615,6.6973176500000005,413
1747533723240,1.57319305,-2.6369165,2.22006675,2.1379857,7.5463335,6.239520300000001,414
1747533723250,1.5273103,-2.506712,2.3195202,1.9142802,7.357249,5.9361863,415
1747533723260,1.5273103,-2.506712,2.3195202,1.9142802,7.357249,5.9361863,416
1747533723270,1.1502419,-2.3431935,2.6377707,2.193912,6.35377,5.8040934,417
1747533723280,0.950847025,-2.2233616,2.6702304,2.6170884,5.70449125,6.055762,418
1747533723290,0.93888825,-2.2116468,2.660224,2.7505128,5.465872,6.1535,419
1747533723300,1.35463975,-2.38749,2.5529609000000004,3.1068437,4.795288,6.2866583,420
1747533723310,1.6614197,-2.45350745,2.5412462,3.2445292500000003,4.67011955,6.104498,421
1747533723320,1.8453168,-2.4808419,2.5421004,3.2927325,4.6498795,5.965481,422
1747533723330,2.21445335,-2.37223645,2.4560701,3.3811493,4.618454,5.48771,423
1747533723340,2.2951143,-2.2963347,2.3932252,3.4706316,4.640292,4.8442903,424
1747533723350,2.32855,-2.1169527,2.0998685,3.4013894,4.7105994,4.125769,425
1747533723360,2.2072537,-1.8750918,1.8187146,3.1451933,4.851747,3.430684,426
1747533723370,1.7569683,-1.4784988,1.4816716,2.6136262,5.972405,2.5166874,427
1747533723380,1.5631866,-1.4172405,1.3698933,2.38992085,6.58679635,2.24078375,428
1747533723390,1.2881342,-1.3503687,0.93986446,2.3355923,6.7143617,2.209891,429
1747533723400,1.6046765,-1.32254615,0.50544256,2.1092236,6.475743,2.3845944,430
1747533723410,1.7520871,-1.3027775,0.39244407,2.0698087,5.9633503,2.2929816,431
1747533723420,2.2317816,-1.2756872499999998,-0.04527262,2.2213427,5.022722,1.9430424,432
1747533723430,2.3683317,-1.2473766,-0.22819352,2.2887206,4.710067,1.7976338,433
1747533723440,2.5496662,-0.9017916,-1.3857571,2.363289,3.7811563,1.412008,434
1747533723450,2.4984142,-0.807097315,-2.2006643,1.77579585,2.9835395,1.3592774,435
1747533723460,2.497438,-0.8073414,-2.411774,1.5052186,2.6535738,1.3885722,436
1747533723470,2.7151369,-0.6893397,-2.66644745,0.5550028,1.9451729,1.4876418,437
1747533723480,2.80495,-0.6245425,-2.728072,0.2972088,1.8354506,1.5036207,438
1747533723490,3.3123448,-0.27187978,-2.73954275,-0.492418495,1.28151315,1.521464,439
1747533723500,3.594353,-0.17242645,-2.6889008,-0.63835972,0.82158525,1.4575481,440
1747533723510,3.82767185,-0.116171255,-2.591766,-0.6950850500000001,0.14434334,1.3275858500000002,441
1747533723520,3.913458,-0.09322987,-2.540392,-0.7025419,-0.23009712,1.2500879,442
1747533723530,4.0866165,-0.158759235,-2.52794495,-0.72011876,-0.9832391,1.0476876,443
1747533723540,4.0867386,-0.16864355,-2.5757802,-1.0503508,-2.4511735,0.4111921,444
1747533723550,4.0722173,-0.144970005,-2.6964665,-1.7305221,-2.9630331,-0.1786981165,445
1747533723560,4.066116,-0.18340901,-2.5566217,-2.2626217,-3.20058705,-0.68789455,446
1747533723570,4.057696,-0.21184167,-2.4356914,-2.9321404500000003,-3.53800955,-1.59283665,447
1747533723580,3.74237385,-0.4139211,-1.3717238,-3.4362769,-3.9191079,-2.52254615,448
1747533723590,3.649144,-0.48713827,-1.1360865,-3.5350802,-4.070908,-2.8304076,449
1747533723600,3.295261,-0.71655208,-0.52691959,-3.6413402,-4.61765515,-3.60751815,450
1747533723610,3.1732323,-0.7907455,-0.34045988,-3.6650424,-4.8149953,-3.8376153,451
1747533723620,2.7397866,-1.20515468,0.3304535,-3.7156423,-5.3433665,-4.61525825,452
1747533723630,2.4377658,-1.52523575,0.737663,-3.81737515,-5.56680565,-5.0115366,453
1747533723640,2.3169574,-1.72035955,0.97732725,-3.94973425,-5.71008365,-5.19529485,454
1747533723650,2.2666816,-1.9369604,1.2423734,-4.069043799999999,-5.758286999999999,-5.3921025,455
1747533723660,2.2498418,-2.17271975,1.5414655,-4.1326935,-5.711149,-5.6307215,456
1747533723670,2.1821159,-2.51220335,1.92048645,-4.0506682,-5.6770605,-6.064284000000001,457
1747533723680,2.1203694,-2.7227027,2.1396499,-3.955327,-5.683186,-6.364955,458
1747533723690,1.87777655,-2.954679,2.28632835,-3.69566865,-5.922071450000001,-6.72714485,459
1747533723700,1.6843611,-3.09208335,2.35356605,-3.5811528,-6.09677475,-6.80863785,460
1747533723710,1.5927176,-3.1512673,2.3824868,-3.5334823,-6.181197,-6.823019,461
1747533723720,1.4479916,-3.287939,2.4317863,-3.4930022,-6.3053,-6.754842,462
1747533723730,1.2293164,-3.4458442,2.561625,-3.4376085,-6.450709,-6.5135593,463
1747533723740,1.1694002499999998,-3.40752745,2.61739205,-3.3904704,-6.4589647,-6.32474165,464
1747533723750,1.1877046,-3.3754338,2.6227612,-3.36437145,-6.4102287,-6.2650867,465
1747533723760,1.21699145,-3.34309615,2.60201625,-3.3390714,-6.1167483,-6.3031697,466
1747533723770,1.19343995,-3.3667695,2.6685220000000003,-3.2975261,-5.96814395,-6.3796025,467
1747533723780,1.1558552,-3.407771,2.7471085,-3.273025,-6.0618873,-6.408631,468
1747533723790,0.9872115,-3.4856255,2.9587061,-3.1260185,-6.6856,-6.372412,469
1747533723800,0.59537767,-3.56274785,3.0163035,-3.07781525,-7.8669785,-6.1156833,470
1747533723810,0.2084249045,-3.3576176,2.9897012,-3.30951035,-7.9647165,-5.534581299999999,471
1747533723820,0.0080538895,-3.08683595,2.9909215,-3.557717,-7.365504850000001,-4.8743835,472
1747533723830,0.02757847,-3.0048327,3.0041006,-3.6224318,-6.9620357,-4.671717,473
1747533723840,0.1683995,-2.9137995,3.0975745,-3.645335,-6.118879,-4.406999,474
1747533723850,0.41062632,-2.6674236,3.0502274,-3.47675685,-4.3105925,-4.44348435,475
1747533723860,0.378288735,-2.5438086,3.0754874,-3.14679125,-3.7457361,-4.645618499999999,476
1747533723870,0.30360723,-2.4952412,3.1217363,-2.8959215,-3.6922066,-4.788364,477
1747533723880,0.005857374,-2.456192,3.1605413,-2.5811357,-4.0266995,-4.7963533,478
1747533723890,-0.36681804,-2.3661351,3.184215,-2.2791333,-4.3377566,-4.6781087,479
1747533723900,-0.69287854,-2.3212285,3.265974,-1.9504992,-4.5279064,-4.38889,480
1747533723910,-0.9637821,-2.354176,3.3440723,-1.5478293,-4.5630603,-3.9515984,481
1747533723920,-1.032606235,-2.26521735,3.1563923000000003,-0.536094335,-3.66637395,-2.6583675,482
1747533723930,-0.96329397,-2.272173,3.1105096,-0.35792887,-3.5952675,-2.5262747,483
1747533723940,-0.93888825,-2.23068325,3.0235033,-0.21278658,-3.648797,-2.53026935,484
1747533723950,-1.2950897,-2.1462394,2.60165035,0.190416025,-3.88395415,-2.86076775,485
1747533723960,-2.30585285,-2.17930915,2.3557626000000003,0.21917817,-4.6397593,-2.67354755,486
1747533723970,-3.31771425,-2.09425515,2.17784485,-0.015446335,-5.71035,-1.94357505,487
1747533723980,-3.61363355,-1.7684388,2.22214125,-0.44181844,-6.43899105,-1.09509182,488
1747533723990,-3.6855083,-1.5526923,2.2672918,-0.69348717,-6.7196884,-0.67218184,489
1747533724000,-2.99092165,-1.90755145,3.27341795,-1.5233282,-6.5609636,-0.043675844,490
1747533724010,-2.5677264,-2.3902967,3.9825263,-2.9699574,-5.1143346,-0.53316486,491
1747533724020,-2.88817345,-3.0757314,5.1604683,-3.70206035,-2.72681065,-1.18830255,492
1747533724030,-3.4268076,-3.4066731,6.03065445,-3.76437825,-0.776844105,-1.35368485,493
1747533724040,-3.7533562,-3.5417588,6.4950953,-3.690076,0.20985709,-1.3619406,494
1747533724050,-4.3717976,-3.6320598,7.3402658,-2.9507825,1.6889768,-0.9012137,495
1747533724060,-4.541783349999999,-3.51247185,7.9851868,1.330515345,3.2706282,2.4274714,496
1747533724070,-3.6714751,-3.51601075,7.623006,2.481001,3.299124,3.3374736,497
1747533724080,-2.48316045,-3.49331335,6.791259200000001,4.0746365,3.5329497,4.3729105,498
1747533724090,-1.8911997,-3.4743989,6.3098564,5.205415,4.1561294,4.887966,499
1747533724100,-0.86274236,-3.4175334,5.1937823,5.709285,4.8496165,4.919924,500
1747533724110,0.227827453,-3.16029745,3.34309625,4.76838995,5.3697317,3.8354846,501
1747533724120,0.54668826,-2.9535809,2.5384395,3.9755669,5.5606804,3.1388018,502
1747533724130,0.1625421245,-2.6223952,2.3308687,2.8815403,6.110357,2.485262,503
1747533724140,-0.4045248905,-2.5424664,2.61543955,1.382713235,7.8936095,2.19391215,504
1747533724150,-0.8983747499999999,-2.55308295,2.9415001,0.771784085,9.0630035,2.52201355,505
1747533724160,-1.03272825,-2.6040908,3.0710944,0.7281082,9.325325,2.7606328,506
1747533724170,-1.00368545,-2.7018356,3.1322307,0.818389425,9.6496975,3.6424055,507
1747533724180,-0.86933195,-2.8029974500000003,3.14748435,0.957672725,9.6848515,4.19527785,508
1747533724190,-0.7878168,-2.8383858,3.1444337,1.0439591,9.677395,4.460795,509
1747533724200,-0.36315718,-2.8554697,3.0387568,1.397627,9.252887,5.494634,510
1747533724210,0.056865335,-2.94211005,2.95663155,1.62399565,8.2366247,6.1606908,511
1747533724220,0.32545033,-2.9489437,2.8620594,1.7765948,7.4959997,6.5199511,512
1747533724230,0.45174995,-2.932836,2.800557,1.8572886,7.119695,6.6973176,513
1747533724240,0.8710403,-2.8210578,2.6621764,1.8956381,6.3788037,6.967895,514
1747533724250,1.0823939,-2.766633,2.6626647,1.97526655,6.31062675,6.89199465,515
1747533724260,1.24176325,-2.707083,2.6937817,2.05010145,6.3215455,6.7857345,516
1747533724270,1.2420073,-2.6997613,2.7185535,2.1779332,6.249373800000001,6.6933228,517
1747533724280,1.2197981,-2.6995173,2.7068388,2.2540996,6.1977086,6.6552396,518
1747533724290,0.9452337,-2.5567439,2.553083,2.5454495,5.838182,6.8746843,519
1747533724300,1.014301875,-2.64484845,2.5962809,2.83253815,5.095426,7.24379835,520
1747533724310,1.1848979000000002,-2.7851813,2.67962645,3.0868701,4.5785065,7.347928149999999,521
1747533724320,1.3929567,-2.87780105,2.67437925,3.41443885,4.122307,7.33301415,522
1747533724330,1.66800925,-2.8155665,2.4670527,3.76357925,3.5843486,6.9753515,523
1747533724340,1.8348224,-2.7227027,2.3048768,3.9457395,3.2613072,6.654707,524
1747533724350,1.89595885,-2.5355107500000003,1.98430755,4.04054815,3.67170025,5.8522965,525
1747533724360,1.81395555,-2.3757752,1.7141362,3.9350869,4.1191113,5.329251749999999,526
1747533724370,1.7513548,-2.2953584,1.5722169,3.8440068,4.3659863,5.0887685,527
1747533724380,1.4719093,-1.965393,1.2185779,2.9348035,5.1883707,4.3963466,528
1747533724390,1.3657444,-1.8809491,1.2334653,2.4535704000000003,5.6056879,4.218713599999999,529
1747533724400,1.3207158,-1.7392739000000002,1.36379185,2.28685645,5.7124807,4.1872881,530
1747533724410,1.4415241,-1.6767953000000002,1.453727,2.2865901,5.7654775,4.15106925,531
1747533724420,1.9076734,-1.6931471500000002,1.34341315,2.74199065,5.9170115,3.8421426,532
1747533724430,2.2658274,-1.7245085,1.197833,3.1531827,6.030995,3.5675707,533
1747533724440,2.5291653,-1.6476305,0.75291663,3.512177,5.5894427,3.086071,534
1747533724450,2.5555234,-1.5142532,-0.23819987,3.5800875000000003,4.419516,2.3600934,535
1747533724460,2.5081763,-1.46654,-0.65212095,3.4754252,4.171043,2.191249,536
1747533724470,2.3466103,-1.201982,-1.3630598,2.9417279,3.953729,2.0756679,537
1747533724480,2.5181828,-0.82393724,-2.0752187,1.2181299,3.933489,1.9760655,538
1747533724490,2.8813398,-0.8261338,-1.8511744,0.6801714,4.1742387,1.8077538,539
1747533724500,3.35920385,-0.704837325,-1.58014865,0.5645901499999999,3.6272255,1.29402995,540
1747533724510,3.4568267,-0.64089435,-1.5490314,0.6221144,3.3119073,1.1084076,541
1747533724520,3.513204,-0.4846977,-1.7645339,0.829841,2.4362597,0.83729786,542
1747533724530,3.4551187,-0.30751213,-2.4266613,0.74781567,0.36432046,0.4825648,543
1747533724540,3.43168885,-0.385366395,-2.64606855,0.433296335,-0.36059203,0.290284575,544
1747533724550,3.33003915,-0.3662079,-2.78859805,0.1065264475,-0.7992147000000001,0.23782029,545
1747533724560,3.3218632,-0.187069873,-2.916484,-0.2844256175,-1.18670465,0.30173615,546
1747533724570,3.3928838,-0.042954076,-2.9857962,-0.49161956,-1.3630059,0.35952675,547
1747533724580,3.6132674,0.04490653,-2.8615713,-1.4242586,-2.0325246,0.19920446,548
1747533724590,3.8090014,0.12666571,-2.655587,-1.7747306,-2.2306638,-0.12516858,549
1747533724600,3.948114,0.17303659,-2.3588133,-2.072472,-2.6557043,-0.7105314,550
1747533724610,3.820228,0.0621125699999999,-1.88143735,-2.11614785,-2.84398975,-1.0149307,551
1747533724620,3.5620155,-0.09017915,-1.3225463,-2.16195425,-3.89407415,-2.8756814,552
1747533724630,3.2959932,-0.227705415,-1.1233955999999998,-2.25303435,-4.1041975,-3.4208305,553
1747533724640,3.1602974,-0.32386398,-1.00576,-2.3089607,-4.1827607,-3.687413,554
1747533724650,2.890126,-0.541319,-0.7787867,-2.4298682,-4.2418833,-4.201936,555
1747533724660,2.26289885,-0.849929375,-0.34997809,-2.7497139,-4.30926115,-4.9177932,556
1747533724670,1.88619645,-1.090813825,0.03990336,-2.9379995,-4.349475,-5.2016864,557
1747533724680,1.75831045,-1.2759312,0.3564456,-3.0194921,-4.4006076,-5.375857,558
1747533724690,1.7162106,-1.3620834,0.5039782,-3.0173616,-4.4416203,-5.5590825,559
1747533724700,1.63554965,-1.6119982,0.8440719999999999,-2.89432355,-4.43656015,-5.85176385,560
1747533724710,1.5523261000000002,-1.8416561,1.06628615,-2.841593,-4.4416203,-5.9484367,561
1747533724720,1.4933863,-1.9844296,1.19344,-2.7190876,-4.5545382,-6.2823973,562
1747533724730,1.470933,-2.161371,1.3306,-2.67914,-4.6104646,-6.4400563,563
1747533724740,1.437009,-2.3512475,1.4975352,-2.641856,-4.716991,-6.582269,564
1747533724750,1.4227317,-2.43825385,1.59796475,-2.59951165,-4.843757500000001,-6.65603865,565
1747533724760,1.24493605,-2.87023535,2.0844929,-2.2381207,-5.20035485,-7.1141025,566
1747533724770,1.0620151,-2.91538585,2.0852251,-2.1353227,-5.14336325,-7.181480499999999,567
1747533724780,0.851881825,-2.90025425,2.04324735,-2.0860542,-5.03736925,-7.1284835,568
1747533724790,0.74413055,-2.873286,2.0222585,-2.0730047,-4.981709,-7.069095,569
1747533724800,0.5469323100000001,-2.77383255,1.98064655,-2.057292,-5.053880899999999,-6.486928,570
1747533724810,0.58732378,-2.7677312,2.02323455,-2.04157925,-5.4022223,-5.9742695,571
1747533724820,0.7183824999999999,-2.8585205,2.1379415,-2.03651925,-5.8648135,-5.72766075,572
1747533724830,0.8114903250000001,-2.9596822,2.29023325,-2.0335898,-6.085856,-5.6533585,573
1747533724840,0.83125895,-2.9987314,2.3680875,-2.0080235,-6.4624267,-5.6086173,574
1747533724850,0.758774,-3.0499835,2.4413047,-2.0080235,-6.4624267,-5.6086173,575
1747533724860,0.46041398,-2.92588035,2.37894795,-2.2085596,-5.2685315,-5.6166068,576
1747533724870,0.329599305,-2.8126377,2.4425249,-2.2945797,-4.486361,-5.606487,577
1747533724880,0.27310005,-2.763216,2.4754727,-2.257828,-4.048005,-5.526592,578
1747533724890,0.14911897,-2.6675458,2.5543032,-2.0953753,-3.7997983,-5.3955646,579
1747533724900,-0.0085420049999999,-2.54429685,2.61214465,-1.60402195,-4.0293628,-5.16413575,580
1747533724910,-0.3392395625,-2.4090892,2.46546625,-1.2080099,-4.62750885,-5.1074104,581
1747533724920,-0.6238103,-2.297555,2.3202522,-1.0343718000000002,-4.70580575,-5.07225665,582
1747533724930,-1.0609169,-2.0923028,2.1242743,-1.0482203,-4.42138,-5.026983,583
1747533724940,-1.5226732,-2.0132282,2.0642362,-1.0812434,-3.5494611,-4.743623,584
1747533724950,-2.0134723,-1.9453802,2.0964518,-0.99762017,-2.700978,-4.15826,585
1747533724960,-2.2277546,-1.8511744,2.182848,-0.7765778,-2.2929816,-3.2884715,586
1747533724970,-1.5863721,-1.83470035,2.4173869000000003,0.3789678429999999,-3.9302932,-1.18697093,587
1747533724980,-1.1817251999999998,-1.871553,2.3292823,0.7036072,-4.5161886,-0.88896316,588
1747533724990,-1.0272369,-1.8775325,2.2450826,1.1195929,-5.3380404,-0.80533993,589
1747533725000,-1.19551445,-1.6138285,1.44835775,0.83010734,-5.44483305,-1.190965685,590
1747533725010,-1.60101555,-1.440914,1.0483479,0.122771725,-4.67651105,-1.3616743,591
1747533725020,-1.7506226,-1.4565337,1.0352908,-0.19228023,-4.2658515,-1.3257216,592
1747533725030,-1.8550792,-1.5790504,1.3357253,-0.6716492,-3.812049,-1.1025487,593
1747533725040,-1.78601095,-1.6138285,2.2720510000000003,-0.70520507,-4.536695,-0.40400156,594
1747533725050,-1.74037225,-1.5531803000000002,2.519647,-0.5254416900000001,-4.996889,-0.167512835,595
1747533725060,-1.675087,-1.40381725,2.7565045,-0.43462789,-5.369998,-0.0833569449999999,596
1747533725070,-1.6315227,-1.32266825,2.99848735,-0.39974047,-5.5521585,-0.139017015,597
1747533725080,-1.6232247,-1.3132721,3.1134384,-0.3920173,-5.544169,-0.19973709,598
1747533725090,-1.7530633,-1.3947871,3.3191783,-0.4394216,-4.9289784,-0.3850931,599
1747533725100,-2.0150586,-1.5927175999999998,3.47805975,-1.17258985,-2.86662665,-1.01599598,600
1747533725110,-2.1499002,-1.679846,3.5368774,-1.3848438,-2.4080303,-1.1536814,601
1747533725120,-2.71660125,-1.960878,4.0526925,-1.7864485,-0.8317052149999999,-1.34729325,602
1747533725130,-2.9057455,-2.0449557,4.272954,-1.8338528,-0.32277513,-1.3608754,603
1747533725140,-3.5830047,-2.1474595,5.168156,-0.9219864,0.47351006,-0.763262,604
1747533725150,-3.7431061,-2.1835802,5.428077,-0.14168017,0.55287224,-0.29987195,605
1747533725160,-3.7725149,-2.2353202,5.3380203,1.0868361,1.25967525,0.46978162,606
1747533725170,-3.7379808,-2.234832,5.221117,1.4695324,1.6335831,0.73822826,607
1747533725180,-3.1363797,-2.2753458,4.5275064,2.4266725,3.4631748,1.6213325,608
1747533725190,-2.55113035,-2.2648513,4.0688003,2.8080370500000003,4.531901250000001,2.0804614,609
1747533725200,-2.16539785,-2.23190355,3.7782502,2.88739935,4.79981535,2.2445121500000003,610
1747533725210,-1.8997416,-2.25374665,3.5634799,2.8940573,4.9883671,2.3017702,611
1747533725220,-1.7753944499999998,-2.3441699,3.3351642000000004,2.8200214,5.5513594,2.4610273,612
1747533725230,-1.7215798,-2.43886415,3.12100395,2.6658243,6.2720108,2.7324034,613
1747533725240,-1.7018112,-2.4781573,3.0551085,2.5901904,6.5657573,2.8682246,614
1747533725250,-1.55598695,-2.66791175,3.01825595,2.32041225,7.30425225,3.3638389,615
1747533725260,-1.4992436,-2.7378342,3.0148392,2.1595573,7.757256,3.72096885,616
1747533725270,-1.25396615,-3.03863485,3.1133163,2.01121925,8.408665,4.35373595,617
1747533725280,-1.05981865,-3.23912775,3.1693274,1.9169434,8.941297,5.03523875,618
1747533725290,-0.90984542,-3.3177142,3.17530675,1.8900455,9.0579435,5.512210850000001,619
1747533725300,-0.81539524,-3.3487096,3.172012,1.8796592,9.071792,5.7529607,620
1747533725310,-0.5747548,-3.39386,3.175673,1.8860507,8.942895,6.21422,621
1747533725320,-0.2818861,-3.444624,3.1690834,1.9275961,8.62012,6.6073027,622
1747533725330,0.34558508,-3.3860505,2.9682243,2.1486385,8.186558,7.113836,623
1747533725340,0.59964865,-3.3399231,2.793235,2.194445,7.968711,7.227287,624
1747533725350,0.7883049,-3.2789092,2.6236155,2.1923141,7.8355527,7.278952,625
1747533725360,0.94157284,-3.2208235,2.4964616,2.1411815,7.6246305,7.3066487,626
1747533725370,1.1246158,-3.1812863,2.4176311,2.0367856,6.793724,7.2331457,627
1747533725380,1.11204685,-3.0725588000000004,2.3946898,2.09510885,6.25283625,7.1873395,628
1747533725390,1.1188804499999998,-3.04241765,2.4051843,2.1289309000000003,5.862683,7.18414365,629
1747533725400,1.1881927,-3.06963005,2.45216525,2.19417845,5.4538875,7.1351414,630
1747533725410,1.28471735,-2.9917758,2.42031575,2.30097125,5.124721,7.0062444500000005,631
1747533725420,1.3323085,-2.8974476,2.3666232,2.3574302,4.989699,6.9210234,632
1747533725430,1.3162007,-2.7146487,2.2270224,2.572081,4.5279064,6.4720144,633
1747533725440,1.3132721,-2.5338023,2.0569143,2.606702,4.531635,6.2371235,634
1747533725450,1.3662325000000002,-2.285108,1.7746623,2.5097631,4.78090695,5.691175149999999,635
1747533725460,1.4084544,-2.1835802,1.6444578,2.3435818,4.9103365,5.2546832,636
1747533725470,1.6476305,-1.9918732,1.43737515,2.1505026,4.88849855,4.8738512,637
1747533725480,1.7027875,-1.939767,1.3825843,2.0399814,4.8682585,4.657336,638
1747533725490,1.7291456,-1.8553232,1.3335288,1.9020296,4.9188585,4.186489,639
1747533725500,1.7411044,-1.8016307,1.2071072,1.69350415,5.0887682000000005,3.33720715,640
1747533725510,1.5714846,-1.7760046,1.087519,1.6021577,5.1260524,3.0003173,641
1747533725520,0.89630029,-1.5846637,0.699101975,1.28071415,6.06028925,2.8402614,642
1747533725530,0.86103404,-1.5282865,0.6133158,1.2085425,6.2499065,2.964631,643
1747533725540,1.0313859,-1.5329236,0.52789587,1.1297129,6.1918497,3.2463934,644
1747533725550,1.2888663,-1.5119346,0.42099872,1.1896341,5.1817127,3.7755636,645
1747533725560,2.17137745,-1.2514035,-0.040513515,1.3038837,4.13162825,4.14920495,646
1747533725570,3.0363164,-1.08690895,-0.43820482,1.505485,3.12601855,4.26744935,647
1747533725580,3.358716,-1.0670183,-0.5876899,1.6229304,2.737197,4.2008705,648
1747533725590,3.56128335,-1.0495682,-0.790013325,1.6516925,1.9419771,3.9127164,649
1747533725600,4.1239572,-0.859325585,-1.5478111,1.34249955,1.03969815,3.38567675,650
1747533725610,4.2104754,-0.78757274,-1.7047399,1.196292,0.8426242,3.2059133,651
1747533725620,4.3461714,-0.35607952,-1.9290285,0.5885586,0.17576863,2.7142937,652
1747533725630,4.4481874,-0.25479576,-1.8314055,0.42557314,-0.2444782,2.505502,653
1747533725640,4.51091,-0.24625377,-1.7857668,0.396544695,-0.48682587,2.37713765,654
1747533725650,4.5658232,-0.18109048,-1.89412825,0.23089607,-1.8439727,1.7201358,655
1747533725660,4.565334699999999,-0.098599125,-2.03080025,-0.22317291,-2.74252325,1.0378339,656
1747533725670,4.5602095,-0.04783522,-1.97771785,-0.77444727,-3.34626195,0.2761698035,657
1747533725680,4.565335,-0.04759116,-1.8789967,-0.96566224,-3.4940674,-0.036218993,658
1747533725690,4.51091,-0.08102701,-1.5717287,-1.2841763,-3.7348173,-0.7840346,659
1747533725700,4.2352474,-0.2169668899999999,-1.03211805,-1.5488945,-3.9409459,-2.0141488,660
1747533725710,3.7616544,-0.376580345,-0.6426027,-1.6413062,-4.0884849,-3.1401333,661
1747533725720,3.20618,-0.5547421349999999,-0.3169083299999999,-1.68657995,-4.363323299999999,-4.13988385,662
1747533725730,3.0084937,-0.6228341,-0.22453266,-1.6985642,-4.538027,-4.434163,663
1747533725740,2.6053112,-0.78513217,-0.051740136,-1.75236,-4.815528,-4.770787,664
1747533725750,2.2829115,-0.96036524,0.08932495,-1.850897,-4.996623,-5.0104713,665
1747533725760,1.8433643,-1.2931373000000002,0.372309345,-2.1702101,-5.11513375,-5.2235242,666
1747533725770,1.71193955,-1.5540345,0.6306439500000001,-2.4234767,-5.1561463,-5.3777212,667
1747533725780,1.7320743,-1.6400647,0.7297312,-2.4980452,-5.1750546,-5.4578824,668
1747533725790,1.7655101,-1.854835,0.9303462,-2.6093652,-5.195295,-5.729525,669
1747533725800,1.7415925,-2.0903504,1.1343781,-2.6610305,-5.179848,-6.0730724,670
1747533725810,1.4285891,-2.44520965,1.41309145,-2.6178875,-5.148423,-6.4965153,671
1747533725820,1.10826395,-2.62190715,1.54170955,-2.4732777500000003,-5.1276505,-6.9857377,672
1747533725830,0.9896521,-2.6570513,1.5846636,-2.438923,-5.1553473,-7.014766,673
1747533725840,0.7934301,-2.6709623,1.6315227,-2.3643544,-5.311941,-6.9380674,674
1747533725850,0.55449809,-2.7479627,1.7254847,-2.2700785000000003,-5.8682755,-6.50130915,675
1747533725860,0.47542354,-2.800313,1.7811297,-2.240251,-6.198241,-6.2339277,676
1747533725870,0.4744472899999999,-2.8932988,1.84873365,-2.29085115,-6.6853332,-5.87360185,677
1747533725880,0.47639978,-2.927955,1.8643533,-2.3148196,-6.755907,-5.765211,678
1747533725890,0.45907167,-2.8701131,1.7206036,-2.4823325,-6.29810975,-5.702627,679
1747533725900,0.5176454,-2.8195934,1.69693,-2.8506477,-5.3225937,-5.6432385,680
1747533725910,0.5176454,-2.8195934,1.69693,-2.8506477,-5.3225937,-5.6432385,681
1747533725920,0.7695125,-2.72880415,2.1175628,-3.0210899,-5.5617457,-5.7670753,682
1747533725930,0.8175918,-2.7517455,2.2809591,-2.9822078,-5.8925104,-5.8136806,683
1747533725940,0.5293602,-2.8632796,2.7297804,-2.561961,-7.536746,-5.9937105,684
1747533725950,-0.09542639,-2.7589451,2.81739695,-2.3552997,-7.8680434,-5.7763963,685
1747533725960,-0.302631,-2.694392,2.830088,-2.2413163,-7.6432724,-5.355617,686
1747533725970,-0.45370242,-2.5477135,2.6863382,-2.2413163,-6.728743,-4.916728,687
1747533725980,-0.1964660775,-2.382853,2.5186708,-2.3616912,-4.70287625,-4.30260305,688
1747533725990,-0.060770255,-2.396154,2.4964616,-2.4304008,-3.935087,-4.0687776,689
1747533726000,0.282130175,-2.43923015,2.6610782000000004,-2.3518376,-3.93934795,-4.074370249999999,690
1747533726010,0.37291947,-2.43862,2.7341733,-2.2855248,-4.1081924,-4.1209755,691
1747533726020,0.1465563775,-2.3851714,2.95650945,-1.7528927,-5.1393685,-4.44774565,692
1747533726030,-0.114462845,-2.3754091,3.0475428,-1.4221281,-5.691708,-4.588627,693
1747533726040,-0.47225076,-2.293894,3.0033686,-1.1712583,-6.0943779,-4.425375,694
1747533726050,-0.86469485,-2.3575931,2.92722265,-1.099353,-6.06934415,-4.251737,695
1747533726060,-0.971836,-2.411774,2.881584,-1.0860372,-5.9782643,-4.162521,696
1747533726070,-1.1739154,-2.4691272,2.681457,-1.1792477,-5.2943645,-3.9851544,697
1747533726080,-1.4296874,-2.6187344,2.4864552,-1.6261262,-3.9169774,-3.4647727,698
1747533726090,-1.56635935,-2.8178849,2.8502226,-1.67566095,-4.25386735,-3.09086475,699
1747533726100,-1.77478425,-2.86291345,3.15224335,-1.48897335,-5.1300472500000005,-2.8533108,700
1747533726110,-2.27656605,-2.7168452,3.4725685,-1.163801385,-6.08505675,-2.59019055,701
1747533726120,-2.75296585,-2.494021,3.65378105,-0.788562035,-6.7412598,-2.17819955,702
1747533726130,-2.8803637,-2.408113,3.6767225,-0.5928197,-7.0206256,-1.9057581,703
1747533726140,-3.0653589,-2.2755897,3.704301,-0.6697850350000001,-6.21528525,-1.62719145,704
1747533726150,-3.2924544,-2.2954804,3.61644015,-0.925448485,-5.1337756500000005,-1.5009576,705
1747533726160,-3.4394988,-2.46754075,3.6003325,-1.107875,-4.5023403,-1.4498249,706
1747533726170,-3.65134035,-2.7635822,3.7749555,-1.8687402,-2.7023096,-1.36913115,707
1747533726180,-3.782155,-2.9338121,3.9149222,-2.10443,-2.1624868,-1.3502227,708
1747533726190,-4.6051164,-3.2728076,4.7932844,-2.1997712,0.044208474,-0.6487461,709
1747533726200,-4.8872466,-3.2200913,5.2513795,-1.6761936,0.6583334,0.1603223,710
1747533726210,-4.1652031,-3.00105,5.9082597,0.193611815,1.5736619,2.09138035,711
1747533726220,-3.039855,-2.8817060000000003,6.058599,1.7454358,2.59232105,3.1470574,712
1747533726230,-2.6057992,-2.8586426,5.9972186,2.2594259,3.1041806,3.3321471,713
1747533726240,-1.8819253,-2.8830483,5.641139,3.1531827,4.0799627,3.4748926,714
1747533726250,-1.3332847,-2.9340563,5.0959153,3.8488004,4.657869,3.4914043,715
1747533726260,-0.9374239,-2.972129,4.373506,4.236024,4.888499,3.37316,716
1747533726270,-0.61539035,-2.99079955,2.7866457,3.37555685,5.59743215,2.8711541,717
1747533726280,-0.6577343,-2.9787188,2.60824,3.069027,5.8941083,2.7989824,718
1747533726290,-0.8502955,-2.9084303,2.4422808,2.427205,6.7255473,2.8336034,719
1747533726300,-1.0855666,-2.881096,2.4452095,1.8663434,7.6118474,3.0967238,720
1747533726310,-1.0810516,-3.03619425,2.7272177,1.32385745,8.555405,4.1175134,721
1747533726320,-0.8484650499999999,-3.16322595,2.9087963,1.2282499,8.8723215,4.989166,722
1747533726330,-0.7321718,-3.1847029,2.932836,1.2665994,8.927449,5.3039517,723
1747533726340,-0.291160305,-3.1689614500000003,2.9727393500000003,1.3171995,8.94396,5.742308,724
1747533726350,0.118855875,-3.2077664500000003,3.0902529000000003,1.3731259,8.866729,6.1124873,725
1747533726360,0.38683072,-3.2330263,3.1693273,1.7646105,8.214254,6.734602,726
1747533726370,0.6975156,-3.2037396,3.0238693,1.9331887,7.3687005,6.9931948,727
1747533726380,1.0050278,-3.102944,2.7939675,1.9307919,7.080813,7.032876,728
1747533726390,1.1951483,-2.9848201,2.6587596,1.820537,6.780941,6.976417,729
1747533726400,1.3069266,-2.8979359,2.5906677,1.6974989,6.976417,6.8549767,730
1747533726410,1.3408505,-2.851809,2.625568,1.6042882,7.2800174,6.731406,731
1747533726420,1.30607235,-2.826061,2.6708405,1.59443455,7.2946647,6.707704,732
1747533726430,1.2712942,-2.800313,2.716113,1.6532904,7.0291476,6.744722,733
1747533726440,1.2893544,-2.9428422,2.753698,1.8743328,6.234993,6.9854717,734
1747533726450,1.4342024,-3.09501205,2.7905506,2.21894585,5.65708685,7.160175000000001,735
1747533726460,1.61541495,-3.11417055,2.67376915,2.4863273,5.3399043,7.1790835,736
1747533726470,1.7530632000000002,-3.03472985,2.4884076,2.57154845,5.2064801,7.02515285,737
1747533726480,1.812125,-2.9818914,2.3951778,2.59818,5.182512,6.9204907,738
1747533726490,1.8641093,-2.8286235,2.1657639,2.5377263,5.4789215,6.43153405,739
1747533726500,1.8143216,-2.6712067,1.9858938,2.5060346,5.554289,6.3037024,740
1747533726510,1.6577589,-2.1988338,1.58124695,2.4234767,5.468535,6.1258035,741
1747533726520,1.6212723,-2.1159763,1.5436621,2.11002255,4.7537427,5.7827883,742
1747533726530,1.5873483,-2.0361695,1.568556,2.0921793,4.660532,5.7359166,743
1747533726540,1.6537318,-1.9646608,1.6127303,2.1667478,4.437892,5.6363144,744
1747533726550,1.7742962,-1.8965688,1.6051645,2.3105586,4.2195125,5.4690676,745
1747533726560,1.944404,-1.9077955,1.5378047,2.4799356,4.201403,5.2826467,746
1747533726570,2.561625,-1.9771078,1.3074148,2.9694247,4.1108556,4.4165864,747
1747533726580,2.6487532,-1.8653295,0.9098454,3.1244206,3.752394,3.9127164,748
1747533726590,2.5954268,-1.7325624,0.6212477000000001,2.9550436,3.540939,3.4722295,749
1747533726600,2.2686342,-1.1465809500000002,-0.3723093425,2.4564999,3.5710328,3.14545965,750
1747533726610,2.229463,-0.92705145,-0.7404697,2.269546,3.5808864,3.077549,751
1747533726620,2.391639,-0.919485675,-0.8910530249999999,1.49483235,3.314304,2.9009814,752
1747533726630,2.511105,-0.92595315,-0.98062205,1.4050838,3.2245555,2.8245487,753
1747533726640,2.6746233,-0.9225364,-1.2254114,1.2394352,3.0871365,2.492719,754
1747533726650,2.7700496,-0.8371163,-1.5827112,1.1435614,2.9497173,2.3009713,755
1747533726660,2.94760145,-0.65956473,-2.15734405,0.835433665,1.575526165,2.1457089,756
1747533726670,3.11356035,-0.4500415599999999,-2.52989745,0.6412892050000001,0.238352915,2.09644055,757
1747533726680,3.1908045,-0.36096066,-2.6585157,0.57098174,-0.2066613,2.0703416,758
1747533726690,3.6013087,-0.080660915,-3.2451072,0.17044231,-0.8942895,1.6346483,759
1747533726700,3.70539915,0.007443746,-3.37348135,-0.381897315,-1.17312245,1.0354370350000002,760
1747533726710,3.7501836,0.046858992,-3.401914,-0.85700525,-1.3779196,0.47643952,761
1747533726720,3.81424855,0.171450215,-3.42851615,-1.37925115,-1.5044197499999998,-0.1414138549999999,762
1747533726730,3.8236446,0.23258655,-3.4199743,-1.6325178,-1.5520903,-0.42770368,763
1747533726740,3.72004245,0.281520035,-3.0840294,-2.0903152,-1.61041355,-1.33317844,764
1747533726750,3.51649895,0.3143457349999999,-2.596647,-2.60750115,-1.92599815,-2.46076085,765
1747533726760,3.34895365,0.245033475,-2.30036165,-2.71136435,-2.44930935,-2.887133,766
1747533726770,3.2813497,0.191829,-2.1555138,-2.755839,-2.7153592,-3.0913975,767
1747533726780,2.9679801,-0.22135992,-1.5751455,-2.841593,-3.2453282,-3.500459,768
1747533726790,2.7424712,-0.44149956,-1.2903306,-3.1329427,-4.2051315,-4.3377566,769
1747533726800,2.34111915,-0.7669499,-0.774637695,-3.37049675,-4.5303035000000005,-4.70154465,770
1747533726810,2.12158965,-0.9415729,-0.45284821,-3.4922032,-4.66452675,-4.8589375,771
1747533726820,1.91109025,-1.16940035,0.0194025499999999,-3.57582635,-4.77957525,-4.96226815,772
1747533726830,1.8011425,-1.3157127,0.33460248,-3.6064527,-4.835768,-5.0030146,773
1747533726840,1.8328699,-1.569166,0.74083578,-3.597398,-4.988101,-5.195295,774
1747533726850,1.8824135,-1.7630695,0.97122585,-3.4578484,-5.09223055,-5.526059399999999,775
1747533726860,1.8988874,-1.9496513,1.1614685,-3.31510295,-5.19289805,-5.8648133,776
1747533726870,1.78979385,-2.20810795,1.3009472,-3.17928175,-5.39236885,-6.299175,777
1747533726880,1.6900965,-2.3805344,1.3574464,-3.1308122,-5.539908,-6.5369954,778
1747533726890,1.5583055,-2.5167184,1.3750186,-3.2471922500000003,-5.60009535,-6.69971445,779
1747533726900,1.457998,-2.6270323,1.398448,-3.3087113,-5.592106,-6.7324715,780
1747533726910,1.4211453,-2.7573588,1.487773,-3.4674358,-5.526592,-6.7820063,781
1747533726920,1.4466493,-3.0505936,1.76416785,-3.69833195,-5.3199307000000005,-6.9082402,782
1747533726930,1.4599504,-3.2037396,1.9136529,-3.7848847,-5.2352424,-6.9860044,783
1747533726940,1.4543371,-3.3355303,2.0405626,-3.8402784,-5.1984906,-7.0754867,784
1747533726950,1.504857,-3.53004405,2.35063745,-3.7494645,-5.005145049999999,-7.264837249999999,785
1747533726960,1.5137651,-3.61900295,2.51671835,-3.55665165,-4.8117995,-7.45871545,786
1747533726970,1.3147364,-3.64584935,2.4696153,-3.248524,-4.48795915,-7.6454032,787
1747533726980,1.042856615,-3.62815515,2.2904773,-3.0453248000000004,-4.1811631,-7.6629799,788
1747533726990,0.95572823,-3.623762,2.221165,-3.0274816,-4.0954094,-7.6006618,789
1747533727000,0.8494412499999999,-3.6939286,2.2225073,-3.03653635,-4.0956755000000005,-7.304251900000001,790
1747533727010,0.844194,-3.7248018,2.25094,-3.0397322,-4.139085,-7.2113075,791
1747533727020,0.76817022,-3.78642625,2.4837706,-2.81868975,-3.8269625,-7.20305185,792
1747533727030,0.72558224,-3.7799585,2.4837706,-2.7547739,-3.540939,-7.257114,793
1747533727040,0.52496717,-3.70002985,2.443135,-2.67780855,-3.2061797,-7.3306172,794
1747533727050,0.3243521,-3.6201012,2.4024994,-2.4570324,-2.4176178,-7.486146,795
1747533727060,0.025137896,-3.4416952,2.318788,-2.320146,-2.1518342,-7.4057183,796
1747533727070,-0.6500464800000001,-2.9692004,2.32135055,-1.75582215,-2.304966,-6.5646922,797
1747533727080,-0.82235086,-2.79591975,2.32000825,-1.5038871,-2.4724787,-6.085589499999999,798
1747533727090,-0.92680738,-2.63252355,2.32330295,-1.2162657,-2.50576825,-5.5268582,799
1747533727100,-0.9620737,-2.5550354,2.3217165,-1.0546118,-2.4730115,-5.2187304,800
1747533727110,-0.875677425,-2.10145495,2.1219558,-0.562459635,-1.2753877999999998,-4.308195749999999,801
1747533727120,-0.79355215,-2.04654205,2.1420905,-0.34221621,-0.966993775,-4.07383745,802
1747533727130,-0.7570656,-2.0454438,2.170645,-0.21145499,-0.86392945,-3.9755669,803
1747533727140,-0.77732235,-2.0124962,2.2065215,0.388821525,-1.2008193500000002,-3.7396109,804
1747533727150,-1.20979183,-1.9918733,2.17113325,1.06792762,-2.2841933,-3.38248095,805
1747533727160,-1.67179215,-2.15051055,2.08132015,1.83465165,-3.5489286,-2.7915255,806
1747533727170,-1.9900427,-2.25094,1.83909335,2.2849922,-4.28209675,-2.20642905,807
1747533727180,-2.145019,-2.2824233,1.6732564,2.4293356,-4.584898,-1.9307919,808
1747533727190,-2.4020116,-2.2663157,1.3579346,2.49698,-5.060539,-1.3358417,809
1747533727200,-2.3922491,-1.9996831,0.9652464,1.8474349,-5.5423048,-0.4982774399999999,810
1747533727210,-2.1519748,-1.88375585,0.98647945,1.10414665,-5.729525,-0.2340918599999999,811
1747533727220,-1.93879085,-1.9494072,1.21943205,0.53769223,-5.62832465,-0.471912145,812
1747533727230,-1.8562995,-1.9749112,1.3503687,0.25246766,-5.5244613,-0.67697555,813
1747533727240,-1.99028695,-2.3189099,1.85471305,-0.76272935,-4.7705204,-1.67938935,814
1747533727250,-2.75247775,-3.0353399,2.630571,-1.63464825,-3.6203011,-2.5497105,815
1747533727260,-3.4282722,-3.58154,3.2205794,-2.091114,-2.8112328,-2.992328,816
1747533727270,-4.364964,-4.014986,3.7772741,-2.146508,-1.7635453,-2.817092,817
1747533727280,-5.2518682,-4.271246,4.221458,-1.8828549,-0.47404268,-2.0453076,818
1747533727290,-5.797092,-4.4108467,4.577782,-1.3741912,0.5747102,-0.77870834,819
1747533727300,-5.8932505,-4.4093823,4.897741,-0.66845345,1.0652645,0.78989357,820
1747533727310,-3.91785095,-4.1632508,5.2578473,1.5233281500000002,1.44955865,4.1132523,821
1747533727320,-2.7073270000000003,-4.0374393,5.1321578,2.026133,1.7006947,4.4810348,822
1747533727330,-2.1093867,-3.951043,4.9812083,3.1095068,2.7334685,4.630172,823
1747533727340,-1.3991802,-3.7682438,4.4059653,3.6330845,3.678358,4.4277716,824
1747533727350,-0.97085977,-3.6220536,3.69283,3.7140446,4.3952813,4.125769,825
1747533727360,-0.68531275,-3.581784,2.5003664,2.4503746,5.42299515,3.3667682,826
1747533727370,-1.158051665,-3.63096165,2.2189685,1.77473055,5.685849149999999,3.36117565,827
1747533727380,-1.3608632,-3.6222975,2.211891,1.4413028,5.832323,3.4376085,828
1747533727390,-1.7035197,-3.649876,2.4315424,0.796551495,6.259760099999999,4.23842085,829
1747533727400,-1.65605045,-3.86989375,3.11990595,0.8644620700000001,6.2552328,5.3859770000000005,830
1747533727410,-1.24066505,-3.96251355,3.45280005,1.2117383,6.18119695,6.44112155,831
1747533727420,-1.0247964,-3.9529953,3.4692738,1.5020229,6.32820345,6.8427262,832
1747533727430,-0.56670094,-3.8980823,3.4192421,1.6373115,6.4496436,6.99932,833
1747533727440,0.27310005,-3.7706845,3.1742084,1.8471686,6.972156,7.0563116,834
1747533727450,0.461390215,-3.6248603,2.97908475,1.71880415,7.29892575,6.86909165,835
1747533727460,0.468467865,-3.5413927000000003,2.84558545,1.5795208,7.522365000000001,6.82568215,836
1747533727470,0.46541715,-3.5141802,2.7727344,1.504686,7.626761,6.831541,837
1747533727480,0.4583395,-3.475131,2.6768198,1.2650015,7.4941354,6.9162292,838
1747533727490,0.44491636,-3.4869679,2.66925405,1.2021509,7.35538485,6.9865366,839
1747533727500,0.48054871,-3.47976825,2.6478991,1.13237605,6.72261765,7.503989,840
1747533727510,0.63930797,-3.4332754,2.6854839,1.23357625,6.25230335,7.8262315,841
1747533727520,0.7280228,-3.418754,2.7183096,1.3113406,6.069344,7.9005337,842
1747533727530,0.88641596,-3.3221073,2.740275,1.80402535,5.510613,8.008658,843
1747533727540,1.048958,-3.1183195,2.6670575,2.0596888,5.278385,8.041681,844
1747533727550,1.048958,-3.1183195,2.6670575,2.0596888,5.278385,8.041681,845
1747533727560,1.2980185,-3.0370483000000004,2.4736422,2.7848675,4.58116985,7.907458,846
1747533727570,1.3564702,-3.0028803,2.3566167,2.855974,4.3702474,7.843542,847
1747533727580,1.5033927,-2.9177043,2.067897,2.8133633,3.788613,7.5985312,848
1747533727590,1.4660518,-2.8881736,2.0554502,2.6354642,3.7364151,6.9045115,849
1747533727600,1.2665351,-2.85669005,2.08254055,2.5076326,4.123106,6.47707415,850
1747533727610,1.2017379,-2.8466837,2.0822964,2.4730115,4.247742,6.3569655,851
1747533727620,1.0621371,-2.8017771,2.0117638,2.4138892,4.4645233,6.1753383,852
1747533727630,0.7883049,-2.6426518,1.7616051,2.3158848,4.495949,6.0965085,853
1747533727640,0.7852542,-2.6403333,1.7346368,2.23439215,4.4336308,6.14897275,854
1747533727650,1.132303665,-2.7094016,1.70339745,2.29750925,3.9164449,6.262157,855
1747533727660,1.3093672,-2.7256315,1.6781375,2.369681,3.6884782,6.223275,856
1747533727670,1.599063,-2.6543665,1.6176114,2.5640914,3.003513,5.947904,857
1747533727680,1.6761851,-2.3261096,1.3120518,2.912433,1.6389093,5.0408316,858
1747533727690,1.3373116500000002,-2.0788796,0.80221617,2.99073,1.5462314,4.657336,859
1747533727700,1.19746685,-1.97930425,0.45675315,2.6599655,2.1355889,4.2557315,860
1747533727710,1.1463369,-1.9426957,0.302631,2.481001,2.4847293,4.126302,861
1747533727720,1.3240105999999998,-1.87228515,-0.0811490499999999,1.89137705,3.1489217500000004,3.6996634,862
1747533727730,1.3925906,-1.777957,-0.29116032,1.5765914,3.4269557,3.4466631,863
1747533727740,1.3628157,-1.7408603,-0.39781332,1.4658039,3.671434,3.3880737,864
1747533727750,1.4199251,-1.6190758,-0.53106856,1.3571469,3.2586439,3.5254927,865
1747533727760,1.8090744,-1.40747815,-0.61966135,1.62852305,2.0892499,3.9047268,866
1747533727770,2.2531366,-1.31925145,-0.8435839,2.1124194000000003,1.26580052,4.1409492,867
1747533727780,2.4576566,-1.300093,-1.0067362,2.2812638,0.96086854,4.1689124,868
1747533727790,2.9582179,-1.2856936,-1.445795,2.385127,0.567786,3.9862196,869
1747533727800,3.47086025,-1.20600885,-2.2068876,2.12440365,0.755805125,3.3827473,870
1747533727810,3.6083865,-1.1795286,-2.4666865,1.9686087,0.98110855,3.1228228,871
1747533727820,3.7152835,-0.6966614099999999,-3.21411195,1.00081595,1.39523015,2.38486075,872
1747533727830,3.8352376,-0.49043305,-3.2475479,0.3358246,1.24955525,2.07726575,873
1747533727840,4.046103,-0.336554945,-3.16554455,0.0873516915,0.77551255,1.92839505,874
1747533727850,4.1758194,-0.27310005,-3.1144145,0.007989483,0.5086638,1.8343854,875
1747533727860,4.63391515,-0.10262607,-3.13406115,-0.075101145,-0.8530105,0.84368946,876
1747533727870,4.84343815,-0.080294835,-3.2647539,-0.2479403,-1.6498282999999998,-0.15073494,877
1747533727880,4.8486853,-0.0924977,-3.3279648,-0.36005938,-1.8695391,-0.5496765,878
1747533727890,4.518476,-0.12910629,-3.3073417000000003,-0.9145295,-2.52494315,-1.69510205,879
1747533727900,4.2188958,-0.16766733,-3.16090735,-1.2911005,-2.88393725,-2.32840165,880
1747533727910,3.8437797,-0.287743495,-2.83692145,-1.8301243,-3.3313483,-3.03733525,881
1747533727920,3.52418675,-0.4872603,-2.4400843,-2.3941818,-3.76118255,-3.6977993,882
1747533727930,3.4382787,-0.58988637,-2.277542,-2.6019084,-3.9111185,-3.9345543,883
1747533727940,3.2366872,-0.8683557,-1.8994975,-2.94013,-4.1518683,-4.322843,884
1747533727950,2.7921368500000003,-1.35573805,-1.146336875,-3.5755602,-4.41871715,-5.065598700000001,885
1747533727960,2.42190215,-1.7074245,-0.544369675,-3.8642468,-4.4426856,-5.42912,886
1747533727970,2.169547,-1.91475115,-0.1660809569,-4.042679,-4.25946,-5.752428,887
1747533727980,2.0532537,-2.007615,0.0012202862,-4.1470747,-4.101801,-6.01182,888
1747533727990,1.8553232,-2.2023726,0.27383223,-4.200338,-4.0213733,-6.221677,889
1747533728000,1.53292355,-2.6250797500000003,0.738273205,-4.17290715,-4.0179113,-6.6081016,890
1747533728010,1.3181532,-2.93124965,1.067262335,-4.082892149999999,-4.0245693,-6.9244851,891
1747533728020,1.2420074,-3.0238693,1.1636649,-3.9760995,-3.9257659,-7.11143915,892
1747533728030,0.9962417,-3.1141706,1.2715383,-3.919108,-3.8482678,-7.1830783,893
1747533728040,0.75096416,-3.1439455,1.2761754,-3.8764973,-3.6485307,-7.1825457,894
1747533728050,0.56914145,-3.21106125,1.43261605,-3.8322889,-3.4163032,-6.93114335,895
1747533728060,0.5688974,-3.2652419,1.5509838,-3.72416465,-3.4711642,-6.7441893,896
1747533728070,0.64235866,-3.3452926,1.7291456,-3.6602488,-3.57556,-6.7015786,897
1747533728080,0.66456788,-3.3617666,1.8067558,-3.6602488,-3.57556,-6.7015786,898
1747533728090,0.6518769,-3.3628647,1.9900427,-3.2437303,-4.1832933,-6.589726,899
1747533728100,0.511421975,-3.2014209,1.9389129,-3.0740869,-4.179032449999999,-6.3194152,900
1747533728110,0.450285625,-3.03045885,1.8256702,-3.1025827,-3.7265613,-6.0866547,901
1747533728120,0.4549227,-2.9743257,1.790892,-3.1537154,-3.4535873,-6.010222,902
1747533728130,0.51593703,-2.9404018,1.833114,-3.244263,-2.973153,-5.8983693,903
1747533728140,0.5764632,-2.8940308,1.9453802,-3.2676988,-2.7297401,-5.8445735,904
1747533728150,0.60062486,-2.8374097,2.0488605,-3.1883366,-2.6557043,-5.815811,905
1747533728160,0.57048382,-2.69158535,2.2780303,-2.7518444000000004,-3.2613071,-5.72739435,906
1747533728170,0.4848197399999999,-2.6271542,2.37028395,-2.5268073500000003,-3.42882,-5.6903763,907
1747533728180,0.43027294,-2.5938404,2.4144583,-2.4000409,-3.4626422,-5.6693373,908
1747533728190,0.2297798999999999,-2.4365455000000003,2.45912085,-2.1092236,-3.4349453,-5.5825186,909
1747533728200,0.079196577,-2.353078,2.4492364,-1.8439728,-3.3747578,-5.475459,910
1747533728210,-0.008297946,-2.31049,2.4415486,-1.303351,-3.2453282,-5.210741,911
1747533728220,-0.07297312,-2.3046324,2.3422174,-1.0599382,-3.1707597,-5.119661,912
1747533728230,-0.18865626,-2.229219,2.1645436,-0.92038846,-3.148389,-5.053082,913
1747533728240,-0.38512233,-2.0351934,1.9763755,-0.92731273,-3.073288,-4.897021,914
1747533728250,-0.507395,-1.93061475,1.9409873,-0.943291675,-2.77368235,-4.5598645,915
1747533728260,-0.3904915799999999,-2.00761485,2.07973385,-0.753674595,-2.6722158,-4.349741,916
1747533728270,-0.2638258799999999,-2.1677165,2.28986715,-0.34567831,-3.04878685,-4.304733649999999,917
1747533728280,-0.2562601,-2.2448387,2.3624742,-0.12037488,-3.3854105,-4.3532033,918
1747533728290,-0.45126185,-2.4061604,2.3444138,0.34141725,-4.2919507,-4.449077,919
1747533728300,-1.0963051,-2.6574173,1.96344055,0.6396913,-5.329518,-4.4442835,920
1747533728310,-1.7147462,-2.7184316,1.6606875,0.3065298475,-6.4030383,-4.4504085,921
1747533728320,-2.16747245,-2.6978089,1.53243545,0.120907515,-6.2025023,-4.438957,922
1747533728330,-2.3680875,-2.7102559,1.5011961,-0.29028457,-5.334312,-4.3180494,923
1747533728340,-2.8762147,-2.881584,1.5580615,-0.96939063,-3.96811,-3.7832868,924
1747533728350,-3.1444336,-2.93393405,1.86093655,-1.23863625,-4.39235165,-3.0972564,925
1747533728360,-3.2248504,-2.88475665,2.0995025,-1.2868395,-4.647749,-2.834136,926
1747533728370,-3.1335729,-2.6875584000000003,2.58285785,-1.4586134,-5.74230785,-2.1606227,927
1747533728380,-3.0299706,-2.5511303,2.9367409,-1.58111875,-5.7486995,-2.07646675,928
1747533728390,-2.9313715,-2.4959733,3.3538346,-1.6421051,-5.423794,-2.1614215,929
1747533728400,-3.226437,-2.6928057,3.7160156,-1.60455455,-3.473295,-2.6618296,930
1747533728410,-3.405087,-2.796408,3.7863042,-1.5803198,-2.744654,-2.7989824,931
1747533728420,-4.42793055,-3.3284529000000003,3.7260221,-1.51294185,-0.757403062,-2.2900523,932
1747533728430,-4.9321527,-3.554206,3.6547575,-1.5020229,-0.020240024,-1.7859159,933
1747533728440,-5.175356,-3.68453225,3.8989365,-1.2532837,0.33688988,-0.373641525,934
1747533728450,-5.192074,-3.7111344,4.0132775,-1.1116035,0.37337518,0.13795175,935
1747533728460,-5.026603,-3.5910583,4.196564,-0.5725796,0.6823019,1.4727281,936
1747533728470,-3.7825211,-3.1755508,4.29406515,0.50493537,2.07699935,2.96303305,937
1747533728480,-3.0390007,-2.9953146,4.268317,1.0785803,2.948652,3.486078,938
1747533728490,-2.17796685,-2.77102585,3.782033,1.85702225,4.18728835,3.66690665,939
1747533728500,-1.74586345,-2.67999255,3.31429745,2.1563616000000003,4.6711845,3.692473,940
1747533728510,-1.5463467,-2.6580274,3.0570612,2.2514365,4.829376,3.687413,941
1747533728520,-1.2854495,-2.6631527,2.327818,2.20802685,5.16093985,3.6818203,942
1747533728530,-1.2988727,-2.677064,2.0791237,2.1518342,5.362541,3.7225666,943
1747533728540,-1.325719,-2.7344174,1.9429398,1.4290522,5.664011,3.935087,944
1747533728550,-1.3365795500000002,-2.7478405,1.9446481,1.082574975,6.038451500000001,4.2024683,945
1747533728560,-1.3308442,-2.7695618,1.9900427,0.73609775,6.412892,4.4698496,946
1747533728570,-1.19063325,-2.78469315,2.2596041,0.39601205,7.11197185,5.164136,947
1747533728580,-1.0948408,-2.8110514,2.4068928,0.31957933,7.383348,5.542571,948
1747533728590,-0.9606094,-2.861083,2.481574,0.3984088999999999,7.47416175,6.14657595,949
1747533728600,-0.66786265,-2.9851861,2.5759022,0.50387008,7.47709125,6.50663545,950
1747533728610,-0.5603554,-3.0341196,2.5989656,0.56938386,7.484548,6.6749473,951
1747533728620,-0.11067996,-3.18287265,2.5843223,1.0045444,7.062703,7.3162365,952
1747533728630,-0.03294773,-3.1961737,2.5665061,1.2357068,6.523147,7.610249,953
1747533728640,0.278957435,-3.23986005,2.43752165,1.66660625,5.63950985,7.91731175,954
1747533728650,0.5186216699999999,-3.17628305,2.1978575,1.89217605,5.108742,8.011587500000001,955
1747533728660,0.7924538699999999,-2.9851863,1.79735965,1.8490328,4.705007,7.909321999999999,956
1747533728670,0.93620354,-2.8540056,1.5617223,1.5962988,4.707936350000001,7.6677735,957
1747533728680,1.0206474,-2.7312446,1.4465274,1.4626081,4.8650627,7.548464,958
1747533728690,1.0516427,-2.60946,1.4077222,1.0759171,5.4435015,7.234211,959
1747533728700,1.04566325,-2.4626597,1.53402185,0.6988135,5.9183431,6.8901305,960
1747533728710,0.94193892,-2.35454235,1.7202376,0.6197176,5.78225535,6.64352185,961
1747533728720,0.81002599,-2.2265342,1.87582405,0.7283745500000001,5.34070315,6.49358585,962
1747533728730,0.77097684,-2.179187,1.9148731,0.829841,5.1132693,6.478406,963
1747533728740,0.7425441749999999,-2.10975285,1.83494435,1.0956244,4.5161886,6.470949,964
1747533728750,0.72704655,-2.085225,1.7838144,1.3454291,3.807788,6.438991,965
1747533728760,0.6920243500000001,-1.9529461,1.26055575,1.7206684,2.75637185,6.2797339,966
1747533728770,0.721311225,-1.90230425,0.9480404,1.716141,2.692456,6.2046328,967
1747533728780,0.73510045,-1.8716751,0.7912336,1.532383,2.8889973,6.0022326,968
1747533728790,0.86518294,-1.7772248,0.51593703,1.1883025,3.41364,5.6704025,969
1747533728800,1.1695223,-1.6122421999999998,0.320447165,0.25486452,4.6325688,4.5023402,970
1747533728810,1.2813005,-1.5165718,0.3031191,-0.21518342,5.20648,3.8184404,971
1747533728820,1.1092402,-1.4802072,0.469078,-0.490021665,4.7601343,3.0197583000000003,972
1747533728830,0.74535084,-1.4567777,0.5688974,-0.5299691,4.479437,2.8309402,973
1747533728840,0.2894519,-1.3994243,0.65041256,-0.4926848,3.7758298,2.7947214,974
1747533728850,-0.03172744,-1.2651927,0.7512082,-0.37444046,2.604039,3.1973913,975
1747533728860,0.204397945,-1.09044785,1.13364585,0.326503555,1.8074875,3.90739015,976
1747533728870,0.7380291,-0.97866955,1.0118613,1.09589085,1.97526665,4.19687575,977
1747533728880,1.0028312,-0.8988628,0.8681116,1.3587449,2.1539648,4.201403,978
1747533728890,1.5268221,-0.75486904,0.35095432,1.7150757,2.389388,4.1326933,979
1747533728900,2.1867529,-0.491043175,-0.643334945,1.74996315,1.96887495,4.01471545,980
1747533728910,2.4666865,-0.41855815,-1.0982577,1.3076121,1.4037522,3.91964055,981
1747533728920,2.91660615,-0.4643189199999999,-1.2772736,0.8428905,0.98110855,3.819772,982
1747533728930,3.0753655,-0.48957884,-1.2442038,0.7435546,0.9060074,3.7758298,983
1747533728940,3.3174703,-0.35095432,-1.1448725,0.76485986,0.5853628,3.6772928,984
1747533728950,3.66159095,0.02477181,-1.2243132,1.09376027,0.12942963,3.6059202,985
1747533728960,4.09430445,0.24051842,-1.51559555,1.5984293,-0.4767058349999999,3.36650205,986
1747533728970,4.4979748,0.35827605,-1.9553867,1.98112565,-1.319063675,3.0107037,987
1747533728980,4.619027,0.3682824,-2.1516087,2.02347,-1.6751283,2.855974,988
1747533728990,4.839899,0.336799,-2.497926,1.8434402,-2.194445,2.3920512,989
1747533729000,5.068337,0.23136626,-2.6907313,1.16113825,-2.4098945,0.9502159,990
1747533729010,4.698224,-0.0389271329999999,-2.62678805,0.46498793885,-2.2269353,-0.5238438000000001,991
1747533729020,4.232807,-0.1053107024999999,-2.5123253,-0.23648871115,-2.01947505,-1.8152106,992
1747533729030,3.989116,-0.1432616,-2.4352033,-0.4676511,-1.9968382,-2.1395836,993
1747533729040,3.3988633,-0.3000683899999999,-2.00834705,-1.012267535,-2.26794805,-2.81070015,994
1747533729050,2.98421,-0.48384348,-1.569166,-1.365669,-2.7036412,-3.3297503,995
1747533729060,2.6161716000000004,-0.6634696,-1.1650072,-1.6764599,-3.1446606,-3.80326045,996
1747533729070,2.4419148,-0.7951384800000001,-0.90203557,-1.788579,-3.3023198,-3.955327,997
1747533729080,2.3732128,-0.87348086,-0.76243484,-1.9771309,-3.498861,-4.206197,998
1747533729090,2.2973108,-1.057256,-0.50666285,-2.1560953,-3.6165729,-4.5135255,999
1747533729100,2.09584165,-1.4889933000000002,-0.01769416,-2.5177525,-3.6993972,-5.204349499999999,1000
