timestamp,acc_x,acc_y,acc_z,gyro_x,gyro_y,gyro_z,id
1747533062210,0.382803775,-0.426490035,0.758896,0.840493625,-0.123837,-0.37257622725,1
1747533062220,0.971103775,0.081515122,0.343754635,-0.08708537,1.092961325,0.656735535,2
1747533062230,0.8984967450000001,0.0967687,0.357665895,-0.10652645,1.3334448,0.52304485,3
1747533062240,0.86859972,0.09542638,0.352052585,-0.180828645,1.4112091,0.392549965,4
1747533062250,0.83333347,0.090911325,0.34216826,-0.239418185,1.25195205,0.354733065,5
1747533062260,0.79355212,0.098843185,0.33277205,-0.29507825,0.98137488,0.3845604649999999,6
1747533062270,0.79770108,0.1016498399999999,0.29262464,-0.456199525,0.4532700249999999,0.511060615,7
1747533062280,0.8291845,0.09237567,0.26882904,-0.6367618500000001,-0.00399474,0.63889235,8
1747533062290,0.834309695,0.072362975,0.31361354,-0.6801713650000001,-0.10839066,0.71133035,9
1747533062300,0.8368722500000001,0.046248848,0.35022214,-0.637028165,-0.0665790295,0.76432725,10
1747533062310,0.851759795,0.01989066615,0.33203988,-0.5749765,0.0998685405,0.753408275,11
1747533062320,0.8376044949999999,-0.0390491568499999,0.28298438,-0.5536711999999999,0.5102616950000001,0.582167015,12
1747533062330,0.794528375,-0.10177187,0.2666325499999999,-0.5584648999999999,0.9092032,0.3664509649999999,13
1747533062340,0.7608485,-0.13179092,0.278225265,-0.55713333,1.07618335,0.23249397,14
1747533062350,0.73607668,-0.149607095,0.2778591649999999,-0.55899753,1.1355718499999998,0.137152805,15
1747533062360,0.6956851799999999,-0.176697445,0.267242665,-0.5741775499999999,0.9190569,0.1411475449999999,16
1747533062370,0.6690829,-0.2065944699999999,0.24576563,-0.5928197,0.555269115,0.218645535,17
1747533062380,0.6844585000000001,-0.220871815,0.248694335,-0.56379123,0.27537086,0.28975193,18
1747533062390,0.71691815,-0.22660715,0.28615713,-0.4450142299999999,0.0910801099999999,0.32490565,19
1747533062400,0.78732868,-0.2191634,0.3173964449999999,-0.1866876045,0.1717739,0.237820285,20
1747533062410,0.8474887799999999,-0.220261655,0.346927375,0.034621093,0.4665858349999999,0.087351685,21
1747533062420,0.8501734000000001,-0.236369445,0.39232202,0.1142496074999999,0.7877630499999999,-0.0231695024999999,22
1747533062430,0.830404785,-0.24539957,0.41941236,0.15259913,1.07884655,-0.1043959174999999,23
1747533062440,0.790989535,-0.25906677,0.40940603,0.1174454075,1.24529415,-0.138750695,24
1747533062450,0.7474253,-0.2822521999999999,0.3754820749999999,-0.0865527375,1.130511915,-0.157126505,25
1747533062460,0.72619232,-0.3105628499999999,0.355103285,-0.310258265,0.830639965,-0.18615496,26
1747533062470,0.71777232,-0.34729347,0.3847562399999999,-0.35100463,0.491619565,-0.191481285,27
1747533062480,0.7138674,-0.36681804,0.41343296,-0.33182988,0.29614353,-0.18109496,28
1747533062490,0.818690025,-0.409650075,0.48372144,-0.017310545,-0.0577905975,-0.152066505,29
1747533062500,0.8644508,-0.4148973,0.5186216,0.12250541,-0.13102753,-0.14487597,30
1747533062510,0.8261338,-0.4617563,0.6108753,0.6689861,-0.2130529,0.044208474,31
1747533062520,0.89044285,-0.4512618699999999,0.4127008,0.47883637,-0.25406557,0.02876214165,32
1747533062530,0.90362194,-0.46395284,0.376214235,0.23675503,-0.230363445,-0.06338323835,33
1747533062540,0.8829991,-0.6033095,0.45711923,0.08868327,0.0066579,-0.28336034,34
1747533062550,0.8829991,-0.6033095,0.45711923,0.05912218,0.21731395,-0.4415521,35
1747533062560,0.868233615,-0.7104506500000001,0.44638072,0.21252026,0.50653327,-0.61891866,36
1747533062570,0.80197209,-0.792941975,0.442597835,0.56379122,0.74621776,-0.67724186,37
1747533062580,0.7413238600000001,-0.89764255,0.39878955,0.7997472800000001,0.76166408,-0.644218655,38
1747533062590,0.697637635,-0.97964583,0.3292332249999999,1.046356,0.458862665,-0.5701828,39
1747533062600,0.682018,-1.01125123,0.263581825,1.180313,-0.0066578999999999,-0.508397475,40
1747533062610,0.6875093,-1.0247964,0.23429495,1.1808456,-0.19547603,-0.4990764,41
1747533062620,0.70288485,-1.0452971,0.23893206,1.1632688,-0.5075985,-0.4926848,42
1747533062630,0.759872265,-1.06018475,0.239664215,1.14382765,-0.70999877,-0.503071125,43
1747533062640,0.8600578,-1.0994779,0.3018988,1.1888351,-0.37710363,-0.58962387,44
1747533062650,0.857983275,-1.12205315,0.330941615,1.25488155,-0.220243435,-0.589091235,45
1747533062660,0.85590875,-1.1446284,0.35998443,1.320928,-0.06338324,-0.5885586,46
1747533062670,0.8526139500000001,-1.1825794,0.44088941,1.57739035,0.451139485,-0.498543775,47
1747533062680,0.81271062,-1.15683135,0.49299561,1.74730005,0.7456851,-0.29987195,48
1747533062690,0.76719397,-1.099722,0.5133743749999999,1.7939054,0.8796421,-0.075900095,49
1747533062700,0.75108617,-1.0344367,0.51862165,1.68231895,0.83436837,0.035686358,50
1747533062710,0.73314795,-0.9643922,0.558403025,1.49935975,0.67830715,0.0974716955,51
1747533062720,0.70630166,-0.89813065,0.59488955,1.2751216,0.4378236799999999,0.1243696275,52
1747533062730,0.71118283,-0.82088655,0.584273025,0.82984105,0.0061252649999999,0.12570121,53
1747533062740,0.733148,-0.7649974500000001,0.560111375,0.3190467099999999,-0.425306835,0.139549645,54
1747533062750,0.740591725,-0.76036035,0.5588911000000001,-0.01518001,-0.6149239,0.200802345,55
1747533062760,0.7559673250000001,-0.7737835,0.57621918,-0.27430559,-0.67031765,0.30360036,56
1747533062770,0.7765901749999999,-0.77964088,0.5940353549999999,-0.427437355,-0.459128975,0.491619535,57
1747533062780,0.789647225,-0.76438731,0.599892705,-0.42663841,-0.06977481,0.6612629000000001,58
1747533062790,0.7931860500000001,-0.71838253,0.6029434300000001,-0.321443555,0.2258360649999999,0.6972156,59
1747533062800,0.792942,-0.686289,0.6057501,-0.26525086,0.3355583,0.6918893,60
1747533062810,0.751574315,-0.59049648,0.54925085,-0.23755397,0.357396225,0.631435515,61
1747533062820,0.737174915,-0.51386251,0.499951275,-0.44874267,0.0474042599999999,0.556068035,62
1747533062830,0.73571058,-0.4685898899999999,0.47688785,-0.748614625,-0.3797667899999999,0.49881007,63
1747533062840,0.7341242299999999,-0.4798165399999999,0.479084375,-0.974450675,-0.6657903000000001,0.50919642,64
1747533062850,0.74754735,-0.50532053,0.4918974,-1.1638014,-0.8889632000000001,0.55260596,65
1747533062860,0.77756638,-0.5308245,0.5004394000000001,-1.29882365,-1.0173276,0.602673375,66
1747533062870,0.81832393,-0.55986735,0.495558265,-1.35128795,-0.8056063,0.6130597,67
1747533062880,0.8316250350000001,-0.5863475499999999,0.48872465,-1.2961605,-0.3893541749999999,0.5717807,68
1747533062890,0.8078294850000001,-0.59977065,0.469322085,-1.18484035,-0.067377975,0.5025385,69
1747533062900,0.7936742,-0.6037976,0.4515059,-1.1275824,0.082558,0.4628574,70
1747533062910,0.7455949,-0.6106312,0.38975942,-1.055677,0.28016454,0.38083205,71
1747533062920,0.6476059000000001,-0.612583675,0.305681705,-1.04049705,0.250070835,0.2572613649999999,72
1747533062930,0.6077025300000001,-0.612827725,0.265412255,-1.0657971,0.01731055,0.18242654,73
1747533062940,0.6086787600000001,-0.6184410499999999,0.25089085,-1.08710235,-0.2237055349999999,0.158724405,74
1747533062950,0.63784361,-0.6275932200000001,0.247840135,-1.0796455,-0.45806371,0.15686019,75
1747533062960,0.68311623,-0.64333492,0.283350465,-1.01945808,-0.603205985,0.15606124,76
1747533062970,0.72204337,-0.6399181,0.33228394,-0.8066715,-0.5819007,0.1257012025,77
1747533062980,0.75059807,-0.60758053,0.352174595,-0.5515406700000001,-0.45034055,0.055660068,78
1747533062990,0.778542635,-0.57341251,0.349001855,-0.402936275,-0.27936561,-0.0415453145,79
1747533063000,0.8041686349999999,-0.54790853,0.339971735,-0.307861425,-0.0969390695,-0.154995985,80
1747533063010,0.81624948,-0.5360717500000001,0.33777523,-0.2695119,0.0412790005,-0.26072348,81
1747533063020,0.82540163,-0.55205745,0.35803198,-0.27217505,0.090813798,-0.36112465,82
1747533063030,0.8515157,-0.57682927,0.40257243,-0.25912557,0.086020103,-0.42690472,83
1747533063040,0.87348085,-0.58561537,0.4360082899999999,-0.217313945,0.069508505,-0.42903524,84
1747533063050,0.879094185,-0.580124085,0.44613666,-0.191747595,0.039947418,-0.39281626,85
1747533063060,0.88031447,-0.57329047,0.447601,-0.18748654,0.020772656,-0.36591834,86
1747533063070,0.9025237,-0.55108124,0.43881494,-0.21518342,-0.082025364,-0.29134983,87
1747533063080,0.90362197,-0.5180115000000001,0.405257045,-0.32437302,-0.422377345,-0.1355549,88
1747533063090,0.93217662,-0.514350635,0.397813305,-0.4066647,-0.692155565,-0.092944325,89
1747533063100,0.960121185,-0.522282515,0.404890975,-0.4412858,-0.78403464,-0.138218065,90
1747533063110,0.983672735,-0.5399766800000001,0.42697816,-0.43809,-0.723314555,-0.21331921,91
1747533063120,0.98928605,-0.55523022,0.43259148,-0.3712446499999999,-0.435693145,-0.31505196,92
1747533063130,0.9667108,-0.5581589,0.41148053,-0.297208775,-0.1400822735,-0.374706775,93
1747533063140,0.93876625,-0.5441256299999999,0.37523801,-0.271109805,-0.031691618,-0.365652025,94
1747533063150,0.9266854,-0.5320448,0.3526627,-0.26525086,-0.006924219,-0.35420042,95
1747533063160,0.8022161800000001,-0.521916415,0.28396061,-0.220776055,-0.352069895,-0.16671389,96
1747533063170,0.7924539,-0.5188657,0.27505252,-0.21145499,-0.4878911,-0.11717909,97
1747533063180,0.8424856000000001,-0.5142286,0.29774985,-0.17257284,-0.6050702,-0.026897925,98
1747533063190,0.9398644,-0.4843315849999999,0.37926498,-0.0431432115,-0.60054285,0.0577906,99
1747533063200,0.9872115,-0.45907167,0.43808278,0.047404267,-0.4788364,0.05219796,100
1747533063210,0.9768391,-0.394640565,0.423805415,0.2178465835,-0.034887425,-0.0532632199999999,101
1747533063220,0.9324207,-0.3137356,0.398667515,0.36218991,0.445014225,-0.1802960049999999,102
1747533063230,0.8585934,-0.283838585,0.376092225,0.284159285,0.4498079149999999,-0.201601295,103
1747533063240,0.7933081,-0.267364715,0.350100115,0.15073492,0.33023198,-0.19041602,104
1747533063250,0.7678041,-0.264314,0.33582276,0.06924219,0.24181503,-0.17949706,105
1747533063260,0.8073414000000001,-0.302020865,0.346805335,-0.286822455,-0.275370855,-0.100401175,106
1747533063270,0.8158834,-0.31556603,0.40733153,-0.26045716,-0.314253,-0.06977482,107
1747533063280,0.81832397,-0.31507793,0.5105677,-0.007456851,-0.23648871,-0.0053263223,108
1747533063290,0.87018613,-0.26785283,0.51520488,0.4159857799999999,-0.025300033,0.0458063705,109
1747533063300,0.89056486,-0.24845028,0.5008055,0.53795856,0.058589544,0.051132694,110
1747533063310,0.8615220800000001,-0.1980524599999999,0.4696882,0.54941013,0.138218067,0.0055926385,111
1747533063320,0.8102700700000001,-0.156318665,0.428564525,0.45406895,0.1494033425,-0.049002165,112
1747533063330,0.78806084,-0.16498269,0.41855815,0.3472762,0.080960095,-0.058056913,113
1747533063340,0.784155935,-0.199272745,0.355713445,-0.2101234099999999,-0.21438447,-0.103064335,114
1747533063350,0.79806718,-0.219285445,0.33557873,-0.51319115,-0.34088463,-0.152599125,115
1747533063360,0.815395235,-0.23441699,0.3081222999999999,-0.535828035,-0.333427775,-0.209590775,116
1747533063370,0.827354045,-0.252843295,0.28408265,-0.467917435,-0.2924150749999999,-0.2684466399999999,117
1747533063380,0.8350418749999999,-0.257724435,0.29958027,-0.308660385,-0.20612866,-0.311856165,118
1747533063390,0.83955695,-0.22599701,0.38475625,0.0692421899999999,0.03009372,-0.35766254,119
1747533063400,0.83858072,-0.19121886,0.44711287,0.440753175,0.283360345,-0.4016047,120
1747533063410,0.83174712,-0.1748670199999999,0.43039494,0.5566007,0.372309915,-0.42743735,121
1747533063420,0.81881208,-0.15216969,0.406599365,0.5022722,0.33502566,-0.4447479,122
1747533063430,0.80807355,-0.108483445,0.385000315,0.1984055,0.1371528005,-0.44528055,123
1747533063440,0.8059990699999999,-0.082247295,0.35876415,-0.16165388,-0.0695085045,-0.43489422,124
1747533063450,0.8079514999999999,-0.11580517,0.330331485,-0.3954794299999999,-0.18295917,-0.431165785,125
1747533063460,0.81197842,-0.186215685,0.320691235,-0.545149075,-0.2612561049999999,-0.43622579,126
1747533063470,0.823327095,-0.24832826,0.35278475,-0.555002775,-0.28575718,-0.448742645,127
1747533063480,0.8474887600000001,-0.25760244,0.419412365,-0.2679140155,-0.22184132,-0.471912145,128
1747533063490,0.8673794349999999,-0.230756135,0.435886215,0.1153148795,-0.14008228,-0.496945875,129
1747533063500,0.88641595,-0.20183535,0.375360025,0.280164555,-0.13156016,-0.524909085,130
1747533063510,0.90984545,-0.174744995,0.306291835,0.28549087,-0.17470337,-0.5648565000000001,131
1747533063520,0.89459185,-0.17401282,0.25931082,0.151267547,-0.26045717,-0.580835465,132
1747533063530,0.86298645,-0.201103175,0.239542185,-0.04261058,-0.35153726,-0.49801114,133
1747533063540,0.8615221,-0.215624585,0.212817915,-0.08042747,-0.37417413,-0.455400555,134
1747533063550,0.8760434749999999,-0.20268955,0.17633136,-0.13448964,-0.41412155,-0.3752394,135
1747533063560,0.898252675,-0.17437891,0.15766098,-0.1288969999999999,-0.44554685,-0.3137203899999999,136
1747533063570,0.9271735,-0.11983211,0.10640897,0.0500674299999999,-0.5169195799999999,-0.2876214099999999,137
1747533063580,0.9271735,-0.11983211,0.10640897,0.20719394,-0.57417756,-0.28549087,138
1747533063590,0.9413288,-0.11006982,0.07175283,0.453003715,-0.6311692,-0.31398669,139
1747533063600,0.95353167,-0.102504045,0.107873305,0.61705443,-0.64235447,-0.35073832,140
1747533063610,0.97805944,-0.0716308015,0.1969542,0.7952199,-0.631968125,-0.388022575,141
1747533063620,1.01430192,0.0430761035,0.27505252,0.98883172,-0.5808354250000001,-0.3853594099999999,142
1747533063630,1.05335105,0.1675453,0.29591942,1.06366655,-0.5009406000000001,-0.338487775,143
1747533063640,1.09154605,0.226851215,0.28920783,0.98110855,-0.422111035,-0.292148765,144
1747533063650,1.13364595,0.270171375,0.28981797,0.8396947,-0.34647727,-0.266582425,145
1747533063660,1.16146845,0.29347884,0.2962855,0.690557685,-0.286556135,-0.25007083,146
1747533063670,1.1519502,0.2741983149999999,0.30641388,0.538757505,-0.145408586,-0.172306522,147
1747533063680,1.1280326500000002,0.234539015,0.32862308,0.44315002,0.0513990089999999,-0.05326322255,148
1747533063690,1.1143655,0.2197735599999999,0.3593743,0.444215275,0.228765545,0.0503337444499999,149
1747533063700,1.0882513,0.22258022,0.389271325,0.474841625,0.410925765,0.154197025,150
1747533063710,1.05420525,0.231854395,0.4091619749999999,0.5070659,0.551806985,0.24980451,151
1747533063720,1.0344366,0.258822715,0.39110174,0.44847635,0.65220815,0.30839406,152
1747533063730,1.02833515,0.27993366,0.35034419,0.2695119,0.69162293,0.28336035,153
1747533063740,1.01613235,0.2657783449999999,0.317030375,0.0556600685,0.6484797499999999,0.20879184,154
1747533063750,0.9945333,0.231366265,0.290550155,-0.1579254514999999,0.548611215,0.153930715,155
1747533063760,0.96976147,0.16754529,0.27639483,-0.3656520199999999,0.40400155,0.140881225,156
1747533063770,0.960121245,0.1023820149999999,0.28786552,-0.5635249,0.1049285525,0.1949434,157
1747533063780,0.977083175,0.064675171,0.31263733,-0.6527408,-0.1914812825,0.2724413799999999,158
1747533063790,1.01808475,0.0405135025,0.3287451,-0.60879865,-0.29827405,0.314253005,159
1747533063800,1.0682386,0.0334358415,0.336921025,-0.52943645,-0.30866038,0.32650355,160
1747533063810,1.1048472,0.036852645,0.3424123249999999,-0.41305629,-0.219977115,0.32463934,161
1747533063820,1.13986935,0.04881145,0.35144244,-0.2250371129999999,0.044474785,0.349406735,162
1747533063830,1.1502417500000002,0.062356625,0.358154015,-0.0711064045,0.3589941199999999,0.41385524,163
1747533063840,1.1312053,0.0668716875,0.363889365,-0.018109496,0.60107545,0.49508167,164
1747533063850,1.11582975,0.0733392049999999,0.3759702,-0.0058589544999999,0.80640518,0.57098175,165
1747533063860,1.0703131,0.1010397,0.39500666,-0.055127435,0.94702013,0.64821342,166
1747533063870,1.0318741,0.122760795,0.40635532,-0.130494895,1.000815975,0.7041398,167
1747533063880,0.98940805,0.111534165,0.414775265,-0.17896443,0.982173825,0.71585773,168
1747533063890,0.9608534,0.1106799625,0.43759462,-0.1957423449999999,0.8676579,0.72757565,169
1747533063900,0.91277412,0.1178796524999999,0.45846152,-0.16378441,0.488157435,0.8114652,170
1747533063910,0.88238897,0.12373703,0.45663109,-0.13369069,0.0902811615,0.9185243,171
1747533063920,0.88690405,0.12593354,0.4429638999999999,-0.14807176,-0.0894822134999999,0.9680591,172
1747533063930,0.90313387,0.11873385,0.42832047,-0.187752865,-0.1400822749999999,0.974716985,173
1747533063940,0.91545877,0.0949382699999999,0.4227071599999999,-0.2431466149999999,-0.034621095,0.937432735,174
1747533063950,0.910211535,0.0700444299999999,0.43637437,-0.3089266899999999,0.402137315,0.8082693999999999,175
1747533063960,0.89251736,0.0554009949999999,0.45211606,-0.3629888599999999,0.919323175,0.64262075,176
1747533063970,0.88055855,0.04881145,0.45687518,-0.38136467,1.091896,0.5773733,177
1747533063980,0.7881828500000001,0.021965153,0.434299855,-0.4596616249999999,1.2032162,0.51478905,178
1747533063990,0.7584079,0.0091521467,0.38182755,-0.58003649,0.8729842,0.5456817,179
1747533064000,0.7657296,-0.0010982574999999,0.34326652,-0.66525763,0.5656554,0.582167,180
1747533064010,0.798189185,-0.0124469197,0.37108904,-0.640756565,0.1067927615,0.6639260499999999,181
1747533064020,0.82198477,-0.018304294,0.39464056,-0.60507023,-0.011185277,0.6828345,182
1747533064030,0.8873921499999999,-0.0206228375,0.374871925,-0.48070061,-0.0644485009999999,0.679106115,183
1747533064040,0.91167585,0.002806658,0.38792898,-0.44794372,-0.020772656,0.67271453,184
1747533064050,0.929858125,0.025259925,0.406355305,-0.450340555,0.8849684499999999,0.5387575,185
1747533064060,0.935105325,0.01683995,0.395250705,-0.524642735,1.3355753,0.4061320699999999,186
1747533064070,0.9308343,0.005857374,0.39195594,-0.5640575,1.5813851,0.32863408,187
1747533064080,0.783911865,-0.08224729,0.455044735,-0.56592175,2.18112895,0.052730592,188
1747533064090,0.66944903,-0.14057697,0.48640612,-0.5368933,2.3276029,-0.032490566,189
1747533064100,0.50995765,-0.2506468,0.39134579,-0.42770368,1.94250975,-0.112119085,190
1747533064110,0.47322701,-0.28786552,0.36035052,-0.48922272,1.4221279999999998,-0.0988032775,191
1747533064120,0.43905901,-0.333626235,0.3638893549999999,-0.53715962,0.8364988999999999,-0.0743021945,192
1747533064130,0.46273255,-0.41038225,0.366818055,-0.51878379,0.0756337999999999,-0.075900092,193
1747533064140,0.516791215,-0.47481339,0.36547574,-0.4479437,-0.48283112,-0.1217064649999999,194
1747533064150,0.56206384,-0.509591565,0.34277841,-0.38695731,-0.6138586699999999,-0.195476025,195
1747533064160,0.63039985,-0.55120331,0.29872608,-0.349140415,-0.6423544999999999,-0.29614351,196
1747533064170,0.6919023,-0.6428468,0.3109289,-0.24181503,-0.46818373,-0.4495416,197
1747533064180,0.6984918499999999,-0.69117015,0.324840185,-0.0964064335,-0.2199771105,-0.547545925,198
1747533064190,0.695563165,-0.7607264499999999,0.309708635,0.0948085365,0.1217064645,-0.6993461249999999,199
1747533064200,0.664933965,-0.8041686,0.27761511,0.1944107649999999,0.25619611,-0.8111989,200
1747533064210,0.64065025,-0.8561528,0.27261196,0.294811935,0.2609898,-0.8990832,201
1747533064220,0.61502425,-0.9527995,0.277493085,0.476439525,0.128630683,-0.912399015,202
1747533064230,0.5992825799999999,-1.04895805,0.2873774,0.6892261,-0.02183792,-0.869788435,203
1747533064240,0.6147802149999999,-1.10997235,0.267120665,0.8194547,-0.143810698,-0.8109325700000001,204
1747533064250,0.62356627,-1.1416998,0.2438132,0.871919,-0.21145499,-0.7781757,205
1747533064260,0.6958072200000001,-1.1744035,0.22135993,0.9070727,-0.34887411,-0.7637946250000001,206
1747533064270,0.76804817,-1.2071072,0.19890666,0.9422264,-0.48629323,-0.74941355,207
1747533064280,0.92668533,-1.29106285,0.15680678,0.927845325,-0.567253325,-0.8117315,208
1747533064290,0.97805941,-1.30704855,0.189388425,0.99415805,-0.38615837,-0.81359573,209
1747533064300,0.99868226,-1.308879,0.22013964,1.0508834,-0.27004454,-0.80587256,210
1747533064310,1.01967113,-1.2899645999999998,0.293722905,1.2937637,0.10439593,-0.74275565,211
1747533064320,1.00307525,-1.21821175,0.390491585,1.7188042,0.82850945,-0.5403554,212
1747533064330,0.9458439,-1.13413405,0.41184659,1.8881812,1.2618058,-0.32384039,213
1747533064340,0.9000831300000001,-1.07397395,0.4148973099999999,1.7955032,1.36167435,-0.1837581174999999,214
1747533064350,0.83699433,-1.02455235,0.4246596099999999,1.588043,1.29855735,-0.0719053499999999,215
1747533064360,0.751452275,-0.9863574,0.441743625,1.080977115,0.793355675,0.049002165,216
1747533064370,0.693976775,-0.96878525,0.447478965,0.5025385,0.135022275,0.1515338725,217
1747533064380,0.6860449200000001,-0.96927335,0.432469445,0.1067927625,-0.2961435249999999,0.214650795,218
1747533064390,0.69178027,-0.97439855,0.431371185,-0.2479403025,-0.615722875,0.27696876,219
1747533064400,0.7153318200000001,-0.98660142,0.45236011,-0.51931643,-0.7976168,0.335025665,220
1747533064410,0.7449847700000001,-1.00929872,0.47737599,-0.732103,-0.8146610000000001,0.451139485,221
1747533064420,0.7558453,-1.0245523,0.4888467,-0.8314389,-0.7707188,0.5390238,222
1747533064430,0.754625,-1.003441375,0.5424172,-0.7289072,-0.48309743,0.6791061,223
1747533064440,0.7548690499999999,-0.972446075,0.5681652500000001,-0.56059541,-0.26418558,0.7355651000000001,224
1747533064450,0.7532827,-0.92363465,0.549983,-0.42344261,-0.1414138549999999,0.74302193,225
1747533064460,0.7115489,-0.8455363499999999,0.476033665,-0.49348375,-0.251935055,0.71212928,226
1747533064470,0.6693269500000001,-0.78928115,0.40952808,-0.7137271999999999,-0.49348377,0.6876282,227
1747533064480,0.6624933749999999,-0.7798849699999999,0.371455135,-0.96539595,-0.7094661200000001,0.68682925,228
1747533064490,0.6593206549999999,-0.7869626,0.336188855,-1.22851625,-0.88363685,0.6897587249999999,229
1747533064500,0.67481831,-0.81319873,0.31703036,-1.443966,-0.98643485,0.6823018750000001,230
1747533064510,0.71557588,-0.860057725,0.320325125,-1.557683,-0.98164118,0.6615292500000001,231
1747533064520,0.7314395499999999,-0.894103705,0.34265636,-1.3997575,-0.67218189,0.66792085,232
1747533064530,0.7209450749999999,-0.8932495149999999,0.35839805,-1.068193915,-0.26178875,0.711596675,233
1747533064540,0.71899265,-0.873236865,0.34814764,-0.7773767149999999,-0.012250545,0.74941355,234
1747533064550,0.705935595,-0.80624315,0.316908325,-0.4404868449999999,0.131826475,0.732901925,235
1747533064560,0.67933337,-0.72082307,0.301776785,-0.20133498,0.058589545,0.6665892250000001,236
1747533064570,0.663591665,-0.6694490200000001,0.313979645,-0.14647386,-0.1861549599999999,0.5842975749999999,237
1747533064580,0.67786899,-0.63686737,0.339483635,-0.15126755,-0.443682625,0.4801679599999999,238
1747533064590,0.7182604749999999,-0.609777,0.37267542,-0.198139185,-0.625576525,0.345412,239
1747533064600,0.80050775,-0.5719481500000001,0.42136483,-0.26551716,-0.582167015,0.0596548099999999,240
1747533064610,0.86274236,-0.53936654,0.47444725,-0.268180325,-0.35846149,-0.19947077,241
1747533064620,0.86274236,-0.53936654,0.47444725,-0.23542345,-0.2428803,-0.24927188,242
1747533064630,0.8267439000000001,-0.525211215,0.500927515,-0.0356863585,0.0532632235,-0.2016012999999999,243
1747533064640,0.8260117499999999,-0.501415625,0.534973515,0.1510012415,0.159523355,-0.114782247,244
1747533064650,0.8283303,-0.48640612,0.55401,0.25300032,0.18535602,-0.066046394,245
1747533064660,0.85285805,-0.38292583,0.58036813,0.57710701,0.034621095,0.0737695685,246
1747533064670,0.8705522,-0.3342364,0.60099095,0.722781925,-0.143278065,0.1241033125,247
1747533064680,0.8903208499999999,-0.29628549,0.5710939500000001,0.659398705,-0.33342777,0.062850602,248
1747533064690,0.89276142,-0.278225255,0.53411928,0.489222705,-0.52890381,-0.0508663755,249
1747533064700,0.8898327349999999,-0.291160285,0.50873733,0.18828549,-0.7749798999999999,-0.194943395,250
1747533064710,0.88885653,-0.30800024,0.49446,-0.089748535,-0.9717875,-0.299072995,251
1747533064720,0.86615922,-0.36035054,0.44101143,-0.22237395,-1.04049705,-0.314785645,252
1747533064730,0.863108475,-0.39512868,0.3856104449999999,-0.32224249,-1.06872655,-0.30972564,253
1747533064740,0.906062525,-0.43527609,0.363767325,-0.3227751399999999,-0.8756473650000001,-0.33582462,254
1747533064750,0.9396204,-0.4600479,0.3704789,-0.2806972,-0.68336713,-0.36485308,255
1747533064760,0.9376679,-0.4834774,0.42563587,-0.0479369,-0.3153183,-0.38615838,256
1747533064770,0.9271735,-0.48567393,0.46541715,0.451139495,0.1411475449999999,-0.4245078799999999,257
1747533064780,0.89263935,-0.44125548,0.40428085,0.57098174,0.21358553,-0.4383563,258
1747533064790,0.83333345,-0.39342028,0.3427784,0.5701828,0.0023968499999999,-0.39574576,259
1747533064800,0.78159332,-0.363523275,0.27932351,0.338221465,-0.364853095,-0.31505197,260
1747533064810,0.76951247,-0.362791105,0.2434470999999999,0.06578008,-0.6218481499999999,-0.258859265,261
1747533064820,0.79721295,-0.36559777,0.245155505,-0.17417073,-0.7488809249999999,-0.250603455,262
1747533064830,0.85542065,-0.37658033,0.285302935,-0.29268141,-0.710531425,-0.304133,263
1747533064840,0.8778739499999999,-0.3918339,0.368770495,-0.0969390749999999,-0.352069925,-0.35606465,264
1747533064850,0.85749515,-0.381705535,0.432957545,0.252467675,0.071639035,-0.3371562,265
1747533064860,0.83565203,-0.34717144,0.42282918,0.4665858149999999,0.2524676799999999,-0.28202876,266
1747533064870,0.82930653,-0.311539085,0.37755655,0.54275222,0.29720879,-0.25273399,267
1747533064880,0.8094158499999999,-0.26236154,0.34778157,0.48283112,0.23036344,-0.25513084,268
1747533064890,0.7851321499999999,-0.241128545,0.34399868,0.2764361349999999,-0.040746365,-0.28016456,269
1747533064900,0.7913555999999999,-0.2643139949999999,0.34814765,0.065513764,-0.32490566,-0.309991965,270
1747533064910,0.8127106500000001,-0.28103192,0.35266272,-0.040480051,-0.433562635,-0.337688835,271
1747533064920,0.83577405,-0.28127597,0.34107001,-0.127831735,-0.44900897,-0.38003309,272
1747533064930,0.84761078,-0.281153945,0.29457709,-0.2300971299999999,-0.40613207,-0.44501422,273
1747533064940,0.8480989050000001,-0.288475675,0.246375775,-0.3075951249999999,-0.36405413,-0.4841627,274
1747533064950,0.84785485,-0.2923806,0.23258655,-0.3254383,-0.34248254,-0.4857606,275
1747533064960,0.89715445,-0.3082443,0.2939669649999999,-0.203465523,-0.162719145,-0.474309,276
1747533064970,0.90777096,-0.30006839,0.38512234,0.1392833269999999,0.141680175,-0.42663841,277
1747533064980,0.89886288,-0.27871339,0.40489098,0.48363005,0.407197345,-0.38855521,278
1747533064990,0.884951635,-0.251012885,0.352784755,0.5576659500000001,0.39547942,-0.3882889,279
1747533065000,0.87616557,-0.23478307,0.32850105,0.47484165,0.22583605,-0.38402784,280
1747533065010,0.8321132149999999,-0.18267684,0.253819535,0.283892975,-0.034621095,-0.36618465,281
1747533065020,0.83455375,-0.19927274,0.24942651,-0.000532635,-0.373907815,-0.31691616,282
1747533065030,0.8609119000000001,-0.231122215,0.286157135,-0.173371795,-0.5613943699999999,-0.2596582,283
1747533065040,0.9021576,-0.240884505,0.294088985,-0.154729665,-0.4924185,-0.22210764,284
1747533065050,0.9274175,-0.24308102,0.2882316,-0.13156016,-0.4282363,-0.20453078,285
1747533065060,0.959877135,-0.201347235,0.306657925,0.0543284889999999,-0.0937432719999999,-0.139815965,286
1747533065070,0.95072499,-0.16815544,0.28932987,0.27856666,0.254864528,-0.0500674299999999,287
1747533065080,0.93632564,-0.1427734849999999,0.2413726299999999,0.43249737,0.516386955,0.0,288
1747533065090,0.924000765,-0.1275199129999999,0.192073065,0.414121555,0.54301855,-0.0436758399999999,289
1747533065100,0.9174112,-0.119343996,0.17108414,0.38722363,0.53529537,-0.0777643,290
1747533065110,0.8903208499999999,-0.126909765,0.219895585,0.330231975,0.458330035,-0.206661305,291
1747533065120,0.8782399999999999,-0.12727585,0.23685756,0.319046705,0.3355583,-0.281496145,292
1747533065130,0.8899547,-0.127397875,0.24039639,0.3121225,0.16937704,-0.30626354,293
1747533065140,0.8923952749999999,-0.131912935,0.278469315,0.32144356,0.112385395,-0.263120325,294
1747533065150,0.88421935,-0.1330112,0.30970863,0.33076462,0.05539375,-0.21997711,295
1747533065160,0.8761655349999999,-0.110557935,0.37072296,0.352602525,-0.116113825,0.032756882,296
1747533065170,0.93986445,-0.0272123849999999,0.38731884,0.34328146,-0.26525085,0.1059938125,297
1747533065180,1.0069802,0.058939825,0.366818035,0.31585091,-0.387223635,0.06578007925,298
1747533065190,1.03919575,0.0799287499999999,0.33533466,0.286556135,-0.405333135,-0.05539375325,299
1747533065200,1.0443209,0.063576915,0.32484019,0.27457191,-0.36831519,-0.17736653,300
1747533065210,1.03346035,0.046370878,0.3385074,0.288154035,-0.29268141,-0.2551308399999999,301
1747533065220,1.0365111,0.0477131905,0.41087037,0.37923415,-0.096406435,-0.26977823,302
1747533065230,1.036145,0.055889109,0.50434431,0.542485925,0.119575935,-0.22264027,303
1747533065240,1.03028765,0.077610204,0.5458340749999999,0.671915575,0.20479709,-0.141413853,304
1747533065250,1.03358245,0.1151950225,0.5310685749999999,0.70387353,0.233026595,-0.055926382,305
1747533065260,1.0313859,0.18414119,0.482745215,0.6245113,0.227433955,0.0221042375,306
1747533065270,1.0199151999999998,0.241006525,0.45358039,0.35553201,0.13981596,0.1139833015,307
1747533065280,0.998682225,0.24686391,0.44967548,0.0657800789999999,0.0513990125,0.188285495,308
1747533065290,0.9654905,0.22135992,0.45858356,-0.078030626,0.0524642725,0.21172131,309
1747533065300,0.962683815,0.210499375,0.46358673,-0.153664405,0.101466435,0.2106560499999999,310
1747533065310,0.942793165,0.1784058499999999,0.468101785,-0.137685435,0.23489081,0.1528654529999999,311
1747533065320,0.918143425,0.157294895,0.4507737349999999,-0.09933591,0.33236252,0.0743021965,312
1747533065330,0.898618775,0.16083372,0.4091619749999999,-0.126766465,0.29534458,0.0351537259999999,313
1747533065340,0.88116865,0.16364038,0.36474355,-0.217580265,0.21038973,0.0253000305,314
1747533065350,0.8897107200000001,0.1428955175,0.336799,-0.394414165,0.0351537275,0.0348874115,315
1747533065360,0.91423847,0.1120222775,0.328134975,-0.536626975,-0.1360875375,0.0508663785,316
1747533065370,0.93779,0.0866403249999999,0.3234979,-0.5709817749999999,-0.21278658,0.067644295,317
1747533065380,0.9637821,0.0549128819999999,0.3144677649999999,-0.5795039,-0.26684875,0.089482215,318
1747533065390,0.98281855,0.028676727,0.3047054649999999,-0.5760417499999999,-0.319046705,0.143011755,319
1747533065400,1.0232100000000002,0.028066584,0.31751848,-0.53236589,-0.35926044,0.264185595,320
1747533065410,1.07836695,0.0445404465,0.345829115,-0.45167214,-0.32170987,0.378435215,321
1747533065420,1.1138773,0.0618685095,0.366573975,-0.362189925,-0.18295917,0.439954225,322
1747533065430,1.13352385,0.0780983195,0.3830478499999999,-0.26258769,0.02876214,0.49321745,323
1747533065440,1.1157077000000002,0.0928637825,0.386830735,-0.166980205,0.28309403,0.540355425,324
1747533065450,1.0833702,0.108117355,0.388051025,-0.0846885235,0.59468389,0.582965985,325
1747533065460,1.06030675,0.123004845,0.403426635,-0.0420779455,0.80241047,0.594151235,326
1747533065470,1.0265048,0.138746545,0.431493205,-0.0255663469999999,0.83383575,0.5733786,327
1747533065480,0.98391685,0.1487529,0.45113982,-0.0221042375,0.821052565,0.5560680650000001,328
1747533065490,0.91497065,0.144603925,0.46322065,-0.0561927025,0.7520767150000001,0.555535415,329
1747533065500,0.8505395,0.13484163,0.46407485,-0.18855181,0.4146542,0.6087986350000001,330
1747533065510,0.835529975,0.12739788,0.447723035,-0.36804886,-0.0215715999999999,0.66499135,331
1747533065520,0.83833665,0.12373702,0.43930307,-0.4415521,-0.1736381,0.67271453,332
1747533065530,0.88446347,0.102626075,0.4428418699999999,-0.60080915,-0.46339003,0.6498113249999999,333
1747533065540,0.93095637,0.06406503,0.421852945,-0.6679208350000001,-0.401072065,0.5877596700000001,334
1747533065550,0.93681374,0.0261141265,0.42014456,-0.66046396,-0.074834825,0.5174522100000001,335
1747533065560,0.92448887,-0.011348663,0.42514773,-0.58456385,0.27137612,0.4857606,336
1747533065570,0.90227965,-0.0374627895,0.41587353,-0.500407965,0.53955643,0.4660532,337
1747533065580,0.8470006649999999,-0.06674966,0.40061997,-0.44581318,0.688959775,0.430633155,338
1747533065590,0.793064015,-0.085664095,0.38634263,-0.4543353,0.641022875,0.390419425,339
1747533065600,0.7689023500000001,-0.08871481,0.3814614699999999,-0.50546798,0.4735100399999999,0.360592025,340
1747533065610,0.7481575,-0.107995335,0.38036321,-0.5672533200000001,0.30306774,0.334759355,341
1747533065620,0.7348564,-0.15021724,0.373163535,-0.6378271,0.15339808,0.311856165,342
1747533065630,0.7392494000000001,-0.20366577,0.366574005,-0.727575635,0.022903185,0.28602351,343
1747533065640,0.749865875,-0.2477181,0.3547372199999999,-0.868723185,-0.04527374,0.25300031,344
1747533065650,0.75267255,-0.26406994,0.3436326,-0.9582054,-0.05273059,0.23382555,345
1747533065660,0.82210685,-0.30409532,0.3453410099999999,-1.03596975,0.0500674311,0.1371528,346
1747533065670,0.8125886,-0.36413338,0.36047256,-0.98563595,0.16458336,0.074302195,347
1747533065680,0.7823255,-0.43417783,0.31764052,-0.82557993,0.328634085,0.06045376,348
1747533065690,0.77659017,-0.44882128,0.25369752,-0.6926882,0.42610579,0.062850604,349
1747533065700,0.7648754200000001,-0.4445502799999999,0.22074977,-0.646615535,0.38056574,0.046339004,350
1747533065710,0.7494998,-0.4554108249999999,0.20183533,-0.611994445,0.2423476749999999,0.025832663,351
1747533065720,0.751818325,-0.494826075,0.19329334,-0.60720073,0.0692421949999999,0.01118527635,352
1747533065730,0.768292175,-0.522648585,0.215868645,-0.60054283,-0.076965355,0.01411475435,353
1747533065740,0.77488175,-0.532288835,0.252111145,-0.555535405,-0.12383699,0.045273741,354
1747533065750,0.776712225,-0.54534592,0.26858501,-0.490554275,-0.0644484984999999,0.094275905,355
1747533065760,0.777688445,-0.5457120200000001,0.27810323,-0.4146542,0.0183758115,0.14487597,356
1747533065770,0.7708548,-0.5342413500000001,0.29921418,-0.30812775,0.095607485,0.1984055049999999,357
1747533065780,0.765363515,-0.509713585,0.346927385,-0.0631169199999999,0.10972224,0.2322276449999999,358
1747533065790,0.765851635,-0.491043185,0.358764155,0.153398085,0.0434095272,0.220243425,359
1747533065800,0.7591400500000001,-0.486894225,0.321667445,0.18855181,-0.0037284256,0.20293288,360
1747533065810,0.754625,-0.48140295,0.316054135,0.182692855,-0.1382180575,0.16911073,361
1747533065820,0.7734174,-0.503490125,0.28762147,0.10546118,-0.156061235,0.063649549,362
1747533065830,0.8009958500000001,-0.54217318,0.26040909,0.02743056,-0.071905349,-0.098004336,363
1747533065840,0.82833025,-0.55584038,0.3081222799999999,0.06631271,0.0404800485,-0.237553985,364
1747533065850,0.8468786,-0.5554743,0.345341,0.11345066,0.090014845,-0.30839407,365
1747533065860,0.7892811,-0.6369894,0.290428125,0.2908171899999999,0.131826475,-0.40639839,366
1747533065870,0.75450295,-0.71716222,0.22929178,0.3312972349999999,0.018642125,-0.35979307,367
1747533065880,0.7385172,-0.7706107499999999,0.23942016,0.367782545,-0.1222390949999999,-0.288154035,368
1747533065890,0.7380291,-0.79538256,0.24527754,0.39947417,-0.15393071,-0.27217507,369
1747533065900,0.77500378,-0.8648168700000001,0.205252145,0.54967645,-0.08575379,-0.35926044,370
1747533065910,0.85944758,-0.9502369,0.173280645,0.758468275,0.0058589549999999,-0.6037386250000001,371
1747533065920,0.909845425,-1.03809755,0.13313323,0.9307748,0.0183758115,-0.8543421,372
1747533065930,0.8793382,-1.1343781,0.03099527,0.90787162,-0.0988032785,-0.93130747,373
1747533065940,0.8770197,-1.16049225,-0.00451506,0.758201985,-0.29481193,-0.93450327,374
1747533065950,0.87628755,-1.2146729,-0.061014313,0.512392205,-0.5968144,-0.8673915999999999,375
1747533065960,0.88788025,-1.33194235,-0.0301410705,0.312921415,-0.93343795,-0.7289072,376
1747533065970,0.89861875,-1.43908355,0.0665056,0.432763675,-1.1291803,-0.38136468,377
1747533065980,0.900327185,-1.4528728,0.1496070975,0.79282305,-1.053280225,0.018908445,378
1747533065990,0.905208385,-1.42566045,0.204642005,1.1552793,-0.75473985,0.260190855,379
1747533066000,0.903744,-1.36720875,0.24247088,1.4761902,-0.384294145,0.42797001,380
1747533066010,0.88373125,-1.2871579,0.27017137,1.68684625,-0.038083205,0.53050171,381
1747533066020,0.8690878,-1.2424954,0.2767609,1.7560885,0.11451593,0.56938386,382
1747533066030,0.71667408,-1.10496915,0.2965295599999999,1.4783208,0.25859294,0.660996625,383
1747533066040,0.595133605,-1.0101529299999998,0.3148338499999999,1.029311825,0.0665790275,0.739559865,384
1747533066050,0.539610575,-0.951945305,0.30970865,0.4215784165,-0.4306331625,0.823183115,385
1747533066060,0.502879955,-0.924610875,0.318372675,-0.1518001934999999,-0.96326535,0.9137306,386
1747533066070,0.505320505,-0.93132242,0.3342364,-0.426904735,-1.24422885,0.98457065,387
1747533066080,0.53936647,-0.93669167,0.341192035,-0.6205165500000001,-1.40002385,1.03277385,388
1747533066090,0.574998855,-0.92936995,0.364865585,-0.7315703499999999,-1.4202639,1.04422545,389
1747533066100,0.58988637,-0.921072,0.38731885,-0.68416605,-1.25621315,0.95474325,390
1747533066110,0.69800374,-0.843705935,0.4360082899999999,-0.544616435,-1.05328025,0.819987325,391
1747533066120,0.71264714,-0.8278422,0.44467232,-0.48522797,-0.9896307,0.77231675,392
1747533066130,0.713501375,-0.80160602,0.40184027,-0.427437365,-0.8695221200000001,0.73077145,393
1747533066140,0.7186265700000001,-0.78122722,0.34900187,-0.48496163,-0.8082694,0.75234305,394
1747533066150,0.72118914,-0.7663397,0.32532832,-0.5278385,-0.7755125,0.7701862,395
1747533066160,0.690438,-0.74364245,0.29433304,-0.5278385,-0.7755125,0.7701862,396
1747533066170,0.6920243500000001,-0.71728423,0.214282265,-1.00747385,-0.6253102500000001,0.959803255,397
1747533066180,0.70007823,-0.72057903,0.17462296,-1.1512846,-0.62557655,0.914795845,398
1747533066190,0.713623415,-0.7540149,0.128374115,-1.27618685,-0.6748450500000001,0.74675037,399
1747533066200,0.725948265,-0.7808612,0.100307525,-1.3203953,-0.71585773,0.54807855,400
1747533066210,0.70398312,-0.7890371199999999,0.112022275,-1.2559467999999998,-0.725711405,0.441019485,401
1747533066220,0.68384844,-0.79513854,0.12032023,-1.1598067,-0.780306225,0.38136467,402
1747533066230,0.64248072,-0.839801,0.071752832,-1.0602045,-0.89056108,0.35819517,403
1747533066240,0.6365012999999999,-0.8576172,0.070654572,-0.8570053,-1.10414658,0.34647727,404
1747533066250,0.653829335,-0.844194,0.080294835,-0.627174465,-1.2897689,0.327302515,405
1747533066260,0.6877532850000001,-0.823449125,0.065163288,-0.495081665,-1.3278521,0.28868668,406
1747533066270,0.7065457,-0.81319875,0.060038086,-0.4394216,-1.3278521,0.2625877,407
1747533066280,0.76804815,-0.7577977499999999,0.052960421,-0.391218375,-1.20827625,0.1099885575,408
1747533066290,0.7804951,-0.7468152,0.05027579,-0.39947417,-1.1510183,0.060720075,409
1747533066300,0.82259495,-0.712525125,0.04588276,-0.5981460000000001,-0.984038015,-0.22077605,410
1747533066310,0.823327135,-0.72155525,0.039293216,-0.6873619,-1.0346381,-0.29268141,411
1747533066320,0.803314435,-0.7270465,0.068214001,-0.721450365,-1.13956665,-0.309193015,412
1747533066330,0.78623043,-0.7044712200000001,0.07443746,-0.678573465,-1.43278065,-0.271109805,413
1747533066340,0.78366786,-0.68433654,0.05662128,-0.6375608,-1.6618125,-0.23861924,414
1747533066350,0.76780413,-0.6895837499999999,0.00146434365,-0.6191849650000001,-2.385926,-0.1102548675,415
1747533066360,0.8474888300000001,-0.6770148,0.01049446165,-0.6125270650000001,-2.7214844,-0.0484695324999999,416
1747533066370,0.97220205,-0.6457755000000001,0.0489334805,-0.5962818000000001,-2.83866345,-0.029827405,417
1747533066380,1.08446835,-0.6098991,0.08456584,-0.5608617499999999,-2.4711472,-0.041012682,418
1747533066390,1.12168715,-0.5861035,0.095426385,-0.5241100999999999,-1.8682076,-0.0585895439999999,419
1747533066400,1.0886174,-0.568287325,0.0591838825,-0.528371175,-1.47246185,-0.087351682,420
1747533066410,1.025162475,-0.551691425,-0.0136672055,-0.605602875,-1.3046827,-0.13342437,421
1747533066420,0.98330665,-0.5469323,-0.051740136,-0.6668556,-1.2958943,-0.15819177,422
1747533066430,0.7812272499999999,-0.56914151,-0.20525214,-1.09003185,-1.9992351,-0.16378441,423
1747533066440,0.806365165,-0.610753275,-0.228315555,-1.37179435,-2.5379926,-0.13289174,424
1747533066450,0.83101493,-0.6399181,-0.21989559,-1.4088123,-2.604039,-0.11664646,425
1747533066460,0.8731148,-0.6761606200000001,-0.138624515,-1.10254875,-2.2405175,-0.062584287,426
1747533066470,0.84053315,-0.62442047,-0.128740195,-0.7171893,-1.8237328,-0.0386158365,427
1747533066480,0.7962367749999999,-0.54180705,-0.190486675,-0.2404834549999999,-1.3116069,-0.0873516865,428
1747533066490,0.7469372249999999,-0.48164695,-0.255405895,0.0125168578,-1.010935985,-0.18322549,429
1747533066500,0.68653305,-0.43295755,-0.30641386,-0.0977380172,-1.098553985,-0.271109805,430
1747533066510,0.6401621799999999,-0.41160254,-0.34460883,-0.31425303,-1.30921,-0.34967306,431
1747533066520,0.62478656,-0.41001618,-0.3619369,-0.4293016,-1.4189322,-0.38296258,432
1747533066530,0.72546017,-0.4371065349999999,-0.286157135,-0.596548115,-1.33664055,-0.55979645,433
1747533066540,0.723995835,-0.454922705,-0.24698595,-0.4194478899999999,-1.10654345,-0.5526059,434
1747533066550,0.68567884,-0.45516677,-0.222946305,-0.30040458,-0.9827065,-0.5278385,435
1747533066560,0.66871685,-0.4458926,-0.21525851,-0.034621093,-0.8175905,-0.43409526,436
1747533066570,0.7390053700000001,-0.359984425,-0.300312445,0.1004011725,-0.827444175,-0.3765709849999999,437
1747533066580,0.8039246,-0.298482015,-0.320447175,0.0207726544999999,-0.845819975,-0.417583665,438
1747533066590,0.84517025,-0.284814805,-0.314833865,-0.104928548,-0.8080031000000001,-0.4974785,439
1747533066600,0.8797043499999999,-0.278957425,-0.30067854,-0.23595607,-0.70973245,-0.58589545,440
1747533066610,0.8934936,-0.27566266,-0.296163465,-0.3675162349999999,-0.581900715,-0.6705839849999999,441
1747533066620,0.8956901,-0.27505252,-0.3053156,-0.43356264,-0.51931643,-0.71159667,442
1747533066630,0.815639325,-0.316664275,-0.346927375,-0.681502935,-0.557932285,-0.6937534750000001,443
1747533066640,0.7731733700000001,-0.332161915,-0.377068445,-0.73529882,-0.7446199,-0.6111954749999999,444
1747533066650,0.731561605,-0.35193056,-0.41538544,-0.75926725,-1.00481075,-0.502005875,445
1747533066660,0.68531275,-0.37999715,-0.44723491,-0.7403588,-1.3432985,-0.349673065,446
1747533066670,0.688851565,-0.3912237699999999,-0.4573632749999999,-0.59708074,-1.66847045,-0.20692763,447
1747533066680,0.746571125,-0.35961835,-0.44516042,-0.398408905,-1.72466315,-0.196274975,448
1747533066690,0.785254225,-0.29689564,-0.423439325,-0.2399508149999999,-1.5041534,-0.30333405,449
1747533066700,0.79465042,-0.238687995,-0.42441556,-0.11105382,-1.21253725,-0.439155265,450
1747533066710,0.7715870199999999,-0.20500809,-0.470786455,-0.053795855,-0.9355685,-0.567519635,451
1747533066720,0.7310734999999999,-0.189388425,-0.50153765,-0.08628642,-0.7238472,-0.6631271350000001,452
1747533066730,0.70190865,-0.19292726,-0.5037341399999999,-0.1528654549999999,-0.66925238,-0.697748225,453
1747533066740,0.6938547500000001,-0.1931713099999999,-0.513740475,-0.202400255,-0.78030618,-0.703873475,454
1747533066750,0.68470257,-0.16571487,-0.52948218,-0.22690133,-0.9640643,-0.704672415,455
1747533066760,0.66115105,-0.117513565,-0.55486413,-0.18908444,-1.2823121,-0.656202885,456
1747533066770,0.656391945,-0.0800507775,-0.576341175,-0.131826475,-1.56940085,-0.60373862,457
1747533066780,0.6932445650000001,-0.0633328555,-0.5791478750000001,-0.109189603,-1.64609985,-0.601874425,458
1747533066790,0.77219712,-0.033923957,-0.5629180650000001,-0.10892329,-1.5752598,-0.643153425,459
1747533066800,0.84517027,0.014155321,-0.531922765,-0.108390659,-1.34649425,-0.7054714,460
1747533066810,0.8820228649999999,0.059794027,-0.5036121250000001,-0.0924116895,-0.82185151,-0.76086515,461
1747533066820,0.89349353,0.079562664,-0.49299565,-0.080960095,-0.44794372,-0.7850999,462
1747533066830,0.88482955,0.12117442,-0.56059952,-0.191481285,-0.093743275,-0.81732416,463
1747533066840,0.868355725,0.127885995,-0.612583695,-0.319046705,-0.07616641,-0.85514103,464
1747533066850,0.828330325,0.088470755,-0.6367453750000001,-0.4759069099999999,-0.283360345,-0.89721895,465
1747533066860,0.783667815,0.0312393274999999,-0.656514,-0.567253325,-0.54461645,-0.87831052,466
1747533066870,0.77366143,0.011958805,-0.6723777,-0.57311225,-0.6247776,-0.84368944,467
1747533066880,0.7695125199999999,-0.0336799005,-0.67127945,-0.47430899,-0.7621967199999999,-0.708134565,468
1747533066890,0.75950617,-0.061014315,-0.683848385,-0.302002465,-0.8183894,-0.58403125,469
1747533066900,0.7570656,-0.06613952,-0.70166457,-0.18429075,-0.8367652,-0.5075985,470
1747533066910,0.7737835200000001,-0.013301119745,-0.73717493,-0.148870705,-0.747016695,-0.459661615,471
1747533066920,0.78122727,0.013545177755,-0.7365648,-0.143011755,-0.63889235,-0.43942159,472
1747533066930,0.78623045,0.0328257,-0.7277787,-0.128897,-0.46951531,-0.4330300099999999,473
1747533066940,0.8009958850000001,0.0453946465,-0.6884854499999999,-0.03621899,-0.1344896425,-0.4676511,474
1747533066950,0.81332076,0.05491288,-0.651388785,0.11052119,0.1784317975,-0.51478903,475
1747533066960,0.81319875,0.057109397,-0.64821607,0.17630127,0.257794,-0.5278385,476
1747533066970,0.82857435,0.110435905,-0.67616063,0.33396042,0.288154035,-0.60480389,477
1747533066980,0.827964215,0.146922465,-0.67201165,0.41545315,0.1960086549999999,-0.642620815,478
1747533066990,0.815029165,0.152169695,-0.6832382800000001,0.37657098,0.0085221149999999,-0.54861122,479
1747533067000,0.8075854,0.14350566,-0.69971216,0.30200246,-0.10705908,-0.44847634,480
1747533067010,0.8178358299999999,0.13825843,-0.6764046800000001,0.1938781249999999,-0.170176,-0.306263535,481
1747533067020,0.82808626,0.1330112,-0.6530972,0.08575379,-0.23329292,-0.16405073,482
1747533067030,0.84809892,0.130936715,-0.6642017950000001,-0.0253000304999999,-0.232227655,-0.0327568825,483
1747533067040,0.8565189,0.134475545,-0.6943428700000001,-0.1241033129999999,-0.156593878,-0.0194410765,484
1747533067050,0.85346817,0.12849614,-0.7272905999999999,-0.22663502,-0.056459016,-0.0567253315,485
1747533067060,0.8560307949999999,0.124469195,-0.75938415,-0.30013826,-0.0042610575,-0.090281163,486
1747533067070,0.86994204,0.113730675,-0.787084625,-0.3579288499999999,0.0181094955,-0.086552738,487
1747533067080,0.881900845,0.07773223,-0.814541075,-0.34008567,0.047404265,0.0335558349999999,488
1747533067090,0.91399438,0.0557670809999999,-0.83626217,-0.23249397,0.0849548374999999,0.1861549699999999,489
1747533067100,0.94718618,0.062112571,-0.8444380499999999,-0.0849548467,0.1163801425,0.27403929,490
1747533067110,0.95768068,0.06638357,-0.84382793,0.0793621982999999,0.14887071,0.34647727,491
1747533067120,0.95951108,0.072240943,-0.8249135000000001,0.2364886949999999,0.171507585,0.40240365,492
1747533067130,0.95951108,0.074803546,-0.78976925,0.37470675,0.22077607,0.48815746,493
1747533067140,0.956094275,0.070654573,-0.73985955,0.4348942,0.292681415,0.56618808,494
1747533067150,0.94193891,0.070410515,-0.6992240000000001,0.4101268,0.330498295,0.60134178,495
1747533067160,0.933396935,0.0717528299999999,-0.6931226,0.339286725,0.33928673,0.6396913,496
1747533067170,0.9409627,0.08578612,-0.68140785,0.1853560225,0.357129915,0.7073356,497
1747533067180,0.95243338,0.108361415,-0.65810035,0.0471379505,0.351803585,0.7869641,498
1747533067190,0.94730818,0.1223947049999999,-0.6457754849999999,-0.0098536954999999,0.2711098,0.8615326,499
1747533067200,0.91911955,0.125201365,-0.6321082849999999,-0.0524642735,0.1294296325,0.96805905,500
1747533067210,0.88910055,0.1177576224999999,-0.62503062,-0.0958738,-0.0695085075,1.1219898,501
1747533067220,0.878118,0.113974735,-0.62551874,-0.11984225,-0.18535602,1.212271,502
1747533067230,0.86176615,0.1001854975,-0.5458340500000001,-0.080427465,-0.393881535,1.32652055,503
1747533067240,0.8405332000000001,0.074803545,-0.53717,-0.0292947719999999,-0.50866376,1.2996226,504
1747533067250,0.80965995,0.058939825,-0.54888475,-0.042344262,-0.59441754,1.2490225499999998,505
1747533067260,0.7685363000000001,0.0550349065,-0.59330317,-0.128364365,-0.739027215,1.21786355,506
1747533067270,0.73863927,0.051740134,-0.63149812,-0.36831519,-1.0809771,1.2221246,507
1747533067280,0.73827317,0.0405135025,-0.64101635,-0.613326025,-1.4354437999999998,1.25674575,508
1747533067290,0.7419340299999999,0.010128376,-0.64309085,-0.71931983,-1.5640744999999998,1.29935635,509
1747533067300,0.748401555,-0.0212329804999999,-0.638087675,-0.73583141,-1.5230619,1.33291215,510
1747533067310,0.744618675,-0.0366085865,-0.62332219,-0.65300708,-1.33291215,1.3451627,511
1747533067320,0.7210671200000001,-0.069678345,-0.600502845,-0.3970772999999999,-0.9643306,1.31986265,512
1747533067330,0.67982142,-0.1081173575,-0.6025773299999999,-0.1187769814999999,-0.63809342,1.30921,513
1747533067340,0.6263729,-0.1225167325,-0.6341827250000001,0.0095873809999999,-0.535029085,1.3432985,514
1747533067350,0.5765852499999999,-0.116293275,-0.659686725,0.0591221775,-0.544083835,1.37445745,515
1747533067360,0.52252657,-0.0933518949999999,-0.6828722,-0.014114755,-0.72491247,1.3603427,516
1747533067370,0.47054237,-0.086396265,-0.69702752,-0.16990968,-0.9635317,1.28417635,517
1747533067380,0.44198768,-0.089324955,-0.68409247,-0.29241509,-1.0887003000000002,1.18803625,518
1747533067390,0.43722858,-0.088104667,-0.67201162,-0.3725762299999999,-1.13051195,1.092695,519
1747533067400,0.447967085,-0.100429557,-0.6764046699999999,-0.43409525,-1.0852382,1.0037454,520
1747533067410,0.461878335,-0.1282520899999999,-0.67286585,-0.4679174,-0.938498,0.9305085,521
1747533067420,0.44088941,-0.19622203,-0.6194173000000001,-0.40426785,-0.63436499,0.8418252500000001,522
1747533067430,0.401108085,-0.26602239,-0.57792758,-0.29640984,-0.363255175,0.7534083,523
1747533067440,0.38561046,-0.29323478,-0.5857374049999999,-0.23302661,-0.258859255,0.68203557,524
1747533067450,0.36755021,-0.31471182,-0.594767525,-0.18136127,-0.221575005,0.61865234,525
1747533067460,0.319592955,-0.3743838,-0.61453618,-0.118776982,-0.3494067349999999,0.608532335,526
1747533067470,0.302875045,-0.428076415,-0.634914965,-0.075367462,-0.5339638,0.602407065,527
1747533067480,0.34314449,-0.421242815,-0.626494935,-0.05832323,-0.5949502,0.52890381,528
1747533067490,0.366085875,-0.414409185,-0.6100210500000001,-0.041545314,-0.54541541,0.41225734,529
1747533067500,0.369014565,-0.440157235,-0.6213697499999999,-0.050333749,-0.40746366,0.27856665,530
1747533067510,0.35607953,-0.4744473,-0.64089435,-0.09827065,-0.24261398,0.137419117,531
1747533067520,0.3432665299999999,-0.514594725,-0.6644458799999999,-0.25406558,-0.08868326675,-0.1054611779999999,532
1747533067530,0.3335042299999999,-0.581100325,-0.69495303,-0.47510794,-0.0034621095,-0.35686359,533
1747533067540,0.3150779,-0.665056,-0.7071559000000001,-0.6317018,0.03621899225,-0.480966915,534
1747533067550,0.336310895,-0.769024375,-0.7159419499999999,-0.711862955,0.2934803649999999,-0.6498113299999999,535
1747533067560,0.36047256,-0.871650475,-0.7158199000000001,-0.682834505,0.72304825,-0.87857688,536
1747533067570,0.348635775,-0.9390103,-0.7098405,-0.554203835,1.13104455,-1.0868361,537
1747533067580,0.313003425,-0.9837948,-0.76817017,-0.41891526,1.50681655,-1.2705942,538
1747533067590,0.2860351,-1.0025872,-0.82393724,-0.3616573,1.6772588,-1.3502227,539
1747533067600,0.118001675,-1.1368187,-1.0832481,-0.49375005,2.1275995,-1.5081481,540
1747533067610,0.0784644035,-1.15951595,-1.1299851,-0.627973365,2.32174395,-1.63118615,541
1747533067620,0.061502427,-1.1653733,-1.150974,-0.64714813,2.3499734,-1.6825852,542
1747533067630,0.052716365,-1.20161585,-1.1776982,-0.50600061,2.41735135,-1.82719485,543
1747533067640,0.107263165,-1.21625935,-1.1426759999999998,-0.0697748249999999,2.4237429,-1.87513175,544
1747533067650,0.160345615,-1.22260485,-1.0931324,0.4772384899999999,2.3414513,-1.82533065,545
1747533067660,0.17572122,-1.2123544000000002,-1.06128295,0.83569998,2.1465079,-1.6791231,546
1747533067670,0.201713315,-1.17464755,-1.02284395,1.10174975,1.81521065,-1.4929681499999998,547
1747533067680,0.251256925,-1.11338915,-0.98965215,1.2412994,1.3656690500000002,-1.32279215,548
1747533067690,0.28042176,-1.074584,-0.97208,1.2772521,1.1169298,-1.2479573,549
1747533067700,0.3776786,-0.9590229,-0.933763,1.0902982,0.4162520900000001,-1.11293505,550
1747533067710,0.511666045,-0.8258897000000001,-0.8966662999999999,0.768322,-0.35180359,-0.93556852,551
1747533067720,0.54839665,-0.8083176,-0.8978866,0.6332997,-0.41918156,-0.89322424,552
1747533067730,0.6155124,-0.80294836,-0.86274236,0.26631611,-0.3933489,-0.7275756200000001,553
1747533067740,0.6687168450000001,-0.865305,-0.7983112649999999,0.086286423,-0.285757195,-0.5800365000000001,554
1747533067750,0.68348235,-0.9155808,-0.762922935,-0.032756882,-0.072704305,-0.2833603449999999,555
1747533067760,0.685312785,-0.93242075,-0.7454728500000001,-0.0588558599999999,0.161387555,0.040480055,556
1747533067770,0.68152985,-0.9347393,-0.7187486000000001,0.02050634,0.4050668149999999,0.27004454,557
1747533067780,0.6733539,-0.933519,-0.7043492,0.07989483,0.5581986,0.39148468,558
1747533067790,0.6172208,-0.823083105,-0.659808755,0.34461305,0.9872338,0.68469875,559
1747533067800,0.5770733800000001,-0.756821535,-0.6416265050000001,0.38482678,0.7901598999999999,0.7225156500000001,560
1747533067810,0.539854645,-0.7155758649999999,-0.651876895,0.3339604,0.3235740649999999,0.7368967,561
1747533067820,0.5289940799999999,-0.6948309850000001,-0.67982142,0.18242653,-0.295610885,0.737429325,562
1747533067830,0.562673985,-0.68287217,-0.664323825,-0.078563255,-1.0964234,0.763528325,563
1747533067840,0.62930162,-0.6895837499999999,-0.641504495,-0.28229508,-1.6016251,0.80693785,564
1747533067850,0.68311625,-0.709962525,-0.6334505699999999,-0.321443545,-1.526524,0.83543365,565
1747533067860,0.72070108,-0.717772375,-0.6241764000000001,-0.291882455,-1.2197278,0.86339685,566
1747533067870,0.73668683,-0.70996255,-0.6312541,-0.21997711,-0.7637946200000001,0.889495825,567
1747533067880,0.7304633300000001,-0.68055365,-0.65871055,-0.08548747385,-0.05672534,0.878044225,568
1747533067890,0.69763763,-0.6449213,-0.6936107,0.01571265115,0.5131911499999999,0.8436894500000001,569
1747533067900,0.65492765,-0.619783385,-0.70678975,0.01944107675,0.65034397,0.8082693999999999,570
1747533067910,0.5989165,-0.5784157,-0.6975156,-0.01118527725,0.5848302000000001,0.7472829999999999,571
1747533067920,0.5852493,-0.55901313,-0.69458693,-0.088949584,0.30360036,0.63729445,572
1747533067930,0.54559,-0.53704798,-0.70349503,-0.27244139,-0.34621096,0.471379525,573
1747533067940,0.53228885,-0.53131265,-0.7084981850000001,-0.462857395,-0.99229387,0.3443467249999999,574
1747533067950,0.5668229499999999,-0.52069615,-0.694708935,-0.562992245,-1.3073458,0.28495824,575
1747533067960,0.6053839999999999,-0.510689775,-0.6879973500000001,-0.62584287,-1.45062385,0.2428803,576
1747533067970,0.63796562,-0.5084932449999999,-0.678357085,-0.6215818200000001,-1.31107425,0.1984055049999999,577
1747533067980,0.65382934,-0.50885934,-0.66847277,-0.59388494,-1.1478225,0.16990969,578
1747533067990,0.63967407,-0.491409265,-0.6633476,-0.43036684,-0.7131946,0.11851067,579
1747533068000,0.64431115,-0.465539205,-0.6756725,-0.2948119349999999,-0.400006825,0.04900216555,580
1747533068010,0.6626154,-0.426368015,-0.70203065,-0.15126756,-0.027696876,-0.06018744,581
1747533068020,0.6984918,-0.3704789,-0.720701025,-0.14141386,0.127565412,-0.0727043,582
1747533068030,0.7349783700000001,-0.3122712549999999,-0.7191146900000001,-0.15765914,0.30626352,-0.0876180025,583
1747533068040,0.7490116950000001,-0.27419833,-0.712159035,-0.2263686999999999,0.31824775,-0.1059938125,584
1747533068050,0.748523595,-0.251378975,-0.7196027899999999,-0.3249056649999999,0.26658243,-0.151800185,585
1747533068060,0.70666775,-0.2624835749999999,-0.735100445,-0.4894890249999999,0.0117179099999999,-0.22184133,586
1747533068070,0.64479923,-0.30360723,-0.7314396,-0.61891866,-0.45806372,-0.24927188,587
1747533068080,0.629179565,-0.315688065,-0.7408357999999999,-0.58749336,-0.58003649,-0.21385184,588
1747533068090,0.6135599,-0.3277689,-0.750232,-0.55606806,-0.70200926,-0.1784318,589
1747533068100,0.58512725,-0.357055735,-0.7477914,-0.34221621,-0.7600662,-0.062850605,590
1747533068110,0.6366233,-0.291282315,-0.71740625,-0.0479369,-0.525175385,-0.127299105,591
1747533068120,0.72753465,-0.19195103,-0.70276283,0.18615497,-0.15632756725,-0.298274055,592
1747533068130,0.7670719500000001,-0.145092035,-0.70288488,0.215449735,0.14274542775,-0.43809001,593
1747533068140,0.75608937,-0.13191294,-0.68628898,0.17816548,0.37710361,-0.5169195799999999,594
1747533068150,0.74535084,-0.13276714,-0.67555046,0.14647387,0.4676511,-0.53795856,595
1747533068160,0.728388865,-0.169619795,-0.67628265,-0.1043959175,0.458862675,-0.513191175,596
1747533068170,0.70190865,-0.200004915,-0.6764047,-0.26525085,0.309193005,-0.4500742399999999,597
1747533068180,0.6816519000000001,-0.228803665,-0.6866551,-0.28842035,0.13502227,-0.366184665,598
1747533068190,0.64565345,-0.254307645,-0.6955631499999999,-0.260457155,-0.0450074249999999,-0.2386192449999999,599
1747533068200,0.6293016300000001,-0.25259925,-0.7002002199999999,-0.207726565,-0.215183415,-0.1230380449999999,600
1747533068210,0.60330953,-0.22904774,-0.715697885,-0.137951745,-0.374174125,-0.082557995,601
1747533068220,0.5706058350000001,-0.2126959,-0.730341345,-0.086020105,-0.458330025,-0.1203748849999999,602
1747533068230,0.57988006,-0.19817449,-0.7324158,-0.07323693,-0.4133226,-0.197606555,603
1747533068240,0.59671998,-0.1901206,-0.721067135,-0.063116915,-0.225836057,-0.3067961649999999,604
1747533068250,0.63162015,-0.171084135,-0.693000555,-0.034621094,0.034621093,-0.4159857649999999,605
1747533068260,0.6357691000000001,-0.15522041,-0.6879974,-0.022903184,0.32117724,-0.461525815,606
1747533068270,0.62259,-0.139844795,-0.69910203,-0.0545948025,0.49667954,-0.44714475,607
1747533068280,0.6233222,-0.12935033,-0.6984919,-0.077231675,0.5113269,-0.4314321,608
1747533068290,0.596109835,-0.12898426,-0.69092607,-0.10918961,0.42184472,-0.39840892,609
1747533068300,0.58329683,-0.133743375,-0.6978816999999999,-0.10146644,0.2380866099999999,-0.34461305,610
1747533068310,0.5740226500000001,-0.134353515,-0.70361707,-0.052197961,0.084155895,-0.32943304,611
1747533068320,0.56328412,-0.128252087,-0.70337297,0.022636869,-0.0034621095,-0.3147856599999999,612
1747533068330,0.5593792,-0.123004854,-0.7058135,0.05539375,-0.002130529,-0.30253512,613
1747533068340,0.579636,-0.10494461,-0.70166457,0.0777643,0.066046394,-0.28708878,614
1747533068350,0.694831,-0.018792408,-0.6545615,0.049534798,0.45486793,-0.44474792,615
1747533068360,0.7067898,0.011958805,-0.6106312,0.049534798,0.45486793,-0.44474792,616
1747533068370,0.680187555,0.0339239565,-0.60526195,0.0439421585,0.7539409100000001,-0.80214414,617
1747533068380,0.641992575,0.0420998759999999,-0.6323523200000001,-0.0021305299999999,0.655670255,-0.856472645,618
1747533068390,0.6233222,0.045882765,-0.65065664,-0.03568636,0.57098174,-0.86659265,619
1747533068400,0.63357264,0.04881145,-0.7067898,-0.2711098,-0.019707393,-0.84688526,620
1747533068410,0.6487042,0.030019043,-0.70288485,-0.3371562,-0.2593919,-0.7882957,621
1747533068420,0.6208816,-0.012446919,-0.7004443,-0.34674358,-0.40746364,-0.67537767,622
1747533068430,0.64248075,-0.025259925,-0.696539375,-0.25779399,-0.437823695,-0.52943644,623
1747533068440,0.69702752,0.0057353449999999,-0.674818275,-0.059654808,-0.2050634122,-0.48682586,624
1747533068450,0.75023197,0.0357543875,-0.65968675,0.151267552,0.1515338728,-0.4852279499999999,625
1747533068460,0.771709,0.04454045,-0.6640798,0.255397155,0.44022056,-0.5089300999999999,626
1747533068470,0.7797629,0.04637088,-0.6640798,0.29933932,0.5811018,-0.5267733,627
1747533068480,0.7636551250000001,0.0616244559999999,-0.65541575,0.36591834,0.85088,-0.6399576499999999,628
1747533068490,0.6947089399999999,0.083101493,-0.66224935,0.31744881,0.6878945249999999,-0.6681871500000001,629
1747533068500,0.6438230149999999,0.09567044,-0.6987358800000001,0.1784318,0.280963505,-0.62238077,630
1747533068510,0.63869782,0.09579247,-0.7361986650000001,0.014913702,-0.091612745,-0.5448827700000001,631
1747533068520,0.64235867,0.083955695,-0.747059235,-0.135554908,-0.395213125,-0.45699845,632
1747533068530,0.6646899,0.0277004995,-0.7387613,-0.245277155,-0.58190073,-0.369913075,633
1747533068540,0.6792113,-0.019280521,-0.7353445,-0.28975195,-0.64182186,-0.32650355,634
1747533068550,0.7055695,0.005613316,-0.67359803,-0.198671815,-0.45806372,-0.30173615,635
1747533068560,0.7307074,0.0507639089999999,-0.65858848,-0.082824312,-0.28522455,-0.341683565,636
1747533068570,0.744496635,0.0967687025,-0.69312258,-0.0002663154999999,-0.130494895,-0.427703675,637
1747533068580,0.747669385,0.14118712,-0.75010998,0.0095873804,-0.0703074549999999,-0.5683185749999999,638
1747533068590,0.7421781000000001,0.162420095,-0.78964725,-0.0053263220999999,-0.09853696,-0.66978502,639
1747533068600,0.7407137500000001,0.15485432,-0.795870695,0.0010652645,-0.15819177,-0.6668555700000001,640
1747533068610,0.74303228,0.139844805,-0.7968469,0.0476705835,-0.21172131,-0.62211445,641
1747533068620,0.74510676,0.13252309,-0.79709095,0.083090626,-0.23276028,-0.5901565,642
1747533068630,0.7618247,0.135817855,-0.742300135,0.3962783749999999,-0.16298546,-0.398941545,643
1747533068640,0.7831797,0.150705345,-0.6993460499999999,0.642088145,-0.0271642419999999,-0.281496135,644
1747533068650,0.80648717,0.186093645,-0.6881193999999999,0.728907195,0.103064333,-0.25619611,645
1747533068660,0.83614012,0.233440745,-0.6840924749999999,0.74808195,0.236755025,-0.27696876,646
1747533068670,0.85078355,0.283594505,-0.672987875,0.65194182,0.352336225,-0.3688478149999999,647
1747533068680,0.836262135,0.30141069,-0.6674965500000001,0.4961469,0.388821525,-0.43276368,648
1747533068690,0.81417495,0.27993366,-0.67591655,0.351004625,0.333694085,-0.39228363,649
1747533068700,0.808439615,0.25723634,-0.6806757,0.20026971,0.24873925,-0.296409835,650
1747533068710,0.808073525,0.23673553,-0.6803096,0.0668453445,0.1544633475,-0.16325178,651
1747533068720,0.800385745,0.215868635,-0.6849467,-0.0463390055,0.05379585585,0.0085221149999999,652
1747533068730,0.804778785,0.21489241,-0.711793,-0.13582122,-0.03009372165,0.21704764,653
1747533068740,0.826133785,0.225752955,-0.7508421350000001,-0.18722023,-0.06977482,0.34328148,654
1747533068750,0.8424856199999999,0.221237895,-0.775613935,-0.212786575,-0.082824307,0.353667795,655
1747533068760,0.8312589699999999,0.202567515,-0.7895252,-0.22184132,-0.098536962,0.3406182949999999,656
1747533068770,0.8092938199999999,0.180358305,-0.7906234750000001,-0.182426535,-0.146207545,0.353135155,657
1747533068780,0.7981892349999999,0.155586495,-0.785864355,-0.113983295,-0.19201392,0.4135889149999999,658
1747533068790,0.795626635,0.127031797,-0.78098321,-0.0495347975,-0.18801918,0.4977448,659
1747533068800,0.8027043,0.109215617,-0.75328273,0.0463390054999999,-0.1360875325,0.58589545,660
1747533068810,0.81368688,0.1189779099999999,-0.7049593999999999,0.168844418,-0.061252706,0.652474495,661
1747533068820,0.82881841,0.1483868099999999,-0.6726217999999999,0.31425302,0.0245010815,0.682568195,662
1747533068830,0.838092565,0.17218239,-0.66493395,0.4082626099999999,0.06498113,0.694286125,663
1747533068840,0.831258955,0.1774296249999999,-0.66896092,0.402669965,0.02689792665,0.722515625,664
1747533068850,0.8219848000000001,0.17084007,-0.6770148199999999,0.36085833,-0.0255663473499999,0.785632525,665
1747533068860,0.82076454,0.1769415,-0.63625723,0.292148775,-0.082025364,0.898550575,666
1747533068870,0.8113683199999999,0.18353105,-0.628081315,0.22503712,-0.149137025,1.006941225,667
1747533068880,0.7908675000000001,0.192439145,-0.619173225,0.16405073,-0.22663501,1.0628676,668
1747533068890,0.76682787,0.184019165,-0.612095575,0.080427468,-0.32091091,1.098554,669
1747533068900,0.748645605,0.1607117,-0.59708608,-0.017310547,-0.43915528,1.1262509,670
1747533068910,0.7405917049999999,0.1354517775,-0.59964868,-0.161121245,-0.65061027,1.2045478,671
1747533068920,0.7477913700000001,0.1125103905,-0.6188071500000001,-0.2865561399999999,-0.821851525,1.2969595,672
1747533068930,0.760604375,0.100185503,-0.63418277,-0.31798145,-0.84848315,1.3246564,673
1747533068940,0.742666175,0.099209275,-0.6467517199999999,-0.343814105,-0.8732504999999999,1.29962265,674
1747533068950,0.69178025,0.0976229,-0.6640797700000001,-0.340884625,-0.90414318,1.26340365,675
1747533068960,0.62551873,0.0827354075,-0.7082541200000001,-0.391484685,-0.97365168,1.2189288500000002,676
1747533068970,0.5781716100000001,0.0501537655,-0.74107983,-0.4681837199999999,-1.0301106999999998,1.1653993,677
1747533068980,0.56511453,0.0092741765,-0.73388016,-0.49694587,-1.0234527999999998,1.11826135,678
1747533068990,0.5632841,-0.011226633,-0.72582626,-0.5006743,-1.0088054,1.0940266,679
1747533069000,0.525211175,-0.088226695,-0.6999562,-0.39707732,-0.874848415,1.0974887,680
1747533069010,0.498975025,-0.12141848,-0.71679615,-0.2617887399999999,-0.8442221000000001,1.1150656,681
1747533069020,0.468833975,-0.1261775975,-0.7481575,-0.170442315,-0.9105348,1.1185277500000002,682
1747533069030,0.45211605,-0.1104359075,-0.7646313250000001,-0.180562325,-1.03676865,1.09615715,683
1747533069040,0.4144092,-0.105554765,-0.7905013750000001,-0.24154871,-1.20987415,1.04688865,684
1747533069050,0.3740177249999999,-0.1160492275,-0.823083035,-0.3675162349999999,-1.4231933,0.98244015,685
1747533069060,0.371699185,-0.1404549475,-0.8339435850000001,-0.470314265,-1.52679025,0.927579,686
1747533069070,0.38890521,-0.18096845,-0.8285743000000001,-0.49428271,-1.443966,0.860733675,687
1747533069080,0.41587355,-0.21110952,-0.83418762,-0.48922269,-1.2532837,0.764060945,688
1747533069090,0.425391775,-0.2460097,-0.8282082399999999,-0.42290999,-0.85434213,0.635430245,689
1747533069100,0.4106263049999999,-0.279079455,-0.8063651199999999,-0.30839406,-0.48096691,0.5536711750000001,690
1747533069110,0.38060728,-0.28286233,-0.79574865,-0.18588864,-0.33609094,0.5605954200000001,691
1747533069120,0.3585201,-0.2806658,-0.7941623,-0.11930962,-0.28442562,0.57364494,692
1747533069130,0.30653591,-0.309708655,-0.7721971599999999,-0.0047936895,-0.416518405,0.59068915,693
1747533069140,0.2962855,-0.31532198,-0.76804817,0.067910611,-0.68389978,0.56272595,694
1747533069150,0.319104835,-0.277127,-0.7667058250000001,0.105727498,-0.9635317,0.51212589,695
1747533069160,0.3449749,-0.2766388749999999,-0.77854261,0.087085365,-1.10281505,0.45833004,696
1747533069170,0.3612047,-0.27651685,-0.78513217,0.07084008,-1.1547467,0.4293016,697
1747533069180,0.3612047,-0.27651685,-0.78513217,0.07084008,-1.1547467,0.4293016,698
1747533069190,0.38072932,-0.29616347,-0.800507775,-0.037550575,-0.8825716,0.2279666,699
1747533069200,0.34790361,-0.33069757,-0.80807355,-0.069774825,-0.595749135,0.0886832635,700
1747533069210,0.320813255,-0.344608835,-0.8245474,-0.091346425,-0.47643952,-0.0463390015,701
1747533069220,0.30897649,-0.3605945849999999,-0.8493192350000001,-0.132092785,-0.416784715,-0.21598237,702
1747533069230,0.327890915,-0.38170555,-0.863352535,-0.175502315,-0.41998051,-0.47564057,703
1747533069240,0.38414609,-0.412212715,-0.87921622,-0.2010686649999999,-0.44421528,-0.712928225,704
1747533069250,0.405745165,-0.4733490649999999,-0.89703244,-0.20373183,-0.40613207,-0.828775725,705
1747533069260,0.3840240849999999,-0.559623285,-0.8963002849999999,-0.18402444,-0.29055088,-0.9142632,706
1747533069270,0.37096701,-0.640650285,-0.881656795,-0.1366201675,-0.1235706749999999,-0.99522335,707
1747533069280,0.33582277,-0.740591715,-0.88995473,-0.05938849425,0.37896782,-1.1579425,708
1747533069290,0.276028755,-0.821618715,-0.909967465,-0.00266316125,0.995489635,-1.3246563999999998,709
1747533069300,0.21599067,-0.85322415,-0.93412915,0.00479369,1.376588,-1.40987755,710
1747533069310,0.16303025,-0.8811687,-0.981354185,-0.0194410765,1.68444945,-1.4807176000000002,711
1747533069320,0.11665937,-0.912774085,-1.0437108,-0.074035881,1.91667705,-1.536644,712
1747533069330,0.0433201615,-0.977937335,-1.0749501499999998,-0.128630685,2.09670675,-1.57446085,713
1747533069340,-0.0229413815,-1.0379755,-1.0722655,-0.125168575,2.1065605,-1.5893745,714
1747533069350,-0.059061853,-1.065676,-1.0639676,-0.05299690725,1.9006981,-1.577124,715
1747533069360,-0.07443746,-1.07958725,-1.0391958,0.07350324775,1.5068166,-1.546764,716
1747533069370,-0.06552937,-1.0736078999999998,-1.00551585,0.28522456,0.7749799150000001,-1.47326075,717
1747533069380,-0.03380192725,-1.048714,-0.98159825,0.472444785,0.1304948915,-1.3789848500000002,718
1747533069390,0.02696832775,-0.997461975,-0.97537478,0.5664543799999999,-0.1512675585,-1.3009542500000002,719
1747533069400,0.1039683949999999,-0.91619095,-0.975496795,0.621049195,-0.321976185,-1.22318995,720
1747533069410,0.164860675,-0.856884975,-0.98599124,0.612793385,-0.395479425,-1.1369035,721
1747533069420,0.21074343,-0.83675023,-0.995997575,0.44101949,-0.423442615,-0.9539443,722
1747533069430,0.2567482199999999,-0.8263778799999999,-0.98684545,0.194144455,-0.46312372,-0.717721925,723
1747533069440,0.29591942,-0.82662193,-0.96536845,0.0245010825,-0.53130066,-0.545948045,724
1747533069450,0.327768905,-0.8336995549999999,-0.94999285,-0.0964064375,-0.650343955,-0.400805745,725
1747533069460,0.34168017,-0.83833665,-0.946454,-0.14647387,-0.72651035,-0.32650355,726
1747533069470,0.39256607,-0.8428517,-0.9559722,-0.2191781649999999,-1.279116265,0.022370555,727
1747533069480,0.434665945,-0.829672585,-0.9589009,-0.20719394,-1.72705995,0.263120325,728
1747533069490,0.46993224,-0.7944063349999999,-0.96170758,-0.16511599,-1.9683424,0.38589205,729
1747533069500,0.492751595,-0.75889603,-0.95511806,-0.1131843449999999,-2.1150826,0.49055429,730
1747533069510,0.49629042,-0.718504545,-0.921438155,-0.011717907,-2.07833095,0.62717445,731
1747533069520,0.47395917,-0.6807976950000001,-0.889588675,0.086819053,-1.88924655,0.7398261500000001,732
1747533069530,0.44430622,-0.6402841800000001,-0.8742131,0.128630685,-1.6748621,0.77870832,733
1747533069540,0.43124918,-0.5836629,-0.87482322,0.135288585,-1.4785871,0.7904262200000001,734
1747533069550,0.41074836,-0.541319,-0.908259005,0.087085366,-1.31746585,0.79495358,735
1747533069560,0.39464056,-0.5288721,-0.93327487,0.048469532,-1.2468921,0.80107886,736
1747533069570,0.315566015,-0.53472942,-0.92595317,-0.0857537875,-1.17685095,0.957140125,737
1747533069580,0.302386935,-0.537292035,-0.92595317,-0.0506000594999999,-1.19016675,0.99602225,738
1747533069590,0.28481482,-0.539244515,-0.910821645,0.031158988,-1.1880362,1.0066749000000002,739
1747533069600,0.265290235,-0.52374685,-0.8947138750000001,0.14887071,-1.2218583,0.9731191,740
1747533069610,0.240274365,-0.4762776999999999,-0.913018135,0.221575005,-1.35661425,0.88044105,741
1747533069620,0.20988924,-0.42746626,-0.939864385,0.18908444,-1.49137025,0.8072041,742
1747533069630,0.187802055,-0.407819645,-0.94303715,0.1043959169999999,-1.5448998,0.8000136,743
1747533069640,0.19268319,-0.40061997,-0.94584385,0.0157126505,-1.531584,0.8175905,744
1747533069650,0.20476402,-0.39805737,-0.9515792,-0.027164243,-1.4998924,0.8309063,745
1747533069660,0.24845028,-0.3889052149999999,-0.92912597,-0.081226415,-1.1020161,0.8343684,746
1747533069670,0.24478943,-0.387806955,-0.90911329,-0.0202400235,-0.602939665,0.753142,747
1747533069680,0.2020794,-0.38085133,-0.92497697,0.0439421589999999,-0.1589907199999999,0.6322345,748
1747533069690,0.17498904,-0.37316352,-0.9349833,0.051665325,-0.04474111,0.5795039,749
1747533069700,0.074437463,-0.36218096,-0.99758402,-0.078829565,-0.1342233215,0.48895639,750
1747533069710,0.0297749825,-0.349001875,-1.0440769,-0.22050973,-0.335558305,0.4500742399999999,751
1747533069720,0.039293217,-0.3348465499999999,-1.0722655,-0.4370247499999999,-0.6492787,0.4194478849999999,752
1747533069730,0.0721189125,-0.33191784,-1.07556035,-0.6079996999999999,-0.87458214,0.397077325,753
1747533069740,0.08346757,-0.33509058,-1.073852,-0.6396913,-0.90920323,0.39148468,754
1747533069750,0.1034802725,-0.3515644599999999,-1.05689,-0.5997439,-0.801611515,0.37284256,755
1747533069760,0.11324256,-0.35095432,-1.039928,-0.561927,-0.73769563,0.3552657,756
1747533069770,0.08529801,-0.316054135,-1.0086886000000002,-0.32277513,-0.4410195,0.152599136,757
1747533069780,0.086396267,-0.29433304,-1.02552855,-0.25672873,-0.30679617,0.008788431,758
1747533069790,0.097134784,-0.28115395,-1.0330943,-0.29827404,-0.17976337,-0.06258429,759
1747533069800,0.1956118849999999,-0.22733933,-1.02662675,-0.33369409,-0.0335558294999999,-0.093743275,760
1747533069810,0.2040318549999999,-0.22416658,-1.0128374999999998,-0.32463934,0.0218379205,-0.086819055,761
1747533069820,0.2012252,-0.21757704,-1.0023431,-0.292681415,-0.0055926399999999,-0.075367463,762
1747533069830,0.187313935,-0.213306045,-0.99892633,-0.24367925,-0.10306434,-0.064714818,763
1747533069840,0.164494585,-0.19707623,-0.991116495,-0.183491805,-0.349406735,-0.077764305,764
1747533069850,0.1564407,-0.18060236,-0.98452693,-0.15126756,-0.53529537,-0.09640643,765
1747533069860,0.17193833,-0.15241375,-0.98525915,-0.262854005,-0.71958615,-0.149403335,766
1747533069870,0.18316496,-0.144603915,-0.99184868,-0.359793075,-0.79202415,-0.15393071,767
1747533069880,0.19780839,-0.14423783,-0.97891363,-0.41838262,-0.78723045,-0.131826475,768
1747533069890,0.20842488,-0.14252943,-0.9596331,-0.43036684,-0.7653925,-0.11771172,769
1747533069900,0.305437655,-0.0734612309999999,-0.9382781,-0.293214035,-0.28602351,-0.1699096749999999,770
1747533069910,0.31446777,-0.059671996,-0.921072075,-0.22397184,0.008255795,-0.238352925,771
1747533069920,0.28676727,-0.0491775344999999,-0.910577625,-0.18136127,0.20293288,-0.29001825,772
1747533069930,0.24161669,-0.0616244539999999,-0.9520673,-0.220776065,0.20772657,-0.300670895,773
1747533069940,0.18523946,-0.0882266945,-0.985015,-0.362456235,-0.050600065,-0.24900557,774
1747533069950,0.138014375,-0.1083614195,-0.96158555,-0.46818373,-0.3901531099999999,-0.184557065,775
1747533069960,0.114828935,-0.1223947125,-0.9216822,-0.44048685,-0.60480389,-0.1669802,776
1747533069970,0.099453325,-0.124591225,-0.8975204999999999,-0.35340148,-0.766457765,-0.1789644249999999,777
1747533069980,0.1149509649999999,-0.102137955,-0.8923953,-0.20586236,-0.82051995,-0.2047970949999999,778
1747533069990,0.144847975,-0.066871685,-0.9004492500000001,-0.092145375,-0.7163903650000001,-0.20879184,779
1747533070000,0.15302389,-0.04185582,-0.904964335,-0.0745685125,-0.53902383,-0.18588865,780
1747533070010,0.16400647,-0.0187924085,-0.8908089699999999,-0.0884169525,-0.389354155,-0.17097495,781
1747533070020,0.18633771,0.0095182325,-0.879704355,-0.12676647,-0.27909928,-0.18482339,782
1747533070030,0.18048034,0.0417337895,-0.88568377,-0.275104545,-0.24953819,-0.235423445,783
1747533070040,0.16449459,0.057109397,-0.8922733,-0.39627838,-0.2647182,-0.2711098,784
1747533070050,0.15522041,0.043808277,-0.90240168,-0.47457531,-0.347808835,-0.2681803299999999,785
1747533070060,0.10091767,-0.0460047945,-0.93473929,-0.7102651,-0.7504788499999999,-0.137951745,786
1747533070070,0.0774881749999999,-0.064675175,-0.926563365,-0.69162298,-1.0684603,0.0303600399999999,787
1747533070080,0.0690682,-0.038683075,-0.926319285,-0.60879865,-1.28817105,0.161653885,788
1747533070090,0.07175283,-0.01513155,-0.93010217,-0.5752428,-1.3049489,0.18109496,789
1747533070100,0.060770255,0.059794025,-0.92570912,-0.51612065,-1.1992214,0.1552623,790
1747533070110,0.0512520199999999,0.09652464,-0.933152875,-0.54381753,-1.11053815,0.077231675,791
1747533070120,-0.0063454875,0.1116561899999999,-0.941938925,-0.68443243,-1.11746245,-0.07536746,792
1747533070130,-0.0738273124999999,0.1007956399999999,-0.94706412,-0.85141265,-1.19176465,-0.2181129,793
1747533070140,-0.089446975,0.0873724925,-0.94755222,-0.953678025,-1.2636699500000002,-0.31079091,794
1747533070150,-0.090545235,0.0885927825,-0.9369357,-1.013865425,-1.3590111,-0.41385524,795
1747533070160,-0.107263162,0.08871481,-0.92180418,-1.00933805,-1.4282533000000002,-0.47164583,796
1747533070170,-0.124347172,0.0956704375,-0.90569643,-0.9121327,-1.42532385,-0.4780374149999999,797
1747533070180,-0.124347172,0.1161712474999999,-0.8894666200000001,-0.7850999249999999,-1.37552275,-0.48735848,798
1747533070190,-0.116781395,0.12629963,-0.881412745,-0.6854976749999999,-1.28470895,-0.511593265,799
1747533070200,-0.111046046,0.12642166,-0.87958235,-0.6348976,-1.2277173,-0.5267733,800
1747533070210,-0.077244115,0.163396325,-0.8556647,-0.50759849,-0.9307748,-0.6146575999999999,801
1747533070220,-0.091399435,0.192805215,-0.86201018,-0.490287975,-0.7563377499999999,-0.692954515,802
1747533070230,-0.12764194,0.23990827,-0.877507835,-0.562725965,-0.71425982,-0.715591415,803
1747533070240,-0.13691612,0.26870704,-0.87982637,-0.61891866,-0.74728304,-0.6982809,804
1747533070250,-0.12690977,0.29128235,-0.94071865,-0.8628642,-0.965129575,-0.694818735,805
1747533070260,-0.13996683,0.2877435,-0.9669548,-1.0444918,-1.0178602,-0.68123662,806
1747533070270,-0.154000125,0.2767609199999999,-0.971958,-1.1153319,-0.9150622,-0.6740460500000001,807
1747533070280,-0.16449459,0.284936845,-0.9774493,-1.03357283,-0.73449985,-0.67910607,808
1747533070290,-0.17132819,0.29774985,-0.9825745,-0.97471696,-0.6396913,-0.67963874,809
1747533070300,-0.18426322,0.33570075,-1.02308795,-0.792024135,-0.4066647,-0.67830715,810
1747533070310,-0.17974816,0.3713330999999999,-1.05542555,-0.69668297,-0.3113235399999999,-0.7076019250000001,811
1747533070320,-0.16815544,0.396593025,-1.0758044,-0.6442187,-0.280164555,-0.7480819750000001,812
1747533070330,-0.162664155,0.40049794,-1.07653655,-0.6263755,-0.29348035,-0.7611314499999999,813
1747533070340,-0.15912533,0.40220633,-1.07434,-0.5885586,-0.30786142,-0.7483483,814
1747533070350,-0.129350345,0.392444055,-1.04432095,-0.45673213,-0.34408042,-0.6615292500000001,815
1747533070360,-0.0911553824999999,0.39390839,-1.0164984499999998,-0.294012985,-0.366983605,-0.5571333,816
1747533070370,-0.0533265124999999,0.4006199649999999,-1.0024652,-0.189617075,-0.3326288149999999,-0.49161955,817
1747533070380,-0.0257480415,0.4039147349999999,-0.9892861,-0.1017327574999999,-0.227966585,-0.4213121,818
1747533070390,-0.012202863,0.40611124,-0.9776934,-0.060720075,-0.15393071,-0.3850931,819
1747533070400,0.0170840065,0.43039495,-0.93888823,0.0625842885,0.152865445,-0.271376115,820
1747533070410,0.01427734815,0.43832682,-0.919363685,0.132891742,0.329166715,-0.226635015,821
1747533070420,-0.01818226535,0.40879589,-0.900327185,0.18855181,0.38456047,-0.160588615,822
1747533070430,-0.070898631,0.35278475,-0.90594048,0.2047970949999999,0.29055088,-0.0372842565,823
1747533070440,-0.11190025,0.327524825,-0.91960773,0.206661305,0.150468605,0.1243696235,824
1747533070450,-0.12520137,0.349856065,-0.93046825,0.20319919,-0.01544633,0.27244139,825
1747533070460,-0.12690977,0.39671505,-0.97781535,0.148870705,-0.2466087249999999,0.381897315,826
1747533070470,-0.14094306,0.42880859,-1.0380975,0.0545948044999999,-0.42450789,0.4348942249999999,827
1747533070480,-0.174744985,0.431249175,-1.0639675,-0.0013315804999999,-0.463123725,0.4482100249999999,828
1747533070490,-0.19548985,0.42783237,-1.0731196,-0.01438107,-0.46711847,0.45380265,829
1747533070500,-0.215746615,0.396593035,-1.0778788,0.08894958,-0.44101948,0.3888215,830
1747533070510,-0.20622838,0.39390841,-1.06653015,0.284958245,-0.347542525,0.32836777,831
1747533070520,-0.18975451,0.384390175,-1.0554256,0.4386226399999999,-0.304133,0.308660385,832
1747533070530,-0.177917735,0.377800615,-1.04908015,0.5845638799999999,-0.2889529899999999,0.3139867,833
1747533070540,-0.15936939,0.40147415,-1.0467615499999998,0.7419567,-0.359526755,0.3736414999999999,834
1747533070550,-0.1266657125,0.438448835,-1.0595745,0.8423578650000001,-0.512392215,0.43915526,835
1747533070560,-0.1010396975,0.45419054,-1.0599406,0.8588694649999999,-0.6559366,0.454068975,836
1747533070570,-0.09640261,0.45516676,-1.0504224,0.8628642,-0.7190535,0.45486793,837
1747533070580,-0.1238590575,0.416483715,-1.03419255,0.85061365,-0.91479585,0.467384785,838
1747533070590,-0.13374338,0.4036707,-1.0321181,0.829841,-1.12358765,0.484961645,839
1747533070600,-0.1743789,0.396471015,-0.96866322,0.81359573,-1.3174658,0.48922269,840
1747533070610,-0.15070535,0.410016165,-0.939010265,0.79282308,-1.3752564,0.46791741,841
1747533070620,-0.1284961475,0.419900475,-0.929125965,0.7400925,-1.3427658,0.4463458,842
1747533070630,-0.1144628575,0.410992395,-0.91985178,0.65833345,-1.22026045,0.44821001,843
1747533070640,-0.10982577,0.40049794,-0.91253006,0.6114618,-1.135572,0.45806372,844
1747533070650,-0.12568948,0.37621423,-0.8722605999999999,0.6471481299999999,-0.5776396500000001,0.509462735,845
1747533070660,-0.14911898,0.36462152,-0.8592035849999999,0.70174295,-0.43329631,0.500407995,846
1747533070670,-0.17279254,0.35656764,-0.86933196,0.727043,-0.35233621,0.495347975,847
1747533070680,-0.18548352,0.3533949,-0.87958235,0.7286409,-0.3291667,0.49641323,848
1747533070690,-0.2720017999999999,0.214526325,-0.8826330499999999,0.60400495,-0.63942497,0.6412892,849
1747533070700,-0.281520035,0.169619785,-0.86664735,0.573644915,-0.80134515,0.71665665,850
1747533070710,-0.260409075,0.15461026,-0.8696980249999999,0.5462143500000001,-0.88124,0.7579356500000001,851
1747533070720,-0.25528388,0.154488235,-0.8607898949999999,0.53316485,-0.8311725999999999,0.75846828,852
1747533070730,-0.29933621,0.14094306,-0.8448041399999999,0.5427522300000001,-0.62344603,0.75154406,853
1747533070740,-0.33460248,0.12813005,-0.84053314,0.55127436,-0.47031426,0.75154406,854
1747533070750,-0.34997809,0.1193439925,-0.844316075,0.54754595,-0.209590785,0.73636407,855
1747533070760,-0.36083864,0.117147475,-0.829428555,0.573911225,-0.044208475,0.70493875,856
1747533070770,-0.36779428,0.117147475,-0.82052046,0.59601545,0.0314253,0.6844324,857
1747533070780,-0.39976577,0.097988985,-0.82381525,0.703607205,0.12410331,0.540355375,858
1747533070790,-0.41184659,0.0783423749999999,-0.8537122500000001,0.704672455,0.08495484,0.4005394249999999,859
1747533070800,-0.41245674,0.0654073415,-0.8838533,0.6178534,-0.009853697,0.318780385,860
1747533070810,-0.41282283,0.036120473,-0.8915411200000001,0.5219796,-0.1086569719999999,0.277501385,861
1747533070820,-0.41941236,-0.02135501,-0.8500513700000001,0.4676511,-0.2061286749999999,0.270044535,862
1747533070830,-0.3961049,-0.0534485365,-0.80734135,0.5398227600000001,-0.3033340599999999,0.267914015,863
1747533070840,-0.356201555,-0.0699224,-0.81673758,0.6511428850000001,-0.34221621,0.220509745,864
1747533070850,-0.343144485,-0.087616552,-0.83418768,0.690557675,-0.305730895,0.135022275,865
1747533070860,-0.344730865,-0.0699224005,-0.85310215,0.68256819,-0.26578347,0.04527374225,866
1747533070870,-0.3593743,-0.0953043585,-0.915214725,0.487092165,-0.268446635,-0.07909588775,867
1747533070880,-0.37743452,-0.15265781,-0.945355775,0.247407675,-0.265250845,-0.1776328449999999,868
1747533070890,-0.368282375,-0.172792525,-0.92082802,0.18588865,-0.24501082,-0.19600865,869
1747533070900,-0.35461518,-0.17938207,-0.91497064,0.11771172,-0.11664646,-0.27483824,870
1747533070910,-0.32935525,-0.204641995,-0.99758405,0.042344261,0.292681405,-0.437024745,871
1747533070920,-0.34900187,-0.283472475,-1.0897157,-0.182692857,0.7723167400000001,-0.601608115,872
1747533070930,-0.42819844,-0.4548006649999999,-1.0618931,-0.4498079149999999,1.1930962,-0.7355651249999999,873
1747533070940,-0.48103684,-0.54815257,-1.01479,-0.525708,1.3006879,-0.75420725,874
1747533070950,-0.543881575,-0.703861085,-0.9286378,-0.5731123,1.64556725,-0.7041398,875
1747533070960,-0.5983063500000001,-0.82393727,-0.8858057500000001,-0.57284598,2.0602215,-0.71346087,876
1747533070970,-0.6928785500000001,-0.94828442,-0.8160054,-0.56059543,2.4005735,-0.77977357,877
1747533070980,-0.7941623250000001,-1.025284485,-0.75181835,-0.541420675,2.4924525,-0.861266285,878
1747533070990,-0.949748775,-1.0823939,-0.721067135,-0.543551205,2.4967135000000003,-0.91666004,879
1747533071000,-1.09947785,-1.1225413,-0.733269985,-0.59441758,2.4714135,-0.953677975,880
1747533071010,-1.2130865000000002,-1.12583605,-0.7299752,-0.6937535,2.3845945000000004,-1.0237191,881
1747533071020,-1.274955,-1.1124129,-0.7197248,-0.7547399,2.314287,-1.071656,882
1747533071030,-1.2418853,-1.001366875,-0.63113205,-0.8572715550000001,1.5289208,-1.43704175,883
1747533071040,-1.2075952,-0.95011485,-0.6147802,-0.82611257,1.2458268,-1.5371766,884
1747533071050,-1.1243718,-0.90325594,-0.6643238,-0.82344943,0.72491246,-1.6698021,885
1747533071060,-0.84541435,-0.77805445,-0.77488173,-1.10121717,-0.1733718,-1.67539465,886
1747533071070,-0.581954525,-0.71313525,-0.8378485,-1.35741325,-0.529170135,-1.5472966,887
1747533071080,-0.401352165,-0.69470893,-0.8616441,-1.46580385,-0.4511395,-1.40401855,888
1747533071090,-0.32386398,-0.68458056,-0.8773858,-1.5030881,-0.3685815,-1.3283848,889
1747533071100,-0.1760872949999999,-0.6510227,-0.98025595,-1.49350075,0.0455400549999999,-1.0396980999999998,890
1747533071110,-0.093962038,-0.65309718,-1.09325445,-1.3741911,0.36831518,-0.680703965,891
1747533071120,-0.034778157,-0.66566613,-1.16659365,-1.16619825,0.5440838050000001,-0.3416835649999999,892
1747533071130,-0.0096402605,-0.674208165,-1.18428775,-0.9321064,0.456998435,-0.1938781299999999,893
1747533071140,0.00341680145,-0.688729585,-1.2002735,-0.6562029,0.26072347,-0.082557995,894
1747533071150,-0.0008542001999999,-0.6855568000000001,-1.21296455,-0.361390965,0.01784318,0.027164245,895
1747533071160,-0.00964026115,-0.65553775,-1.1927078,0.093476955,-0.2010686649999999,0.21944448,896
1747533071170,-0.0236735545,-0.61856308,-1.14694705,0.53556172,-0.25566347,0.41864893,897
1747533071180,-0.033679903,-0.60062486,-1.1246158,0.6737798,-0.21624869,0.48469532,898
1747533071190,-0.0545467965,-0.5510812300000001,-1.12144305,0.83356945,-0.090281165,0.59388491,899
1747533071200,-0.08358961,-0.469566125,-1.1177822000000002,0.994158065,0.087085365,0.728640875,900
1747533071210,-0.09176553,-0.43759465,-1.1172941,0.99495703,0.13848437,0.75420725,901
1747533071220,-0.168521535,-0.34765956,-1.1531704500000002,0.76752305,0.112119082,0.7637946,902
1747533071230,-0.21086547,-0.3653537,-1.1704986000000002,0.6527408,-0.066579033,0.75473985,903
1747533071240,-0.25479577,-0.39110173,-1.1548789,0.5888249249999999,-0.274838245,0.7603325000000001,904
1747533071250,-0.2777371349999999,-0.40733153,-1.1144874,0.615722825,-0.448742675,0.77284935,905
1747533071260,-0.28871974,-0.4288086,-0.99184865,1.0711234,-0.4165184,0.69029135,906
1747533071270,-0.29372291,-0.4324694599999999,-0.982818545,1.1616709,-0.3435477799999999,0.6625944749999999,907
1747533071280,-0.30800025,-0.42380542,-0.97159192,1.3028184500000002,-0.179230737,0.60959757,908
1747533071290,-0.31727442,-0.41148052,-0.9693954,1.3534185,-0.087884314,0.58429754,909
1747533071300,-0.34961201,-0.32447411,-0.93571553,1.23224465,0.20106867,0.415453135,910
1747533071310,-0.36340126,-0.3145898,-0.9432813,1.1526161,0.23062976,0.37284255,911
1747533071320,-0.369990795,-0.297505775,-0.9557282,0.804540975,0.169377045,0.268446635,912
1747533071330,-0.362669075,-0.296651585,-0.97647302,0.67697555,0.12037488,0.2412824,913
1747533071340,-0.3470494,-0.324108035,-0.95401977,0.32730251,-0.048735849,0.26365296,914
1747533071350,-0.321545415,-0.353516925,-0.906916735,0.2841592899999999,-0.09187906,0.290284565,915
1747533071360,-0.3076341449999999,-0.35888617,-0.8923953149999999,0.4202468299999999,-0.0119842265,0.2596582,916
1747533071370,-0.30360721,-0.3549812599999999,-0.87701973,0.5970807499999999,0.1187769885,0.19893813,917
1747533071380,-0.29225855,-0.2761507749999999,-0.88385333,0.784833615,0.293480355,0.1099885515,918
1747533071390,-0.28286234,-0.20110317,-0.9054524,0.87777793,0.396811,0.058056913,919
1747533071400,-0.24918245,-0.13618395,-0.99795,0.74035877,0.50813115,0.033023197,920
1747533071410,-0.18633771,-0.058573738,-1.065798,0.320111965,0.6727145,0.002663161,921
1747533071420,-0.163030245,-0.02489384,-1.0666522,0.046339,0.7352987799999999,-0.01837581,922
1747533071430,-0.146190295,-0.041977847,-1.065798,-0.22397185,0.66073028,-0.099602225,923
1747533071440,-0.13789235,-0.0656514,-1.0628693,-0.36645097,0.5699165,-0.16724652,924
1747533071450,-0.14448189,-0.119588055,-1.0893495,-0.33688988,0.1475391254999999,-0.18935076,925
1747533071460,-0.16022359,-0.1782838199999999,-1.12095495,-0.2561961,-0.1163801445,-0.094542219,926
1747533071470,-0.15936939,-0.213916175,-1.09508495,-0.0897485299999999,-0.26152242,0.049801114,927
1747533071480,-0.129960485,-0.204886055,-1.0182069,0.3270361799999999,-0.132625418,0.149403338,928
1747533071490,-0.13325525,-0.1707180449999999,-0.94181695,0.77125145,0.1608549319999999,0.156327555,929
1747533071500,-0.155464465,-0.120442255,-0.92583118,0.9374327,0.41598577,0.11318435,930
1747533071510,-0.123004855,-0.0501537639999999,-0.97403248,0.8668589499999999,0.6769755500000001,0.0532632255,931
1747533071520,-0.061014309,0.033679896,-1.02113555,0.4348942249999999,0.9872338,-0.1158475145,932
1747533071530,-0.032703668,0.07736614,-1.0345587,0.10333065,1.1675298,-0.24873926,933
1747533071540,-0.068091972,0.0574754799999999,-0.988065775,-0.221308695,1.019990725,-0.3984088999999999,934
1747533071550,-0.088836837,0.0175721207,-0.980866105,-0.34328148,0.786165175,-0.42930157,935
1747533071560,-0.064309085,-0.0189144373,-0.99599763,-0.40107207,0.505467975,-0.427969995,936
1747533071570,-0.0366085885,-0.075169633,-0.99416717,-0.363787815,0.19654129,-0.3765709849999999,937
1747533071580,-0.04173379,-0.122882825,-0.94303722,-0.2087918425,0.056459015,-0.27483823,938
1747533071590,-0.0406355315,-0.1250793399999999,-0.90313388,-0.029294774,0.16005598,-0.19094865,939
1747533071600,-0.015619662755,-0.10177187,-0.90105936,0.0889495835,0.35712991,-0.16724652,940
1747533071610,0.00048811449,-0.08297946,-0.90398806,0.1304949,0.47351006,-0.17150758,941
1747533071620,0.0267242675,0.0165958935,-0.916801,0.0197073949999999,0.79202415,-0.202666555,942
1747533071630,0.0495436214999999,0.0694342835,-0.9584128,-0.19787288,0.8705874,-0.222640265,943
1747533071640,0.0416117615,0.0658954529999999,-0.9741545,-0.39068575,0.74648408,-0.224238165,944
1747533071650,0.0183042935,0.045516677,-0.97781535,-0.5571333,0.541154355,-0.197872875,945
1747533071660,0.0148874925,0.0295309265,-0.9684192,-0.670051335,0.279365605,-0.159523355,946
1747533071670,0.0291648405,-0.012935034,-0.97378845,-0.69428612,0.015446335,-0.10359697,947
1747533071680,0.032459613,-0.0529604215,-0.97940175,-0.62664182,-0.095074855,-0.0343547795,948
1747533071690,0.024893839,-0.04612682,-0.9570705,-0.48895639,-0.040213736,0.023435817,949
1747533071700,0.021965152,-0.03465613,-0.942305,-0.40213734,0.009054748,0.049002163,950
1747533071710,0.029652955,0.0270903535,-0.93132245,-0.136886485,0.233825545,0.0402137325,951
1747533071720,0.008664032,0.0656513965,-0.95035892,-0.0793622049999999,0.329965665,-0.0276968774999999,952
1747533071730,-0.0102504045,0.07797629,-0.97635102,-0.17816548,0.3155846,-0.1001348599999999,953
1747533071740,-0.0124469195,0.07516963,-0.99062835,-0.38962046,0.22024343,-0.12863068,954
1747533071750,0.0003660859999999,0.078220345,-0.99587555,-0.59308597,0.13981596,-0.127565415,955
1747533071760,0.0319714975,0.0757797799999999,-0.97781535,-0.65353975,0.18722023,-0.112651715,956
1747533071770,0.0447845025,0.074315435,-0.95304355,-0.5504754199999999,0.33475935,-0.120108565,957
1747533071780,0.0346561275,0.081027005,-0.9440134,-0.35606465,0.47670585,-0.167779155,958
1747533071790,0.024405724,0.088226695,-0.942183,-0.1472728125,0.57257965,-0.24367924,959
1747533071800,0.008297946755,0.083101495,-0.9532876,0.0231695025,0.5984123,-0.32836775,960
1747533071810,-0.0170840087449999,0.0940840699999999,-0.950358925,0.133158055,0.5233111699999999,-0.38349519,961
1747533071820,-0.0201347242,0.1231268849999999,-0.942793175,0.116646455,0.43356264,-0.360059375,962
1747533071830,0.0174500923,0.132157,-0.94816242,-0.014913705,0.43249737,-0.31744881,963
1747533071840,0.0514960785,0.141187115,-0.93266475,-0.1568601949999999,0.47084689,-0.312921435,964
1747533071850,0.056987366,0.1547323,-0.91228595,-0.281229815,0.51319114,-0.305198265,965
1747533071860,0.0442963895,0.15229173,-0.89764255,-0.39894153,0.5448827700000001,-0.30067089,966
1747533071870,0.0225752965,0.133987435,-0.8806805799999999,-0.4514057999999999,0.53849119,-0.3078614149999999,967
1747533071880,-0.003172744,0.107141135,-0.8733588649999999,-0.416252085,0.51558797,-0.30892669,968
1747533071890,-0.015375607,0.09322987,-0.87226063,-0.38935417,0.509729,-0.3073288,969
1747533071900,-0.0198906655,0.131058738,-0.88714812,-0.286556135,0.5355617,-0.28282772,970
1747533071910,0.004148973,0.206350385,-0.91289617,-0.21012341,0.6644587,-0.335025665,971
1747533071920,0.0462488494999999,0.2904281199999999,-0.9155808,-0.12996226,0.82344942,-0.47164583,972
1747533071930,0.082003235,0.3388735,-0.924977,-0.0679106085,0.91532847,-0.62610918,973
1747533071940,0.11604922,0.36828238,-0.954019775,-0.0276968765,0.98643485,-0.76885463,974
1747533071950,0.13789235,0.378410755,-0.966222645,-0.0071905352499999,1.01546335,-0.85061367,975
1747533071960,0.160589675,0.358886185,-0.95914497,-0.00026631615,0.95261278,-0.79628517,976
1747533071970,0.19158494,0.34290044,-0.96243975,-0.0066579029,0.854342105,-0.65513765,977
1747533071980,0.222214125,0.346561295,-0.9837948,-0.020240025,0.7984157249999999,-0.49215219,978
1747533071990,0.23795582,0.34631723,-0.9952655,-0.026631612,0.7797736,-0.39627838,979
1747533072000,0.27578469,0.35229664,-1.0269929,0.0905474775,0.74808195,-0.12490226,980
1747533072010,0.26931717,0.338385375,-1.05017835,0.163251775,0.692421885,-0.051399009,981
1747533072020,0.247962155,0.311172985,-1.06665215,0.229298175,0.598145985,0.025300031,982
1747533072030,0.21562457,0.29140435,-1.07653645,0.276968765,0.45433528,0.113450665,983
1747533072040,0.18072439,0.27444238,-1.1017964,0.256995055,0.173105471,0.25592979,984
1747533072050,0.168887615,0.2611412549999999,-1.12485985,0.18642128,-0.083090629,0.37923415,985
1747533072060,0.176575415,0.24906042,-1.1246158,0.144875965,-0.15313177,0.424241575,986
1747533072070,0.18572756,0.23087816,-1.11936855,0.17097494,-0.118510675,0.439954225,987
1747533072080,0.19060871,0.22306833,-1.1165619,0.2050634,-0.07350325,0.44048685,988
1747533072090,0.2296578549999999,0.184995385,-1.09569505,0.49987535,0.3121224725,0.349939375,989
1747533072100,0.2585786399999999,0.15851518,-1.07409595,0.746484065,0.6588660500000001,0.24527714,990
1747533072110,0.25992097,0.139478715,-1.0642116,0.88124004,0.90174635,0.182160225,991
1747533072120,0.254795775,0.122516735,-1.0465175,0.975782275,1.11107085,0.13928333,992
1747533072130,0.25162303,0.11617125,-1.0365112,1.0125339,1.202151,0.12250541,993
1747533072140,0.220261665,0.120442255,-1.05127665,0.984304365,1.079112915,0.135554905,994
1747533072150,0.2045199899999999,0.100795645,-1.1309613,0.655670265,0.294279328,0.20639499,995
1747533072160,0.2335628049999999,0.099087245,-1.12681235,0.44208474,-0.108124332,0.252201365,996
1747533072170,0.2518671,0.09786696,-1.1146095,0.34194988,-0.28655612,0.27803403,997
1747533072180,0.312393275,0.053448535,-1.09276635,0.165914935,-0.47297742,0.351537265,998
1747533072190,0.32972133,0.0388051,-1.0831261,0.13475595,-0.4708469,0.37390783,999
1747533072200,0.32972133,0.0388051,-1.0831261,0.13475595,-0.4708469,0.37390783,1000
