id,timestamp,acc_x,acc_y,acc_z,gyro_x,gyro_y,gyro_z
1,1747532747310,0.43930307,-0.11324256,0.7614586,0.2514024,-0.17204021,0.06178534
2,1747532747320,1.6529999,-0.46932206,-0.108117364,0.43089947,0.91985583,-1.1062771
3,1747532747330,1.6725243,-0.54253924,-0.030019043,0.26844665,0.8090684,-1.4215955
4,1747532747340,1.65910115,-0.7387612800000001,0.1406990015,0.18642128,0.3547330625,-2.1779331500000003
5,1747532747350,1.6432374,-0.844194,0.22746135,0.2082592,0.077231675,-2.5869946
6,1747532747360,1.6442136,-0.9906283,0.27505252,0.37444046,-0.10918961,-2.9752836
7,1747532747370,1.6298143,-1.1067996,0.26968327,0.5853628,-0.2066613,-3.36304
8,1747532747380,1.6129744,-1.31522455,0.2050080899999999,0.9126653,-0.299339325,-3.9313584
9,1747532747390,1.60589675,-1.6116321,0.063698941,1.08310765,-0.39840892,-4.514857
10,1747532747400,1.6037002,-1.8192028,-0.036608588,1.1113372,-0.49934272,-5.119927499999999
11,1747532747410,1.6132184,-2.0749748,-0.17767367,1.0636666,-0.5289038,-5.331649
12,1747532747420,1.6290822,-2.3502712,-0.3316738,0.78723043,-0.55766594,-5.8893147
13,1747532747430,1.6366479,-2.6743793,-0.44003522,0.48469532,-0.48948902,-6.350574
14,1747532747440,1.5058333,-3.200811,-0.3829258,0.21358553,-0.37071204,-6.740461
15,1747532747450,1.4606826,-3.4824529,-0.25357547,-0.18455707,0.071639034,-7.38681005
16,1747532747460,1.4101628,-3.7333438,-0.111046046,-0.20879184,0.17257284,-7.4925375
17,1747532747470,1.4072341,-4.0044913,0.058817793,-0.15339808,0.3472762,-7.653925
18,1747532747480,1.4680043,-4.312003,0.17572121,0.0607200765,0.6524745000000001,-7.88322325
19,1747532747490,1.6110219,-4.9302006,0.31361356,0.1470065,0.7749799,-7.9692435
20,1747532747500,1.5680678,-5.31861725,0.49055508,0.710531375,1.2229236,-8.515989999999999
21,1747532747510,1.5375606,-5.4175825,0.5452239,0.829841,1.176052,-8.629707
22,1747532747520,1.48862715,-5.49897575,0.59696405,0.9400959,0.96246645,-8.777512999999999
23,1747532747530,1.2759314,-5.648217,0.7228975,1.2112057,0.034088463,-9.274725
24,1747532747540,0.594401425,-5.20635125,0.640772315,1.1646004,-2.33665755,-9.861952
25,1747532747550,0.44613665,-5.0370975,0.60306543,1.099353,-2.7963192,-9.893111
26,1747532747560,0.17084008,-4.655636,0.49519217,0.89855057,-3.5079157,-9.765812
27,1747532747570,-0.030751213,-4.2431793,0.40952805,0.6609966,-3.985687,-9.492572
28,1747532747580,-0.16693515,-3.8617177,0.32972133,0.35473305,-4.239753,-9.088304
29,1747532747590,-0.32679266,-3.1412606,0.2272173,-0.061252706,-3.840811,-8.524778
30,1747532747600,-0.43149322,-2.8444872,0.23917611,-0.16085494,-3.3651705,-8.207863
31,1747532747610,-0.5720702,-2.5677264,0.22892569,-0.19920446,-2.824016,-7.810519
32,1747532747620,-0.72631437,-2.259238,0.2208718,-0.21731395,-2.3105586,-7.3407373
33,1747532747630,-0.83687234,-2.0063946,0.20256752,-0.28229508,-1.8860507,-6.842726
34,1747532747640,-1.09179015,-1.4630012,0.370600935,-0.46472162,-1.57126505,-5.5369782
35,1747532747650,-1.1639091,-1.28691385,0.479938585,-0.39254994,-1.7393105,-5.0658650000000005
36,1747532747660,-1.2078394,-1.1988091,0.5320448,-0.3291667,-1.8386464,-4.878911
37,1747532747670,-1.3567142,-1.0006347,0.51569295,-0.14594123,-1.8828549,-4.566256
38,1747532747680,-1.5961344,-0.716308,0.38316986,-0.012250541,-1.5968314,-4.245079
39,1747532747690,-2.1108513,-0.21232979,0.13252309,0.07084008,0.039414786,-3.5958002
40,1747532747700,-2.3881001,-0.04637088,0.13740423,0.15978967,0.9635317,-3.075951
41,1747532747710,-2.621907,0.030751213,0.11836776,0.29241508,1.758219,-2.369681
42,1747532747720,-3.0102022,0.22599702,0.04515059,0.453536335,2.65969895,-0.133424385
43,1747532747730,-3.0653589,0.37487194,-0.044418417,0.42237735,2.6051042,0.27324033
44,1747532747740,-3.0121546,0.46444094,-0.20232345,0.17896444,2.2088258,0.9076053
45,1747532747750,-2.758579,0.484087555,-0.30665793,-0.475107935,1.267398365,1.52652395
46,1747532747760,-2.6743793,0.46370876,-0.3116611,-1.10947295,0.294012995,2.09537525
47,1747532747770,-2.3751652,0.22013964,-0.20574026,-1.506284,-0.32117724,2.4921863
48,1747532747780,-2.1917561,0.053814625,-0.149363035,-1.506284,-0.32117724,2.4921863
49,1747532747790,-1.87082075,-0.214892405,-0.04844536295,-2.0029635,-0.947819075,3.7412088
50,1747532747800,-1.7332945,-0.31727442,-0.0039049159,-2.0485036,-1.0061423,3.9702406
51,1747532747810,-1.4372531,-0.5435155,0.09030118,-1.9494339,-1.0503508,4.356399
52,1747532747820,-1.1475571,-0.76267886,0.16888762,-1.4365091,-0.94968325,4.850149
53,1747532747830,-1.048714,-0.8190561,0.13618395,-1.154214,-0.7547399,5.1319118
54,1747532747840,-1.00319735,-0.85773915,0.1244692,-0.8780442,-0.486293245,5.3881079
55,1747532747850,-0.86298645,-1.0377314,0.09493827,-0.6018744,-0.21784659,5.644304
56,1747532747860,-0.80563295,-1.2637285,0.09542638,-0.29561087,0.007456851,5.8429756
57,1747532747870,-0.816493475,-1.317177,0.07980672,0.0202400249999999,0.1147822405,6.0773337000000005
58,1747532747880,-0.8510276,-1.5314592,-0.060770255,0.6396913,0.31638354,6.7143617
59,1747532747890,-0.77854264,-1.735247,-0.18841219,0.72437984,0.36591834,7.079215
60,1747532747900,-0.6230781,-1.9749112,-0.29604146,0.69348717,0.4032026,7.407849
61,1747532747910,-0.25137895,-2.391761,-0.413677,0.59761333,0.4788364,7.658186
62,1747532747920,-0.14008886,-2.6377707,-0.40684342,0.3536678,0.8527442,7.947938
63,1747532747930,-0.106164895,-2.8776789,-0.3682824,0.28442562,0.9470201,8.118913
64,1747532747940,0.0153756099999999,-3.28635295,-0.2737102,0.30732879,0.886033725,8.466189
65,1747532747950,0.241250585,-3.7056433,-0.17474499,0.550475425,0.3627225619999999,8.584167
66,1747532747960,0.40684342,-3.9849668,-0.12080834,0.7595336,-0.092145376,8.590825
67,1747532747970,0.41294485,-4.0679464,-0.19426957,0.9534117,-0.5070659,8.436362
68,1747532747980,0.2889638,-4.121883,-0.31776255,1.0578076,-0.8495484,8.41186
69,1747532747990,0.14497001,-4.2731984,-0.5357056499999999,1.0578076,-1.0945592,8.515191
70,1747532748000,0.12007617,-4.3285995,-0.609655,0.9720538,-1.2085425,8.639295
71,1747532748010,0.18377511,-4.5257974,-0.8449261,0.65460503,-1.262871,8.780975
72,1747532748020,0.26626647,-4.620736,-0.9313224,0.44687843,-1.1478225,8.82039
73,1747532748030,0.40635532,-4.710061,-0.9898962,0.18801917,-0.9214538,8.76979
74,1747532748040,0.62063754,-4.8142734,-1.0157663,-0.017576864,-0.72491246,8.5673895
75,1747532748050,1.08715297,-4.60548235,-0.823327125,-0.408262595,-0.483630045,7.9143825
76,1747532748060,1.1834335,-4.5323873,-0.7665838,-0.59601545,-0.40746364,7.517039
77,1747532748070,1.5683119,-4.037683250000001,-0.54973896,-0.82238415,-0.1424791275,6.6650934500000005
78,1747532748080,1.6820425,-3.852932,-0.47835222,-0.8948221,-0.022903185,6.3559003
79,1747532748090,1.7558698,-3.6440188,-0.37816671,-0.95181375,0.1587244075,6.0315273000000005
80,1747532748100,1.9065752,-2.5356327,0.26809689,-1.009870715,1.0415623,4.0179112
81,1747532748110,1.8941283,-2.3778498,0.38487828,-0.92731273,1.1046792,3.730556
82,1747532748120,1.8051694,-2.0286038,0.6544395249999999,-0.59122175,1.015197,3.1840754
83,1747532748130,1.7462296,-1.7558698,0.73314795,0.08735168,0.498810085,2.3667513
84,1747532748140,1.59613435,-1.29984888,0.61929525,0.626109185,-0.184024435,1.75076215
85,1747532748150,1.479719,-0.99917036,0.4915313,0.92944324,-0.6593987,1.4002901
86,1747532748160,1.4802072,-0.8188121,0.34656128,1.0748519,-1.0705907,1.1169298
87,1747532748170,1.55440055,-0.575364935,0.138380466,1.19575935,-1.4447649,0.6578008
88,1747532748180,1.6256653,-0.4742032,-0.0251378939999999,1.24023415,-1.46340705,0.345412015
89,1747532748190,1.6581249,-0.4378387,-0.11153416,1.2559468,-1.4130733,0.21198763
90,1747532748200,1.7458635,-0.2865232199999999,-0.5154489,0.99895175,-0.69002505,-0.251136105
91,1747532748210,1.7662423,-0.2706595,-0.5708499,0.8996158,-0.5209143,-0.34621096
92,1747532748220,1.824816,-0.28871974,-0.58378494,0.65886605,-0.26525086,-0.5949502
93,1747532748230,1.8299413,-0.36950266,-0.5432714,0.39361522,-0.12037488,-0.89588743
94,1747532748240,1.786499,-0.5537659,-0.29311275,-0.01917476,-0.31798145,-1.5888419
95,1747532748250,1.71657665,-0.7242399,-0.161199815,-0.15286545,-0.74808195,-2.2189459
96,1747532748260,1.6820425,-0.7856203,-0.12422514,-0.16777915,-0.8612663,-2.394182
97,1747532748270,1.6256653,-0.90325594,-0.08151512,-0.16831179,-1.0231866,-2.718555
98,1747532748280,1.5785623,-1.0287013,-0.051007964,-0.14487597,-1.0759171,-3.0040457
99,1747532748290,1.5231613,-1.3071706,-0.032703668,0.0053263223,-0.95927066,-3.4631748
100,1747532748300,1.5619664,-1.5485432,-0.01415532,0.118776985,-0.8426242,-3.7257624
101,1747532748310,1.6173674,-1.8062676,0.010006348,0.24074976,-0.7803062,-4.115649
102,1747532748320,1.5734371,-2.059111,-0.009030119,0.34088463,-0.7483483,-4.55081
103,1747532748330,1.4367651,-2.2824233,-0.07248501,0.396811,-0.7105314,-4.9859705
104,1747532748340,1.23602795,-2.73868845,-0.35449316,-0.047137952,-0.69135663,-5.635249
105,1747532748350,1.2432276,-2.8149564,-0.3746279,-0.19547603,-0.69721556,-5.796104
106,1747532748360,1.2302926,-3.043882,-0.37243137,-0.53263223,-0.73769563,-6.187056
107,1747532748370,1.2417632,-3.2776887,-0.30165476,-0.698014515,-0.7542072150000001,-6.3865268
108,1747532748380,1.39759385,-4.0163281,-0.079562658,-1.23783725,-0.30812776,-7.4376764
109,1747532748390,1.50925005,-4.63428125,0.105554757,-1.27192575,0.39707734,-8.09654215
110,1747532748400,1.5282865,-5.0272135,0.25308736,-1.01865915,1.10840765,-8.495483499999999
111,1747532748410,1.5099822,-5.217456,0.32850105,-0.8357,1.4935007,-8.671785
112,1747532748420,1.4187049,-5.5183787,0.4554108,-0.45806372,1.8695391,-8.922122
113,1747532748430,1.19771085,-5.8779965,0.58439507,0.2838929699999999,1.9494339,-9.431318999999998
114,1747532748440,0.99380108,-5.9863583,0.636623355,0.76912092,1.7808558,-9.816412
115,1747532748450,0.91204196,-5.9745216,0.64772797,0.90654004,1.6996294,-9.938385
116,1747532748460,0.77195305,-5.8795834,0.66993713,1.1808456,1.5920377,-10.064086
117,1747532748470,0.5972081,-5.699957,0.6631035,1.4711303,1.5478293,-10.029465
118,1747532748480,0.43808278,-5.439548,0.6489482,1.7832527,1.582983,-9.886187
119,1747532748490,0.18694785,-5.0839567,0.6291796,2.1656826,1.5387745,-9.600163
120,1747532748500,-0.42673412,-4.11004605,0.45943775,2.51775255,0.203199185,-8.775382
121,1747532748510,-0.52789587,-3.8985703,0.4002539,2.5076325,-0.22210763,-8.627577
122,1747532748520,-0.6355251,-3.4883103,0.31654227,2.3068302,-1.2085425,-8.403872
123,1747532748530,-0.75291663,-3.02228295,0.26455807,1.6610136,-2.70390755,-8.315721
124,1747532748540,-0.87030816,-2.5562556,0.21257387,1.015197,-4.1992726,-8.22757
125,1747532748550,-0.9642702,-2.3163474,0.22477673,0.61199445,-4.934305,-8.110924
126,1747532748560,-1.0767806,-2.0947433,0.2328306,0.18748654,-5.528723,-7.780159
127,1747532748570,-1.1704986,-1.6766733,0.31873876,-0.13848437,-5.5228634,-7.0637684
128,1747532748580,-1.1704986,-1.6766733,0.31873876,-0.13848437,-5.5228634,-7.0637684
129,1747532748590,-1.3144923,-1.2993608,0.22746135,0.11025487,-3.8743668,-6.364955
130,1747532748600,-1.4943625,-1.0694588,0.12007617,0.29933932,-2.4975126,-5.8823905
131,1747532748610,-1.7340268,-0.8849516,0.018304294,0.4282363,-0.99708754,-5.286375
132,1747532748620,-2.1484358,-0.5657247,-0.02831064,0.48735848,1.3315805,-3.9750342
133,1747532748630,-2.2804708,-0.41148052,-0.002928687,0.45540056,1.9339876,-3.213903
134,1747532748640,-2.3773615,-0.26675457,0.007321717,0.35792887,1.901497,-2.6695528
135,1747532748650,-2.4095771,-0.17230442,0.061502427,0.23648871,1.5430355,-2.2019017
136,1747532748660,-2.4417927,-0.06467517,0.119588055,0.1454086,0.9901633,-1.8562233
137,1747532748670,-2.5943284,0.17059602,0.08346757,0.020772656,-0.08522116,-1.0120013
138,1747532748680,-2.61739195,0.213550085,0.04478450065,-0.008522117,-0.21278658,-0.72491249
139,1747532748690,-2.634598,0.32093528,-0.07248501,-0.10333065,-0.360592,0.23062976
140,1747532748700,-2.5486898,0.32581642,-0.13105874,-0.19867182,-0.18269286,0.9193232
141,1747532748710,-2.2521603,0.20500809,-0.200371,-0.37923414,0.20133498,1.7214674
142,1747532748720,-2.079856,0.11177822,-0.22111587,-0.7946873,0.7952199,2.7590349
143,1747532748730,-1.9519699,0.011958805,-0.20256752,-1.051416,0.92092115,3.2075112
144,1747532748740,-1.8979112,-0.0604041675,-0.186215685,-1.1773835,0.90813795,3.4285536
145,1747532748750,-1.7276812,-0.3443648,-0.11568313,-1.510545,0.73982614,4.07943
146,1747532748760,-1.5831994,-0.68091977,0.061014313,-1.6186694,0.46871635,4.449077
147,1747532748770,-1.3315763,-0.797335,0.12007617,-1.4849787,-0.22264028,5.0722566
148,1747532748780,-1.2471325,-0.9054524,0.12935033,-1.2958943,-0.46658584,5.383314
149,1747532748790,-1.1539027,-1.0228439,0.132401055,-1.01919182,-0.53050172,5.73831335
150,1747532748800,-1.0606729,-1.1402354,0.13545178,-0.74248934,-0.5944176,6.0933127
151,1747532748810,-1.0499343,-1.3908823,0.07443746,-0.2130529,-0.3616573,6.8816085
152,1747532748820,-0.98330665,-1.5934497,-0.0026846298,0.0058589545,-0.22743396,7.326889
153,1747532748830,-0.736686825,-1.9505055,-0.300556495,0.101999075,0.165382315,7.9146485
154,1747532748840,-0.6457755,-2.046176,-0.38048524,0.09427591,0.36432046,8.094412
155,1747532748850,-0.5012936,-2.2841318,-0.4634647,0.011185277,0.948618,8.425709
156,1747532748860,-0.2894519,-3.030947,-0.30287504,-0.10226539,2.107093,9.248626
157,1747532748870,-0.23307467,-3.3728712,-0.12520137,0.007456851,1.8748654,9.580456
158,1747532748880,-0.21281794,-3.67355,-0.073949344,0.15020229,0.7637946,9.831326
159,1747532748890,0.15204766,-4.0335342,-0.60379763,0.0870853705,-2.42667247,9.54130725
160,1747532748900,0.556328485,-4.3641097,-1.03895177,-0.1265001545,-3.81364685,9.12319075
161,1747532748910,0.7141115,-4.565823,-1.1539028,-0.2247708,-3.739611,9.003082
162,1747532748920,1.1870944,-5.008543,-1.1617125,-0.33182988,-2.5539715,8.945025
163,1747532748930,1.7303659,-5.294822,-0.9962417,-0.14274544,-0.7637946,8.922122
164,1747532748940,1.77527245,-5.176698350000001,-0.59269303,0.6900250800000001,1.2540825999999998,9.1389035
165,1747532748950,1.7384198,-5.0161085,-0.206960545,1.47459235,2.92814565,9.305085
166,1747532748960,1.6566606,-4.9736423,-0.22477673,1.4263891,2.5843315,9.254485
167,1747532748970,1.7375656,-4.50859135,-0.26736471,0.7107977249999999,0.41811635,8.11465175
168,1747532748980,1.6689855,-3.96190345,-0.27541861,0.16831179,-1.3430322,7.12715175
169,1747532748990,1.55818345,-3.46927395,-0.253331435,-0.251136095,-3.11669755,5.9870525
170,1747532749000,1.5277983,-3.3235717,-0.2403964,-0.42184472,-4.0069923,5.357215
171,1747532749010,1.5831994,-3.0612102,-0.17791773,-0.14168017,-3.7268276,4.9481535
172,1747532749020,1.7054721,-2.7583349,-0.12593354,0.2609898,-2.845854,4.6104646
173,1747532749030,1.7140139,-2.4537516,-0.0707766,0.6956177,-1.6410398,4.297277
174,1747532749040,1.45250675,-1.82237555,0.1216625425,1.41387225,0.798682025,3.8013963
175,1747532749050,1.3798997,-1.7098651,0.16986385,1.5057513,1.0871024,3.713512
176,1747532749060,1.2593354,-1.5241375,0.23161033,1.6309199,1.2761868,3.5404065
177,1747532749070,1.18782665,-1.2698298499999998,0.23490511,1.6916399,1.1126688,3.3587787
178,1747532749080,1.2372482,-1.01832885,0.163274305,1.5986956,0.434627892,2.7800739
179,1747532749090,1.2888663,-0.8505395,0.11348662,1.514806,0.103863284,2.4304008
180,1747532749100,1.347196,-0.758774,0.056377225,1.4104102,-0.022370555,2.1022995
181,1747532749110,1.3694052,-0.65895456,-0.028554698,1.2964269,0.018109497,1.804558
182,1747532749120,1.3698933,-0.5537659,-0.09493827,1.1616709,0.18375812,1.5723304
183,1747532749130,1.4182166500000002,-0.41062634,-0.13325525,0.893224235,0.643419725,1.2098741
184,1747532749140,1.4645875,-0.38207163,-0.144847975,0.77924097,0.86872315,1.0146644
185,1747532749150,1.479719,-0.37145513,-0.15912533,0.69668293,1.0173275,0.74089146
186,1747532749160,1.4909457,-0.37023485,-0.18987654,0.572047,1.1286477,0.38296258
187,1747532749170,1.4667841,-0.383658,-0.20622836,0.47723848,1.1568772,0.11717909
188,1747532749180,1.4504322,-0.45248213,-0.2443013,0.3912183649999999,1.08284135,-0.31212246
189,1747532749190,1.4548252000000002,-0.5331430500000001,-0.243325075,0.3752394049999999,1.009604415,-0.6117281
190,1747532749200,1.5125448,-0.58293072,-0.25211114,0.356863605,0.998951765,-0.84874947
191,1747532749210,1.5539125,-0.62063754,-0.24820623,0.34567833,1.0029465,-0.97897804
192,1747532749220,1.5910092,-0.665300045,-0.2422268149999999,0.360858335,1.01572965,-1.14116452
193,1747532749230,1.6324989,-0.92095,-0.3627910749999999,0.584297565,1.04475805,-1.92440025
194,1747532749240,1.64506785,-1.09203415,-0.545956075,0.6974819,1.0668623,-2.3470439
195,1747532749250,1.6725243,-1.1504859,-0.626495,0.6945524,1.0743192,-2.4868598
196,1747532749260,1.7047399,-1.3242546,-0.8390688,0.5411543,1.0966897,-2.8202877
197,1747532749270,1.7362232,-1.5458585,-0.9706156,0.29134983,1.1249193,-3.2032502
198,1747532749280,1.7662423,-1.7918682,-1.0382195,0.036751624,1.128115,-3.6490633
199,1747532749290,1.7762486,-2.4760829,-1.10716565,-0.65327342,1.1448930000000002,-4.99156285
200,1747532749300,1.7279253,-2.8064144,-1.0806854499999998,-0.8133294,1.2112057,-5.2666674
201,1747532749310,1.6913167,-2.988237,-1.0496902,-1.1435614,1.3720607,-5.7385798
202,1747532749320,1.5590377,-3.4329093,-0.9264413,-1.4439659,1.5611451,-6.190252
203,1747532749330,1.5407334,-4.0962566,-0.73351408,-1.40375225,1.5976304,-6.81795875
204,1747532749340,1.5749013,-4.4281745,-0.68360436,-1.3086774,1.5749935,-7.1335435
205,1747532749350,1.6993706,-4.769855,-0.6919023,-1.2884374,1.484446,-7.5798893
206,1747532749360,1.7742962,-5.2672434,-0.66749656,-1.3598101,1.387507,-8.110924
207,1747532749370,1.790892,-5.530093,-0.58232063,-1.4333134,1.1877699,-8.665926
208,1747532749380,1.50705355,-6.1131461,-0.34399868,-1.4628744,0.1768338924999999,-10.1695475
209,1747532749390,1.4045495,-6.2341986,-0.27944556,-1.3960291,-0.120907515,-10.499247
210,1747532749400,1.1053354,-5.9203405,-0.24674188,-1.3358417,-0.32810146,-9.986855
211,1747532749410,1.0621371,-5.952068,-0.4288086,-1.4199976,-0.22903186,-9.9011
212,1747532749420,0.9757409,-5.4166064,-0.19548985,-1.3576796,-0.076166406,-9.952765
213,1747532749430,0.6496804,-5.085177,-0.13520771,-1.242631,-0.7590009,-10.296846
214,1747532749440,0.26236153,-4.7112813,-0.13960074,-1.3379722,-1.1819109,-10.255834
215,1747532749450,-0.10543273,-4.281252,-0.12202863,-1.4775218,-1.6250609,-10.049705
216,1747532749460,-0.41465324,-3.820228,-0.12007617,-1.6437031,-2.0005667,-9.6800585
217,1747532749470,-0.7297312,-3.1053846,-0.0388051,-2.1784658,-2.5587652,-8.768191
218,1747532749480,-0.7297312,-3.1053846,-0.0388051,-2.1784658,-2.5587652,-8.768191
219,1747532749490,-0.82076454,-2.6192224,0.15863721,-2.683401,-2.9539783,-8.129033
220,1747532749500,-0.85859346,-2.4393523,0.26358184,-2.866094,-3.0722227,-7.808388
221,1747532749510,-0.9471862,-2.2472792,0.39586085,-2.9726205,-3.1158986,-7.4216976
222,1747532749520,-1.214917,-1.8875388,0.52423495,-3.0344057,-2.821353,-6.4224796
223,1747532749530,-1.3157127,-1.6981503,0.57280236,-2.9672942,-2.4064324,-5.868009
224,1747532749540,-1.3720899,-1.4931422,0.6228341,-2.8272119,-1.7736653,-5.2389708
225,1747532749550,-1.462147,-1.2722704,0.601113,-2.7377295,-1.1899004,-4.849084
226,1747532749560,-1.8048034,-0.8190561,0.5098356,-2.8613002,0.108124346,-4.123106
227,1747532749570,-2.0261633,-0.66017485,0.528628,-2.9475868,0.59388494,-3.614975
228,1747532749580,-2.204569,-0.54156303,0.5952556,-2.979012,0.8996158,-3.0541131
229,1747532749590,-2.2954803,-0.48152494,0.62710508,-2.966229,1.0221212,-2.4804683
230,1747532749600,-2.5313618,-0.3184947,0.7219213,-2.915629,0.9518138,-1.9057581
231,1747532749610,-2.7729783,-0.2042759,0.7912336,-2.7760792,0.25992453,-0.72917354
232,1747532749620,-2.8413146,-0.16010156,0.81319875,-2.5917885,-0.3392867,0.06764429
233,1747532749630,-2.7927470000000003,-0.20000491,0.744740665,-2.3435818,-0.9265138,1.0314423
234,1747532749640,-2.6428959,-0.2876214649999999,0.684336515,-2.1640847,-1.12518565,1.6871126
235,1747532749650,-2.5228198,-0.35437113,0.64992446,-2.0687435,-1.1776499,2.021872
236,1747532749660,-2.263875,-0.50544256,0.6133158,-1.5563514,-1.0881677,3.2533176
237,1747532749670,-2.0564265,-0.58134437,0.5688974,-1.2389026,-1.010936,3.7412088
238,1747532749680,-1.8050474,-0.7133793150000001,0.41038227,-0.8540757999999999,-0.927845315,4.42138
239,1747532749690,-1.57136255,-0.867867515,0.189510457,-0.7054714,-0.7171893,5.0141998
240,1747532749700,-1.3860011,-1.0140578,0.0074437455,-0.6447513,-0.3848267999999999,5.5620123
241,1747532749710,-1.34097255,-1.0993558,-0.02672427,-0.6231797,-0.131826475,5.9196747
242,1747532749720,-1.32559695,-1.1891689,-0.0212329809999999,-0.5736449,0.0367516249999999,6.3223445
243,1747532749730,-1.30851295,-1.325719,-0.0006101429999999,-0.48043426,0.124902255,6.747385
244,1747532749740,-1.2976524,-1.4143118,0.010738519,-0.42184472,0.15233281,6.9609704
245,1747532749750,-1.1312053,-1.8260365,0.002928687,-0.0026631611,0.018109497,7.8169107
246,1747532749760,-0.98111016,-2.1132917,-0.06321083,0.28495824,-0.1107875,8.202537
247,1747532749770,-0.75218445,-2.4017673,-0.1952458,0.5949502,-0.24873926,8.594554
248,1747532749780,-0.360472535,-2.8200815,-0.741323875,0.2751045475,0.01864213,9.039568
249,1747532749790,-0.176453385,-3.12014985,-0.996241675,-0.3302319724999999,0.457531095,9.3583485
250,1747532749800,-0.1415532,-3.2281451,-1.0284572,-0.5853628,0.63649553,9.472332
251,1747532749810,-0.10006347,-3.5217462,-0.9349833,-1.0178602,0.9528791,9.740778
252,1747532749820,-0.076633975,-3.9476259,-0.7636551,-1.16539935,1.0452908,9.903231
253,1747532749830,-0.0073217174999999,-4.26917145,-0.6740861,-1.3771206500000002,1.0929614,10.2454475
254,1747532749840,0.47713192,-5.074560249999999,-0.389149285,-1.1275824,0.08149275,10.5682225
255,1747532749850,1.334139,-5.4701772,-0.260043005,0.06578008,-2.1212079,10.10536475
256,1747532749860,1.359887,-5.366819,-0.31825066,0.33449304,-2.372344,9.8606205
257,1747532749870,0.92473288,-5.1862165000000005,-0.524967125,0.6993461000000001,-2.0564931,9.628925
258,1747532749880,0.70276283,-5.2762735,-0.608312685,0.9640643,-1.05807396,9.944776
259,1747532749890,0.7366868,-5.45712015,-0.6670084599999999,1.20880885,0.13795174,10.3146895
260,1747532749900,0.9426711,-5.55022815,-0.7113048449999999,1.23224465,1.00268015,10.409498
261,1747532749910,1.0548154,-5.579393,-0.72875494,1.2042814,1.4301175,10.411895
262,1747532749920,1.2589693,-5.496901149999999,-0.673476,0.79601883,2.54358515,10.056895
263,1747532749930,1.3032657,-5.437351,-0.6160005,0.6535397,2.7377295,9.913883
264,1747532749940,1.6078492,-4.9527757,-0.314955875,-0.004793685,2.07167305,8.681639
265,1747532749950,1.80504745,-4.56692125,-0.212085745,-0.27164243,1.5219966,7.9591235
266,1747532749960,1.9095039,-4.3378735,-0.14863087,-0.40373522,1.2511531,7.5719
267,1747532749970,2.10474965,-3.66415335,0.046736965,-0.749147235,0.878576875,6.391320500000001
268,1747532749980,2.1851665,-3.02704195,0.357543885,-0.81173152,1.051682375,5.303152750000001
269,1747532749990,2.22629025,-2.4602191500000004,0.6942208400000001,-0.618119705,1.38644175,4.29248315
270,1747532750000,2.1965152000000003,-2.14514115,0.86457279,-0.238885548,1.62852305,3.70791925
271,1747532750010,2.1645436,-1.9959,0.92229235,-0.020772656,1.7475663,3.4248252
272,1747532750020,1.9411094,-1.43334825,0.925099,0.66392608,1.92466655,2.73986015
273,1747532750030,1.8152978,-1.1563432,0.8925173,0.8857674,1.9483687,2.5422537
274,1747532750040,1.735491,-0.9196077,0.8222289,1.5968314,1.8333201,1.8706044
275,1747532750050,1.6561725,-0.7038611,0.716064,1.788579,1.8082864,1.572863
276,1747532750060,1.5895448,-0.5195979,0.6074585,1.8620822,1.8125474,1.3315805
277,1747532750070,1.56282055,-0.30433938,0.44235375,1.73611475,1.7401095,0.9030779
278,1747532750080,1.61358455,-0.21171966,0.35071026,1.5901735,1.60215775,0.587227015
279,1747532750090,1.6911948,-0.17474499,0.30080056,1.4855113,1.4607439,0.31372038
280,1747532750100,1.7330506,-0.15668476,0.2757847,1.4322481,1.3859091,0.16245283
281,1747532750110,1.820423,-0.15058333,0.26577836,1.3331785,1.2602079,-0.20240025
282,1747532750120,1.95550875,-0.196588115,0.274442375,1.2681973,1.1771172,-0.5997439
283,1747532750130,2.024211,-0.23990828,0.26529023,1.2447615,1.1089402,-1.0460896
284,1747532750140,1.83567655,-0.47212874,0.23112222,1.4152039,1.0309097,-2.4466461
285,1747532750150,1.58319935,-0.575242925,0.141431175,1.61520725,1.0410297000000002,-2.5728799
286,1747532750160,1.4780107,-0.59964865,0.09542638,1.7209347,1.0604708,-2.5598304
287,1747532750170,1.4680043,-0.6879974,-0.04368625,1.8722023,1.1563445,-2.4554346
288,1747532750180,1.7803976,-1.0893495,-0.317640515,1.9651466,1.29536155,-2.66902025
289,1747532750190,1.95160375,-1.32352245,-0.421608875,1.92732975,1.26233835,-3.130546
290,1747532750200,2.0264072,-1.4389615,-0.4724948,1.887116,1.206412,-3.3651705
291,1747532750210,2.1413581,-1.6905845,-0.5593792,1.7741979,1.0349044,-3.899933
292,1747532750220,2.2982872,-2.1633234,-0.8139309,1.464206,0.62371236,-5.041364
293,1747532750230,2.3751652,-2.374433,-0.9901402,1.2389026,0.63383234,-5.5388427
294,1747532750240,2.4801097,-2.6455805,-1.1597601,0.9369001,0.8293084,-6.074138
295,1747532750250,2.5416121,-2.9892132,-1.2881342,0.5853628,1.135572,-6.6131616
296,1747532750260,2.5826137,-3.4280279,-1.3589108,0.21784659,1.4274544,-7.081878
297,1747532750270,2.707083,-4.3634996,-1.1507299,-0.13741912,1.717739,-8.028898
298,1747532750280,2.7040323,-4.5525219,-1.1147315,-0.1091896075,1.7848506,-8.3383575
299,1747532750290,2.5857866,-5.0636997,-1.0357789,0.029294772,1.917476,-9.210277
300,1747532750300,2.3973744,-5.3775573,-1.0079564,0.14807177,1.8232001,-9.681656
301,1747532750310,2.1677165,-5.7482805,-0.8642067,0.19387813,1.5526229,-9.869143
302,1747532750320,2.15771,-5.8129554,-0.7138674,0.2657835,0.45806372,-10.1541
303,1747532750330,2.1088986,-5.81442,-0.5649925,0.34780884,-0.283893,-10.404438
304,1747532750340,1.9336655,-5.6889744,-0.4554108,0.45486793,-1.031176,-10.632937
305,1747532750350,1.7162106,-5.469323,-0.41611758,0.5486112,-1.7592843,-10.761302
306,1747532750360,1.2651927,-4.7981653,-0.44930938,0.515588,-2.6818032,-10.661167
307,1747532750370,0.99965847,-4.4074297,-0.49812084,0.32384038,-2.766492,-10.438526
308,1747532750380,0.7829357,-4.088447,-0.49006698,0.10439592,-2.6375947,-10.202038
309,1747532750390,0.56816524,-3.8141267,-0.46444094,-0.13688648,-2.442119,-9.933059
310,1747532750400,0.31068486,-3.537854,-0.3961049,-0.36485308,-2.20563,-9.618805
311,1747532750410,-0.23502712,-2.9823797,-0.16034561,-0.757403,-1.881257,-8.770322
312,1747532750420,-0.45126185,-2.7649245,-0.051740136,-0.9129316,-1.8961707,-8.2440815
313,1747532750430,-0.5703618,-2.5543032,0.050763905,-1.045557,-1.9728698,-7.7556577
314,1747532750440,-0.7577977499999999,-2.26228875,0.21928543,-1.19389515,-2.3017702,-6.9750855000000005
315,1747532750450,-0.788793,-2.1757705,0.27187976,-1.2362394,-2.4522388,-6.6786757
316,1747532750460,-0.7141115,-1.9954121,0.45858356,-1.1994878,-2.8091023,-6.1614895
317,1747532750470,-0.7873287,-1.8736275,0.5039782,-1.1068097,-2.8426583,-6.0224724
318,1747532750480,-1.0587204,-1.6810663,0.46639338,-1.0381002,-2.6599653,-5.801963
319,1747532750490,-1.7014451,-1.30558425,0.274564405,-1.1222562,-2.2109563,-5.460013
320,1747532750500,-2.0007813,-1.1585398,0.19793043,-1.347027,-1.5132082,-5.036038
321,1747532750510,-2.2516723,-1.0382195,0.23575929,-1.8785939,0.35792887,-3.8519962
322,1747532750520,-2.4784014,-0.938156,0.32947728,-2.060754,1.3944311,-2.9438584
323,1747532750530,-2.7480847,-0.789281175,0.49494809,-2.09936985,2.04051405,-1.8775286
324,1747532750540,-2.975546,-0.6158784749999999,0.6308879700000001,-1.96168445,1.83278745,-0.94062854
325,1747532750550,-3.1314986,-0.4886026,0.72118914,-1.8322549,1.5164039,-0.33662358
326,1747532750560,-3.2225318,-0.38390204,0.74535084,-1.6442357,0.8277105,0.32597092
327,1747532750570,-3.0815889,-0.36413343,0.73143958,-1.320129,-0.2652508525,1.3470269
328,1747532750580,-3.000928,-0.3648656,0.71728426,-1.2032162,-0.6114618,1.6879115
329,1747532750590,-2.48389265,-0.45589894,0.53973263,-0.704672425,-1.3994911499999998,3.02109
330,1747532750600,-2.1877291,-0.53009236,0.43246946,-0.45859635,-1.6463662,3.690076
331,1747532750610,-1.6588571,-0.66639832,0.228071495,-0.328367765,-1.47033125,4.2583947
332,1747532750620,-1.41577605,-0.6942208400000001,0.138868578,-0.291882465,-1.26180575,4.52178135
333,1747532750630,-1.3286476,-0.69287854,0.107873306,-0.27803403,-1.1478225,4.644553
334,1747532750640,-1.211012,-0.7294871,0.054424766,-0.25406557,-0.8697884,4.9257827
335,1747532750650,-1.1670818,-0.91106576,0.022209208,-0.19281286,-0.08841695,5.6677394
336,1747532750660,-1.198077,-1.018939,0.04881145,-0.1304949,0.23169503,6.2110243
337,1747532750670,-1.1495095,-1.1673259,0.09152147,0.05006743,0.44581318,6.8832064
338,1747532750680,-0.9110657,-1.61785555,0.1026260699999999,0.27377295,0.49481535,7.321563
339,1747532750690,-0.7196028,-1.9980967,0.0442963895,1.03250755,0.305730895,8.0653835
340,1747532750700,-0.6552937,-2.1437988,0.012446919,1.2069446,0.24554345,8.209993
341,1747532750710,-0.27834729,-2.58139345,-0.244911445,1.57739035,0.0961401215,8.565791
342,1747532750720,-0.065407341,-2.76175175,-0.45040765,1.6178704000000002,0.0617853415,8.720787000000001
343,1747532750730,0.032703668,-2.8366773,-0.56426036,1.2197278,0.253532935,8.903214
344,1747532750740,0.21171966,-3.2842784,-1.00100075,0.61625547,0.5209143,9.1764545
345,1747532750750,0.25552794,-3.4131405,-1.074584,0.37603834,0.6002765,9.322129
346,1747532750760,0.42636803,-3.7528682,-1.1102165,-0.113983296,0.69135666,9.689113
347,1747532750770,1.02113552,-4.585713650000001,-0.754258965,-0.400805745,0.426105785,9.914416500000002
348,1747532750780,1.2964321,-4.9050627,-0.47664383,0.004527375,-0.0428769,9.7325225
349,1747532750790,1.3862451,-5.029288,-0.25528386,0.31691617,-0.2444782,9.591641
350,1747532750800,1.27178225,-5.054181249999999,-0.37108903,1.25141945,-0.462058455,9.3189335
351,1747532750810,1.2310247,-5.0493,-0.4566311,1.4887071,-0.44421527,9.279519
352,1747532750820,1.1885588,-5.0173287,-0.64821607,1.6543556,-0.12197278,9.286976
353,1747532750830,1.31876335,-5.06845905,-0.8350418500000001,1.184041465,1.040230785,9.299226
354,1747532750840,1.5155955,-5.0558901,-0.7635331000000001,0.89588743,1.5558188,9.294965
355,1747532750850,1.6051645,-5.0248947,-0.6909261,0.6562029,1.7955033,9.121326
356,1747532750860,1.7667305,-4.876752,-0.511788,0.49428272,1.8072212,8.769257
357,1747532750870,1.96746745,-4.45014,-0.24247087,0.4053331249999999,1.3728596,7.928497
358,1747532750880,2.12219975,-3.8927132,-0.103602299,0.4016047,1.1622036,7.618239
359,1747532750890,2.2233615,-3.4949,-0.041001618,0.51292485,0.479369,6.247776
360,1747532750900,2.22104295,-2.7292922500000003,0.0209889233,0.4561995,0.45060686,5.140699850000001
361,1747532750910,2.2033489,-2.5084205,0.048567392,0.41545314,0.5107943,4.8554754
362,1747532750920,2.148924,-2.1503885,0.1295944,0.34993938,0.7030745,4.368117
363,1747532750930,1.9788162,-1.5617223,0.33484653,0.4213121,0.93157375,3.593137
364,1747532750940,2.0077369000000003,-1.25518645,0.424415545,0.64555025,0.928377965,2.94305945
365,1747532750950,2.02238035,-1.0732418,0.430028855,0.73130405,0.9369001,2.6945865
366,1747532750960,2.0139604,-0.9808661,0.42465958,0.93423694,1.0503508,2.1630194
367,1747532750970,1.943672,-0.7839119,0.3990336,1.1739215,1.2117383,1.6916399
368,1747532750980,1.8558112,-0.5762192,0.3031191,1.4397049,1.4764565,1.23837
369,1747532750990,1.6539761,-0.24308102,0.05418071,1.4429007,2.0873857,0.777643
370,1747532751000,1.5844196,-0.14692247,-0.025870068,1.2644689,2.3329291,0.6396913
371,1747532751010,1.5551329,-0.087616555,-0.06028214,1.0263823,2.396845,0.49694586
372,1747532751020,1.5666034,-0.03929322,-0.073217176,0.7451525,2.2567627,0.30839407
373,1747532751030,1.6146828,-0.020256752,-0.011714748,0.14647387,1.5600798,-0.16884442
374,1747532751040,1.7612391,-0.169009635,0.109215622,-0.09427591,1.1776499,-0.4463458
375,1747532751050,1.8167621,-0.23697957,0.16522676,-0.22583607,0.7590009,-0.8426242
376,1747532751060,1.8936402,-0.36950266,0.27505252,-0.18482338,0.5406217,-1.1829761
377,1747532751070,1.8936402,-0.36950266,0.27505252,-0.18482338,0.5406217,-1.1829761
378,1747532751080,1.95599685,-0.59842833,0.31922689,0.38109836,0.42770368,-1.82746115
379,1747532751090,2.0183535,-0.827354,0.36340126,0.9470201,0.31478566,-2.4719462
380,1747532751100,1.9990729,-0.92937,0.2443013,1.2144015,0.2759035,-2.7856665
381,1747532751110,1.9990729,-0.92937,0.2443013,1.2144015,0.2759035,-2.7856665
382,1747532751120,2.0454438,-1.4824038,-0.15033926,1.2942963,-0.4511395,-4.1092577
383,1747532751130,2.09352305,-1.9069413,-0.31190516,1.0098707500000002,-0.858869475,-4.90580885
384,1747532751140,2.1074343,-2.0342171,-0.33655494,0.9086706,-0.9683254,-5.1777177
385,1747532751150,2.1076784,-2.285352,-0.40269446,0.5938849500000001,-1.0530139,-5.9441757
386,1747532751160,2.255577,-2.954557,-0.5366819,0.4825648,-1.0279802,-6.1918497
387,1747532751170,2.2814472,-3.26573,-0.51569295,-0.02609898,-0.58696073,-7.131413
388,1747532751180,2.2748578,-3.6689126,-0.4634647,-0.21145499,-0.25672874,-7.4264913
389,1747532751190,2.3158593,-4.0162063,-0.35241866,-0.2806972,0.11611383,-7.7034597
390,1747532751200,2.3502712,-4.300533,-0.18694785,-0.18855181,0.43675843,-8.03529
391,1747532751210,2.3639383,-4.966321,0.07297312,0.21891184,0.45327002,-8.687764
392,1747532751220,2.3161032,-5.193538,0.14130914,0.45912898,0.17257284,-9.02279
393,1747532751230,2.15429345,-5.3490027,0.1443598549999999,0.6492787,-0.29561087,-9.29603
394,1747532751240,2.0864456,-5.3685274,0.12056428,0.7126619,-0.90281165,-9.486712
395,1747532751250,1.8210331,-5.0861532,-0.004026944,0.201867605,-2.29697655,-9.7730025
396,1747532751260,1.7830821,-5.025627,-0.022209208,-0.16937704,-2.9720879,-9.925069
397,1747532751270,1.7208475499999998,-4.85661715,0.0098843185,-0.814394665,-3.46184325,-10.2960475
398,1747532751280,1.5941819,-4.59974695,0.0566212795,-1.026382315,-3.36916515,-10.5011105
399,1747532751290,1.5297508,-4.5118866,0.071264714,-1.1014835,-3.2501218,-10.598848
400,1747532751300,0.8341876,-4.0052238,0.067847915,-1.176052,-2.1273332,-10.5029745
401,1747532751310,0.28115395,-3.6701329,0.110557936,-1.1334413,-1.5217303,-10.061422
402,1747532751320,-0.31605415,-3.2137458,0.251256935,-0.9416938,-0.9459548,-9.015866
403,1747532751330,-0.4837215,-3.0629184,0.29506522,-0.8580705,-0.819721,-8.64036
404,1747532751340,-0.6577343,-2.8015332,0.3533949,-0.6982809,-0.7957525,-7.97457
405,1747532751350,-0.73461233,-2.5488119,0.447601,-0.6309028999999999,-0.9105348,-7.714379
406,1747532751360,-0.8778739,-2.0827847,0.562796,-0.36804888,-2.1092236,-6.7298083
407,1747532751370,-1.05933045,-1.76856085,0.58463915,-0.302535105,-2.7646275,-6.32340985
408,1747532751380,-1.1070436,-1.6837509,0.5857374,-0.27696875,-2.900715,-6.1875887
409,1747532751390,-1.39295675,-1.3639139,0.46578325,-0.284425605,-2.3947145,-5.6118132
410,1747532751400,-1.5834434,-1.193928,0.3692586,-0.33768883,-1.9078887,-5.2901034
411,1747532751410,-1.8643533,-1.0682385,0.31751847,-0.46658584,-0.9241169,-4.802745
412,1747532751420,-2.3655248,-0.84102125,0.3904916,-0.5203817,0.9885654,-3.65465605
413,1747532751430,-2.5399036,-0.7507201,0.4368625,-0.4910869,1.6980315,-3.1446607
414,1747532751440,-2.9953145,-0.491897375,0.61770892,-0.12756543,2.7515781,-1.4138722
415,1747532751450,-3.0304587,-0.4515059,0.64211464,0.06018744,2.9619677,-0.5906891
416,1747532751460,-2.9694445,-0.3734076,0.65163285,0.308394065,2.1848574,0.234890805
417,1747532751470,-2.7827406,-0.30604777,0.6157564,0.38935417,1.8461033,0.45060685
418,1747532751480,-2.55027615,-0.22819352,0.4530922899999999,0.49375007,1.0855045,0.753142
419,1747532751490,-2.28754855,-0.22404456,0.2839606,0.532632225,-0.0751011249999999,1.52865445
420,1747532751500,-2.0866895,-0.25040275,0.16742326,0.5161206,-0.5592638,2.000034
421,1747532751510,-1.9046228,-0.2716357,0.07492557,0.37230992,-0.60560286,2.4090955
422,1747532751520,-1.64531195,-0.374749915,-0.021721095,-0.011717905,-0.23755398,3.1177628
423,1747532751530,-1.5461026,-0.41026023,-0.017816179,-0.14327806,-0.0644485,3.3688989
424,1747532751540,-1.0509106,-0.6155124,0.094206095,-0.39734364,0.793622,4.042146
425,1747532751550,-0.937179865,-0.721311225,0.1899985675,-0.316649855,0.8964200250000001,4.2304315
426,1747532751560,-0.82344913,-0.82711005,0.28579104,-0.23595607,0.99921805,4.418717
427,1747532751570,-0.76121455,-0.9081371,0.3248402,-0.0053263223,0.82877576,4.589692
428,1747532751580,-0.7321718,-0.9876996,0.28115395,0.33609092,0.42663842,4.878911
429,1747532751590,-0.356689675,-1.18087095,-0.0065895419999999,0.9214538,-0.19068234,5.375857
430,1747532751600,-0.27651685,-1.2061309,-0.11226633,1.0988203,-0.29880667,5.5281897
431,1747532751610,-0.14423785,-1.2293164,-0.41123646,1.0306433,-0.2412824,5.705024
432,1747532751620,-0.0053692595,-1.2849613,-0.71093875,0.7254451,-0.049002163,5.9585567
433,1747532751630,0.15546446,-1.4501882,-0.8439499,0.27164245,0.21997711,6.2573633
434,1747532751640,0.43173727,-1.9758875,-0.60038084,-0.3787015,0.97418433,6.8320737
435,1747532751650,0.5608435,-2.297555,-0.44857723,-0.40107206,1.3475596,7.2203627
436,1747532751660,0.74535084,-2.625812,-0.33899552,-0.32597092,1.4215955,7.5548553
437,1747532751670,0.85273606,-2.8727977,-0.27139166,-0.15020229,1.4397049,7.8174434
438,1747532751680,1.0023431,-3.17640505,-0.22904774,0.230363435,1.437308,8.5468835
439,1747532751690,1.0323621,-3.2937965,-0.21550256,0.27377295,1.4439659,8.685634
440,1747532751700,1.27751765,-3.6390155,-0.1799922199999999,0.36218992,1.4572818,8.837967
441,1747532751710,1.377215,-3.739689,-0.16034561,0.43356264,1.3480922,8.889099
442,1747532751720,1.5490314,-3.9722755,-0.107629254,0.5182512,1.0737866,8.860869
443,1747532751730,1.683263,-4.1274962,-0.04807928,0.77604514,0.6002765,8.69895
444,1747532751740,1.6207842,-4.0781965,-0.29579738,1.1158645,0.25726137,8.381501
445,1747532751750,1.4809394,-4.02304,-0.42197496,1.103614,0.32117724,8.324509
446,1747532751760,1.368429,-4.0225515,-0.51788944,0.9997507,0.545948,8.372978
447,1747532751770,1.325963,-4.0096164,-0.5469323,0.84581995,0.86606,8.408665
448,1747532751780,1.3303561,-3.9881394,-0.5269196,0.6354303,1.1792477,8.370316
449,1747532751790,1.3603752,-3.9603171,-0.47469133,0.37550572,1.490305,8.259528
450,1747532751800,1.4157761,-3.7072296,-0.24332508,-0.11771172,2.2828617,7.889881
451,1747532751810,1.5082738,-3.534925,-0.018304294,-0.22583607,2.586462,7.6736326
452,1747532751820,1.77502835,-3.0968424,0.40159617,-0.172306535,2.83094025,6.88214075
453,1747532751830,1.9095039,-2.66742375,0.6847025499999999,0.02716424,2.76862225,6.1535
454,1747532751840,1.9258558,-2.32659785,0.79294195,0.253000305,2.5286715,5.641108
455,1747532751850,1.9251237,-2.148192,0.8297946,0.36911413,2.3792682,5.387575
456,1747532751860,1.9285403,-1.8397036,0.8327233,0.59228706,1.9909793,4.8991513
457,1747532751870,1.9248795,-1.15768555,0.6982477899999999,0.88443582,1.41067645,4.2192463
458,1747532751880,1.9542884,-0.7030069,0.564138325,0.96619487,0.9685917,3.5979307
459,1747532751890,2.0178654,-0.5266755399999999,0.48896869,0.9273127,0.561394365,2.95104885
460,1747532751900,2.0576468,-0.45736328,0.45687518,0.8926916,0.40533313,2.6951191
461,1747532751910,2.12244385,-0.2224581849999999,0.2297798999999999,0.63969129,0.08655274,1.40588275
462,1747532751920,2.13086375,-0.1643725549999999,0.15936939,0.51825115,0.24873925,0.99682125
463,1747532751930,2.1315958,-0.1466784,0.13691612,0.45859635,0.36005938,0.8090684
464,1747532751940,2.1237862,-0.15107143,0.1210524,0.34248254,0.6178534,0.4878911
465,1747532751950,2.0903504,-0.20647243,0.16473864,0.25726137,0.81439465,0.13795175
466,1747532751960,2.03751195,-0.2363694499999999,0.234661035,0.2974751,0.82691151,-0.102265395
467,1747532751970,1.9819889,-0.30287504,0.39878955,0.46552056,0.6556703,-0.63436496
468,1747532751980,1.9658812,-0.33899552,0.42051062,0.5970807,0.34194988,-0.9933591
469,1747532751990,1.9141409,-0.39976576,0.38829508,0.7078682,-0.0479369,-1.3635385
470,1747532752000,1.824816,-0.49934113,0.3128814,0.7861652,-0.4660532,-1.6927053
471,1747532752010,1.824816,-0.49934113,0.3128814,0.7861652,-0.4660532,-1.6927053
472,1747532752020,1.7109633,-0.80770746,0.04209987,0.80747044,-1.2397015,-2.2746060000000003
473,1747532752030,1.8067558,-1.18477595,-0.19524581,0.63702816,-1.5488945,-2.7265444
474,1747532752040,1.8226196,-1.2905748,-0.24186075,0.4079963,-1.685781,-3.0642333
475,1747532752050,1.8310395,-1.8073659,-0.26577835,-0.068975875,-1.84157595,-3.7888794
476,1747532752060,1.8443406,-2.084737,-0.25284332,-0.28549087,-1.8679413,-4.1619883
477,1747532752070,1.8916876,-2.4007912,-0.17572121,-0.42717105,-1.7603495,-4.546016
478,1747532752080,1.8982773,-2.695368,-0.09518232,-0.46711847,-1.5398397,-4.9300437
479,1747532752090,1.8553232,-2.9455268,-0.03172744,-0.42184472,-1.2394352,-5.3002234
480,1747532752100,1.8013865,-3.1956854,0.010006348,-0.35260254,-0.93849796,-5.6842513
481,1747532752110,1.5951582,-3.6977115,-0.010982576,-0.38775626,-0.5289038,-6.3255405
482,1747532752120,1.5692881,-3.9285893,0.0302631,-0.38775626,-0.5289038,-6.3255405
483,1747532752130,1.5766098,-4.198517,0.06589546,-0.6332997,-0.57311225,-6.823019
484,1747532752140,1.5954022,-4.5021243,0.08346757,-0.799481,-0.70627034,-7.125554
485,1747532752150,1.5897889,-5.0422225,0.23649146,-0.9784454,-0.87511474,-7.4573836
486,1747532752160,1.5060773,-5.208182,0.42099872,-1.1840415,-1.1632688,-8.213189
487,1747532752170,1.33182045,-5.2595558,0.52582135,-0.93690012,-1.2852416,-8.65660525
488,1747532752180,1.15036385,-5.14130995,0.528994075,-0.82557994,-1.3459617,-8.708004
489,1747532752190,1.1194906,-5.0663843,0.51666915,-0.77391464,-1.4956313,-8.435829
490,1747532752200,1.1119248,-4.7103047,0.59183884,-0.07084008,-0.80533993,-8.381501
491,1747532752210,0.72838885,-4.249403,0.40293851,-0.0644485,-0.7781757,-8.295747
492,1747532752220,0.4953141799999999,-3.9494565,0.40806371,-0.027963191,-1.08843393,-8.2472775
493,1747532752230,0.39415246,-3.7931376,0.4183141,0.020240024,-1.2516857,-8.251006
494,1747532752240,-0.141919283,-2.98347785,0.35522533,-0.084688525,-2.00695825,-8.09015065
495,1747532752250,-0.23209843,-2.825939,0.34949,-0.2082592,-2.3494408,-7.9575253
496,1747532752260,-0.37584817,-2.5181828,0.33142975,-0.32277513,-2.4698157,-7.7157106
497,1747532752270,-0.5520575,-2.2824233,0.32069123,-0.470846885,-2.45543455,-7.155647699999999
498,1747532752280,-0.70239675,-2.0696054,0.37828872,-0.5028048,-2.4357271,-6.9386
499,1747532752290,-0.795748685,-1.64506795,0.5145947049999999,-0.4812332099999999,-2.3475765,-5.969742
500,1747532752300,-0.7897693,-1.5758777,0.54815257,-0.45859635,-2.3366575,-5.816344
501,1747532752310,-0.78684056,-1.4357888,0.5874458,-0.37124467,-2.3004386,-5.606487
502,1747532752320,-0.895568105,-1.22760795,0.5863475149999999,-0.25513083,-2.1688783,-5.462676
503,1747532752330,-1.190877425,-0.9784255,0.455166765,-0.128098055,-1.40535015,-4.8826397
504,1747532752340,-1.4187049,-0.801484,0.34070393,-0.1486044,-0.9997507,-4.559332
505,1747532752350,-1.6417731,-0.63967407,0.24308102,-0.30146983,-0.50173956,-4.1023335
506,1747532752360,-1.7777131,-0.5252112,0.2306341,-0.46924898,-0.10279802,-3.674097
507,1747532752370,-1.86215665,-0.475911635,0.33265004,-0.6269081350000001,0.2495382049999999,-3.2509209
508,1747532752380,-1.8916876,-0.47005424,0.37682438,-0.65726817,0.32756883,-3.1425302
509,1747532752390,-2.2282426,-0.35705575,0.5015376,-0.49215218,0.5267733,-2.5965822
510,1747532752400,-2.4508228,-0.29067218,0.5042223,-0.23435818,0.7765778,-1.937716
511,1747532752410,-2.631181,-0.24503349,0.45980385,-0.011717909,0.93636745,-1.2239889
512,1747532752420,-2.6272762,-0.17254847,0.33899552,0.16405073,1.1382351,-0.5613944
513,1747532752430,-2.4664426,-0.035632357,0.09274176,0.24554345,1.3081448,-0.022903185
514,1747532752440,-2.4373996,0.0021965152,-0.039537273,0.07084008,1.3997575,0.9805759
515,1747532752450,-2.29328395,0.0037828872999999,-0.196466075,-0.399740515,1.2010857,1.8008295
516,1747532752460,-2.2216532,-0.0043930304,-0.2294138,-0.5858955,1.1132014,2.0682108
517,1747532752470,-1.8654515,-0.197930426,-0.14777667,-1.14808875,0.766191455,2.74758335
518,1747532752480,-1.6205401,-0.41221269,-0.017694155,-1.4737933,0.412789965,3.3774209
519,1747532752490,-1.5590377,-0.4898229,0.0370967,-1.627724,0.18482338,3.8013961
520,1747532752500,-1.4294434,-0.64040625,0.13471961,-1.5472966,0.040480047,4.192881
521,1747532752510,-1.36428005,-0.692146375,0.163030245,-1.3438311,-0.025566347,4.559332
522,1747532752520,-1.1580516,-0.85956967,0.20744865,-1.081776,0.055926383,4.8900967
523,1747532752530,-1.0421244,-1.0233321,0.19426957,-0.8085357,0.27377295,5.2411013
524,1747532752540,-0.8607899,-1.3081468,0.19622204,-0.15233281,0.73130405,6.1849256
525,1747532752550,-0.59183884,-1.4872849,0.10152781,0.09321064,0.80533993,6.6552396
526,1747532752560,-0.2630937,-1.6695957,-0.06955632,0.13741912,0.72651035,7.121293
527,1747532752570,-0.012935034,-1.8345783,-0.1632743,0.05006743,0.567786,7.379087
528,1747532752580,0.29018408,-2.2272666,-0.35656762,-0.08841695,0.45593318,7.578824
529,1747532752590,0.32801294,-2.451067,-0.37926495,-0.30200246,0.49321744,8.061389
530,1747532752600,0.32386398,-2.7864015,-0.39366436,-0.28176245,0.5800365,8.38736
531,1747532752610,0.38609856,-3.1212482,-0.35998443,-0.14807177,0.5954828,8.715461
532,1747532752620,0.49592432,-3.4192421,-0.3704789,0.050600063,0.48363006,8.986038
533,1747532752630,0.6653,-3.8563485,-0.47542354,0.663127115,-0.615722865,9.295498
534,1747532752640,0.77512586,-4.036707,-0.6145361,0.7392935,-0.8724516,9.312542
535,1747532752650,0.8685997,-4.1672773,-0.77146494,0.8069378,-1.3544837,9.261409
536,1747532752660,0.91545874,-4.2358575,-0.89715445,0.82557994,-1.6847157,9.162339
537,1747532752670,0.89056486,-4.267097,-1.0135698,0.80587256,-1.7992316,9.064335
538,1747532752680,0.76804817,-4.297848,-1.1019185,0.73982614,-1.7140105,9.0377035
539,1747532752690,0.59183884,-4.4879684,-1.0621371,0.515588,-1.1547467,9.235311
540,1747532752700,0.70325093,-4.71652815,-0.88482958,0.41705105,-0.8181231,9.352489
541,1747532752710,0.7726852,-4.77498,-0.8158834,0.32384038,-0.48043427,9.363142
542,1747532752720,0.9196077,-4.812809,-0.69898,0.268446655,-0.4772385,8.8323735
543,1747532752730,1.4007666,-4.6333048,-0.43198132,0.329965665,-0.7350325,8.164453
544,1747532752740,1.5163277,-4.5262856,-0.4024504,0.3818973,-0.8708537,7.881359
545,1747532752750,1.8094405,-4.089423,-0.33631086,0.49055427,-1.0524813,7.2219605
546,1747532752760,2.2466691,-2.87536045,-0.189510455,0.5528722749999999,-0.91852428,5.749765
547,1747532752770,2.2821794,-2.6331336,-0.15839316,0.5384912,-0.75154406,5.00408
548,1747532752780,2.2582617,-2.136233,-0.073217176,0.4463458,-0.5225122,4.203001
549,1747532752790,2.2194567,-1.7720996,0.05735345,0.47830373,-0.52837116,3.6421392
550,1747532752800,2.1747942,-1.5053451,0.14521407,0.63649553,-0.7254451,3.0871365
551,1747532752810,2.13110795,-1.28069045,0.115927195,0.8567389649999999,-1.1819109,2.2466427500000004
552,1747532752820,1.9592916,-0.852492,-0.05296042,1.0769824,-1.6383767,1.406149
553,1747532752830,1.8345783,-0.6960513,-0.18377511,1.1147993,-1.717739,1.0354371
554,1747532752840,1.7586764,-0.5559624,-0.32679266,1.1014835,-1.587244,0.77231675
555,1747532752850,1.7447651999999998,-0.489944915,-0.37584818,1.0700582,-1.4314491,0.6737797750000001
556,1747532752860,1.7701472,-0.22697324,-0.5593792,0.69668293,-0.314253,0.1635181
557,1747532752870,1.803339,-0.18109047,-0.579636,0.42663842,0.051132694,-0.03195793
558,1747532752880,1.8567874,-0.16254212,-0.5549862,0.11930962,0.3174488,-0.24714136
559,1747532752890,1.9217068,-0.20159128,-0.46932206,-0.301469835,0.414121555,-0.642620785
560,1747532752900,2.0657005,-0.46761367,-0.23136626,-0.4282363,0.39468047,-0.78563255
561,1747532752910,2.0996244,-0.61160743,-0.10323621,-0.74248934,-0.008522116,-1.4764565
562,1747532752920,2.1359892,-0.7585299,-0.023673553,-0.78936094,-0.23542345,-1.8796592
563,1747532752930,2.1252506,-0.8839754,0.061258372,-0.7600662,-0.48149952,-2.4181504
564,1747532752940,2.111339,-1.0374874,0.11324256,-0.6982809,-0.61412495,-2.882073
565,1747532752950,2.0964518,-1.2227268,0.16303024,-0.6018744,-0.75580513,-3.3859432
566,1747532752960,1.9910189,-1.6695957,0.09859913,-0.44847634,-1.0530139,-4.435761
567,1747532752970,1.9184121,-2.15026625,-0.040025389245,-0.47137952,-1.1819109,-4.9513493
568,1747532752980,1.9104803,-2.3095136,-0.079562664,-0.54648066,-1.2538162,-5.4578824
569,1747532752990,1.8726513,-2.5806613,-0.14692247,-0.63223445,-1.2554141,-5.93086
570,1747532753000,1.8133454,-2.9984872,-0.33631086,-0.9720538,-0.9267801,-6.7292757
571,1747532753010,1.888515,-3.2628014,-0.43246946,-1.2447615,-0.6428871,-7.073889
572,1747532753020,1.982477,-3.72541205,-0.4583395,-1.562743,-0.42876893,-7.490407
573,1747532753030,2.0071268,-3.8932014,-0.45516676,-1.8967034,-0.22530343,-7.979896
574,1747532753040,2.0183535,-4.2749066,-0.42636803,-2.2104237,0.05752428,-8.524778
575,1747532753050,1.6703278,-4.942891,-0.16571487,-2.4197483,0.5933523,-9.438776
576,1747532753060,1.4733735,-5.086397,0.027334413,-2.3089607,0.6945524,-9.498963
577,1747532753070,1.3564702,-5.2716365,0.12178457,-2.0634172,0.6609966,-9.405752
578,1747532753080,1.38136405,-5.344731599999999,0.149118975,-1.8612833,0.5225122200000001,-9.3916375
579,1747532753090,1.5165718,-5.4312496,0.2848148,-1.3709954,0.06977482,-9.517073
580,1747532753100,1.58539585,-5.25882365,0.0745594885,-0.83037364,-0.89855057,-9.868077
581,1747532753110,1.5827112,-5.1330123,-0.020988923,-1.063133915,-1.14089825,-10.153302
582,1747532753120,1.4763023,-4.9101877,-0.07443746,-1.2303804,-1.1797804,-10.191385
583,1747532753130,1.4435986,-4.783278,0.032459613,-1.547563,-0.8916263150000001,-10.2984445
584,1747532753140,1.2334653,-4.3234744,0.1164153,-1.6447684,-0.62903863,-10.395916
585,1747532753150,0.62063759,-3.8626941,0.0098843205,-0.75420725,-0.28442562,-10.379404
586,1747532753160,0.12739789,-3.50356375,-0.0009762284999999,-0.51638695,-0.0010652644999999,-9.852631
587,1747532753170,-0.2314882999999999,-3.11905155,0.069190235,-0.4607269,-0.022903185,-9.629458
588,1747532753180,-0.3939084,-2.9189248,0.10640897,-0.23009712,-0.2625877,-9.087238
589,1747532753190,-0.50422225,-2.4203156000000003,0.1103138749999999,0.037284255,-0.59228706,-8.54129
590,1747532753200,-0.4651731,-2.2289748,0.09396204,0.314253,-1.3102753,-7.7737675
591,1747532753210,-0.44540447,-2.0866895,0.04783522,0.23542345,-1.5190672,-7.562845
592,1747532753220,-0.5274077,-1.9412313,0.06687169,0.06924219,-1.6708673,-7.376424
593,1747532753230,-0.59013045,-1.8519063,0.12349297,-0.08735169,-1.76248,-7.1713605
594,1747532753240,-0.9086252,-1.657881,0.12813005,-0.24181503,-1.4146712,-6.7367325
595,1747532753250,-1.1155857,-1.551472,0.09469421,-0.40906155,-0.8175905,-6.4512415
596,1747532753260,-1.28069035,-1.5068095,0.085542063,-0.514522725,-0.38003311,-6.24564555
597,1747532753270,-1.6558064,-1.42505025,0.0900571179999999,-0.6934871499999999,0.54381749,-5.71354605
598,1747532753280,-2.07436465,-1.3341389,0.16486067,-0.76246302,1.44796075,-4.9558766
599,1747532753290,-2.4779134,-1.1885588,0.33533466,-0.6034723,2.3883228,-3.6336172
600,1747532753300,-2.5401478,-1.053107,0.4566311,-0.14807177,2.360626,-2.25623
601,1747532753310,-2.6077516,-0.93229866,0.44345203,0.1123854,1.8785939,-1.6676716
602,1747532753320,-2.7139168,-0.7909895,0.4097721,0.28336033,1.4162691,-1.1712582
603,1747532753330,-2.68109095,-0.525333215,0.136061915,0.25592979,0.7949536150000001,0.113184365
604,1747532753340,-2.5175725,-0.472738895,0.0394152435,0.01384844,0.6431534299999999,1.1326424350000002
605,1747532753350,-2.3158592,-0.48274523,-0.0368526464999999,-0.10972224,0.680704,1.4679344
606,1747532753360,-2.2143314,-0.5103237,-0.06687169,-0.4282363,0.82611257,2.0793962
607,1747532753370,-2.0642362,-0.5876899,-0.022453265,-0.74035877,0.9187906,2.6439865
608,1747532753380,-1.658003,-0.82418133,0.2198955699999999,-0.94116116,0.62584287,3.8237667
609,1747532753390,-1.5648952,-0.8700641,0.25137895,-0.8516789,0.3520699,4.2504053
610,1747532753400,-1.3235224,-0.9510911,0.27212384,-0.6849651,0.2066613,4.592888
611,1747532753410,-1.1392592,-1.01479,0.26748675,-0.46019423,0.22050974,4.8943577
612,1747532753420,-1.044321,-1.0589644,0.26577836,-0.21571605,0.28122982,5.2160673
613,1747532753430,-0.95938903,-1.2793481,0.26870704,0.3371562,0.26205507,6.0645504
614,1747532753440,-0.8346757,-1.4072341,0.25284332,0.6812366,0.1736381,6.5694857
615,1747532753450,-0.6433349,-1.5251138,0.17132819,0.9869675,0.05539375,7.0547137
616,1747532753460,-0.40733153,-1.6769173,0.06980037,1.2468921,-0.051665325,7.5665736
617,1747532753470,-0.012446919,-1.9253676,-0.067847915,1.3566142,-0.2034655,7.777496
618,1747532753480,0.59110665,-2.161127,-0.3699908,1.3507553,-0.5342301,7.6118474
619,1747532753490,0.6496804,-2.3129306,-0.5195979,1.1888351,-0.5832323,7.5750957
620,1747532753500,0.6548056,-2.5533268,-0.48689422,1.123854,-0.6775082,7.75406
621,1747532753510,0.60135704,-2.9474795,-0.46810177,1.325189,-0.83250415,8.075237
622,1747532753520,0.60135704,-2.9474795,-0.46810177,1.6671388,-0.8644621,8.4539385
623,1747532753530,0.60660428,-3.3673799,-0.7075219450000001,2.424542,-0.750745125,9.0837765
624,1747532753540,0.6745742,-3.5873976,-0.86664724,2.799515,-0.67697555,9.323728
625,1747532753550,0.6740861,-3.6481678,-1.1529264,2.775014,-0.75154406,9.3652725
626,1747532753560,0.61722076,-3.7333438,-1.3547617,2.4916537,-0.9150622,9.481386
627,1747532753570,0.6357691,-3.9446974,-1.4392056,2.111354,-1.1467572,9.617208
628,1747532753580,0.91472656,-4.4052334,-1.3293798,1.5520903,-1.3140037,9.750898
629,1747532753590,1.0731196,-4.64685,-1.2212625,1.4088123,-1.194694,9.794574
630,1747532753600,1.2254114,-4.8479533,-1.0797093,1.3566142,-1.0130665,9.775932
631,1747532753610,1.3079028,-4.9353256,-0.91545874,1.4615428,-0.84581995,9.610816
632,1747532753620,1.2337095,-5.030752,-0.75291663,1.6367788,-0.8671253,9.41747
633,1747532753630,1.2590914,-5.0541816,-0.780251,1.8860507,-1.25861,9.069129
634,1747532753640,1.3933228,-5.00537,-0.8542004,1.9126823,-1.4908376,8.799085
635,1747532753650,1.58564,-4.847465,-0.93156654,1.8317223,-1.7587516,8.3996105
636,1747532753660,2.1599066,-4.0906434,-1.0260166,1.3928332,-2.021872,7.1164994
637,1747532753670,2.3812666,-3.5969157,-0.9437694,1.0913634,-1.7534252,6.3628244
638,1747532753680,2.5684586,-3.1100214,-0.80465674,0.7707188,-1.0626013,5.6171393
639,1747532753690,2.68304325,-2.3669893,-0.47688785,0.42663842,0.42876893,4.7681236
640,1747532753700,2.6941478,-2.1599066,-0.3372871,0.3387541,1.8498317,4.172108
641,1747532753710,2.5399036,-1.6698397,0.23112221,0.4293016,3.145726,3.5702338
642,1747532753720,2.3854156,-1.5163277,0.40269446,0.96939063,4.2125883,2.2610238
643,1747532753730,2.17467215,-1.28496145,0.459193705,1.203748815,3.75026355,1.63438195
644,1747532753740,1.9639287,-1.0535952,0.51569295,1.438107,3.2879388,1.0077401
645,1747532753750,1.7852788,-0.7822035,0.46785772,1.5526229,2.5326662,0.53955644
646,1747532753760,1.6569047,-0.27651685,0.31605414,1.6479641,1.0977551,-0.25193503
647,1747532753770,1.66837525,-0.040269446,0.130326565,1.67219885,0.5033374749999999,-0.7443535649999999
648,1747532753780,1.6742326,0.028554698,0.05296042,1.6650083,0.340352,-0.90920323
649,1747532753790,1.6605655,0.15277983,-0.09200958,1.572863,0.083090626,-1.2181299
650,1747532753800,1.6232247,0.30848834,-0.31483385,1.4183996,-0.12037488,-1.4935007
651,1747532753810,1.6007715,0.29140437,-0.38194957,0.94968325,-0.4048005,-1.9329224
652,1747532753820,1.6037002,0.21672285,-0.44808912,0.64395237,-0.4676511,-2.0698087
653,1747532753830,1.6461661,0.155098388,-0.45065172,0.489222705,-0.4759069,-2.15236675
654,1747532753840,1.87106485,-0.26468008,-0.4157515,-0.149935967,-0.40906155,-3.01709525
655,1747532753850,1.940011,-0.44930938,-0.4131889,-0.3323625,-0.32384038,-3.4509242
656,1747532753860,1.9285403,-0.52521119,-0.399399665,-0.413056285,-0.181361265,-3.6754286
657,1747532753870,1.8631331,-0.77195305,-0.3248402,-0.5800365,0.28336033,-4.2546663
658,1747532753880,1.8304293,-1.0179628,-0.31532198,-0.5629923,0.5635249,-4.537494
659,1747532753890,1.8841219,-1.4680043,-0.4327135,-0.4910869,0.78083885,-4.8384314
660,1747532753900,1.8570317,-1.6739886,-0.5544981,-0.5384912,1.0977551,-5.5393753
661,1747532753910,1.8260365,-1.9153614,-0.64309084,-0.8293084,1.170193,-5.891978
662,1747532753920,1.7825942,-2.2350764,-0.6718896,-1.1041466,1.1297129,-6.1007695
663,1747532753930,1.98223295,-2.7909166,-0.6655441,-1.45515125,1.013066515,-6.4443175
664,1747532753940,2.20505715,-3.26048275,-0.63930797,-1.72279895,1.053280215,-7.0126360000000005
665,1747532753950,2.2755897,-3.4509695,-0.63308454,-1.8876486,1.1323761,-7.433948
666,1747532753960,2.3300145,-3.7887447,-0.5930591,-1.947836,1.3672669,-7.843542
667,1747532753970,2.37907,-4.1501937,-0.50934744,-1.8727349,1.6580842,-8.162589
668,1747532753980,2.50915265,-4.87650795,-0.34509696,-1.3100089499999998,1.9406455,-8.65314275
669,1747532753990,2.5643096,-5.40916295,-0.193415365,-0.7720503999999999,1.77952425,-9.12452275
670,1747532754000,2.49792585,-5.66908385,-0.063820972245,-0.41971418,1.2002867,-9.5298565
671,1747532754010,2.4483821,-5.77171,-0.00048811449,-0.24873926,0.8111989,-9.73492
672,1747532754020,2.3375802,-5.848588,0.07565775,0.025566347,-0.3073288,-10.11948
673,1747532754030,2.11377975,-5.5468109,-0.03673061,0.191481285,-2.12759935,-10.75997
674,1747532754040,1.88046105,-5.18719245,-0.20525214,0.18908444,-2.7867317,-11.0159
675,1747532754050,1.7720996,-5.0422225,-0.2677308,0.0777643,-2.8905952,-10.983942
676,1747532754060,1.5365844,-4.7017627,-0.37584817,-0.11984225,-2.6759443,-10.587131
677,1747532754070,1.2598236,-4.300533,-0.38097337,-0.2514024,-2.380866,-10.105099
678,1747532754080,0.7917217,-3.605702,-0.15766099,-0.33768883,-2.0501015,-9.640111
679,1747532754090,0.511788,-3.2947729,-0.017328065,-0.36804888,-1.7789917,-9.052085
680,1747532754100,0.511788,-3.2947729,-0.017328065,-0.36804888,-1.7789917,-9.052085
681,1747532754110,-0.19939478,-2.5464933,0.27554062,-0.34487938,-2.17074265,-8.3652555
682,1747532754120,-0.51642513,-2.2162838,0.35461518,-0.3435478,-2.283927,-8.181764
683,1747532754130,-0.763167,-1.9126767,0.41684976,-0.3616573,-2.501241,-7.7199717
684,1747532754140,-1.14096765,-1.26079975,0.501781685,-0.4878911099999999,-2.71642435,-6.0283315
685,1747532754150,-1.1690342,-1.168302,0.52399087,-0.50387007,-2.6626284,-5.707687
686,1747532754160,-1.19038925,-1.1114367,0.519109735,-0.506533235,-2.5121598,-5.4190002
687,1747532754170,-1.1829455,-0.989164,0.46444094,-0.5784386,-1.903095,-4.726578
688,1747532754180,-1.3781912,-0.780251,0.4166057,-0.953678,-0.369380445,-3.9686427
689,1747532754190,-1.526334,-0.72704655,0.47127452,-1.0125339,-0.05006743,-3.7715688
690,1747532754200,-1.641285,-0.6958072,0.52911615,-1.0604708,0.5432849,-3.2975261
691,1747532754210,-1.7191393,-0.67091334,0.59867245,-1.04529075,0.85008105,-3.00990475
692,1747532754220,-1.820911,-0.6199054,0.67628264,-0.854874725,1.4202638,-1.9606193
693,1747532754230,-2.0647242,-0.50495446,0.7641432,-0.75420725,1.3944311,-1.603223
694,1747532754240,-2.2630208,-0.40562316,0.791599685,-0.508663775,0.99442435,-1.089232925
695,1747532754250,-2.327818,-0.37218732,0.78513217,-0.41438788,0.8516789,-0.90494215
696,1747532754260,-2.4339828,-0.32459614,0.70971847,-0.2050634,0.62051654,-0.46711847
697,1747532754270,-2.4271492500000003,-0.31361357,0.527895835,0.2218413145,0.5896239000000001,0.80880206
698,1747532754280,-2.28547405,-0.33057555,0.3828038,0.5091964,0.76885465,1.88578445
699,1747532754290,-2.0854692,-0.336799,0.25467374,0.577107,0.92358432,2.51189365
700,1747532754300,-1.9675895,-0.3402158,0.17596528,0.5773733,0.98856544,2.7984498
701,1747532754310,-1.7145022,-0.35534734,0.05686534,0.44794372,1.0460896,3.2245555
702,1747532754320,-1.3039979,-0.4234393199999999,-0.029042814,0.063649548,0.9651296,3.7657099
703,1747532754330,-1.1024066,-0.47737598,-0.033679903,-0.112918034,0.908138,3.9792955
704,1747532754340,-1.0141799,-0.56267399,-0.01452140615,-0.12490226,0.93796535,4.2530683
705,1747532754350,-1.0179628,-0.58329684,-0.0056133163,-0.09853696,0.9603359,4.3670516
706,1747532754360,-1.1094842,-0.60916686,-0.0012202862,0.03355583,1.0263823,4.8394966
707,1747532754370,-1.0832481,-0.80368051,-0.0224532681,0.206927625,1.14436035,5.3950319
708,1747532754380,-1.057012,-0.99819416,-0.04368625,0.38029942,1.2623384,5.9505672
709,1747532754390,-0.8617661,-1.261532,-0.12324891,0.6066681,1.9052255,7.13887
710,1747532754400,-0.43771668,-1.5525701,-0.258700685,0.518251165,2.33932075,7.7556577
711,1747532754410,-0.27187976,-1.6390884,-0.30287504,0.45007423,2.4469125,7.9037294
712,1747532754420,-0.0776102,-1.8753358,-0.3380193,-0.034088463,2.3489082,8.096542
713,1747532754430,-0.13081467,-2.0544739,-0.27944556,-0.19760656,2.018676,8.216385
714,1747532754440,-0.18633771,-2.1874851,-0.248572315,-0.185888645,1.6921725,8.394550500000001
715,1747532754450,-0.25552794,-2.659492,-0.24552159,-0.08735169,0.67484504,9.010539
716,1747532754460,0.20354374,-3.6427984,-0.2716357,0.35952675,-0.97258645,9.799368
717,1747532754470,0.62503064,-4.1257877,-0.36803833,0.7621967,-1.5100124,10.039585
718,1747532754480,0.84443807,-4.34568335,-0.445160415,0.9904296,-1.5566177,10.132529
719,1747532754490,1.2132086,-4.793772,-0.7568215,1.6484967,-1.417867,10.476876
720,1747532754500,1.1805049,-4.8787045,-1.1236396,1.8407769,-1.2756542,10.872622
721,1747532754510,1.5500076,-5.051741,-1.8511744,0.9800433,-0.99069595,11.634818
722,1747532754520,1.6983943,-5.094451,-1.803095,0.24501082,-1.1126688,11.354654
723,1747532754530,1.6505592,-5.089326,-1.5146192,-0.38562572,-1.613343,10.824685
724,1747532754540,1.4462832,-5.0924983,-1.2437156,-0.77391464,-2.3467777,10.353305
725,1747532754550,1.2010058,-5.018793,-0.97598493,-0.85540736,-3.1057785,10.104566
726,1747532754560,1.20039565,-4.937766249999999,-0.83089289,-0.665523965,-3.3545177500000003,9.926933
727,1747532754570,1.2688537,-4.7598486,-0.6020892,-0.2625877,-3.1127028,9.601229
728,1747532754580,1.3449996,-4.6883397,-0.48640612,-0.080960095,-2.1981733,9.572999
729,1747532754590,1.5094941,-4.6060925,-0.2882316,0.2247708,-0.78936094,9.639578
730,1747532754600,1.7321963,-4.38119375,-0.0543027399999999,0.39920787,-0.292681395,9.604957
731,1747532754610,1.9548985,-4.156295,0.17962612,0.9518138,0.77604514,9.247028
732,1747532754620,1.9548985,-4.156295,0.17962612,0.9518138,0.77604514,9.247028
733,1747532754630,2.4528974000000003,-3.0791484,0.4277103399999999,1.72173365,0.135554895,7.26883195
734,1747532754640,2.6755996,-2.2489874,0.277005,1.9121497,-0.88470215,5.6256614
735,1747532754650,2.7929912,-1.1912434,-0.08175918,1.6138756,-1.5291871,3.5691686
736,1747532754660,2.8483922,-0.7507201,-0.1849954,1.2330436,-1.303351,2.4559672
737,1747532754670,2.762484,-0.40708748,-0.24332508,0.96779275,-0.87351686,1.7086842
738,1747532754680,2.6221510500000003,-0.291160285,-0.193903475,0.7004114,-0.10546118,0.8966863199999999
739,1747532754690,2.5957928,-0.30043447,-0.17547716,0.6306366,0.14221281,0.66152924
740,1747532754700,2.5442967,-0.413677,-0.07834238,0.5496765,1.1526161,-0.2545982
741,1747532754710,2.51452185,-0.45004156,-0.0544247685,0.6151902499999999,1.4181333,-0.49481535
742,1747532754720,2.3595455,-0.53912246,0.0019524579,0.8767126,2.1054952,-1.1669972
743,1747532754730,2.26875615,-0.56706703,-0.00658954605,0.98110855,2.24770795,-1.3342437
744,1747532754740,1.965393,-0.68140787,-0.12813005,1.3363743,2.511361,-1.830657
745,1747532754750,1.9707623,-0.7325378650000001,-0.18548351,1.4266554,2.19045005,-2.11348475
746,1747532754760,2.0259192,-0.87250465,-0.38561043,1.4205302,1.2713932,-2.8277445
747,1747532754770,2.094011,-0.9730562,-0.5972081,1.1329087,0.60773337,-3.3625073
748,1747532754780,2.28962315,-1.5269441,-0.925709175,0.2428802849999999,-0.3552656855,-4.7028763
749,1747532754790,2.3807786,-1.8645973,-1.065554,-0.22264028,-0.7126619,-5.3987603
750,1747532754800,2.4427688,-2.182848,-1.1707426,-0.6247776,-0.5411543,-6.0357885
751,1747532754810,2.4762049,-2.5255044,-1.244936,-0.9214538,0.08841695,-6.571084
752,1747532754820,2.4537516,-2.7269735500000003,-1.2811785,-1.1558119,1.3358417,-6.9918633
753,1747532754830,2.387002,-3.66305525,-1.32315635,-1.2080099,3.1465248,-7.379087
754,1747532754840,2.4049401,-4.057696,-1.2854495,-1.1851068,3.8525288,-7.5756283
755,1747532754850,2.4771812,-4.5553284,-1.2117443,-1.1142666,4.0240364,-7.992679
756,1747532754860,2.545517,-5.103969,-1.0562798,-0.9997507,3.7960699,-8.530638
757,1747532754870,2.42397655,-5.778909499999999,-0.80551095,-0.744353575,2.2407838,-9.875268
758,1747532754880,2.19212225,-6.0351697,-0.6718896,-0.528903825,0.723580875,-10.8395985
759,1747532754890,2.1018212,-6.0550604,-0.6384538,-0.40906155,0.13475595,-11.113904
760,1747532754900,1.9387908,-6.048959,-0.5942794,-0.4181163,-0.6146576,-11.4207
761,1747532754910,1.8719191,-6.0100318,-0.58707973,-0.434095265,-0.8735168500000001,-11.5179055
762,1747532754920,1.6564165,-5.781228,-0.6101431,-0.515588,-1.4530207,-11.605524
763,1747532754930,1.3667206,-5.19744315,-0.623932325,-0.766990415,-1.39123535,-11.1706295
764,1747532754940,1.0670183,-4.72531425,-0.55193545,-0.995489615,-1.07511815,-10.8028465
765,1747532754950,0.9359596,-4.5682635,-0.5086153,-1.081776,-0.9076053,-10.679276
766,1747532754960,0.65675807,-4.250257,-0.35656762,-1.222391,-0.44474792,-10.353838
767,1747532754970,-0.09445016,-3.6000885,0.0471030449999999,-1.1118698,0.0623179675,-9.32133075
768,1747532754980,-0.598428375,-3.091107,0.33081959,-0.954210635,-0.1611212525,-8.505337999999998
769,1747532754990,-0.7569435499999999,-2.7729784,0.483965525,-0.889495835,-0.70121029,-7.99534235
770,1747532755000,-0.8156393,-2.6206868,0.5549862,-0.8671253,-1.019458,-7.7663107
771,1747532755010,-0.92131615,-2.313907,0.6667644,-0.87777793,-1.7592843,-7.432883
772,1747532755020,-0.906306625,-2.0872997,0.6070924,-1.018925465,-2.2133533,-7.03553925
773,1747532755030,-0.8973985,-1.82762265,0.51215414,-1.160073,-2.6674223,-6.6381955
774,1747532755040,-0.9034999,-1.7945529,0.47688788,-1.5281218,-1.953695,-6.5242124
775,1747532755050,-1.0948408,-1.7291456,0.49299565,-1.7587516,-0.9470201,-6.395315
776,1747532755060,-1.4348125,-1.6571487,0.5518134,-1.875398,0.1667139,-6.0570936
777,1747532755070,-2.3475866,-1.40955265,0.812100465,-1.7086841499999998,2.04504135,-4.62777515
778,1747532755080,-2.4715676,-1.334261,0.87640953,-1.5275892,2.858637,-3.7854173
779,1747532755090,-2.5992098,-1.2068632,0.97281224,-1.1984226,3.1872714,-3.0924628
780,1747532755100,-2.7519896,-1.108508,1.040416,-0.80800307,3.213903,-2.5992453
781,1747532755110,-2.9945824,-0.946454,1.0838583,-0.35153726,2.926814,-2.141714
782,1747532755120,-3.44084095,-0.6307659750000001,0.9523114,0.8287757149999999,1.5475629,-0.680703978
783,1747532755130,-3.6010647,-0.5008055,0.8256457,1.3662016,0.9044095,0.043675844
784,1747532755140,-3.6010647,-0.5008055,0.8256457,1.3662016,0.9044095,0.043675844
785,1747532755150,-3.5071027,-0.41416514,0.32630453,2.1576931,0.44581318,1.7912422
786,1747532755160,-3.2076445,-0.44955346,-0.009274175,2.2445123,0.5086638,2.6716833
787,1747532755170,-2.4352033,-0.4898229,-0.59916055,2.0772657,0.5683186,3.449859
788,1747532755180,-2.0476403,-0.48689422,-0.7682922,1.164334,0.38775626,4.514058
789,1747532755190,-1.6218824500000002,-0.478840335,-0.92619722,0.175502315,0.22264027,5.01846065
790,1747532755200,-1.5224291,-0.47859627,-0.96036524,-0.11132014,0.21145499,5.156945
791,1747532755210,-1.5224291,-0.47859627,-0.96036524,-0.11132014,0.21145499,5.156945
792,1747532755220,-1.4277349,-0.5730464,-0.8156393,-1.0258497,0.60773337,6.0570936
793,1747532755230,-1.4755701,-1.0008788,-0.5252112,-1.4796523,1.3097427,7.6129127
794,1747532755240,-1.2996049,-1.462391,-0.2894519,-1.4940335,1.4631407,8.44595
795,1747532755250,-0.9452337,-1.9373264,-0.04905551,-1.2618058,1.4349113,9.097891
796,1747532755260,0.06711575,-2.600918,0.32898918,-0.7099988,1.2357068,9.493104
797,1747532755270,0.6599307999999999,-2.83667735,-0.07516963,0.60640179,0.322242515,9.3173355
798,1747532755280,0.7878168,-2.856202,-0.30043447,0.97258645,-0.15233281,9.060607
799,1747532755290,0.7687803,-2.7781038,-0.6867771,0.6716492,-0.62584287,8.939167
800,1747532755300,0.71020657,-2.8976917,-0.9061846,0.2034655,-1.1659319,9.104282
801,1747532755310,0.97476465,-3.432665,-1.1277885,-0.45486793,-2.016013,9.62573
802,1747532755320,1.2659249,-3.840973,-1.0675064,-0.54435015,-2.2631543,9.692308
803,1747532755330,1.4684924,-4.2063265,-0.96768695,-0.34461305,-2.5811357,9.590576
804,1747532755340,1.5565971,-4.432324,-0.8768977,0.3206446,-2.968892,9.471267
805,1747532755350,1.6122422,-4.536536,-0.9188756,0.9901633,-3.134008,9.451026
806,1747532755360,1.4577539,-4.4694204,-1.1880707,1.8002969,-2.7377295,9.512279
807,1747532755370,1.26897565,-4.4774745,-1.32547485,1.84477175,-2.02187205,9.624931
808,1747532755380,1.1689122,-4.53848865,-1.40027845,1.798699,-1.7422401,9.648633
809,1747532755390,1.1016744,-4.5628943,-1.4272468,1.4689997,-1.3097427,9.67846
810,1747532755400,1.0643337,-4.654904,-1.4431105,0.9374327,-0.9821738,9.721603
811,1747532755410,1.1966126,-4.889199,-1.1892909,-0.13209279,-0.3669836,9.7136135
812,1747532755420,1.3518331,-4.9975605,-0.95670444,-0.5811018,-0.15073492,9.530921
813,1747532755430,1.4374972,-4.99634005,-0.83174712,-0.66871978,-0.156593875,9.3993605
814,1747532755440,1.7459855,-4.8511257,-0.43979117,-0.7552725,-0.33182988,8.897621
815,1747532755450,2.4122617,-4.104799,0.05686534,-0.27537087,-1.0029465,7.5756283
816,1747532755460,2.7993367,-3.4592674,0.2672427,0.14594123,-1.2953615,6.604107
817,1747532755470,3.04681065,-2.44618585,0.34131404,0.52837116,-1.3278521,5.5420384
818,1747532755480,3.0768297,-2.0962079,0.35510328,0.7781757,-0.99442434,4.538027
819,1747532755490,3.0663352,-1.4950947,0.42905265,0.97258645,-0.46924898,3.619236
820,1747532755500,2.941622,-1.0052718,0.53253293,1.3187973,0.10918961,2.5102956
821,1747532755510,2.4376438,-0.4139211,0.53033644,1.9664782,0.42290998,0.8474179
822,1747532755520,1.9712504,-0.1281300485,0.356201565,2.29910705,0.0956074835,-0.17630127
823,1747532755530,1.820179,-0.047103047,0.2779812,2.3936493,-0.049002163,-0.48043427
824,1747532755540,1.2832531,0.22868164,-0.174745,2.463424,-0.31318775,-0.90920323
825,1747532755550,1.1539028,0.28408262,-0.36950266,2.2407837,-0.39254996,-1.2490226
826,1747532755560,1.0997219,0.31727442,-0.55913514,1.969674,-0.2625877,-1.2660668
827,1747532755570,1.1986872000000002,0.3070239999999999,-0.7585299000000001,1.2290489,0.0852211569999999,-1.33477635
828,1747532755580,1.2607998,0.2865232,-0.81490713,0.9827065,0.19813919,-1.3779196
829,1747532755590,1.55000755,0.0324596115,-0.7509641499999999,-0.06391586,0.59228704,-1.8010959
830,1747532755600,1.5846636,-0.051496077,-0.7050814,-0.5656554,0.7882957,-2.0501015
831,1747532755610,1.6210282,-0.2518671,-0.54912883,-0.9235843,1.0258497,-2.262089
832,1747532755620,1.6681312,-0.42441553,-0.41611758,-1.1190603,1.3081448,-2.444782
833,1747532755630,1.7164546,-0.652365,-0.32630453,-1.1936288,1.659682,-2.6306705
834,1747532755640,1.8682582,-1.1024066,-0.18572757,-1.0263823,2.3105586,-3.125486
835,1747532755650,1.973691,-1.329868,-0.19085276,-0.8580705,2.4106934,-3.3965957
836,1747532755660,2.1157322,-1.530483,-0.2306341,-0.7568704,2.4224114,-3.695935
837,1747532755670,2.3056087,-1.7447653,-0.31605414,-0.7462177,2.3078954,-4.009123
838,1747532755680,2.9321036,-2.39066275,-0.65029055,-0.85594,2.146508,-4.4149885
839,1747532755690,3.2669501,-2.7505252,-0.81149036,-1.4980281,2.37394175,-6.562029
840,1747532755700,3.2813497,-3.098795,-0.8768977,-1.639442,2.5081651,-7.069095
841,1747532755710,3.107337,-3.4726906,-0.8788501,-1.8375812,2.8367991,-7.8488684
842,1747532755720,2.8635237,-3.895886,-0.8351639,-1.8674086,3.1356058,-8.285627
843,1747532755730,2.4827945,-4.715674,-0.47639978,-0.9438243,3.367301,-8.412926
844,1747532755740,2.52404,-4.9699817,-0.29042813,-0.11132014,3.0903323,-8.385229
845,1747532755750,2.6353302,-5.1827993,-0.18401916,0.84368944,2.5901904,-8.76979
846,1747532755760,2.5401479,-5.308245149999999,-0.2591888049999999,1.6940368,0.97072223,-9.55755275
847,1747532755770,2.5743158,-5.405868,-0.4253918,1.8210696,0.39254996,-9.796172
848,1747532755780,2.1496564,-5.2344179,-0.664567885,1.26313735,-0.97125486,-10.26622
849,1747532755790,1.990287,-5.1500964,-0.54156303,0.8772453,-1.5803198,-10.669689
850,1747532755800,1.7469617,-4.9816966,-0.48787045,0.6530071,-2.411226,-10.840131
851,1747532755810,1.4828918,-4.838191,-0.47639978,0.4878911,-2.7553065,-10.844925
852,1747532755820,1.1607363,-4.421829,-0.4588276,0.30040458,-2.5007083,-10.333065
853,1747532755830,1.1607363,-4.421829,-0.4588276,0.30040458,-2.5007083,-10.333065
854,1747532755840,0.31324748,-3.6590283,-0.28884175,0.102531702,-1.3291837000000002,-9.450494
855,1747532755850,0.13691612,-3.504906,-0.24308102,0.051132694,-1.1169298,-9.201755
856,1747532755860,-0.0308732399999999,-3.3696983,-0.17206036,0.00346211,-0.985902265,-8.9253185
857,1747532755870,-0.42099872,-2.9833558,0.079318605,-0.11824436,-0.8809737,-8.0779
858,1747532755880,-0.66066295,-2.4544837,0.40952805,-0.17257284,-1.5638082,-7.1303477
859,1747532755890,-0.7497439,-2.2221413,0.48542988,-0.16138756,-1.892975,-6.835802
860,1747532755900,-0.8685997,-2.0098114,0.541319,-0.15233281,-2.1342573,-6.5481806
861,1747532755910,-1.0164984,-1.8055356,0.5549862,-0.15073492,-2.17527,-6.2254057
862,1747532755920,-1.1609803,-1.5966225,0.51618105,-0.17417073,-1.8998991,-5.9276643
863,1747532755930,-1.935496,-1.1071657,0.5067848500000001,-0.17816548,-0.3211772349999999,-4.76279725
864,1747532755940,-2.2652174,-0.98281855,0.5061747000000001,-0.128630682,0.501739545,-3.93641855
865,1747532755950,-2.4283698,-0.9230245,0.511788,-0.094808534,0.93849796,-3.4285536
866,1747532755960,-2.6621764,-0.7985553,0.49470404,-0.02609898,1.5579493,-2.6354642
867,1747532755970,-2.8725538,-0.690438,0.46614933,0.035153728,2.0256004,-1.917476
868,1747532755980,-3.3905654,-0.50239183,0.434177845,0.076166406,2.1177456,-0.4777711
869,1747532755990,-3.4692738,-0.4656612,0.43539813,0.08149273,1.8466359,0.2711098
870,1747532756000,-3.478304,-0.44027928,0.4253918,0.084155895,1.4247912,1.0290455
871,1747532756010,-3.364085,-0.46297657,0.41733786,0.13369069,0.9550096,1.7614148
872,1747532756020,-2.8560800000000004,-0.59000842,0.31910485,0.3874899499999999,0.11611383,3.11856175
873,1747532756030,-2.557964,-0.6406503,0.25943285,0.53103435,-0.26684874,3.790211
874,1747532756040,-2.059477,-0.7064237,0.148752892,0.69721558,-0.51771853,4.49195385
875,1747532756050,-1.889003,-0.72631437,0.108117364,0.74089146,-0.56938386,4.6994143
876,1747532756060,-1.6058967,-0.73461235,0.009518232,0.7755125,-0.5368933,5.0711913
877,1747532756070,-1.46837045,-0.74376449,-0.049543624,0.75181035,-0.44048686,5.246161
878,1747532756080,-0.97134787,-0.85493255,-0.23819989,0.45859635,0.31798145,6.037919
879,1747532756090,-0.856641,-0.94962674,-0.25723633,0.32384038,0.55127436,6.314355
880,1747532756100,-0.80343646,-1.0643337,-0.25381953,0.1768339,0.5858955,6.6776104
881,1747532756110,-0.47762007,-1.427979,-0.2809099,0.056991648,0.18855181,7.228352
882,1747532756120,-0.23307467,-1.6015036,-0.24161668,0.13848437,-0.12516858,7.4589815
883,1747532756130,0.07858644,-1.7884516,-0.25406358,0.29987195,-0.39254996,7.615576
884,1747532756140,0.3773125,-1.9797924,-0.27456442,0.4910869,-0.5273059,7.6608496
885,1747532756150,0.63454884,-2.1494124,-0.30019042,0.6892261,-0.5113269,7.610249
886,1747532756160,0.8820229,-2.331723,-0.43417785,1.0024139,-0.18748654,7.6667085
887,1747532756170,1.0047837,-2.4483821,-0.5017817,1.2053467,0.13528858,7.7838874
888,1747532756180,1.1063116,-2.558208,-0.5920829,1.3171995,0.3616573,7.781757
889,1747532756190,1.0709232,-2.6060433,-0.647972,1.3480922,0.50653327,7.7881484
890,1747532756200,0.80441266,-2.7500372,-0.71826047,1.3140037,0.3174488,7.9340897
891,1747532756210,0.6660322,-2.9530928,-0.78366786,1.2655342,-0.06391586,8.182297
892,1747532756220,0.6621273,-3.3018506,-0.882511,1.226652,-0.6625945,8.516789
893,1747532756230,0.9451117,-3.73920105,-0.97854758,1.2319783,-1.4109428,8.745289
894,1747532756240,1.0675064,-3.8651347,-1.0033194,1.2996227,-2.1076257,8.728245
895,1747532756250,1.2900866,-4.0903993,-1.1141213,1.4141386,-2.5608957,8.549812
896,1747532756260,1.3030217,-4.1033344,-1.1709867,1.5526229,-2.6120284,8.219048
897,1747532756270,1.275199,-4.110412,-1.1883147,1.4823155,-2.189651,8.183362
898,1747532756280,1.2664131,-4.1516576,-1.171963,1.361408,-1.5723304,8.232364
899,1747532756290,1.2710502,-4.199005,-1.0963051,1.2490226,-0.87831056,8.314921
900,1747532756300,1.4479916,-4.171671,-0.801484,1.1419635,0.15659387,8.307465
901,1747532756310,1.5702643,-4.071607,-0.67018116,1.1377025,0.3206446,8.130098
902,1747532756320,1.7374434,-3.9151664,-0.5366819,1.1808456,0.19867182,7.7897463
903,1747532756330,2.01115375,-3.4898966500000004,-0.42063266,1.3102752999999998,-0.34408041,6.7844032
904,1747532756340,2.0749748,-3.3218632,-0.39976576,1.3337111,-0.49694586,6.4528394
905,1747532756350,2.2360525,-2.4427688,-0.36803833,1.0657971,-0.46392268,5.113802
906,1747532756360,2.3014598,-2.033729,-0.31312546,0.8633968,-0.05006743,4.4629254
907,1747532756370,2.3856597,-1.6603215,-0.19646609,0.72491246,0.4990764,3.7710361
908,1747532756380,2.3198862,-1.32852565,0.023673555,0.7872304299999999,0.89642,2.93560255
909,1747532756390,2.1589304,-0.8786061000000001,0.269683265,0.8495484,1.2937636,2.100169
910,1747532756400,2.0637481,-0.7604824,0.29555333,1.3608754,0.98430437,0.2972088
911,1747532756410,1.8709428,-0.48225713,0.22331238,1.6005598,0.6130597,-0.34621096
912,1747532756420,1.6065068,-0.2076927149999999,0.030019043,1.7651432,0.24980451,-0.9076053
913,1747532756430,1.5119346,-0.13569583,-0.05051985,1.8226675,-0.061252706,-1.3502227
914,1747532756440,1.189779,0.04271002,-0.37291947,1.6218652,-0.4878911,-1.8221349
915,1747532756450,1.1373067,0.08932495,-0.5320448,1.325189,-0.55553544,-1.9196066
916,1747532756460,1.1495095,0.12739788,-0.6472398,0.9033443,-0.5363607,-1.9829898
917,1747532756470,1.1663495,0.1244692,-0.70166457,0.40586576,-0.4133226,-2.0069582
918,1747532756480,1.2981404,-0.016839951,-0.59964865,-0.13901702,-0.15606125,-2.0442424
919,1747532756490,1.3938109,-0.14570218,-0.5008055,-0.69135666,0.37710363,-2.350506
920,1747532756500,1.4584862,-0.25015867,-0.38805103,-0.8277105,0.60240704,-2.59818
921,1747532756510,1.4804512,-0.38121742,-0.3226437,-0.9012137,0.82824314,-2.8868666
922,1747532756520,1.4809394,-0.4633427099999999,-0.30153273,-0.92118743,0.94036222,-3.03840055
923,1747532756530,1.4558015,-0.73583263,-0.234539,-0.9470201,1.2575446,-3.4871433
924,1747532756540,1.4543371,-1.2510374,-0.251012865,-0.8948221,1.4317155,-4.0661144
925,1747532756550,1.4562895,-1.3620834,-0.26797485,-0.9331717,1.4152038,-4.434163
926,1747532756560,1.55330235,-1.7790553,-0.328745095,-1.0128002,1.3448964,-4.890362700000001
927,1747532756570,1.6083373,-1.9204865,-0.35412705,-1.0428939,1.3177321,-5.051484
928,1747532756580,2.0183535,-2.58127165,-0.420632675,-1.1158645,1.2554141,-5.8893147
929,1747532756590,2.1118273,-2.84802615,-0.4861620749999999,-1.1182614,1.2753879,-6.6046397500000005
930,1747532756600,2.1430666,-2.9918978,-0.5352176,-1.1227888,1.2958943,-6.82728
931,1747532756610,2.1672285,-3.2257047,-0.6242984,-1.160073,1.3534185,-7.175089
932,1747532756620,2.1664963,-3.3926399,-0.6723777,-1.2010857,1.4748586,-7.4147735
933,1747532756630,2.2982872,-3.7728808,-0.6252747,-1.2069446,1.9105518,-7.8877506
934,1747532756640,2.293406,-3.948114,-0.5366819,-1.0860372,2.0122845,-8.127435
935,1747532756650,2.2572856,-4.0989413,-0.42612398,-0.8831042,1.8903117,-8.383632
936,1747532756660,2.207742,-4.22878,-0.31263736,-0.63915867,1.4775218,-8.66859
937,1747532756670,2.0484946500000003,-4.24098285,-0.190486685,-0.108656975,0.0412789749999999,-9.097625
938,1747532756680,1.9854058,-4.173135,-0.16547081,0.16777915,-0.69508505,-9.27366
939,1747532756690,1.9581934,-3.998512,-0.257358375,0.3289004,-0.926780025,-9.221728
940,1747532756700,1.930981,-3.823889,-0.34924594,0.49002165,-1.158475,-9.169796
941,1747532756710,1.9206085,-3.73090315,-0.3882951,0.4934837549999999,-1.01652855,-9.06593275
942,1747532756720,1.8314055,-3.4551187,-0.42026657,0.4910869,-0.4958806,-8.853413
943,1747532756730,1.4348125,-3.0931816,-0.34558508,0.5454154,0.02130529,-8.6680565
944,1747532756740,1.136696585,-2.8904921,-0.28713336,0.5419533,0.042344265,-8.55194275
945,1747532756750,0.83858067,-2.6878026,-0.22868164,0.5384912,0.06338324,-8.435829
946,1747532756760,0.5288721,-2.4608293,-0.16644704,0.5299691,-0.006924219,-8.304269
947,1747532756770,-0.159735463,-1.9308589,-0.000732171,0.5374259,-0.30759511,-7.8384822
948,1747532756780,-0.374749875,-1.73219625,0.0489334755,0.5209143,-0.51452273,-7.5276914
949,1747532756790,-0.523502775,-1.55513275,0.095792465,0.47031426,-0.7121293,-7.1452613
950,1747532756800,-0.57402265,-1.4809394,0.114462845,0.43196473,-0.89109373,-6.7393956
951,1747532756810,-0.69178027,-1.2533560499999998,0.177307575,0.39308259,-0.99522332,-6.17533815
952,1747532756820,-0.819056125,-1.1015524,0.1906087,0.39068574,-0.8391621,-5.66853865
953,1747532756830,-0.958046725,-1.0343146,0.129716425,0.36458676,-0.4825648,-5.17239175
954,1747532756840,-1.13999145,-0.9703716,0.07529166,0.28309403,-0.00745685,-4.84455625
955,1747532756850,-1.244448,-0.9298581,0.0605262,0.23435818,0.267914,-4.680239
956,1747532756860,-1.8145656,-0.698613885,0.0074437464999999,0.03568636,1.74117475,-3.5246937
957,1747532756870,-2.1130476,-0.5793919,-0.01513155,-0.05539375,2.392584,-2.8799424
958,1747532756880,-2.3100019,-0.5181335,-0.0102504045,-0.18322548,2.8085697,-2.0703416
959,1747532756890,-2.39591,-0.4927516,0.0012202862,-0.32810146,2.918292,-1.2895026
960,1747532756900,-2.4147024,-0.4886026,0.04490653,-0.44208476,2.7302728,-0.64341974
961,1747532756910,-2.404696,-0.5122762,0.09737884,-0.47670585,2.3158848,-0.16884442
962,1747532756920,-2.3358719,-0.491043195,0.13996683,-0.2743056,1.0141318,0.6103965
963,1747532756930,-2.3087816,-0.48787045,0.11861181,-0.09427591,0.1917476,1.1835088
964,1747532756940,-2.204569,-0.47810817,0.045638707,0.0058589545,-0.30786142,1.7028252
965,1747532756950,-2.06326,-0.44930938,-0.00707766,0.08735169,-0.64714813,2.253567
966,1747532756960,-1.6771613,-0.42905265,-0.090789296,0.21411815,-0.8607337,3.3188314
967,1747532756970,-1.4592183,-0.44052333,-0.17059602,0.19228023,-0.82344943,3.7976677
968,1747532756980,-1.3005811,-0.456143,-0.23112221,0.08628642,-0.7536746,4.2306976
969,1747532756990,-1.1646413,-0.46102414,-0.24674188,-0.033023197,-0.68389976,4.6163235
970,1747532757000,-1.061405,-0.4720067,-0.24356914,-0.12783173,-0.62903863,4.9726543
971,1747532757010,-0.9103335,-0.5937913,-0.22526483,-0.2231729,-0.406931,5.7785273
972,1747532757020,-0.856641,-0.7063017,-0.19085276,-0.20133498,-0.2247708,6.1838603
973,1747532757030,-0.7905014,-0.8402891,-0.123004854,-0.082025364,-0.06391586,6.6397934
974,1747532757040,-0.68531275,-0.9867234,-0.024649782,0.18855181,-0.027696876,7.1276846
975,1747532757050,-0.30409533,-1.3996683,-0.020256752,0.91346425,-0.23009712,8.067247
976,1747532757060,0.02757847,-1.637136,-0.16913168,1.1291803,-0.3787015,8.290954
977,1747532757070,0.199028685,-1.7159665,-0.25101289,1.16273615,-0.47723847,8.2637895
978,1747532757080,0.5869577,-1.8741156,-0.5008055,1.1084076,-0.8314389,8.082162
979,1747532757090,0.8102701,-2.0691173,-0.6975156,0.89588743,-1.0141318,8.024104
980,1747532757100,1.206619,-2.3563728,-0.882511,0.48682585,-1.0652645,7.7434072
981,1747532757110,1.1905112,-2.4112856,-0.84785485,0.44741106,-0.81013364,7.597466
982,1747532757120,0.92790563,-2.6402112000000004,-0.70837615,0.6793724,-0.506533225,7.797469700000001
983,1747532757130,0.82100856,-2.7424712,-0.647972,1.23357625,-0.492684825,8.2720447
984,1747532757140,0.7136234,-3.120516,-0.60648227,1.6490294,-0.5448828,8.615326
985,1747532757150,0.77805454,-3.3091724,-0.69117016,2.0863204,-0.9464875,8.832641
986,1747532757160,0.89080894,-3.5107634,-0.81295466,2.3190808,-1.4040185,8.793758
987,1747532757170,0.92448884,-3.6469471,-0.9176552,2.4442494,-1.9137475,8.6680565
988,1747532757180,0.91253002,-3.79435775,-1.0001466,2.4983115,-2.32387435,8.60707025
989,1747532757190,0.9005712,-3.9417684,-1.082638,2.5523736,-2.7340012,8.546084
990,1747532757200,1.1187584,-4.21975,-1.2324891,2.4293356,-2.7174897,8.617456
991,1747532757210,1.44457485,-4.229146,-1.24115315,2.23013115,-2.2245385,8.599081
992,1747532757220,1.66239595,-4.10321265,-1.2213845,2.0181436,-1.8221349,8.428106
993,1747532757230,1.7584325,-4.0079083,-1.1963686,1.8908445,-1.6223978,8.302671
994,1747532757240,2.07180205,-3.38055895,-0.80990397,1.0668624,-1.5869776999999998,7.05577925
995,1747532757250,2.1071904,-3.2576761,-0.73778504,0.948618,-1.6905746,6.7788105
996,1747532757260,2.2272666,-2.9450388,-0.6411384,0.757403,-1.8519622,6.1369886
997,1747532757270,2.3678434,-2.5564997,-0.52472305,0.6199839,-1.8769959,5.4333816
998,1747532757280,2.5137897,-2.1179287,-0.4234393,0.5305017,-1.6122777,4.67225
999,1747532757290,2.5467372,-1.3830724,-0.14594623,0.44368264,-0.55287224,3.3784862
1000,1747532757300,2.6121447,-1.1565872,-0.009518232,0.56885123,-0.10705908,2.8149614
1001,1747532757310,2.732221,-1.001611,0.102992155,0.92464954,0.18375812,1.9499665
