id,timestamp,acc_x,acc_y,acc_z,gyro_x,gyro_y,gyro_z
1,1747533759630,-0.1054327275,-0.226973245,0.9004492,0.52517535,-1.7014936,1.533980825
2,1747533759640,0.7732953625,0.397447195,1.5469569,2.8085698000000003,-0.3179813999999999,4.0458743
3,1747533759650,1.59467,0.9578026,2.4006691,4.6339003000000005,2.2935143,5.389439
4,1747533759660,1.6458,0.93608155,2.6613222,4.3500072,3.21523435,5.416337
5,1747533759670,1.66971765,0.866403225,2.7873778,4.221643,4.2504053,5.331649
6,1747533759680,1.5997953,0.9025237,2.8984237,4.2120557,4.7825046,5.008341
7,1747533759690,1.6246891,1.0633575,2.8325286,3.9792955,4.719654,4.667989
8,1747533759700,1.6778935,1.2776396,2.7183096,3.4519894,4.4991446,4.1571946
9,1747533759710,1.5958903,1.5124228,2.6267881,2.5960495,3.9606533,3.6810212
10,1747533759720,1.4846002,1.7066923,2.5306296,1.0349044,3.0786142,3.3790188
11,1747533759730,1.4177285,1.8721632,2.549178,-0.6002765,2.0548951,3.44266835
12,1747533759740,1.4715431,1.9091378,2.5508865,-3.1108385,0.395479435,3.61870325
13,1747533759750,1.60247985,1.96405065,2.6106805,-4.7678573,-0.790426215,3.80432555
14,1747533759760,1.752087,1.97967035,2.72428895,-6.187056,-1.7286578499999998,3.88928045
15,1747533759770,1.97076235,1.8238398,2.8544935,-7.6025265,-2.3246733,3.8767636
16,1747533759780,2.2528925,1.4736177,2.9338121,-8.686699,-2.3611586,3.919108
17,1747533759790,2.4398403,1.2681215,2.823254,-8.771121,-2.2162827,3.9678438
18,1747533759800,2.49255665,1.1739153999999998,2.7400306,-8.926117000000001,-1.9683424,4.1401503
19,1747533759810,2.545273,1.0797093,2.6568072,-8.996691,-1.865278,4.263721
20,1747533759820,2.4928007,0.825523645,2.27034245,-9.2741925,-2.20989115,5.19769135
21,1747533759830,2.4327626,0.728388845,1.93439765,-9.6337195,-2.769155,6.07573575
22,1747533759840,2.4345931,0.73534448,1.7411044,-9.9855225,-3.3374736,6.65737025
23,1747533759850,2.46656455,0.72912105,1.54683485,-10.42308,-4.09567545,7.189736
24,1747533759860,2.5399036,0.58305275,1.3323085,-11.070761,-5.472796,7.939416
25,1747533759870,2.62996085,0.464196875,1.21760165,-11.2063155,-6.417419199999999,8.445948999999999
26,1747533759880,2.7424712,0.24112856,0.9994144,-11.085674,-8.076835,9.389241
27,1747533759890,2.7554064,0.16034561,0.85224795,-10.612698,-8.70108,9.7999
28,1747533759900,2.78335095,0.14399377,0.772563245,-10.298711,-8.98444,9.958625
29,1747533759910,2.87511645,0.106164898,0.589276235,-9.672335,-9.5761945,10.20044
30,1747533759920,2.928565,0.147898683,0.3756041049999999,-7.9719067,-10.424678,10.290987
31,1747533759930,2.8978138,0.214282255,0.259554875,-7.9719067,-10.424678,10.290987
32,1747533759940,2.877435,0.21745501,0.25357547,-7.1495223,-10.521617,10.072608
33,1747533759950,2.83496895,0.29774984,0.2629717,-5.591573,-10.412161,9.3391735
34,1747533759960,2.6875584,0.4253918,0.23697957,-3.2415998,-9.981528,7.7237
35,1747533759970,2.5438087,0.46151224,0.3031191,-2.299906,-9.505355,7.227287
36,1747533759980,2.3644266,0.4566311,0.35998443,-1.3012205,-8.850217,6.8640313
37,1747533759990,2.2367847,0.47273886,0.33045352,-0.38615838,-8.246745,6.5971828
38,1747533760000,2.20603345,0.48213508,0.3048275,-0.029294775,-7.941014000000001,6.4802699
39,1747533760010,2.13489075,0.5119100750000001,0.26773079,0.87564737,-6.9423285,6.180132
40,1747533760020,1.8641093,0.5442477,0.05222825,1.5499598,-5.56867,6.263222
41,1747533760030,1.8055356,0.5645044,-0.10030753,1.4567492,-5.248558,6.4192834
42,1747533760040,1.7913802,0.5976962,-0.19402552,1.1526161,-5.170261,6.493852
43,1747533760050,1.7585545,0.59964865,-0.2280715,0.941161135,-5.2221925,6.48373215
44,1747533760060,1.6376241,0.57524294,-0.30238694,0.2806972,-5.503689,6.337791
45,1747533760070,1.4399377,0.5430274,-0.30238694,-0.09534117,-5.824866,6.1108894
46,1747533760080,1.4038173,0.5379022,-0.31361356,-0.5784386,-6.5593657,5.503156
47,1747533760090,1.36598845,0.5419291500000001,-0.29933621,-0.61678813,-6.63180375,5.356415999999999
48,1747533760100,1.2927713,0.55669458,-0.25589402,-0.62770708,-6.5830679,5.064001
49,1747533760110,1.2438378,0.5951335799999999,-0.19756434,-0.5057343,-6.2206118,4.820588000000001
50,1747533760120,1.1758678,0.7065457,0.15790504,0.1416801499999999,-5.368400299999999,4.45280535
51,1747533760130,1.0736078,0.75364876,0.25137895,1.4034859,-4.222708,3.8099184
52,1747533760140,0.91570276,0.80392456,0.2928687,1.7118799500000002,-3.9862194,3.60858335
53,1747533760150,0.84907518,0.8640846799999999,0.37694642,2.2407837500000003,-3.52309585,3.17661865
54,1747533760160,0.65016852,0.9914826,0.6014790999999999,2.4612935,-3.2964609,2.945989
55,1747533760170,0.07516963,1.4228537,1.0977695,2.9909963,-2.8170919000000003,2.34065235
56,1747533760180,-0.09274176,1.7022992,1.3755066,3.2629051,-2.8043087,1.923335
57,1747533760190,-0.30922052,1.9475769,1.6857034,3.327886,-2.6599653,1.7720674
58,1747533760200,-0.501293585,2.2038369500000003,2.0417829000000003,3.535879,-2.1734058000000003,1.5614113500000002
59,1747533760210,-0.69336665,2.460097,2.3978624,3.743872,-1.6868463,1.3507553
60,1747533760220,-0.911309775,2.7085473,2.681579,3.9396142,-1.1614046,0.8271778350000001
61,1747533760230,-1.27885995,3.0471767,3.0869582,4.230165,-0.340352,-0.25832662
62,1747533760240,-1.5884466,3.23339245,3.2536494,3.8581215,0.2047971,-0.83463471
63,1747533760250,-1.7716116,3.33980155,3.265486,2.97235415,1.07964555,-1.8133464
64,1747533760260,-1.7545276,3.29892185,3.1839707500000003,1.9952403,1.60695145,-2.561162
65,1747533760270,-1.675087,3.167619,3.0784161,1.123321365,2.0277309,-3.22801755
66,1747533760280,-1.2981404,2.703422,2.698053,0.399740475,2.47700615,-3.84001205
67,1747533760290,-1.0467615,2.4881637,2.4405725,-0.6402239,3.6053874,-4.9827743
68,1747533760300,-1.0467615,2.4881637,2.4405725,-0.66339343,3.849865700000001,-5.1718588
69,1747533760310,-0.490311015,2.30316835,2.1269588500000003,-0.59468388,4.449077000000001,-5.59343715
70,1747533760320,0.15863721,2.1084106,1.8387274,-0.056459017,5.7913103,-6.362292
71,1747533760330,0.340459855,2.04666405,1.7271932,0.3787014915,6.52501115,-6.70424185
72,1747533760340,1.202226,1.7220681,0.9647583,2.4772725,8.913068,-8.042214
73,1747533760350,1.35720235,1.6398207500000002,0.8457804,2.91323195,9.00255,-8.312525
74,1747533760360,1.7188951,1.3762388,0.48713827,3.74626885,9.074455,-8.8462225
75,1747533760370,1.7957732,1.29594395,0.3922000049999999,4.48822545,9.00521275,-9.3290535
76,1747533760380,1.96270845,1.15439075,0.25284331,5.1228566,8.88616925,-9.734387
77,1747533760390,2.4508228,0.9081371,0.27944556,6.6089005,9.312009,-10.500844
78,1747533760400,2.5128133000000004,0.861156025,0.32276573,7.12235805,9.67846,-10.5887285
79,1747533760410,2.630571,0.784888075,0.39561682,8.1032003,10.3573,-10.706973
80,1747533760420,2.6885345,0.7412019,0.5171573,9.524529,11.323761,-10.680342
81,1747533760430,2.400059,0.66066295,0.6289356,10.427874,11.94694,-10.401774
82,1747533760440,2.0905943,0.65285313,0.7165521,11.824435,12.503009,-8.981245
83,1747533760450,1.92402525,0.679943465,0.71716223,12.0151175,12.34535,-8.41052935
84,1747533760460,1.3884417,0.7412019,0.69458693,12.332566,11.464376,-6.4917216
85,1747533760470,1.0648217,0.8341876,0.686289,12.307533,10.47155,-5.078648
86,1747533760480,0.87299275,1.2839851,0.7485236,12.134427,9.10162,-3.542537
87,1747533760490,0.8454143,1.4443307,0.82759815,11.832957,7.2943983,-2.0069582
88,1747533760500,0.85603077,1.5193783,0.825767695,11.7562585,6.96922635,-1.81361275
89,1747533760510,0.8278422,1.6813104,0.87201655,11.58049,6.2120895,-1.3662016
90,1747533760520,0.7128912,1.7130377,0.9176552,11.537879,5.800365,-1.1142666
91,1747533760530,0.56596875,1.8621569,0.7895252,11.0782175,5.015265,-0.60773337
92,1747533760540,0.46932206,1.8704547,0.7180164,10.567956,4.2413507,-0.33449304
93,1747533760550,0.33045352,1.9312251,0.6321083,10.2169515,3.67329825,-0.139549645
94,1747533760560,0.18255483,1.9329334,0.626495,8.767126,1.6010925,0.68656296
95,1747533760570,0.13838045,1.9290285,0.75169635,7.9159803,0.42397526,1.1494204
96,1747533760580,0.30385128,1.9173138,1.103871,6.6760125,-1.6112125,1.6357136
97,1747533760590,0.4283205,1.9256116,1.2246792,6.2483087,-2.1662152,1.6335831
98,1747533760600,0.5315567,1.9016942,1.4267586,5.9979715,-2.372344,1.5574167
99,1747533760610,0.6208816,1.8531268,1.6864356,5.9729376,-2.4250746,1.4817829
100,1747533760620,0.55791485,1.64811855,2.2176261,6.1412497,-2.382464,1.5110776
101,1747533760630,0.51666915,1.6339632,2.289989,6.5945196,-1.7124126,1.9872508
102,1747533760640,0.5125202,1.6615417,2.3334312,6.617955,-1.0290455,2.1523669
103,1747533760650,0.52789587,1.7108413,2.2736373,6.5524415000000005,-0.661262935,2.15716055
104,1747533760660,0.44003522,1.7386639,2.268512,6.301039,0.10652645,2.1278658
105,1747533760670,0.17620933,1.8023627,2.254601,5.8909125,-0.46711847,2.0431771
106,1747533760680,0.053692598,1.79919,2.1286674,5.3779874,-1.2634037,2.020274
107,1747533760690,-0.05759751,1.731098,2.0930347,4.5428205,-2.0676782,1.9702066
108,1747533760700,-0.083101495,1.66678895,2.1517305,4.13029675,-2.43812395,1.9201392
109,1747533760710,-0.18548352,1.4194369,2.4661987,3.0743532,-3.706055,1.7608821
110,1747533760720,-0.18743597,1.1077759,3.244985,3.251187,-5.0115366,1.7150757
111,1747533760730,-0.17938207,1.0245523,3.6586623,3.6884782,-5.711948,1.7140105
112,1747533760740,-0.0043930304,0.98379475,4.0855184,4.131628,-6.506635,1.6335831
113,1747533760750,0.1314248348,1.041270225,4.3166407,4.322044,-6.94259465,1.54729665
114,1747533760760,0.5239909,1.3269393,4.72262985,4.509797,-7.84167815,1.40375225
115,1747533760770,1.4047935,1.9343977,5.127887,3.8131142,-9.198559,1.4658039
116,1747533760780,2.4818182,2.012008,5.9994154,1.5281218,-8.359663,2.0010993
117,1747533760790,2.8640118,2.058379,6.3159575,0.6961503,-6.392652,1.9979035
118,1747533760800,2.91746035,2.1254946500000003,6.39234755,0.366450962,-4.9353702,1.99204455
119,1747533760810,2.8498566,2.0410507,6.510959,-0.37124467,-0.2444782,1.7512947
120,1747533760820,2.438864,2.2360525,5.7236304,-1.2330436,4.74309,0.74461985
121,1747533760830,1.9949238,2.1723535,4.9270277,-2.1209416,5.7795925,0.28815404
122,1747533760840,1.5802706,2.0718021,4.1719146,-3.3752904,5.7881145,0.08894958
123,1747533760850,1.36720865,1.98699215,3.86257195,-4.057858700000001,5.416070899999999,0.14407702
124,1747533760860,1.1561601625,1.826585475,3.536328425,-4.9410961,4.4966145,0.37350835
125,1747533760870,0.945111675,1.6661788,3.2100849,-5.8243335,3.5771581,0.60293968
126,1747533760880,0.70142055,1.1617125,2.6099484,-7.773235,-0.03781689,1.577124
127,1747533760890,0.77610207,1.1172941,2.4925568,-8.167382,-0.75580513,1.8663434
128,1747533760900,0.81624946,1.11949055,2.4143364,-8.4581995,-1.014930715,2.0106867
129,1747533760910,0.892883425,1.1149755,2.21848045,-9.146893,-1.47006495,2.3363913
130,1747533760920,0.96622264,0.9235126,1.7935767,-10.388991,-1.9899141,2.9838057
131,1747533760930,1.0204034,0.8112463,1.5993071,-11.743475,-3.0503848,4.3276367
132,1747533760940,1.0618931,0.677747,1.3242546,-12.486497,-4.1380196,5.397695
133,1747533760950,1.2468885,0.5774395,1.1419438,-12.941365,-4.9550776,6.165218
134,1747533760960,1.6259093,0.43076107,1.1375508,-13.00102,-6.3516393,7.4643083
135,1747533760970,1.8338462,0.3863426,1.056768,-12.74003,-7.044594,8.038486
136,1747533760980,2.0454438,0.3533949,1.0040516,-12.322979,-7.504788,8.532768
137,1747533760990,2.1909018,0.34851375,1.0509106,-11.674766,-7.6720347,8.9913645
138,1747533761000,2.3707721,0.38853914,1.023576,-10.7605025,-7.4411385,9.39669775
139,1747533761010,2.4661987,0.42563587,1.0433447,-8.461395,-6.503972,10.0789995
140,1747533761020,2.571875,0.46151224,0.9459658,-7.4083815,-6.007559,10.052368
141,1747533761030,2.5564997,0.5359497,0.8246695,-6.50557,-5.5084825,9.927199
142,1747533761040,2.5401478,0.58378494,0.7297312,-5.645369,-5.1596084,9.748768
143,1747533761050,2.5401478,0.58378494,0.7297312,-5.645369,-5.1596084,9.748768
144,1747533761060,2.255577,0.64772797,0.34973404,-4.051201,-5.1154,9.343434
145,1747533761070,2.2392251,0.6286915,0.20061506,-3.7907436,-5.6293902,9.28378
146,1747533761080,2.2238495,0.6040417,0.12056428,-3.5702338,-6.0890517,9.185776
147,1747533761090,2.280715,0.59013045,0.14472595,-2.7872643,-6.311159,8.83051
148,1747533761100,2.28010475,0.589398275,0.127397885,-2.58353255,-6.221144349999999,8.708537
149,1747533761110,2.2508179000000004,0.58280875,0.078464406,-2.2050974,-5.99024835,8.4632595
150,1747533761120,2.1835802,0.57524294,-0.012446919,-1.7331853,-5.4871774,8.0677805
151,1747533761130,2.1167085,0.64089435,-0.042221904,-1.468467,-5.0807786,7.7402115
152,1747533761140,2.0146925,0.68653303,-0.11153416,-1.31933,-4.791027,7.4163713
153,1747533761150,1.90584305,0.7008103649999999,-0.22355643,-1.44263435,-4.7161922,7.2003889
154,1747533761160,1.658369,0.6655441,-0.32947728,-1.7305222,-4.719654,6.995059
155,1747533761170,1.5495194,0.58280873,-0.3162982,-1.7145431,-4.7553406,7.0941286
156,1747533761180,1.5500076,0.54253924,-0.3653537,-1.6213325,-4.711132,7.0142336
157,1747533761190,1.5221851,0.5357057,-0.37804466,-1.4791197,-4.6280413,6.7436566
158,1747533761200,1.3567142,0.5784157,-0.3380193,-0.9507485,-4.3787694,5.8797274
159,1747533761210,1.2844733,0.67140144,-0.23673552,-0.5853628,-4.101801,5.3604107
160,1747533761220,1.0848345,0.7524285,-0.034168016,-0.051132694,-3.8195057,4.86453
161,1747533761230,0.89813066,0.79831123,0.027822526,0.52144694,-3.5840824,4.4038033
162,1747533761240,0.5623079,0.98452693,0.36413342,1.9835224,-3.073288,3.4125748
163,1747533761250,0.46529515,1.053229065,0.42417151,2.3118901000000003,-2.97368575,3.239203
164,1747533761260,0.13471961,1.2847173,0.579636,3.1276164,-2.7451866,2.845854
165,1747533761270,-0.08078295,1.5370725,0.67799103,3.3944652,-2.5236115,2.641856
166,1747533761280,-0.26406994,1.833358,0.86103404,3.4914043,-2.2269354,2.3952472
167,1747533761290,-0.8964222,2.3507595,1.1224194,3.3491914,-1.4945661,2.010154
168,1747533761300,-1.0067361,2.44106065,1.1919757,3.25251865,-1.37365855,1.88019175
169,1747533761310,-1.624201,2.749793,1.5583055,3.170227,-1.2879047,1.5984293
170,1747533761320,-1.8048034,2.81910525,1.69815035,3.26823135,-1.33797215,1.4740597
171,1747533761330,-2.336604,3.283302,2.2704647,3.652259,-0.76272935,0.25406557
172,1747533761340,-2.4657104,3.3704307,2.2692444,3.579821,-0.05273059,-0.42024684
173,1747533761350,-2.4579005,3.445112,2.1662521,3.4075145,0.285757205,-0.82557992
174,1747533761360,-2.4393523,3.4436476,2.0051744,2.9521141,0.82025365,-1.6623451
175,1747533761370,-2.3976183,3.3504179,1.8562995,1.9675435,1.186172,-2.906574
176,1747533761380,-2.0832727,2.9833558,1.5744133,0.41864893,1.315069,-4.201936
177,1747533761390,-1.8336021,2.7515013,1.470933,-0.3717773,1.5243934,-4.784635
178,1747533761400,-1.6628840500000002,2.6108024,1.41687435,-0.57923755,1.6663399,-4.9721217
179,1747533761410,-1.32974595,2.34575625,1.2946017,-0.8924253,1.9877834,-5.32046345
180,1747533761420,-0.8334555,1.9829651,1.0506665,-1.0402308,2.5395904,-5.7870493
181,1747533761430,-0.24527754,1.6195638,0.59916055,-0.80107886,3.1356058,-6.31542
182,1747533761440,0.0388051,1.4914337,0.37975308,-0.62317973,3.2751555,-6.6046395
183,1747533761450,0.18609365,1.44128,0.278957435,-0.47670585,3.3119073,-6.9583073
184,1747533761460,0.45663113,1.3475621,0.093229868,-0.427703675,3.27728615,-7.14685915
185,1747533761470,0.9230245,1.0660421,-0.2294138,-0.27696875,3.110572,-7.6938725
186,1747533761480,1.0628693,0.9896521,-0.31507793,-0.10333065,2.8943236,-7.987353
187,1747533761490,1.2317569,0.93107843,-0.36901456,-0.050600063,2.7505128,-8.107195
188,1747533761500,1.2997269,0.913750315,-0.36535369,-0.0157126515,2.7071032500000003,-8.162855
189,1747533761510,1.5182801,0.8588374,-0.3121492,0.16138756,2.722816,-8.266985
190,1747533761520,1.6704498499999998,0.83552995,-0.21818717,0.4862932299999999,2.9955237,-8.3018725
191,1747533761530,1.9700302,0.8110022,-0.048323333,1.3001553,3.609116,-8.441689
192,1747533761540,2.0722902,0.78488815,0.020500809,2.0213394,3.9713058,-8.670187
193,1747533761550,2.1930983,0.7570656,0.058573738,2.604039,4.203001,-8.953015
194,1747533761560,2.2279985,0.7473033,0.0959145,3.1766186,4.4496098,-9.291769
195,1747533761570,2.1769907,0.65138876,0.10543273,4.1097903,4.9396315,-9.910155
196,1747533761580,2.1340365,0.5891542,0.2169669,4.667456,5.413674,-10.171145
197,1747533761590,2.0002933,0.52911615,0.3431445,5.404619,6.0315275,-10.307499
198,1747533761600,1.9391569,0.497754765,0.3311857,5.7747985,6.33672575,-10.2853945
199,1747533761610,1.83372415,0.43942505,0.300190425,6.470682500000001,6.929811750000001,-10.1631555
200,1747533761620,1.75111075,0.3914678099999999,0.29933621,7.17349065,7.57136725,-9.904829
201,1747533761630,1.6155369,0.41599557,0.323863965,8.731441,8.801215,-9.20495
202,1747533761640,1.2932593,0.46590528,0.2894519,9.122392,8.537562,-8.712265
203,1747533761650,1.1124129,0.51593703,0.2037878,9.241968,8.20147115,-8.385761500000001
204,1747533761660,1.0396838,0.61819696,0.18841219,9.41374175,7.51038065,-7.734086
205,1747533761670,0.88373125,0.9313224,0.35949633,9.389241,5.903163,-6.288256
206,1747533761680,0.76072645,1.0780008,0.32947728,9.108011,5.4056845,-5.6922407
207,1747533761690,0.6872652,1.1741594,0.28432667,8.753811,5.1739893,-5.0030146
208,1747533761700,0.70361703,1.1880707,0.382559735,8.664861250000001,5.1399009,-4.6123288
209,1747533761710,0.7490117,1.070191,0.86518294,8.799085,4.9257827,-3.6788907
210,1747533761720,0.63918597,0.83687234,0.98428285,8.760735,3.9755669,-2.5571673
211,1747533761730,0.5264315,0.9130182,0.959145,8.230765,3.2431977,-1.8716697
212,1747533761740,0.5110559,1.1004542,1.0233321,7.5079837,2.2551649,-1.1632688
213,1747533761750,0.5693855,1.3371897,1.3642801,6.7441893,0.9736517,-0.4708469
214,1747533761760,0.5693855,1.3371897,1.3642801,6.3588296500000006,0.33156356,-0.20373183
215,1747533761770,0.92937,1.4816716,1.8140775,5.251754,-1.2921658,0.33502567
216,1747533761780,0.95279956,1.3198615,2.1730857,4.111388,-1.8322549,-0.11664646
217,1747533761790,0.9176552,1.1604922,2.3480747,4.0328249,-1.7108146999999998,-0.313454055
218,1747533761800,0.9823304,0.84565836,2.6636407,3.9563923,-1.536644,-0.82557994
219,1747533761810,0.9823304,0.84565836,2.6636407,4.0554619,-1.65329045,-0.92278532
220,1747533761820,1.0520087,0.83333346,2.86291345,4.3630569,-2.5350631,-0.9291769
221,1747533761830,1.2898425,0.95426387,3.100259,4.285026,-4.169445,-0.53955644
222,1747533761840,1.4702009,1.0252845,3.240348,3.6794233,-4.830974,-0.09321064
223,1747533761850,1.76990315,1.0878852,3.57128975,3.26397025,-4.741492,0.25672873
224,1747533761860,2.3319669,1.3164448,4.135062,3.029612,-3.9904807,0.55979645
225,1747533761870,2.36564685,1.3696492500000002,4.190951,3.15957435,-3.598197,0.453003705
226,1747533761880,2.413238,1.4467713,4.2058387,3.3965957,-2.4160197,0.058589544
227,1747533761890,2.4203157,1.4162643,4.156539,3.3241577,-1.8317223,-0.21198763
228,1747533761900,2.3680875,1.34890445,4.2386645000000005,3.13640485,-1.66633995,-0.251402415
229,1747533761910,2.340509,1.2410312,4.295408,2.7497139,-1.3883059,-0.2029328799999999
230,1747533761920,2.3113442,1.23944475,4.29577385,2.201369,-0.966461185,0.062584285
231,1747533761930,2.161127,1.2500613,4.3246946,1.2074772,0.03834952,0.5613944
232,1747533761940,2.1203694,1.27861595,4.2253633,0.47164581,0.93796536,0.62025025
233,1747533761950,1.846293,1.338654,3.970323,-0.9582054,2.6232138,0.6514092
234,1747533761960,1.6893642,1.32071575,3.8950314,-1.5483619,3.202185,0.6854977
235,1747533761970,1.41540995,1.2805683499999998,3.6827018,-2.0836573,3.5851476,0.70200926
236,1747533761980,1.2301705,1.23126885,3.3984972,-2.34304915,3.68501615,0.685231355
237,1747533761990,0.86323047,1.048714,2.7419832,-3.4290862,3.8759646,0.63436496
238,1747533762000,0.86323047,1.048714,2.7419832,-3.4290862,3.8759646,0.63436496
239,1747533762010,0.66896092,0.9469421,2.43459295,-3.7412088,3.7156425,0.66525763
240,1747533762020,0.5568166,0.89385965,2.27742,-3.75212775,3.61683925,0.687361865
241,1747533762030,0.41123646,0.85493255,2.102065,-3.7896783,3.4088464,0.7462177
242,1747533762040,0.3612047,0.9098454,1.9329334,-3.92763,3.448261,0.6743124
243,1747533762050,0.3577879149999999,0.9455998,1.89595875,-3.97130585,3.5396074,0.62930497
244,1747533762060,0.35534734,1.1004542,1.7462295,-4.1049967,3.8903458,0.49161956
245,1747533762070,0.42099872,1.2290722,1.6166352,-4.2264366,4.20886,0.38242993
246,1747533762080,0.5610876,1.5612342,1.4260265,-4.428304,4.5279064,0.04580637
247,1747533762090,0.63064396,1.7730759,1.3169329,-4.582235,4.5726476,-0.10546118
248,1747533762100,0.67298788,1.87460375,1.2640945,-4.7140615,4.5912898,-0.19627498
249,1747533762110,0.733392035,2.0663107,1.15841775,-5.013667,4.62990575,-0.38322889
250,1747533762120,0.77317333,2.3036563,0.9767171,-5.573996,4.6333675,-0.62264705
251,1747533762130,0.81368685,2.464002,0.74510676,-6.451774,4.5327,-0.85753787
252,1747533762140,0.85127175,2.5108612,0.6772589,-6.718623,4.5348306,-0.98430437
253,1747533762150,0.8844635,2.5255044,0.6291796,-6.780941,4.556136,-1.1733888
254,1747533762160,0.9015475,2.5140338,0.49616838,-6.728743,4.5145907,-1.31933
255,1747533762170,0.90496427,2.49511935,0.408185755,-6.7247483500000005,4.45413705,-1.4010891
256,1747533762180,0.873725,2.3675992,0.067359805,-6.862966,3.7502635,-1.8615496
257,1747533762190,0.7856203,2.2575295,0.004881145,-6.9311433,3.4392064,-1.9552929
258,1747533762200,0.78671855,2.20603345,0.0097622895,-6.9122348,3.3198967,-1.97073925
259,1747533762210,0.792209825,2.11914905,0.036364529,-6.82408415,3.0788805000000004,-1.9872508
260,1747533762220,0.81271064,2.0273836,0.051007964,-6.6073027,2.6881948,-2.0010993
261,1747533762230,0.86103404,1.8994975,-0.0019524579,-6.5092983,1.984055,-2.0383835
262,1747533762240,0.8644508,1.8131012,0.003172744,-6.427806,1.4274544,-1.9691414
263,1747533762250,0.8859278,1.7176749,-0.022941383,-6.3569655,0.783502,-1.8311896
264,1747533762260,0.86225426,1.6151708,-0.04271002,-6.348976,0.19281286,-1.5936357
265,1747533762270,0.91570276,1.3015573,0.0053692595,-6.482667,-0.20133498,-1.3566142
266,1747533762280,0.87299275,1.1207108,0.060770255,-6.818758,-0.16564862,-0.9400959
267,1747533762290,0.7992875,0.9056965,0.06296677,-6.9029136,0.108124346,-0.7387609
268,1747533762300,0.75023198,0.8191782000000001,0.0290428125,-6.87761355,0.3257046229999999,-0.60027652
269,1747533762310,0.70215267,0.58329684,-0.054424766,-6.624347,0.82078624,-0.26365295
270,1747533762320,0.6125837,0.29384494,-0.26529023,-5.947904,0.75793564,0.2775014
271,1747533762330,0.596964,0.15326795,-0.40049794,-5.7364492,0.6780408,0.68389976
272,1747533762340,0.58110034,0.027334413,-0.5276518,-5.6389775,0.70840085,1.0913634
273,1747533762350,0.5232587,-0.10982577,-0.77659017,-5.63365125,0.8759136750000001,1.2650015
274,1747533762360,0.41684976,-0.26114124,-0.9613415,-5.549495,1.7720674,1.6921726
275,1747533762370,0.36974674,-0.25992095,-1.5185242,-5.006743,3.389139,1.8279938
276,1747533762380,0.16864355,-0.20354374,-1.888515,-4.452273,4.367584,1.7427727
277,1747533762390,-0.038316987,-0.15107143,-2.2277546,-3.930826,4.944425,1.6729978
278,1747533762400,-0.0935959535,-0.125201365,-2.4926788,-3.77822675,5.05894085,1.5797872000000002
279,1747533762410,-0.42905265,-0.13862452,-3.4272957,-3.5270905,5.0056777,1.2405005
280,1747533762420,-0.6562699,-0.34558508,-4.049398,-3.3678336,3.4461305,0.72917354
281,1747533762430,-0.6529751500000001,-0.343632625,-4.0098605,-3.1827439,2.9904636,0.635962905
282,1747533762440,-0.52960426,-0.31361356,-3.7806907,-2.449043,1.8865833,0.27803403
283,1747533762450,-0.2294138,-0.13618395,-3.2481577,-1.8050907,1.484446,-0.02609898
284,1747533762460,-0.1774296149999999,-0.114462855,-3.1217361500000003,-0.992560195,1.5108113,-0.266316125
285,1747533762470,-0.047347106,-0.032215554,-2.9511402,0.43036684,1.8924423,-0.6540724
286,1747533762480,0.054424766,-0.018792408,-3.086348,0.8335694,2.1497037,-0.85540736
287,1747533762490,0.0251378965,-0.042587989,-3.02094065,1.08550445,2.0671457,-0.90520848
288,1747533762500,-0.0079318605,-0.0561331675,-2.8840245,1.6365124999999998,1.70016205,-0.94622115
289,1747533762510,0.015375607,-0.0100063485,-2.7482066,2.2066953,1.05727495,-0.8892295
290,1747533762520,0.08005078,0.12690976,-2.1289113,3.629356,-1.1169298,-0.40213734
291,1747533762530,0.1182457399999999,0.16656906,-1.97576545,4.0954092,-1.6423714,-0.29028457
292,1747533762540,0.20903502,0.287133345,-1.64482385,4.9540124,-2.406965,-0.14594123
293,1747533762550,0.3278909,0.4717626649999999,-1.32876965,5.6773269,-2.7534423,-0.15739282
294,1747533762560,0.4528482299999999,0.680675675,-1.09398655,6.185457899999999,-2.92122135,-0.31478564
295,1747533762570,0.44540447,1.0155222,-0.7236297,6.1790667,-3.2032502,-0.7254451
296,1747533762580,0.445038395,1.04212445,-0.653219215,6.041381149999999,-3.34359885,-0.7286409
297,1747533762590,0.46871196,1.095695,-0.50434433,5.80009865,-3.67356455,-0.7289072
298,1747533762600,0.67555046,1.2422514,-0.12910628,5.6688046,-4.425641,-0.87138635
299,1747533762610,0.67555046,1.2422514,-0.12910628,5.6688046,-4.425641,-0.87138635
300,1747533762620,0.8947139,1.3642801,0.079318605,5.8536281500000005,-4.2786345,-0.998951775
301,1747533762630,0.97476465,1.3918585,0.09127741,6.0384517,-4.131628,-1.1265172
302,1747533762640,1.017352625,1.40442745,0.091765525,6.278935000000001,-3.58461485,-1.3108079
303,1747533762650,1.0916681,1.4218775,0.112388365,6.38865725,-3.1316111,-1.44263435
304,1747533762660,1.0994779,1.4384733,0.1342315,6.440589,-2.6429212,-1.5078819
305,1747533762670,1.0828819,1.4633673,0.18768002,6.4539046,-2.4224114,-1.4588797
306,1747533762680,1.0833701,1.4822817,0.251378975,6.512228,-2.32360815,-1.4247912
307,1747533762690,1.05188675,1.52535775,0.385610465,6.806241050000001,-2.1220068000000003,-1.2551478
308,1747533762700,1.0199152,1.5495194,0.456143,7.0419307,-2.0192087,-1.1195929
309,1747533762710,0.985259075,1.5574513,0.49738868,7.19985605,-2.05888985,-0.90414318
310,1747533762720,0.933152855,1.5641629,0.55840298,7.391870000000001,-2.0772657,-0.57763965
311,1747533762730,0.8844635,1.602724,0.65114474,7.43607855,-1.9901803,-0.3611246449999999
312,1747533762740,0.8844635,1.602724,0.65114474,7.4461985,-1.9244002,-0.25566345
313,1747533762750,0.78488808,1.67459875,0.7072779,7.097590950000001,-1.4980282,0.155528615
314,1747533762760,0.73754098,1.718163,0.756577475,6.8784127,-1.4439659,0.30466563
315,1747533762770,0.703372975,1.76856085,0.8334554750000001,6.825682,-1.5659387,0.3174488
316,1747533762780,0.68482465,1.8348224,1.0677505,6.8176928,-1.7475663,0.2561961
317,1747533762790,0.6390639250000001,1.837263,1.12022275,6.6339345,-1.798699,0.160588615
318,1747533762800,0.575609025,1.83103955,1.18758255,6.26561925,-1.8844528,0.0218379199999999
319,1747533762810,0.5349735,1.8345783,1.1856301,5.861617799999999,-1.9917782,-0.039947417
320,1747533762820,0.5490068,1.8321377,1.1756238,5.38304765,-2.1121531,-0.027164243
321,1747533762830,0.67933337,1.84946575,1.2766635,4.6520098,-2.0429109,0.0149137025
322,1747533762840,0.87677565,1.8829016,1.4414021,4.0669133,-1.8085527,-0.0633832315
323,1747533762850,1.0518868,1.8416561,1.5868602,3.9025962,-1.4439659,-0.3797668
324,1747533762860,1.036267,1.7066923,1.7030314,4.024569,-1.3187973,-0.5773733
325,1747533762870,0.94865054,1.5285306,1.79016,4.2418833,-1.3859091,-0.62317973
326,1747533762880,0.6980037,1.2656809,1.7938206,4.509797,-1.7172064,-0.21784659
327,1747533762890,0.70935237,1.2629963,1.80492525,4.510862299999999,-1.79656855,-0.1201085725
328,1747533762900,0.740957795,1.28581565,1.8645973,4.5529403,-1.98512025,0.0138484375
329,1747533762910,0.785498225,1.3368236,1.98272115,4.7468185,-2.2525016,0.061519022
330,1747533762920,0.8335775000000001,1.4296874,2.1535613,5.0703926500000005,-2.52813885,0.082824312
331,1747533762930,1.0499343,1.701323,2.7090356,5.704491,-3.5116444,-0.08894958
332,1747533762940,1.0582323,1.769415,3.0946457,5.819007,-4.1774344,-0.18588865
333,1747533762950,1.15280445,1.86850225,3.3279645,5.8267303,-4.6216497,-0.207193935
334,1747533762960,1.46458755,2.0803439,3.721629,5.6914418,-5.5750615,-0.31052459
335,1747533762970,2.212867,2.3890765,4.260507,5.258678,-6.5268755,-0.5315669599999999
336,1747533762980,3.2003226,2.3109782,5.076879,3.3598442,-7.2698975,-0.8357
337,1747533762990,3.5585988,2.0837607,5.4407682,2.2871227,-5.886119,-0.49534798
338,1747533763000,3.7287066,1.8375069,5.6953197,1.4919028,-3.8642468,-0.19281286
339,1747533763010,3.721629,1.7317081,5.7471818500000005,1.1475561,-2.64318745,-0.121972777
340,1747533763020,3.2249725,1.5055892,5.530093,0.1960086499999999,0.6154565,-0.1510012369999999
341,1747533763030,2.7361257,1.4592183,5.129107,-1.0897655,3.662912,-0.29348037
342,1747533763040,2.4105535,1.4196811,4.681506,-1.9877834,3.90739,-0.2263687
343,1747533763050,2.0696054,1.3454876,4.186314,-2.5624937,3.8261636,-0.14407702
344,1747533763060,1.93159105,1.2913069,3.9948512,-3.749731,3.58195175,0.05193164
345,1747533763070,1.4533609,1.0989897,3.3050232,-6.407033,2.735599,0.5954828
346,1747533763080,1.3437792,1.0775127,3.0929375,-7.077617,2.4868598,0.67484504
347,1747533763090,1.27898205,1.0751942,2.99165375,-7.38654365,2.37553965,0.709732445
348,1747533763100,1.172329,1.07250955,2.80128915,-7.97670015,2.1837921,0.78003991
349,1747533763110,1.0592085,1.0728757,2.6038468,-8.664329,1.984055,0.9214538
350,1747533763120,1.0308977,1.069947,2.3422174,-9.106946,1.8924423,1.2106731
351,1747533763130,1.0040516,1.0858107,2.1848004,-9.3652725,1.8487664,1.3848438
352,1747533763140,1.001855,1.138039,2.0339732,-9.792443,1.7406421,1.617604
353,1747533763150,1.0423685,1.2232149,1.8706989,-10.239855,1.567004,1.7917749
354,1747533763160,1.05688995,1.26604695,1.71108545,-10.50191,1.4527544,1.8620823
355,1747533763170,1.08666495,1.32584095,1.52206305,-11.272096,1.11000555,2.06634675
356,1747533763180,1.1438963,1.3733101,1.4526287,-12.106198,0.7888283,2.2951124
357,1747533763190,1.1473131,1.4067459,1.4675162,-12.293152,0.7590009,2.3643544
358,1747533763200,1.1087521,1.4343245,1.4741058,-12.32724,0.7089335,2.4570324
359,1747533763210,1.05737805,1.40760025,1.45580145,-12.2699825,0.5800365000000001,2.5478462
360,1747533763220,0.94987085,1.3107095,1.46531965,-11.759455,-0.1547296699999999,3.0027142
361,1747533763230,0.96353805,1.2100358,1.5292627,-10.720821,-1.0860372,3.7230992
362,1747533763240,1.028457275,1.22248275,1.57502345,-10.4294715,-1.12039195,3.860252
363,1747533763250,1.14316415,1.2841072,1.67398865,-9.861686,-1.06286765,4.105529199999999
364,1747533763260,1.2627522,1.38319445,1.72951165,-9.3921705,-0.75900095,4.28342845
365,1747533763270,1.3171769,1.5021724,1.6637384,-9.004681,0.26418558,4.5811696
366,1747533763280,1.3437792,1.4313958,1.7149903,-8.91573,0.53103435,4.664793
367,1747533763290,1.3453656,1.37562865,1.7622154,-8.689627999999999,0.598944975,4.690093
368,1747533763300,1.3110754999999998,1.27373475,1.7930886,-8.2075962,0.6905577,4.744954
369,1747533763310,1.2056428,1.1922196,1.6652026,-7.496266,0.6759103,4.857606
370,1747533763320,1.223459,1.2232149,1.4828918,-7.204117,0.6386260500000001,4.87411765
371,1747533763330,1.3061944,1.3042419,1.4367651,-6.7607007,0.54648066,4.7755804
372,1747533763340,1.3436572,1.3562261,1.3969836999999998,-6.7218187,0.52863748,4.65760255
373,1747533763350,1.36855105,1.44213425,1.3157126,-6.7423251,0.47936901,4.39208555
374,1747533763360,1.26287425,1.38197415,1.1861182,-6.91543055,0.38429416,4.1228399
375,1747533763370,1.1697664,1.2878901,1.0980135,-7.0291476,0.3206446,4.0011334
376,1747533763380,1.07617045,1.1596380000000002,1.04956815,-7.2059812,-0.487624807,3.7207024
377,1747533763390,0.95304355,1.00624803,0.96207365,-6.972156,-1.1840415,3.5633097
378,1747533763400,0.92375667,0.9769612,0.85481052,-6.8672273,-1.28151315,3.48874115
379,1747533763410,0.68604493,0.97744924,0.32410803,-6.56629,-1.7528926,3.1009848
380,1747533763420,0.47127452,0.921072,0.0776102,-6.61689,-2.1124194,3.1388018
381,1747533763430,0.39146784,0.91155386,-0.12837411,-6.693589,-2.5992453,3.2458608
382,1747533763440,0.41331096,0.97281223,-0.247352025,-6.7889303000000005,-2.9244172500000003,3.2213597
383,1747533763450,0.34509694,1.11766015,-0.49360577,-6.9588401,-3.4748926,3.1641017
384,1747533763460,-0.21452633,1.3886857,-1.0116173,-6.8986526,-4.5556035,3.1755533
385,1747533763470,-0.26162934,1.6010156,-1.0267489,-6.2243404,-4.433098,3.2155008
386,1747533763480,-0.40562314,1.7757605,-0.96817505,-4.967328,-3.832289,3.3065808
387,1747533763490,-0.9232686,2.196027,-1.022844,-1.4514228,-1.8892465,3.6336172
388,1747533763500,-1.154879,2.5379512,-1.3223021,-0.06551377,-1.0359697,3.6794233
389,1747533763510,-1.4096746,2.9833558,-1.6859474,0.9736517,-0.2796319,3.5723643
390,1747533763520,-1.734759,3.358716,-2.1081665,1.347027,0.17789917,3.238404
391,1747533763530,-2.1018212,3.474887,-2.3119543,1.5792545,0.37390783,2.7063043
392,1747533763540,-2.3242792,3.43339735,-2.3652809,1.86101695,0.21944448,1.9787287
393,1747533763550,-2.6336217,3.261825,-2.3529558,2.4799356,-0.24234766,0.5006743
394,1747533763560,-2.6028705,3.1185634,-2.182604,2.8208203,-0.52624065,-0.18961707
395,1747533763570,-2.5184267,2.9828675,-2.0493488,2.94572255,-0.672980825,-0.482298485
396,1747533763580,-2.4334947,2.88951565,-1.948309,3.1579765,-0.90840427,-1.0263823
397,1747533763590,-2.06399205,2.6397232,-1.560502,3.5374769,-0.90227899,-1.8998992
398,1747533763600,-1.6663008499999998,2.4032318,-1.1994193,3.9302931,-0.7302387699999999,-2.8013792
399,1747533763610,-1.43981575,2.2349543,-1.052618875,4.0940776,-0.58483017,-3.3297503
400,1747533763620,-1.0799533,1.9954121,-0.81319875,4.2125883,-0.44581317,-3.80485825
401,1747533763630,-0.8189340749999999,1.85032005,-0.60318749,4.46532225,-0.165914945,-4.418983300000001
402,1747533763640,-0.35437113,1.5678238,-0.23697957,4.931109,0.2050634,-5.0408316
403,1747533763650,-0.16107778,1.461903,-0.08542004,5.213937,0.3355583,-5.1260524
404,1747533763660,0.06833603,1.364036,0.08517598,5.539908,0.46392268,-5.1287155
405,1747533763670,0.27407628,1.3125398,0.28798756,6.078399,0.6498113,-5.114867
406,1747533763680,0.44540447,1.27690745,0.41209068,7.01743,1.1462245,-5.1510863
407,1747533763690,0.67298788,1.2388344999999998,0.59098465,7.26270685,1.30974265,-5.152684150000001
408,1747533763700,0.7978232000000001,1.25677275,0.6991019999999999,7.767908349999999,1.6010925,-5.174522
409,1747533763710,0.9369358,1.31388225,0.783057675,8.255267,1.81707485,-5.2397695
410,1747533763720,1.087519,1.4023529,0.8407772,8.834771,1.9632823,-5.4110107
411,1747533763730,0.9859913,1.5490314,0.8437059,9.220929,1.4306501,-5.2917013
412,1747533763740,0.9707377,1.5792945,0.81978828,9.129583,1.0831076,-5.05601145
413,1747533763750,1.0121055,1.6268855,0.88690406,8.811335,0.22423817,-4.3500075
414,1747533763760,1.09911185,1.6218824,1.03004363,8.825716,-0.07456851,-3.9505332
415,1747533763770,1.3869773,1.5302389,1.645434,9.165003,-0.20559604,-3.613377
416,1747533763780,1.4025971,1.5360963,1.679846,10.308564,0.3637878,-2.9348035
417,1747533763790,1.376849,1.52670015,1.6187097,10.550379,0.59148808,-2.74465385
418,1747533763800,1.3149804,1.5487872,1.3625716,11.040934,1.1696603,-2.1523669
419,1747533763810,1.291551,1.6195638,1.1780643,11.070761,1.3480922,-1.814678
420,1747533763820,1.257505,1.7613611,0.965002335,10.6558405,1.007207575,-1.6506273
421,1747533763830,1.2176017,2.01152,0.64431113,9.541574,-0.06711166,-1.5345135
422,1747533763840,1.1463369499999998,2.0184756,0.654073415,9.211608,-0.525708015,-1.5363777
423,1747533763850,0.8959341,2.0222585,0.6496804,8.27817,-2.026133,-1.3203954
424,1747533763860,0.8603018,2.029214,0.64943635,7.98255915,-2.521481,-1.1177288
425,1747533763870,1.1307173,2.0532537,1.0326062,6.932741,-3.7838194,-0.5342301
426,1747533763880,1.2307807,2.0244548,1.283497,6.9386,-3.57556,-0.7701862
427,1747533763890,1.21992015,1.9876022,1.3910043,7.10478135,-3.2751555,-0.9456885
428,1747533763900,1.185264,1.9132868,1.48618665,7.386543850000001,-2.73879495,-1.21253725
429,1747533763910,1.1190025,1.8531268,1.3874654,7.523963,-2.1720743,-1.4152038
430,1747533763920,0.98794377,1.7523311,1.4545813,7.0898676,-2.4224114,-1.6042882
431,1747533763930,0.91448253,1.7291456,1.4697127,6.883739,-2.6442527,-1.62293035
432,1747533763940,0.892273315,1.73585725,1.4529948,6.356166849999999,-3.09459325,-1.62106615
433,1747533763950,0.85395632,1.6982725,1.43481255,5.65975015,-3.4831485,-1.55129135
434,1747533763960,0.88604982,1.5563531,1.52816445,4.5657235,-3.93801625,-1.3110742000000002
435,1747533763970,1.1883147,1.3349931,1.7672185,3.2586439,-4.1966095,-1.0396981
436,1747533763980,1.4716653,1.2544543,1.9763755,3.0067089,-3.9840891,-1.2825783
437,1747533763990,1.521697,1.1674478499999998,2.07387645,2.9704899,-3.8027278,-1.43304695
438,1747533764000,1.57612175,0.9568264,2.23849305,2.9846046,-3.33614195,-1.67699255
439,1747533764010,1.53780475,0.487626355,2.38968645,3.26769865,-2.5222799,-1.7004283999999998
440,1747533764020,1.424074,-0.034900185,2.5818818,3.6932719,-1.6341157,-1.3475596
441,1747533764030,1.3545178,-0.14936304,2.6921954,3.829093,-1.4040185,-0.9763149
442,1747533764040,1.3602531,-0.187802055,2.7495489,3.83628355,-1.32146055,-0.82504735
443,1747533764050,1.3325526,-0.26187342,3.013131,3.8336204,-1.1669972,-0.5600628000000001
444,1747533764060,1.2988727,-0.34656128,3.3906875,3.6778255,-1.8194717,-0.44368264
445,1747533764070,1.5634308,-0.16937573,3.6291313,3.4844801,-3.1068437,-0.45007423
446,1747533764080,1.9702741,0.035876416,3.935179,3.1057785,-4.6259108,-0.42077947
447,1747533764090,2.4403284,0.2975058,4.250501,2.78593275,-5.2376389,-0.35712992
448,1747533764100,2.67096245,0.40977213,4.3608150000000006,2.01388235,-6.117547500000001,-0.1280980575
449,1747533764110,2.9015965,0.52203846,4.471129,1.5616777,-6.385728,0.037284255
450,1747533764120,3.8028998,0.788793,5.2162356,-0.8878979,-3.4205642,1.0141318
451,1747533764130,3.7650712,0.86323047,5.248939,-1.2069446,-1.5920377,1.2191951
452,1747533764140,3.6902677,0.941206735,5.18353175,-1.3528858499999998,-0.58509649,1.2751215
453,1747533764150,3.4548743,1.1729392,4.8689423,-1.8551581,2.181129,1.2953615
454,1747533764160,2.8535173,1.2786158,4.053059,-2.8714204,3.961186,1.2053467
455,1747533764170,2.5813935,1.2112561,3.627911,-3.5089812,3.7758298,1.3534185
456,1747533764180,2.3409972,1.1092402,3.2859867,-4.209925,2.9715552,1.6399746
457,1747533764190,2.2788846,1.0759264,3.15846685,-4.590490750000001,2.4322651,1.8010958499999998
458,1747533764200,2.1674725,1.03919575,2.9435745,-5.47892145,1.34356482,2.15130155
459,1747533764210,2.066921,1.0318741,2.7229466,-6.3918532,0.54435013,2.469283
460,1747533764220,2.0222585,0.9752528,2.6201985,-8.073107,-0.082558,3.0146985
461,1747533764230,2.01835355,0.95072505,2.60323655,-8.293084,-0.093210642,3.12495325
462,1747533764240,1.9962663,0.870186125,2.4868213,-8.8382325,-0.168844417,3.49273575
463,1747533764250,1.978084,0.81417495,2.387368,-9.163404,-0.23382555,3.7502635
464,1747533764260,1.9219509,0.763289025,2.22885275,-9.40495325,-0.30253511,4.02776495
465,1747533764270,1.8146877,0.6859228799999999,1.9724706,-9.78125825,-0.4759069099999999,4.4831655
466,1747533764280,1.6659348,0.6067263,1.6559285,-10.125339,-0.9502159,4.9215217
467,1747533764290,1.6659348,0.6067263,1.6559285,-10.125339,-0.9502159,4.9215217
468,1747533764300,1.6166352000000002,0.5093474600000001,1.3287697,-10.556771,-2.45010825,5.3332467
469,1747533764310,1.568556,0.38316986,1.0748281,-10.895525,-4.2589273,5.9329906
470,1747533764320,1.5714846,0.25845662,0.9794017,-10.94719,-5.0434947,6.494385
471,1747533764330,1.7059602,0.20671648,0.9701275,-10.850251,-5.503156,7.021158
472,1747533764340,1.7642899,0.215990655,1.0186949,-10.272345,-5.43604435,7.41690385
473,1747533764350,1.82554825,0.25723634,1.0760484,-9.276589,-5.18996835,7.94687285
474,1747533764360,1.8296972,0.3043393949999999,1.07739075,-8.418252299999999,-4.834969,8.212922500000001
475,1747533764370,1.8990095,0.37804466,1.0245523,-7.1580443,-4.298342,8.497615
476,1747533764380,1.8634992,0.44198766,1.02308795,-7.1580443,-4.298342,8.497615
477,1747533764390,1.8279889,0.50593066,1.0216236,-5.568137,-3.7689056,8.622251
478,1747533764400,1.83372415,0.57109398,0.8604238,-4.59262135,-3.69513605,8.564992499999999
479,1747533764410,1.7733198,0.61722076,0.6186851,-4.21125685,-4.0269659,8.5151915
480,1747533764420,1.7845466,0.65944266,0.45174995,-4.237622,-4.8032775,8.49069
481,1747533764430,1.85031995,0.6213697499999999,0.477009875,-4.409129500000001,-4.95774075,8.5085335
482,1747533764440,1.92805215,0.5274077100000001,0.54583403,-4.51459075,-5.000351500000001,8.52398
483,1747533764450,1.97881615,0.42612394,0.65151083,-4.24720955,-4.77398285,8.460863
484,1747533764460,2.01810945,0.37499395,0.72655845,-3.76704155,-4.558532850000001,8.280301
485,1747533764470,1.9724706,0.42270714,0.6965394,-2.4090955,-4.1891522,7.6363482
486,1747533764480,1.948431,0.5579148549999999,0.6334506,-2.23998485,-4.2014029,7.538077599999999
487,1747533764490,1.914019,0.741445935,0.51813354,-2.0205404,-4.311924299999999,7.35325435
488,1747533764500,1.8826576,0.8526140200000001,0.445160405,-2.0285298000000003,-4.46771915,7.1588435
489,1747533764510,1.8065119,0.9994144,0.39634898,-2.4005735,-4.4613276,6.84752
490,1747533764520,1.7262169,1.001855,0.336799,-2.8948562,-4.232828,6.599846
491,1747533764530,1.4140676,0.8600578,0.44833317,-3.635215,-4.111388,5.9702744
492,1747533764540,1.32266825,0.84297375,0.438936975,-3.72203405,-4.1755705,5.818474200000001
493,1747533764550,1.0335824,0.7883049,0.42465958,-3.8573227,-4.3388224,5.4829164
494,1747533764560,0.7900133,0.77805454,0.53253293,-3.683152,-4.395814,5.3098106
495,1747533764570,0.5767073,0.88641596,0.5252112,-3.4290862,-4.362258,5.0765176
496,1747533764580,0.1313028,1.1229074,0.5640163,-2.8373318,-4.4181843,4.2908854
497,1747533764590,0.059794026,1.2079614,0.5436375,-2.7742149,-4.40939595,4.069842899999999
498,1747533764600,-0.070410514,1.3606192,0.49226345,-2.7132286,-4.34308315,3.6181707
499,1747533764610,-0.1919510199999999,1.4993657,0.440279265,-2.7289413,-4.20859335,3.16170485
500,1747533764620,-0.33069757,1.7757605,0.41636166,-2.6173549,-3.8775625,2.4671526
501,1747533764630,-0.465905285,1.8124911,0.63784363,-1.2479573,-4.031493,1.6367788
502,1747533764640,-0.63881985,1.90413465,0.91863147,-0.8250473199999999,-3.9515983,1.5028218
503,1747533764650,-0.73815115,2.04056265,1.05994057,0.08282433,-3.62802445,1.2791163
504,1747533764660,-0.94669807,2.3163474,1.2627522,1.2069446,-2.9230857,1.1243867
505,1747533764670,-1.052863,2.715137,1.432128,1.4391723,-2.65623685,1.013066515
506,1747533764680,-1.2119883,2.809099,1.5192564,2.034655,-1.8471686,-0.36218992
507,1747533764690,-1.4401819,2.856202,1.6498269,1.952097,-1.6218652,-1.0444918
508,1747533764700,-1.7145022,2.9001322,1.8416561,1.88099065,-1.41786705,-1.2892363
509,1747533764710,-1.876312,2.848148,1.9817449,1.6506273,-0.79202414,-1.881257
510,1747533764720,-1.9160933,2.7820086,1.9846735,1.2101405,0.0793622,-2.64878
511,1747533764730,-1.7742962,2.7353938,1.9341537,1.0641992,0.46711847,-3.1025827
512,1747533764740,-1.7041297,2.7167234,1.9062091,1.03570335,0.659665035,-3.3310820000000003
513,1747533764750,-1.5586715999999998,2.6673017,1.85032,1.045557,1.0865698,-3.78861315
514,1747533764760,-1.37379825,2.6209308,1.7695370499999998,1.1555456,1.6112125000000002,-4.282097
515,1747533764770,-0.8402891,2.4373996,1.2956998,1.3608754,3.0365362,-5.804626
516,1747533764780,-0.6467517,2.3341637,1.019183,1.2170646,3.367301,-6.516755
517,1747533764790,-0.53985463,2.2700986,0.89483587,1.0929613,3.4685011,-6.872021
518,1747533764800,-0.32898917,2.12415225,0.6693269900000001,0.85114628,3.6610476,-7.543404199999999
519,1747533764810,0.36779428,1.6010156,0.29945824,0.8245147,4.2599926,-8.84063
520,1747533764820,0.5320447899999999,1.51974445,0.253575475,1.1957593,4.5785065,-9.2518215
521,1747533764830,1.0050278,1.3140042,0.14716652,1.7379789,4.937501,-9.665144
522,1747533764840,1.1680579999999998,1.2520137,0.094694212,2.04078045,5.12658525,-9.86861
523,1747533764850,1.48691875,1.1125349999999998,0.0098843194999999,2.6836676,5.54363605,-10.265155
524,1747533764860,2.1079226,0.83858067,-0.1615659,4.4975467,6.6323366,-11.203918
525,1747533764870,2.2521603,0.74364245,-0.18426323,5.229383,6.867227,-11.511248
526,1747533764880,2.3473425,0.7070338,-0.18426323,6.0954432,6.84752,-11.751998
527,1747533764890,2.41787505,0.704959325,-0.1892664,6.384396300000001,6.7130305,-11.780227
528,1747533764900,2.4893838,0.69190231,-0.12312688,6.9769497000000005,6.36442265,-11.740812
529,1747533764910,2.58359,0.8217408,0.268463,8.723983,5.3897057,-11.184744
530,1747533764920,2.544541,0.9261973,0.47664383,9.4659395,5.264004,-10.938668
531,1747533764930,2.5133016,1.018451,0.6621273,10.222811,5.431251,-10.67395
532,1747533764940,2.44313515,1.04310075,0.7387612699999999,10.5959195,5.6677395,-10.5008445
533,1747533764950,2.30011765,1.0902038,0.82784217,11.574631,6.549246,-9.882991
534,1747533764960,2.1254946,1.21235445,0.8681116,11.9256355,7.434747,-9.3602125
535,1747533764970,1.8531268,1.3820962,0.8766537,12.312326,8.861935,-8.198276
536,1747533764980,1.4392056,1.3969837,0.93620354,12.2939505,8.9775165,-7.6850845
537,1747533764990,1.295822,1.39686165,0.91802132,12.2018055,9.0459595,-6.518353149999999
538,1747533765000,0.99819415,1.4422563,0.914970635,12.031363,8.8491515,-5.18650615
539,1747533765010,0.5945235,1.7218238,0.71264714,10.989268,7.1346087,-2.3734093
540,1747533765020,0.4327135,1.8184706,0.6294237,10.260095,5.8813252,-1.6005598
541,1747533765030,0.22404456,1.8487337,0.6357691,9.347163,4.0325584,-0.7637946
542,1747533765040,0.23697957,1.9043787,0.5437595,8.514126,2.3707461,-0.283893
543,1747533765050,0.218797315,1.91511715,0.53692593,8.069112,1.58138512,-0.107325405
544,1747533765060,0.17157225,1.8706989,0.8856837,5.915946,-2.1704764,0.58909124
545,1747533765070,0.18450728,1.7315861,1.1880707,5.2379055,-3.047189,0.75633776
546,1747533765080,0.28286234,1.6222485,1.5824672,5.01446625,-3.221626,0.77870831
547,1747533765090,0.28286234,1.6222485,1.5824672,4.791027,-3.396063,0.80107886
548,1747533765100,0.394884635,1.385879,1.8215213,4.33722435,-2.5451831,0.653273435
549,1747533765110,0.5105677,1.228096,1.8965688,4.045342,-0.8175905,0.30360037
550,1747533765120,0.44882128,1.2268758,1.9156054,3.9425437,-0.1587244,0.10226539
551,1747533765130,0.30238694,1.1822133,1.909748,3.8546593,0.3057309,0.015978966
552,1747533765140,0.1665690765,1.12900885,1.8265244,3.64506865,0.415186835,0.123038043
553,1747533765150,-0.0345341005,1.04663955,1.7199933500000002,3.0999196,0.2977414,0.4111921
554,1747533765160,-0.12739788,0.9942892,1.7506226,2.8437235,-0.14913702,0.48842376
555,1747533765170,-0.1415532,0.9813542,1.8318938,2.7142937,-0.77870834,0.4857606
556,1747533765180,-0.162054015,0.934617235,1.9014501,2.69192325,-1.13503927,0.47351005
557,1747533765190,-0.204275925,0.810392115,2.3068291,2.8620993,-2.2956449,0.458063715
558,1747533765200,-0.131058747,0.7662177299999999,2.7743207,3.12601855,-3.4991274,0.42770368
559,1747533765210,0.12520137,0.8983747,3.0895207,3.0242858,-4.5715823,0.31318775
560,1747533765220,0.19378145,0.9302242,3.20886455,2.551841,-5.113802,0.31158987
561,1747533765230,0.56926355,1.044443,3.75799345,1.5845809,-6.0853233,0.3882889
562,1747533765240,1.038097535,1.1988092,4.41804625,1.5385082,-6.11461815,0.4463458
563,1747533765250,1.3708696,1.3219360999999998,4.8294045,1.5454324000000002,-5.8893147500000005,0.537958535
564,1747533765260,1.7036416,1.4728854999999998,5.1313035,1.8397117,-4.3404202,0.43036684
565,1747533765270,2.110363,1.7747843,5.3141026,1.8807244,-3.5127096,0.17150758
566,1747533765280,2.1208575,1.9364723,5.0323386,1.24316363,-3.15158495,-0.01597896
567,1747533765290,2.1254946500000003,2.0859574,4.5833953,-0.08468852,-2.72441385,-0.148071755
568,1747533765300,2.14379895,2.00676075,4.25623635,-1.59043985,-2.5632926,0.0822916799999999
569,1747533765310,2.2663157,1.6393324,3.913214,-3.935087,-2.1081583,0.7595336
570,1747533765320,2.33745825,1.5312151,3.8296242,-4.5058023,-1.8548917,1.0151971
571,1747533765330,2.4343489,1.26897565,3.5205256,-5.676527999999999,-1.1275824,1.6833843000000002
572,1747533765340,2.460097,1.1148535,3.2950168,-6.2765384,-0.6535397,2.095908
573,1747533765350,2.25557695,0.96439225,2.9056236,-6.43472975,-0.505201665,2.6224147
574,1747533765360,2.14867995,0.894835925,2.65387845,-6.483465499999999,-0.6159891799999999,2.92841195
575,1747533765370,1.96685735,0.805755025,2.2755897000000003,-6.71462815,-1.16513305,3.4080473
576,1747533765380,1.7984578999999998,0.73473435,1.9147511,-7.122358350000001,-2.0165456,3.99207865
577,1747533765390,1.7540395,0.7214332,1.8140775,-7.5876124,-2.85624025,4.5220477500000005
578,1747533765400,1.7297557499999998,0.6178309500000001,1.4928981499999998,-8.163653700000001,-3.72150155,5.11273675
579,1747533765410,1.68692375,0.5261874400000001,1.3210818,-8.8502165,-4.570251,5.853362
580,1747533765420,1.70339765,0.40965007,1.19453815,-9.791378,-6.048039,7.5404744
581,1747533765430,1.8521506,0.23331872,1.091668,-9.667274,-6.338856,8.018246
582,1747533765440,1.86545165,0.23197641,1.0798313,-9.4962995,-6.392918249999999,8.20679775
583,1747533765450,1.8611806,0.2289257,1.0195492,-9.1167995,-6.42168045,8.55513925
584,1747533765460,1.8431204,0.2500366499999999,0.9327868,-8.6552735,-6.32900235,8.842493999999999
585,1747533765470,1.80224085,0.3231317999999999,0.806609185,-7.7444725,-6.112221,9.1668665
586,1747533765480,1.78576695,0.37255339,0.654073415,-6.221144,-5.972405,9.577793
587,1747533765490,1.7838145,0.41611759,0.5347294499999999,-5.888249,-5.980927250000001,9.6757975
588,1747533765500,1.76148325,0.48884665,0.40879591,-5.2650695,-5.99184625,9.852365
589,1747533765510,1.8348224,0.5801241,0.22160399,-4.5625277,-6.2387214,10.048107
590,1747533765520,2.063016,0.6372335,0.136428,-3.965447,-6.7761474,9.981528
591,1747533765530,2.0996245,0.6346708999999999,0.1958559299999999,-3.72629515,-6.7524452,9.8968395
592,1747533765540,2.136233,0.6321083,0.25528386,-3.4871433,-6.728743,9.812151
593,1747533765550,2.11927105,0.5978182249999999,0.379386975,-2.4695493,-6.184659,9.6012285
594,1747533765560,2.1328163,0.62478656,0.4327135,-1.7180053,-5.657086850000001,9.42998725
595,1747533765570,2.0749748,0.6855568,0.29994637,-0.004261058,-4.270645,8.747419
596,1747533765580,2.1333044,0.690438,0.15692882,0.135554906,-4.06558175,8.636898
597,1747533765590,2.1167085,0.6806757,0.053692598,0.4079963,-3.480219,8.355934
598,1747533765600,2.089374,0.6372335,-0.03904916,0.41971418,-3.2144356,8.267517
599,1747533765610,2.0449556,0.571948175,-0.068824145,0.45566687,-3.10098495,8.29148575
600,1747533765620,1.9514818,0.46883395,-0.20012695,0.49161956,-3.2027175,8.352738
601,1747533765630,1.9732028,0.47273886,-0.24991462,0.39787626,-3.4413369,8.265387
602,1747533765640,1.94562435,0.4750574199999999,-0.215990665,0.3539341099999999,-3.5428033,8.179899500000001
603,1747533765650,1.87228515,0.46651544,-0.168277475,0.2908172049999999,-3.62243175,8.0241045
604,1747533765660,1.7586764,0.45638704,-0.13618395,0.25166874,-3.51750325,7.8731032
605,1747533765670,1.6490947,0.4724948,-0.153512,0.13528858,-3.255448,7.3519225
606,1747533765680,1.539025,0.5254553,-0.13276714,0.06924219,-3.264503,7.04992
607,1747533765690,1.48020715,0.5361937999999999,-0.13032657,0.03595267555,-3.294064,6.9119685
608,1747533765700,1.3408505,0.54497985,-0.148020715,-0.05060006145,-3.3324135,6.689062
609,1747533765710,1.0387076,0.7141115,-0.18523945,-0.31052458,-3.4173684,6.5130267
610,1747533765720,0.86274236,0.8439499,-0.06613952,-1.0327739,-3.3348105,6.3527045
611,1747533765730,0.673842,0.9405966,0.07590181,-1.13796875,-3.2788840500000003,6.27946755
612,1747533765740,0.673842,0.9405966,0.07590181,-1.2431636,-3.2229576,6.2062306
613,1747533765750,0.3930542,1.1964906,0.337287125,-1.11666345,-3.09938695,5.90875565
614,1747533765760,-0.06760386,1.7677068,0.6101431,-0.2761698,-2.8562404,5.6544238
615,1747533765770,-0.11031387,1.94623455,0.7436424500000001,1.3337111,-2.6008432,4.916728
616,1747533765780,-0.29262465,2.5001225,1.0665302,1.7741979,-2.5009746,4.515656
617,1747533765790,-0.40830776,2.66730175,1.1292529,2.60643575,-2.0591562,3.60059395
618,1747533765800,-0.769390435,3.00727345,1.30985525,3.200587,-1.40481755,2.7798077
619,1747533765810,-1.3490265,3.4368141,1.51571755,3.4839474,-0.81279678,2.18006375
620,1747533765820,-1.9919952,3.8307228,1.6776495,3.37422515,-0.43809001,1.22052675
621,1747533765830,-2.1677165,3.8392644,1.7418365,2.6610305,-0.6279734,-0.267914
622,1747533765840,-2.1677165,3.8392644,1.7418365,2.6610305,-0.6279734,-0.267914
623,1747533765850,-2.29011125,3.6956369,2.0356815,1.7401094499999998,-0.8077368,-1.4596786000000002
624,1747533765860,-2.21652805,3.5134481500000003,2.25252625,1.23251095,-0.5709817500000001,-2.3449134
625,1747533765870,-1.9029144,3.2369313,2.2707086,-0.10066749,1.1994878,-3.571299
626,1747533765880,-1.69693,3.0748773,2.1023092,-0.56672066,1.8263959,-4.160923
627,1747533765890,-1.59418185,2.983966,1.9804026,-0.78749673,2.0506341,-4.4434843
628,1747533765900,-1.3758727,2.79360125,1.7375656,-1.20907515,2.43306415,-4.9697248
629,1747533765910,-0.72118914,2.2809591,1.1168059,-1.6612798999999998,2.8613004,-5.5508267
630,1747533765920,-0.58073421,2.1944408500000003,1.00539377,-1.92972655,3.2591766,-6.0011672
631,1747533765930,-0.16644704,1.9546545,0.6936107,-1.8194717,3.588876,-6.3138223
632,1747533765940,-0.0259920975,1.888515,0.60306545,-1.6985641500000002,3.659716,-6.41768565
633,1747533765950,0.3770684575,1.69217095,0.353516915,-1.22638567,3.8581215,-6.816360850000001
634,1747533765960,0.88324314,1.4811834,0.099575356,-0.51718587,4.095942,-7.428622
635,1747533765970,1.1282767,1.4670281,0.0302631,-0.16884442,4.1870217,-7.8344874
636,1747533765980,1.3747745,1.4775226,-0.0622346,0.09374327,4.223241,-8.320781
637,1747533765990,1.3747745,1.4775226,-0.0622346,0.09374327,4.223241,-8.320781
638,1747533766000,1.78442455,1.49436255,-0.16217604,0.246342405,4.214718850000001,-9.61614225
639,1747533766010,2.383463,1.4743499,-0.21940747,0.38083205,4.4501424,-10.267551
640,1747533766020,2.5391717,1.4067459,-0.25723633,0.6146576,4.643488,-10.629209
641,1747533766030,2.6599798,1.3171769,-0.31727442,0.7669904,4.7766457,-10.772487
642,1747533766040,2.7407628,1.257993,-0.285546975,0.9832391,4.860002850000001,-10.819891
643,1747533766050,2.8115395000000003,1.17659995,-0.192561165,1.43464495,4.929245,-10.8425275
644,1747533766060,2.7993367,1.1517061,-0.05344854,2.2732744,4.7585363,-10.717626
645,1747533766070,2.8012892000000003,1.1536585499999998,-0.04258799,2.886334,4.4906225,-10.623882
646,1747533766080,2.82740335,1.18575205,-0.0058573725,3.165966,4.347877,-10.619355
647,1747533766090,2.9836,1.4160202,0.16571487,4.6221824,3.9414785,-11.11923
648,1747533766100,3.0031245,1.4416462,0.218309215,4.900748999999999,3.9606533,-11.285944
649,1747533766110,3.031313,1.4881391000000002,0.32581643,5.4906393,4.0123187,-11.627894
650,1747533766120,2.9682243,1.5241375,0.47273886,6.427806,4.0820932,-12.042282
651,1747533766130,2.5596724,1.517548,0.5549862,6.967895,4.1587925,-11.97517
652,1747533766140,2.4636358,1.5580615,0.5414410350000001,7.1780183,4.378237,-11.5085845
653,1747533766150,2.170401,1.6686195,0.5098356,7.3394058,4.51032975,-10.684603
654,1747533766160,2.101089,1.7457415,0.5091034,7.133011,3.939348,-9.568205
655,1747533766170,2.10828865,1.79040395,0.5376581,7.0794815,3.5545212,-9.2366415
656,1747533766180,2.3004837,1.8360426,0.7507201,6.975352,2.13479,-8.414524
657,1747533766190,2.3735788,1.80077635,0.840411135,7.09998785,1.6106799,-8.3652555
658,1747533766200,2.48596705,1.7070584,1.058232235,7.42995335,1.176052,-8.4089315
659,1747533766210,2.4539957,1.5526923,1.3928347,8.325574,1.7188042,-8.565791
660,1747533766220,2.1736959,1.4590963,1.37099155,8.5607315,1.92093815,-8.419317
661,1747533766230,1.6393324,1.3374337,1.3874654,8.257398,2.8900626,-6.6312714
662,1747533766240,1.51535135,1.34438935,1.4004005,7.819574,3.0157638,-6.0325927
663,1747533766250,1.1912434,1.3481722,1.4911898,6.71862285,3.0775491500000003,-4.69328885
664,1747533766260,1.1631769,1.3908823,1.5751455,5.093562,2.3973777,-3.0477216
665,1747533766270,1.3152245,1.2739788,1.7669744,4.2759714,1.4466292,-2.4980452
666,1747533766280,1.4128474,1.0762925,1.9431838,3.3923347,0.08681905,-2.4724789
667,1747533766290,1.41675235,0.90520837,2.0052964,3.33800615,0.0545948025,-2.57154845
668,1747533766300,1.3284036,0.37145513,2.2148197,3.3545177,0.23062976,-2.8000476
669,1747533766310,1.3307221,0.21928544,2.31110015,3.47515895,0.340351995,-2.83839715
670,1747533766320,1.4497001,0.025381953,2.6882906,3.9473374,0.5187838,-2.858637
671,1747533766330,1.8445847,0.26968327,2.8037298,4.2573295,-1.2202604,-2.2205439
672,1747533766340,2.4679067,0.44394013,3.0092258,3.8679752,-3.1569111,-1.9259981
673,1747533766350,2.74100685,0.522038445,3.17506275,3.5902076000000003,-4.12949755,-1.72173365
674,1747533766360,3.5798317,0.75401485,3.74896345,3.037868,-5.7492322,-1.152349815
675,1747533766370,4.7866945,1.1519502,4.566555,2.0660803,-5.573996,0.7233146
676,1747533766380,5.0114713,1.5529363,4.7293415,1.7065537,-3.6197686,1.1978899
677,1747533766390,4.92348865,1.7647780000000002,4.70676615,1.3845775,-2.3174828,1.36247325
678,1747533766400,4.583395,2.362718,4.413043,-0.29933932,2.0809941,1.7283915
679,1747533766410,4.3861966,2.702934,3.912238,-1.04981811,2.79205805,1.72306525
680,1747533766420,3.7060094,2.7734666,2.9181926,-5.129781,3.7774277,2.2295985
681,1747533766430,3.4475524,2.6077516,2.6289847,-6.3500414,3.1111047,2.854376
682,1747533766440,3.2786648,2.3981063,2.4398403,-7.0552464,2.095908,3.5228295
683,1747533766450,3.2757363,2.1496563,2.2143314,-7.433948,0.93157375,4.027765
684,1747533766460,3.1397965,1.8270127,2.0525215,-7.7237,-1.0146644,4.7175236
685,1747533766470,3.1583447,1.7201155,2.058867,-7.758321,-1.4945661,4.9779806
686,1747533766480,3.155172,1.6510473,2.085225,-7.7822895,-1.4487597,5.2618737
687,1747533766490,3.15761265,1.6361598000000002,2.046054,-7.829693750000001,-1.200020415,5.365736849999999
688,1747533766500,3.132963,1.560502,1.909992,-7.933557,-0.637560755,5.583849799999999
689,1747533766510,2.830088,1.4077222,1.5866162,-8.058725,0.06338324,6.0240703
690,1747533766520,2.7333192,1.37135765,1.4145558,-8.270979,-0.101999065,6.564159399999999
691,1747533766530,2.4508228,1.2388345,0.9776934,-8.9285145,-1.0061423,7.777496
692,1747533766540,2.3798022000000003,1.20515465,0.87360295,-9.18124825,-1.56833565,8.10746175
693,1747533766550,2.2781523000000004,1.1119248,0.6749403300000001,-9.902165,-3.4653053,8.979647
694,1747533766560,2.2031047,0.8993509,0.47737598,-10.192451,-5.0482883,9.47819
695,1747533766570,2.2062776,0.6233222,0.5261874,-9.588446,-6.792126,10.018812
696,1747533766580,2.1769907,0.5620638,0.54156303,-8.883241,-7.325291,10.231865
697,1747533766590,2.1531951,0.5795139,0.51007965,-8.485897,-7.476026,10.332799
698,1747533766600,2.18223795,0.5924489500000001,0.4404013,-7.707454699999999,-7.7284937,10.478474
699,1747533766610,2.1747942,0.6230781,0.40659937,-6.572682,-7.803062,10.644122
700,1747533766620,2.1096308,0.65944266,0.39927766,-4.9811764,-7.422763,10.905644
701,1747533766630,2.1208575,0.6892177,0.39024755,-4.104464,-6.9423285,10.948788
702,1747533766640,2.1193931,0.720701075,0.3998878,-3.7630467,-6.73273775,10.8776815
703,1747533766650,2.1312298500000004,0.780128975,0.40586719,-3.1143006,-6.3180835,10.651579
704,1747533766660,2.118417,0.8912971,0.3184947,-2.3414512,-5.7950387,10.137056
705,1747533766670,1.9929714,0.83809257,0.19719826,-1.7283915,-5.5953016,9.511213
706,1747533766680,1.9409873,0.84199744,0.13789235,-1.4807175,-5.7023606,9.237441
707,1747533766690,1.8907114,0.7919658,0.039537273,-1.3305153,-5.9660134,9.014268
708,1747533766700,1.8836339,0.73436826,0.00097622897,-1.2218584,-6.295713,8.837967
709,1747533766710,1.9836973,0.7043492,0.0370967,-0.8431568,-6.5513763,8.434232
710,1747533766720,1.9985847,0.6518769,-0.021721095,-0.6396913,-6.4730797,8.3996105
711,1747533766730,2.1047497,0.626495,-0.14789869,-0.55979645,-6.4480457,8.406534
712,1747533766740,2.250696,0.74291027,-0.22111587,-0.58749336,-6.451774,8.381501
713,1747533766750,2.39652015,0.885317685,-0.241128555,-0.71026508,-6.2009043,8.115451
714,1747533766760,2.515498,1.044565,-0.22428861,-0.98590225,-5.3055496,7.2560487
715,1747533766770,2.4703475,1.002221065,-0.16693516,-0.99176121,-4.94895245,6.8845377
716,1747533766780,2.1642997,0.8346757,0.060038086,-0.70467246,-4.049603,5.810485
717,1747533766790,1.6444578,0.65065664,0.16742326,0.65194184,-3.482882,4.835768
718,1747533766800,1.4167523,0.62356627,0.16888762,1.1158645,-3.3880737,4.6781087
719,1747533766810,1.3092451,0.649314315,0.17742962,1.23437515,-3.3143041,4.65920035
720,1747533766820,1.10082025,0.70788808,0.190364655,1.35315215,-3.236806,4.66719
721,1747533766830,0.91021153,0.74827955,0.184873365,1.1797804,-3.4104443,4.8245826
722,1747533766840,0.82052046,0.7558453,0.17498904,1.1797804,-3.4104443,4.8245826
723,1747533766850,0.5337532,1.1338899,0.36974674,0.19441076,-3.9228363,4.891162
724,1747533766860,0.40952805,1.343291,0.5618198,0.063383235,-3.8296257,4.625112
725,1747533766870,0.14863087,1.5697763,0.81368685,-0.018109497,-3.3699641,3.849333
726,1747533766880,-0.12593354,2.0142045,1.1441404,0.31851408,-2.8453214,3.2767534
727,1747533766890,-0.21367212,2.09840425,1.2064970499999998,0.89162634,-2.44584725,2.65730215
728,1747533766900,-0.5623079,2.3307467,1.4374971,1.4647386,-2.0463731,2.0378509
729,1747533766910,-0.8097819,2.5035393,1.6576368,1.991512,-1.7449032,1.4833808
730,1747533766920,-1.0218678,2.6489973,1.7930887,2.5891252,-1.087635,0.53529537
731,1747533766930,-1.1111927,2.775419,1.8736275,2.402704,-0.78776306,-0.056459017
732,1747533766940,-1.1111927,2.775419,1.8736275,2.402704,-0.78776306,-0.056459017
733,1747533766950,-1.5592817,2.980427,2.3685756,0.9257148,-0.27004454,-1.748099
734,1747533766960,-1.534388,2.954313,2.4835265,0.53955644,0.14434333,-2.2556975
735,1747533766970,-1.5783182,2.857422,2.5801733,0.39787626,0.64182186,-2.6855316
736,1747533766980,-1.7969936,2.6338658,2.6914632,0.5581986,1.4546186,-3.1521175
737,1747533766990,-1.7852788,2.592132,2.5860307,0.57790595,1.917476,-3.3284187
738,1747533767000,-1.7062042,2.5672383,2.4100654,0.479901625,2.11854475,-3.46477255
739,1747533767010,-1.5722169,2.5355108,2.217016,-0.1257012,2.672216,-4.1167145
740,1747533767020,-1.172695,2.3656468,1.8043152,-1.33957,3.3422673,-5.1521516
741,1747533767030,-0.98452693,2.2243378,1.6898522,-1.7997643,3.901531,-5.611813
742,1747533767040,-0.869453935,2.1419685,1.6062627,-1.9001655,4.18489135,-5.792908
743,1747533767050,-0.4915313,1.897057,1.343291,-1.9265307,5.038701,-6.291452
744,1747533767060,-0.15229172,1.7633137,1.1077759,-1.6202673,5.6038237,-6.6115637
745,1747533767070,0.42368335,1.581979,0.62478656,-1.1622036,6.1375213,-6.9156966
746,1747533767080,0.7382732,1.547567,0.36437747,-0.13954964,6.764429,-7.5649757
747,1747533767090,0.9161909,1.52804245,0.22868164,0.10546118,6.791593499999999,-7.80545885
748,1747533767100,1.4038173,1.4721533,-0.093473926,0.6599313,6.7212863,-8.505072
749,1747533767110,1.6630061,1.4445748,-0.22331238,0.91186637,6.564692,-8.97219
750,1747533767120,2.055206,1.3406065,-0.47932845,0.9438243,6.1242056,-9.619338
751,1747533767130,2.170401,1.2949678,-0.5793919,0.6860303,5.7055564,-9.725332
752,1747533767140,2.2156736500000003,1.27251455,-0.60477388,0.5054679799999999,5.43737605,-9.727196
753,1747533767150,2.3502712,1.2124764,-0.5857374,-0.028229509,4.614193,-9.690178
754,1747533767160,2.4691272,1.1631769,-0.49104318,-0.283893,4.2264366,-9.580456
755,1747533767170,2.5906677,0.92961407,-0.15229172,0.02130529,4.0687776,-8.927981
756,1747533767180,2.6352081,0.878239985,-0.09200958,0.267381395,4.1454766,-8.787366
757,1747533767190,2.7217264,0.8131987,0.020012695,0.8162589,4.375307299999999,-8.5897595
758,1747533767200,2.7940893,0.80746337,0.12166254,1.45515125,4.7284425,-8.564726
759,1747533767210,2.826427,0.8339436,0.18523945,2.339587,5.111139,-8.7977525
760,1747533767220,2.7195299,0.84150934,0.20305562,3.2368062,5.1809134,-9.141567
761,1747533767230,2.5911558,0.88055855,0.22819352,3.4418695,4.8064733,-9.144763
762,1747533767240,2.4571683,0.9689073,0.1598575,3.35505045,4.450142400000001,-9.002017500000001
763,1747533767250,2.2531364,1.0704352,-0.03294773,2.5438516,3.1286817,-8.303204
764,1747533767260,2.2309272,1.0908139499999998,-0.13362134,1.247691034,1.888447575,-7.6869485
765,1747533767270,2.3007276,1.0431006,0.08639627,-1.0056096,-0.18855181,-6.650446
766,1747533767280,2.4405725,0.8917852,0.40049794,-1.4769892,-0.54914385,-6.4118266
767,1747533767290,2.4996344,0.81783585,0.50251387,-1.5073492000000002,-0.470580575,-6.3830645
768,1747533767300,2.5907898,0.7084982,0.65504965,-1.4002901,-0.087351675,-6.3830645
769,1747533767310,2.6370385,0.58964235,0.7455949,-0.757403,1.1653993,-6.5609636
770,1747533767320,2.459365,0.39878955,0.49104318,0.5928197,3.0663638,-6.8405957
771,1747533767330,2.2414217,0.2860351,0.30555966,0.98856544,3.3992589,-6.681339
772,1747533767340,2.16076075,0.2212379,0.234539005,1.13131087,3.4155041,-6.48373235
773,1747533767350,1.9905309,0.0693122605,0.113852705,1.3619406,3.33587565,-6.02353785
774,1747533767360,1.9234152,-0.27822527,0.07224095,1.6010925,2.3020365,-4.9902315
775,1747533767370,1.9536783,-0.37243137,0.29213652,1.9158782,1.8429075,-4.8512144
776,1747533767380,1.9541665,-0.43051702,0.336799,2.0964405,1.69030835,-4.764128899999999
777,1747533767390,1.97137245,-0.42905266,0.328745115,2.3853935,1.5126755,-4.5180527
778,1747533767400,2.0153027,-0.41477529,0.32044718,2.4807347,1.53424715,-4.18063035
779,1747533767410,2.2441063,-0.4881145,0.3385074,2.2817966,1.7606159,-3.6474656
780,1747533767420,2.3441699,-0.5181335,0.39317623,1.9941751,1.9947077,-3.1025827
781,1747533767430,2.3090258,-0.58280873,0.281398,1.93079185,1.8663433,-3.0051110000000003
782,1747533767440,2.3115883000000004,-0.623078165,0.2080588049999999,1.75049585,1.49057125,-2.82747815
783,1747533767450,2.35869135,-0.7012985,0.100307535,1.47672285,0.9406285,-2.7198865
784,1747533767460,2.6973207,-0.93181056,0.058817793,0.7797736,-0.24394555,-2.8101676
785,1747533767470,2.9660277,-1.0906918,0.117391534,0.7685883,-0.5400891,-2.9710226
786,1747533767480,3.200811,-1.2437156,0.1300825,0.95447695,-0.58269966,-3.1164312
787,1747533767490,3.30477935,-1.30680445,0.12715382,1.083107625,-0.55606803,-3.1550471
788,1747533767500,3.6669602,-1.4924101,0.10396838,1.3076121,-0.523577475,-3.1678303
789,1747533767510,4.5987706,-1.6503152,0.35949633,1.568602,-1.0274476,-2.6439865
790,1747533767520,4.9760833,-1.58564,0.4729829,1.5622103,-1.1286477,-2.150769
791,1747533767530,5.195735,-1.479475,0.5703618,1.4737934,-0.96939063,-1.5691346
792,1747533767540,5.294334,-1.3288918,0.6203935,0.74035877,-0.54435015,-0.40213734
793,1747533767550,5.1688886,-1.3093672,0.51666915,0.080960095,-0.628506,0.118776985
794,1747533767560,4.9528975,-1.2944796,0.44101146,-0.61412495,-0.72491246,0.80533993
795,1747533767570,4.6536837,-1.2642165,0.34460884,-1.2133362,-0.6993461,1.6229304
796,1747533767580,4.170206,-1.2071072,0.20671648,-1.43544385,-0.7115966499999999,1.98858245
797,1747533767590,4.0238938,-1.1706206,0.176331355,-1.7515611,-0.7275756250000001,2.9129657
798,1747533767600,3.76043405,-1.0854446,0.128130055,-1.74969685,-0.7696535600000001,3.69007615
799,1747533767610,3.4258318,-0.9340071,0.058817793,-1.4168017,-0.94488955,4.2951465
800,1747533767620,3.27476,-0.8266219,0.034168016,-1.1627362,-1.1723236,4.6845
801,1747533767630,3.1540737,-0.7004443,0.057719538,-0.9917612,-1.4604776,5.2379055
802,1747533767640,2.950408,-0.47151858,0.10884953,-1.0780476,-1.5009576,5.5084825
803,1747533767650,2.8951291,-0.42160888,0.129838455,-1.15581195,-1.4956313,5.64297225
804,1747533767660,2.7793241,-0.32715873,0.17084007,-1.4301175,-1.5297197,6.0469737
805,1747533767670,2.6204426,-0.22819352,0.19134088,-1.6580842,-1.6607473,6.310094
806,1747533767680,2.5202571,-0.18682582,0.18792408,-2.0793962,-1.9750003,6.821421
807,1747533767690,2.36027765,-0.132401058,0.19085277,-2.1244037,-2.03971515,6.9734875
808,1747533767700,2.3004837,-0.119343996,0.19719826,-2.1694112,-2.10443,7.125554
809,1747533767710,2.0520332,0.0043930304,0.18401916,-2.0112193,-2.1108215,7.4477963
810,1747533767720,1.9456245,0.09493827,0.16034561,-1.9241339,-2.09617415,7.49386915
811,1747533767730,1.8611806,0.17206036,0.137038145,-1.6365125,-2.1923143,7.6222335
812,1747533767740,1.7515988,0.282618295,0.10714113,-1.3179984500000002,-2.3891219,7.7444725
813,1747533767750,1.7232881999999998,0.357299805,0.10628693,-1.07059078,-2.541721,7.806258
814,1747533767760,1.7384197,0.46883395,0.117879644,-0.6870956,-2.7174897,7.8488684
815,1747533767770,1.7622152999999998,0.4938498249999999,0.1120222695,-0.48629323,-2.7941887,7.85526
816,1747533767780,1.8299413,0.5950116,0.10543273,-0.26738137,-2.769155,7.81478
817,1747533767790,1.8583739,0.6013570749999999,0.12300485,-0.23675502,-2.7198865000000003,7.7916105
818,1747533767800,1.8993755,0.608434705,0.166569065,-0.159523352,-2.5995116,7.727162
819,1747533767810,1.8826576,0.59061855,0.21599068,-0.0479369015,-2.4402546000000003,7.64487025
820,1747533767820,1.8115149,0.547176375,0.269683265,0.2838929805,-2.10735945,7.58681345
821,1747533767830,1.7796655,0.47639978,0.27871338,0.71772194,-1.7702032,7.588411349999999
822,1747533767840,1.82676855,0.48652814,0.248816365,1.034105475,-1.5997609000000002,7.59267235
823,1747533767850,1.9312251,0.50617474,0.153512,1.3289174,-1.4538197,7.5471325
824,1747533767860,1.9717386,0.4949481,0.04271002,1.5289208,-1.3840449,7.51197865
825,1747533767870,2.1142678,0.53009236,-0.18279888,1.5110776,-1.4226607,7.555388
826,1747533767880,2.12403,0.5344854,-0.25796852,0.7850999,-1.514806,7.688546
827,1747533767890,2.0755848500000003,0.50361213,-0.244545365,0.57604175,-1.5970977,7.77350085
828,1747533767900,2.0140825500000004,0.45077373,-0.208058805,0.229031857,-1.78964425,7.95353085
829,1747533767910,1.9815009,0.41196862,-0.14789869,-0.05486112,-2.0953753,8.174307
830,1747533767920,1.8643533,0.3863426,-0.0707766,0.041545313,-2.4261398,8.223842
831,1747533767930,1.7684387,0.4075756,-0.07468152,0.1014664365,-2.4477114,8.2102595
832,1747533767940,1.72585085,0.4230732499999999,-0.091033358,0.20959078,-2.4865935,8.178567999999999
833,1747533767950,1.649583,0.45272619,-0.141797263,0.28575719,-2.5086977,8.1175815
834,1747533767960,1.624201,0.6023333,-0.2630937,0.2876214,-2.5092304,7.823835
835,1747533767970,1.4899695,0.70996255,-0.3333822,-0.04314321,-2.3398533,7.0754867
836,1747533767980,1.40088865,0.729853225,-0.37218729,-0.225037105,-2.2082931500000003,6.9633675
837,1747533767990,1.2237030999999998,0.771220935,-0.421486865,-0.59814597,-1.9358518,6.78466915
838,1747533768000,1.049324175,0.814052985,-0.39134581,-0.91399692,-1.73691365,6.6541743
839,1747533768010,0.5464442,0.9776934,-0.13203497,-1.0807108,-1.7337179,6.4134245
840,1747533768020,0.28505886,1.1124129,-0.018060237,-0.7661914700000001,-1.82932535,6.2943814
841,1747533768030,0.012446919,1.3113196,0.051007964,-0.008522116,-1.9446403,6.040582
842,1747533768040,-0.1127544505,1.4628792000000002,0.058451712,0.1470065019999999,-1.87859385,5.95030085
843,1747533768050,-0.370600945,1.8129794,0.0314833865,0.315051975,-1.7539579,5.74337315
844,1747533768060,-1.0538392,2.7258754,-0.19548985,0.0087884349999999,-1.65515465,5.3761232
845,1747533768070,-1.2141849,3.005565,0.07248501,-0.32597092,-1.7486316,4.7175236
846,1747533768080,-1.36464615,3.17188995,0.228071505,-0.07723167,-1.7739316,4.4181843
847,1747533768090,-1.6359157,3.4604876,0.46712557,0.46472161,-1.6682041,3.86291515
848,1747533768100,-1.90730735,3.700762,0.65407342,1.12092452,-1.3291837,3.35771345
849,1747533768110,-2.5550354,4.1035786,0.9479183,1.8287928,-0.90627373,2.82481505
850,1747533768120,-2.869625,4.225119,0.92497694,2.8613002,-0.13369069,1.0844392
851,1747533768130,-2.9147756,4.2351255,0.84663457,2.5577,-0.032490566,0.0974717
852,1747533768140,-2.87438415,4.21279425,0.873846935,2.24824065,-0.064182183,-0.48283115
853,1747533768150,-2.76956165,4.1288385000000005,0.92888187,1.5656724,-0.131027525,-1.6253272500000002
854,1747533768160,-2.2377608,3.5500567,0.916679,0.16724652,-0.08948222,-3.2980587
855,1747533768170,-1.9107243,3.2496223,0.88373125,-1.1659319,0.15393071,-4.442153
856,1747533768180,-1.73732155,3.0918393,0.8736029,-1.3486248,0.2316950199999999,-4.622715250000001
857,1747533768190,-1.38917385,2.7727344,0.84089926,-1.61281045,0.404267865,-4.95987125
858,1747533768200,-1.01100715,2.45875475,0.773295405,-1.70761895,0.59601547,-5.26693365
859,1747533768210,-0.49543622,2.0659447,0.6033095,-1.7006947,0.8404937,-5.680523
860,1747533768220,0.107873306,1.7054721,0.3436326,-1.6927053,0.9491506,-6.0544305
861,1747533768230,0.276028743,1.64628815,0.285546975,-1.7062874,0.96299905,-6.1788001
862,1747533768240,0.628935515,1.52023255,0.169253698,-1.72732635,0.96912433,-6.4128921000000005
863,1747533768250,0.973910425,1.3861231,0.0573534522999999,-1.7318537,0.95234641,-6.635266100000001
864,1747533768260,1.25994555,1.24347165,-0.0411236457,-1.7222663,0.95181378,-6.8557756
865,1747533768270,1.6786258,0.9061846,-0.14374973,-1.5084145,1.0146644,-7.314106
866,1747533768280,1.72975575,0.86945395,-0.1538781,-1.4378407,1.07005815,-7.39133765
867,1747533768290,1.8298192,0.8070973,-0.17084007,-1.2977584,1.23197835,-7.57056835
868,1747533768300,1.909992,0.7739055,-0.102504045,-1.0231866,1.627724,-7.8968053
869,1747533768310,1.9775959,0.82344913,-0.14204131,-0.28122982,2.3398533,-8.335694
870,1747533768320,2.0322647,0.86298645,-0.18157859,0.06711166,2.6349316,-8.564194
871,1747533768330,2.0445895,0.868599775,-0.19695419,0.2231729,2.75610545,-8.703211
872,1747533768340,2.0735104,0.87274873,-0.24942651,0.505734295,2.9835394500000003,-8.998022500000001
873,1747533768350,2.1013329,0.85554269,-0.258334605,0.8615326249999999,3.2783514,-9.382849
874,1747533768360,2.1325722,0.77146494,-0.18816814,1.4626081,3.709251,-9.648633
875,1747533768370,2.1198812,0.70239675,-0.06443111,2.021872,3.9153795,-9.557552
876,1747533768380,2.11292565,0.678113045,-0.048079275,2.819755,4.0384173,-9.396698
877,1747533768390,2.10121095,0.64162652,-0.0356323565,3.1105722,4.02163965,-9.356218
878,1747533768400,2.08388285,0.64455522,-0.032825699,3.6437371,3.91591225,-9.2976285
879,1747533768410,1.9119445,0.71118283,-0.025870068,4.4208474,3.106311,-9.208146
880,1747533768420,1.8306733,0.76194674,-0.013179091,4.4725127,2.6152241,-9.102685
881,1747533768430,1.8240839,0.9113098,0.016595893,4.434695850000001,2.3252059,-9.0358395
882,1747533768440,1.8581299,0.9560943,0.0452726185,4.19447875,1.4548849,-8.866462
883,1747533768450,1.93146915,1.02296595,0.100429552,3.85146365,0.606135465,-8.714662
884,1747533768460,2.0566704,1.0575,0.22526483,3.3529198,-0.18535602,-8.534899
885,1747533768470,2.136233,1.053107,0.3577879,3.202185,-0.3568636,-8.370316
886,1747533768480,2.2023725,1.018694925,0.48591795,3.23467555,-0.2098571,-8.1705787
887,1747533768490,2.268512,0.98428285,0.614048,3.26610085,0.1012001299999999,-7.83661795
888,1747533768500,2.3002396,0.9601213,0.64016217,3.1486554,0.4042678799999999,-7.522364749999999
889,1747533768510,2.32879435,0.9454778,0.54424765,2.8114991,0.6277071,-7.1362065
890,1747533768520,2.400547,0.9279056,0.53106856,2.0527647,0.6327671,-6.4890585
891,1747533768530,2.6194663,0.88007045,0.4756676,0.8831042,-0.075101145,-5.6853166
892,1747533768540,2.6919515,0.82247293,0.36730617,0.3717773,-0.52411014,-5.4419036
893,1747533768550,2.7017138,0.7558453,0.25723633,-0.091080114,-0.9395633,-5.220861
894,1747533768560,2.70391,0.67530644,0.18475133,-0.43995422,-1.3171995,-5.031244
895,1747533768570,2.710988,0.5876899,0.15082738,-0.6354303,-1.6932379,-4.8767805
896,1747533768580,2.830576,0.5404648,0.23490511,-0.5811018,-2.01761085,-4.8802426
897,1747533768590,2.950164,0.4932397,0.31898284,-0.5267733,-2.3419838,-4.8837047
898,1747533768600,3.3279647,0.4152634,0.42392744,-0.119842245,-2.2455774,-5.407814999999999
899,1747533768610,3.6686685,0.268463,0.4886026,0.64555025,-1.7795243,-6.142315
900,1747533768620,4.126764,-0.12520137,0.45785138,1.2255868,-1.5680692,-6.469351
901,1747533768630,4.2727103,-0.23893206,0.36413342,2.368083,-1.4258565,-6.532202
902,1747533768640,4.31041715,-0.29982433,0.2945771,2.51056205,-1.49643025,-6.41555535
903,1747533768650,4.383146,-0.428198435,0.156684752,2.66902005,-1.7025589,-6.14444535
904,1747533768660,4.52775,-0.6897058,-0.03099527,2.54758,-2.120409,-5.6810555
905,1747533768670,5.1559534,-1.0330943,0.29579738,2.6144253,-2.4066988,-5.45495295
906,1747533768680,5.4605365,-1.325963,0.6816519,3.2671661,-2.7611654,-5.116465
907,1747533768690,5.6059947,-1.7340268,1.125348,4.5742455,-2.183792,-4.8725195
908,1747533768700,5.59354785,-1.84141195,1.2579931,5.06533245,-1.69749885,-4.63097095
909,1747533768710,5.213063,-1.8133454,1.4121152,5.8850536,0.19707392,-3.4429348
910,1747533768720,4.1116323,-1.5907651,1.4104068,3.85679,2.763296,-0.2444782
911,1747533768730,3.92883335,-1.42309785,1.33182035,2.8144287,2.9201562,0.54621435
912,1747533768740,3.64828955,-1.108142,1.2105239,0.68523135,2.9230857,1.9811256
913,1747533768750,3.44987115,-0.88861245,1.17928455,-1.27165935,2.46315775,3.15478075
914,1747533768760,3.291234,-0.79916545,1.2454241,-2.6581010000000003,1.82719485,4.1002029
915,1747533768770,3.2476697,-0.7402256,1.3030217,-3.244263,0.46019423,5.4578824
916,1747533768780,3.25218475,-0.7152097500000001,1.28008025,-2.9803437500000003,0.403735215,5.500493049999999
917,1747533768790,3.25828625,-0.64784995,1.25262375,-2.39950825,0.40559944,5.56733835
918,1747533768800,3.2165525,-0.55523023,1.2384685,-1.7939053,0.62930499,5.6592175000000005
919,1747533768810,3.0709722,-0.34119204,1.0963051,-1.2591426,1.2644689,5.9574914
920,1747533768820,2.8840246,0.012202863,0.90691674,-1.784318,2.0516994,6.6397934
921,1747533768830,2.8612052,0.1055547615,0.87518927,-2.04264465,2.13132785,6.8344705
922,1747533768840,2.85571385,0.28359453,0.8101480249999999,-2.62561065,2.20003735,7.2659025
923,1747533768850,2.9346663,0.463098625,0.7371749249999999,-3.1499870000000003,2.1337247,7.6667082
924,1747533768860,3.2300978,0.9096014,0.5762192,-3.7790256,1.4434333,8.516789
925,1747533768870,3.3577394,1.0409042,0.47859627,-3.9484026,1.0205233,8.870457
926,1747533768880,3.3897111,1.1631769,0.43246946,-3.99633965,0.796018835,9.05900875
927,1747533768890,3.40203595,1.20686315,0.401962295,-4.06291865,0.35260253,9.42865575
928,1747533768900,3.4285164,1.330112,0.33118567,-4.085289,-0.30306774,9.906426
929,1747533768910,3.3408997,1.4187049,0.2550398,-3.9851544,-1.0013486,10.329337
930,1747533768920,3.2939186,1.41357965,0.245155485,-3.9033953,-1.1158645,10.367953
931,1747533768930,3.1271055,1.4008886,0.21745501,-3.6053874,-1.3720607,10.408166
932,1747533768940,2.9772544,1.3864892,0.18109047,-3.3699641,-1.4317155,10.349577
933,1747533768950,2.8850007,1.3670866,0.14509203,-3.26450285,-1.4421018,10.297645
934,1747533768960,2.536975,1.23615,0.009030119,-2.7851338,-1.5744609,9.857957
935,1747533768970,2.5442967,1.201982,-0.03465613,-2.5784726,-1.7305222,9.529324
936,1747533768980,2.3837073,1.1490215,-0.08981306,-2.4176178,-2.004295,9.257681
937,1747533768990,2.2660715500000004,1.0795872,-0.160711695,-2.3931167,-2.2160163500000003,9.208146
938,1747533769000,2.1146339000000003,0.9790356,-0.229413815,-2.3009713,-2.769155,8.958874
939,1747533769010,1.7938206,0.8851956,-0.13447554,-1.8263959,-3.0003173,8.57964
940,1747533769020,1.6083373,0.82857436,-0.13838045,-1.5073493,-2.882073,8.347945
941,1747533769030,1.5177920500000002,0.79867733,-0.1386245099999999,-1.33317855,-2.79765075,8.2297005
942,1747533769040,1.4272468,0.7687803,-0.13886857,-1.1590078,-2.7132285,8.111456
943,1747533769050,1.16549535,0.703861085,-0.210011265,-0.690824005,-2.51988305,7.74580425
944,1747533769060,0.8988628,0.67042524,-0.32508424,-0.38456047,-2.5662222,6.983341
945,1747533769070,0.852492,0.6631035,-0.32337585,-0.39787626,-2.6903255,6.6456523
946,1747533769080,0.84199744,0.67628264,-0.30214286,-0.39894155,-2.7478497,6.456568
947,1747533769090,0.842241495,0.664811935,-0.28152003,-0.3832289,-2.7401265,6.3889235
948,1747533769100,0.83296734,0.64711779,-0.215136465,-0.33316146,-2.6642264,6.26189065
949,1747533769110,0.6535853,0.64187056,-0.062478654,-0.1949434,-2.3174827,6.123673
950,1747533769120,0.5779276,0.68482465,-0.07834238,-0.066046394,-1.716141,6.1162157
951,1747533769130,0.51398456,0.7397375,-0.084931925,-0.10652645,-1.5153387,6.0501695
952,1747533769140,0.35705575,0.82393724,0.0156196635,-0.0953411724999999,-1.4594123,5.99051475
953,1747533769150,0.248572305,0.8662812200000001,0.09078929675,0.13901702,-1.4290522,5.732721
954,1747533769160,-0.33899552,1.074096,0.3738957,0.6199839,-1.2926984,5.372661
955,1747533769170,-0.61966133,1.1968567,0.44320798,0.6743124,-0.99708754,5.2395034
956,1747533769180,-0.7895252,1.2927712,0.48396555,0.6018744,-0.71159667,5.093562
957,1747533769190,-1.0814177,1.4504322,0.5959878,0.45806372,-0.4543353,4.751612
958,1747533769200,-1.0814177,1.4504322,0.5959878,0.45806372,-0.4543353,4.751612
959,1747533769210,-1.1050912,1.5314592,0.6274712,0.45593318,-0.33449304,4.454936
960,1747533769220,-1.2610438,1.7345148,0.694831,0.6578008,0.08522116,3.6927392
961,1747533769230,-1.3079028,1.8616686,0.6462636,0.7259777,0.47990164,3.371562
962,1747533769240,-1.3794116,1.9612441,0.5527897,0.8175905,1.1851068,2.5529063
963,1747533769250,-1.4289552,1.9546545,0.46614933,0.7797736,1.3752564,2.062352
964,1747533769260,-1.483624,1.9417195,0.35241866,0.68656296,1.4290522,1.5749935
965,1747533769270,-1.4865527,1.9131647,0.2438132,0.5251754,1.3401027,1.0940266
966,1747533769280,-1.4543371,1.8626448,0.14423785,0.3009372,1.154214,0.62104917
967,1747533769290,-1.3276714,1.7518429,0.025137896,-0.24501082,0.5954828,-0.47031426
968,1747533769300,-1.2132086,1.6717921,0.010494461,-0.44101948,0.37017938,-0.99069595
969,1747533769310,-1.1260802,1.5897889,0.033923957,-0.55766594,0.19973709,-1.4705976
970,1747533769320,-1.0511546,1.4787428,0.055400997,-0.60080916,0.103863284,-1.8801918
971,1747533769330,-0.87640953,1.240543,0.09884319,-0.5028048,0.1107875,-2.515622
972,1747533769340,-0.8167375649999999,1.1906333,0.108605475,-0.44341632,0.136620165,-2.6503779
973,1747533769350,-0.6635916,1.0548154,0.12837411,-0.25406557,0.22370553,-3.0322752
974,1747533769360,-0.6173427499999999,1.01662045,0.12690977,-0.19707392,0.258859265,-3.1427964
975,1747533769370,-0.48518583,0.9183875,0.1313028,-0.032490566,0.40852892,-3.5052526
976,1747533769380,-0.30360723,0.79318607,0.16449459,0.07882957,0.60933125,-3.8743668
977,1747533769390,-0.22697324,0.74510676,0.17987019,0.099602225,0.664991325,-3.96518065
978,1747533769400,-0.19854057,0.71887061,0.19317131,0.146207545,0.77444727,-4.139617749999999
979,1747533769410,-0.141553205,0.6639577299999999,0.219895575,0.20905815,0.887099,-4.3002062500000005
980,1747533769420,0.014643434,0.54839665,0.28237423,0.34993938,1.0972224,-4.524178
981,1747533769430,0.062478654,0.51471674,0.30019042,0.63649553,1.4993597,-4.80381
982,1747533769440,0.10030753,0.485918,0.31263736,0.8127968,1.7246631,-4.932707
983,1747533769450,0.14399378,0.46688148,0.31483385,1.0679276,2.0240026,-5.0887685
984,1747533769460,0.18694785,0.4729829,0.31263736,1.2953615,2.2748723,-5.2144694
985,1747533769470,0.26968327,0.49055508,0.27432033,1.6873789,2.6716833,-5.5138087
986,1747533769480,0.31312546,0.51666915,0.22648512,1.8008295,2.8373318,-5.6980996
987,1747533769490,0.31312546,0.51666915,0.22648512,1.8008295,2.8373318,-5.6980996
988,1747533769500,0.39586085,0.5835408550000001,0.168643555,1.8477012,3.05810795,-5.999303149999999
989,1747533769510,0.4720067,0.62356627,0.12373702,1.8184065,3.213903,-6.311159
990,1747533769520,0.6460195,0.6867771,0.045882765,1.6160061,3.216566,-6.8549767
991,1747533769530,0.7485236,0.6970275,0.033435844,1.5110776,3.1265512,-7.1607075
992,1747533769540,0.7900133149999999,0.6851906999999999,0.052350279,1.490305,3.0775490000000003,-7.32049725
993,1747533769550,0.91155386,0.6216138,0.13740423,1.536644,2.9678268,-7.7721696
994,1747533769560,0.99917036,0.59232694,0.21159762,1.7193369,3.0621028,-8.033159
995,1747533769570,1.3066825,0.5706058,0.29116032,2.382464,3.522297,-8.530106
996,1747533769580,1.4012546499999998,0.5708498500000001,0.27273399,2.5766085,3.62376335,-8.662198499999999
997,1747533769590,1.6593453,0.58964235,0.17523311,3.0498521,3.9164448,-9.053682
998,1747533769600,1.6593453,0.58964235,0.17523311,3.0498521,3.9164448,-9.053682
999,1747533769610,2.0523993,0.687509285,0.0035388299999999,3.1236217,4.230165250000001,-9.63079
1000,1747533769620,2.5594285,0.7480355,-0.10982577,2.8469193,4.1923485,-10.4779415
