timestamp,acc_x,acc_y,acc_z,gyro_x,gyro_y,gyro_z,id
1747533017880,-0.4740812049999999,0.6842145150000001,0.475789615,0.82664522,1.177117235,-0.0367516235,1
1747533017890,0.053692598,-0.0605262,-1.0340706,0.83889574,0.82078624,-0.7685883,2
1747533017900,0.0434421915,-0.061746485,-1.011129165,0.7946872700000001,0.743021935,-0.8279768000000001,3
1747533017910,0.0117147475,-0.080538895,-0.96097535,0.7110639999999999,0.5536711950000001,-0.93317167,4
1747533017920,-0.00976229,-0.09811102,-0.93376297,0.6716492,0.44208476,-0.97897804,5
1747533017930,-0.08981306,-0.14301755,-0.8341876,0.6178534,-0.18002969,-1.1121361,6
1747533017940,-0.123492965,-0.15448824,-0.844194,0.6207828799999999,-0.21172131,-1.09642345,7
1747533017950,-0.1901206,-0.172304415,-0.87287073,0.61465761,-0.2479402949999999,-1.0394318,8
1747533017960,-0.30555966,-0.19768637,-0.93205464,0.54435015,-0.2428803,-0.87032104,9
1747533017970,-0.32239963,-0.242958985,-0.95560617,0.404267865,-0.26525085,-0.74941352,10
1747533017980,-0.3147118399999999,-0.328257,-0.98635737,0.160588614,-0.3241067,-0.6615291999999999,11
1747533017990,-0.260897205,-0.4207547,-0.98550314,-0.058056916,-0.40586575,-0.803742,12
1747533018000,-0.22343442,-0.527651775,-0.96329394,-0.28362666,-0.48762482,-1.0849718,13
1747533018010,-0.283472495,-0.586957695,-0.8937376450000001,-0.462591095,-0.52490907,-1.44263435,14
1747533018020,-0.52582134,-0.51752341,-0.709718495,-0.36938046,-0.4495415899999999,-1.68498205,15
1747533018030,-0.771220875,-0.40037592,-0.564870505,-0.061252705,-0.304399315,-1.6548883,16
1747533018040,-0.887758195,-0.3217894799999999,-0.5627960350000001,0.233825545,-0.158990725,-1.43464485,17
1747533018050,-0.93547142,-0.26468009,-0.64052827,0.4902879649999999,-0.01731055,-1.1587413999999998,18
1747533018060,-0.90740485,-0.23551524,-0.7761020350000001,0.6261091999999999,0.089482215,-0.8988168999999999,19
1747533018070,-0.81356485,-0.19780839,-0.954385915,0.50813116,0.139283325,-0.61226075,20
1747533018080,-0.7303413249999999,-0.1601015499999999,-1.08251595,0.185622334,0.132359105,-0.3805657249999999,21
1747533018090,-0.69629535,-0.14619029,-1.10191845,-0.1235706759999999,0.12410331,-0.278300345,22
1747533018100,-0.685190725,-0.14228538,-1.07128925,-0.35579833,0.14274544,-0.19361182,23
1747533018110,-0.68580087,-0.154488245,-0.98769963,-0.49827743,0.148604395,-0.096406437,24
1747533018120,-0.66322559,-0.186459735,-0.87213856,-0.52677325,0.119575935,-0.0098536959999999,25
1747533018130,-0.6042857450000001,-0.21928543,-0.74620503,-0.392816265,0.0,0.070041136,26
1747533018140,-0.553887925,-0.219895575,-0.6851907349999999,-0.2063949849999999,-0.14807176,0.135554895,27
1747533018150,-0.53436335,-0.195489855,-0.722897585,-0.0862864185,-0.2247708,0.179763375,28
1747533018160,-0.51764542,-0.167057185,-0.7987994,-0.0010652634999999,-0.2431466099999999,0.2340918649999999,29
1747533018170,-0.45931572,-0.128252075,-0.9265634,0.076965358,-0.0495347949999999,0.334759355,30
1747533018180,-0.3898814499999999,-0.10604287,-1.0200373,0.157392823,0.2713761249999999,0.424507885,31
1747533018190,-0.33753118,-0.11251039,-1.0050278,0.250070835,0.516919565,0.45939529,32
1747533018200,-0.31971499,-0.122760795,-0.98965217,0.373108875,0.6796386999999999,0.4727111,33
1747533018210,-0.2839606,-0.14435986,-0.96390412,0.494282705,0.7025418999999999,0.44421528,34
1747533018220,-0.28090989,-0.158515185,-0.9914826,0.596281795,0.442883695,0.327302505,35
1747533018230,-0.31593209,-0.143749725,-1.0770246499999998,0.60400495,0.070573767,0.19734024,36
1747533018240,-0.3577879,-0.110435905,-1.17269505,0.47031425,-0.2119876279999999,0.1320927925,37
1747533018250,-0.40977211,-0.08529801,-1.2658029,0.281496135,-0.42690475,0.1081243425,38
1747533018260,-0.456753135,-0.072240945,-1.33535925,0.0961401178,-0.526773285,0.1272991,39
1747533018270,-0.495314175,-0.08761655,-1.3517111000000002,-0.1312938472,-0.49614692,0.1938781299999999,40
1747533018280,-0.512398175,-0.132157005,-1.317299,-0.29348036,-0.38269626,0.260989795,41
1747533018290,-0.507395,-0.183897135,-1.25665075,-0.3304983,-0.282561395,0.27004453,42
1747533018300,-0.50715095,-0.21013328,-1.2222387,-0.340352,-0.23861924,0.2615224,43
1747533018310,-0.52374685,-0.21965152,-1.1557330499999998,-0.33289515,-0.216515,0.219710785,44
1747533018320,-0.60770255,-0.23527117,-0.899595,-0.30200248,-0.26125611,0.166713885,45
1747533018330,-0.605506025,-0.234661025,-0.8496853,-0.24181503,-0.35739623,0.1659149349999999,46
1747533018340,-0.6235662500000001,-0.184629295,-0.7687803200000001,-0.154197025,-0.37444046,0.202666565,47
1747533018350,-0.66700845,-0.104212443,-0.7597502199999999,0.00266316,-0.2010686685,0.4018710299999999,48
1747533018360,-0.6716455,-0.06345488,-0.8437059,0.15233281,0.15819177,0.80747044,49
1747533018370,-0.6155124,-0.07248501,-0.921072,0.128364365,0.232493965,0.902545305,50
1747533018380,-0.5630401,-0.10518867,-0.9835507,-0.03195793,0.4048005,1.1190603,51
1747533018390,-0.4701763,-0.154122145,-0.99172665,-0.24128239,0.40533313,1.1262508,52
1747533018400,-0.34936795,-0.23929812,-0.9769612,-0.539290125,0.350472005,1.08017815,53
1747533018410,-0.3016547499999999,-0.292502595,-0.913262225,-0.68469875,0.219444475,0.95793908,54
1747533018420,-0.2818861,-0.30946457,-0.87250465,-0.7414241,0.1438107,0.88896316,55
1747533018430,-0.2757847,-0.30067852,-0.7912336,-0.7914915,-0.04580637,0.7536746,56
1747533018440,-0.32837903,-0.19622202,-0.70727793,-0.69375345,-0.356597275,0.6745787350000001,57
1747533018450,-0.340459865,-0.081637151,-0.7097185,-0.551806985,-0.42450789,0.712928235,58
1747533018460,-0.337409135,-0.0042710025,-0.75242847,-0.429301575,-0.26498454,0.8048073,59
1747533018470,-0.3321619,0.033923957,-0.77414954,-0.36485308,-0.15286545,0.8591358,60
1747533018480,-0.29103825,0.0449065325,-0.85737312,-0.19201392,0.363521495,0.99815285,61
1747533018490,-0.22587497,0.000976229,-0.907770905,-0.15313177,0.53715959,0.94382435,62
1747533018500,-0.151071435,-0.0319714995,-0.94840647,-0.18562234,0.50679956,0.80054625,63
1747533018510,-0.109093595,-0.038194958,-0.95902298,-0.265517175,0.338487785,0.653806075,64
1747533018520,-0.085786125,-0.032215555,-0.95670441,-0.339020415,0.160055985,0.524110125,65
1747533018530,-0.07187486,-0.01061649025,-0.95853488,-0.39041943,0.0476705845,0.422377365,66
1747533018540,-0.087616555,0.04844536175,-0.972324115,-0.42291,0.1352885845,0.335824625,67
1747533018550,-0.1053107,0.11385271,-0.984771015,-0.446612125,0.34061831,0.28682246,68
1747533018560,-0.09689072,0.1433836399999999,-0.97598495,-0.485227975,0.490820575,0.266316125,69
1747533018570,-0.11092402,0.16229807,-0.9604873,-0.54408385,0.6005427999999999,0.2428803,70
1747533018580,-0.12910629,0.19487972,-0.94450155,-0.6724482,0.63116917,0.223439225,71
1747533018590,-0.0942060999999999,0.2178211099999999,-0.932054635,-0.8412926000000001,0.57657439,0.196274985,72
1747533018600,-0.0175721204999999,0.204153895,-0.897642555,-0.9741843,0.490820605,0.13315806,73
1747533018610,0.0632108275,0.18560553,-0.835774035,-1.0748517999999998,0.396012055,0.0282295099999999,74
1747533018620,0.099575356,0.17889395,-0.80587703,-1.1153319,0.34780884,-0.03195793,75
1747533018630,0.148386805,0.168155445,-0.6986139,-1.08523815,0.1312938375,-0.321177225,76
1747533018640,0.12666571,0.189754515,-0.6694490500000001,-0.98750015,-0.0370179375,-0.518517475,77
1747533018650,0.089813065,0.23649148,-0.7230196,-0.9243832,-0.137152795,-0.591488095,78
1747533018660,0.06894617,0.28847568,-0.81307673,-0.90174635,-0.21758026,-0.6364955,79
1747533018670,0.10799533,0.372797465,-0.97744928,-1.00374545,-0.233292915,-0.7115966300000001,80
1747533018680,0.19426957,0.4373506,-1.1138773,-1.2676647,-0.16192019,-0.87298423,81
1747533018690,0.25430766,0.42392743,-1.0431006,-1.4002901,-0.14168017,-1.0301107,82
1747533018700,0.26150735,0.401108075,-0.99026225,-1.4213290500000002,-0.1619202,-1.1835088,83
1747533018710,0.20415389,0.396837075,-0.90728285,-1.41893225,-0.225836065,-1.4407702,84
1747533018720,0.1036023,0.489212765,-0.8465126000000001,-1.34942375,-0.42424155,-1.66314415,85
1747533018730,0.07651195,0.6005029,-0.8206424999999999,-1.27911625,-0.6197176,-1.8082864,86
1747533018740,0.12690977,0.67506237,-0.85407832,-1.25195205,-0.6527408,-1.87513175,87
1747533018750,0.2114755999999999,0.719968885,-0.89300549,-1.27458895,-0.6173207350000001,-1.9821909,88
1747533018760,0.201835335,0.729487115,-0.83040482,-1.3094763,-0.5749764850000001,-2.1451763,89
1747533018770,0.07272906,0.83809257,-0.7480355,-0.9757822,-0.4660532,-2.4096282,90
1747533018780,0.043930305,0.885195615,-0.758285885,-0.8732505,-0.410393125,-2.3766051,91
1747533018790,-0.0053692589999999,0.98172028,-0.81039211,-0.6745787000000001,-0.2695119,-2.26315445,92
1747533018800,-0.025870068,1.0311419,-0.85224795,-0.491885865,-0.087618001,-2.11508265,93
1747533018810,0.0818812035,1.0607949,-0.95987713,-0.33635725,0.095607489,-2.0359868,94
1747533018820,0.160101545,1.078489,-0.980133915,-0.197340235,0.177632855,-2.09937,95
1747533018830,0.14741057,1.1316934500000002,-0.95011487,-0.117978035,0.08575379165,-2.1688784,96
1747533018840,0.067725885,1.1756237500000002,-0.88080257,-0.07137272,-0.22050974,-2.0804615,97
1747533018850,0.03099527,1.1912434,-0.8371163,-0.07137272,-0.22050974,-2.0804615,98
1747533018860,-0.0248938391,1.2196761,-0.78122727,0.093476959,-0.39175101,-1.85116325,99
1747533018870,-0.21721096,1.2888663,-0.7787867,0.272175075,-0.330764615,-1.49722915,100
1747533018880,-0.35193056,1.3313323,-0.8319912,0.44794372,-0.14647387,-0.8831042,101
1747533018890,-0.4612682,1.3742863,-0.93522733,0.41438788,-0.07137272,-0.44900897,102
1747533018900,-0.4856739,1.3731881,-1.004173465,0.334226725,-0.0471379525,-0.22184132385,103
1747533018910,-0.4921413999999999,1.3271833,-1.1010642000000002,0.141413855,-0.0037284249999999,0.19734024615,104
1747533018920,-0.41123645,1.17537965,-1.0650658000000002,-0.12010857,0.0364853075,0.627707085,105
1747533018930,-0.32972135,1.021989685,-0.9435253,-0.24421188,0.04314321,0.9353022,106
1747533018940,-0.3053156,0.933519,-0.7905014,-0.049002163,0.022903185,1.0988203,107
1747533018950,-0.29408897,0.9370578,-0.79062345,0.0548611184999999,0.0572579624999999,1.15155085,108
1747533018960,-0.2405184149999999,0.91960768,-0.83833665,0.2428803,0.153930715,1.2554141,109
1747533018970,-0.1664470499999999,0.87811798,-0.8917851750000001,0.408528925,0.361923595,1.3739248000000002,110
1747533018980,-0.115439085,0.82881845,-0.882877075,0.50014165,0.53476275,1.45355335,111
1747533018990,-0.13899061,0.79782317,-0.87921622,0.521979575,0.5741775499999999,1.5057513500000002,112
1747533019000,-0.21110953,0.8150292050000001,-0.96280582,0.513723785,0.60080915,1.6290557,113
1747533019010,-0.17681948,0.8039245850000001,-1.1224193,0.263120318,0.6926882000000001,1.83118955,114
1747533019020,-0.085664092,0.7538928300000001,-1.1947823,-0.093476957,0.7896273,1.94890125,115
1747533019030,-0.01854835,0.70874226,-1.0697029,-0.4101268,0.8277105,1.9329224,116
1747533019040,0.010738519,0.67018116,-0.9054524,-0.4841627,0.80587256,1.8977686,117
1747533019050,0.0477131925,0.61038715,-0.70703385,-0.33848778,0.68310083,1.81920535,118
1747533019060,0.103358248,0.537780135,-0.47664381,-0.039947413,0.48389637,1.69163995,119
1747533019070,0.14753261,0.51178804,-0.45846154,0.271109817,0.3552656899999999,1.5805861499999998,120
1747533019080,0.19195102,0.477986115,-0.5037341799999999,0.570449135,0.26658243,1.4386397,121
1747533019090,0.217088915,0.445770565,-0.6507786499999999,0.8511463100000001,0.2066613,1.24342995,122
1747533019100,0.04612682,0.486406105,-0.86176612,1.072987625,0.27830033,1.107875,123
1747533019110,-0.15290187,0.547908515,-1.02443027,1.11373395,0.43888894,1.1339739999999998,124
1747533019120,-0.179016,0.5510812350000001,-1.1231514,0.98350535,0.537958535,1.1989551,125
1747533019130,-0.210743445,0.5448578,-1.15134005,0.79282305,0.519582735,1.2333099,126
1747533019140,-0.214038215,0.49287363,-1.06262525,0.598678635,0.331829875,1.2309131,127
1747533019150,-0.17437891,0.42148687,-0.95609425,0.419980535,-0.1645833749999999,1.0990866,128
1747533019160,-0.15888128,0.40196228,-0.9349833,0.3334278,-0.5251754,0.9853696,129
1747533019170,-0.061868511,0.33130771,-0.88519565,0.4628574,-0.685763985,0.70041138,130
1747533019180,-0.0417337864999999,0.3022649,-0.8548104999999999,0.6873619,-0.47164583,0.55953013,131
1747533019190,-0.0735832575,0.306413875,-0.8871480700000001,0.9832391,-0.09640644,0.496679535,132
1747533019200,-0.20061506,0.3277689,-1.0687267,1.5009576,0.81439465,0.5278385,133
1747533019210,-0.25442968,0.37999715,-1.16488525,1.454086,0.880174755,0.6101302,134
1747533019220,-0.28469277,0.4339338,-1.32230215,1.26153945,0.942492755,0.75287565,135
1747533019230,-0.228803665,0.416117615,-1.41370155,0.8993495,0.872451605,0.830906275,136
1747533019240,-0.0021965152,0.24356914,-1.2283401,-0.2231729,0.18961707,0.55606806,137
1747533019250,0.00671157415,0.2267291799999999,-1.13645255,-0.309459325,0.074302194,0.4612595149999999,138
1747533019260,0.01195880475,0.19963882,-0.94584385,-0.384027835,-0.111852771,0.296942465,139
1747533019270,0.041733786,0.16351835,-0.6760386,-0.17310548,-0.22264028,0.10066749,140
1747533019280,0.054058678,0.177673675,-0.636989435,-0.01784318,-0.192280235,0.0354200425,141
1747533019290,-0.02928687,0.22441064,-0.683360285,0.41598576,-0.0346210899999999,-0.0420779455,142
1747533019300,-0.12410311,0.266144425,-0.85041747,0.70946612,0.13422332,-0.0452737395,143
1747533019310,-0.105676785,0.2806658,-1.0125935,0.673513445,0.187220225,-0.0420779465,144
1747533019320,-0.0876165525,0.273466135,-1.0113732,0.52730589,0.17390442,-0.077231675,145
1747533019330,-0.119343996,0.30580372,-0.91497064,0.20293288,0.042077947,-0.14008227,146
1747533019340,-0.118367765,0.30800024,-0.910089495,0.167779155,0.0410126819999999,-0.108923285,147
1747533019350,-0.074559487,0.27871338,-0.89080894,0.10626013,0.0564590155,-0.07856325,148
1747533019360,0.0043930319999999,0.211963725,-0.8415093650000001,0.070840085,0.094275902,-0.112918035,149
1747533019370,0.09298581,0.12154051,-0.7280228,0.08042747,0.11345066,-0.26525086,150
1747533019380,0.041001617,0.111046045,-0.686166965,0.140614915,0.0292947699999999,-0.38962048,151
1747533019390,-0.056865336,0.121296445,-0.6654220799999999,0.21172132,-0.12330436,-0.5270395999999999,152
1747533019400,-0.152657808,0.1601015499999999,-0.739127365,0.197340245,-0.22716765,-0.513457475,153
1747533019410,-0.2425929,0.21208575,-0.8800704500000001,0.0996022265,-0.2537992599999999,-0.412523655,154
1747533019420,-0.165714865,0.15631867,-0.9723241,-0.0812264135,-0.2199771099999999,-0.295078245,155
1747533019430,0.035144243,-0.06882414,-0.7902574,-0.47191215,-0.25885928,-0.6018744,156
1747533019440,0.0246497815,-0.0856640925,-0.6964173499999999,-0.438888955,-0.304133015,-0.7225156,157
1747533019450,0.01415532,-0.102504045,-0.6025773,-0.40586576,-0.34940675,-0.8431568,158
1747533019460,-0.29042813,0.0014643435,-0.43368974,0.20612867,-0.3920173,-1.0242518,159
1747533019470,-0.348147665,0.02965295425,-0.49836492,0.368048885,-0.35127094,-0.97391805,160
1747533019480,-0.439669125,0.0142773479999999,-0.709230375,0.6788398,-0.203465505,-0.82398207,161
1747533019490,-0.465051075,-0.0610143145,-0.901669475,0.817856785,-0.126766465,-0.70919982,162
1747533019500,-0.43649638,-0.11714748,-0.9675649,0.77737671,-0.2149171,-0.7076019,163
1747533019510,-0.40501301,-0.161809955,-0.993434985,0.732102975,-0.320111975,-0.7438209,164
1747533019520,-0.3145898,-0.190364655,-1.038585585,0.761397765,-0.3102582849999999,-0.8335694499999999,165
1747533019530,-0.219407465,-0.213794145,-1.0886173,0.8498147149999999,-0.138484385,-0.95527585,166
1747533019540,-0.21220778,-0.2411285549999999,-1.10387095,0.94781905,0.083623255,-1.0548780999999998,167
1747533019550,-0.241860735,-0.251867085,-1.1236396,1.0428939000000002,0.2591255799999999,-1.1337077,168
1747533019560,-0.29091625,-0.277127015,-1.1861182,1.06819395,0.3304983,-1.18963405,169
1747533019570,-0.36291313,-0.35290676,-1.2378583,0.7366304,0.040480047,-1.3646038,170
1747533019580,-0.390125495,-0.36986874,-1.2305366000000002,0.61199444,-0.0905474765,-1.40481755,171
1747533019590,-0.45907168,-0.386220575,-1.19966335,0.351803585,-0.36112465,-1.4737934,172
1747533019600,-0.5404648000000001,-0.346927365,-1.15426865,0.08868327,-0.5981460000000001,-1.4876418,173
1747533019610,-0.625030615,-0.26846297,-1.11143665,-0.1438107049999999,-0.74382092,-1.41041015,174
1747533019620,-0.713989465,-0.230878155,-1.02064745,-0.47244477,-0.78083885,-0.91612744,175
1747533019630,-0.7493778,-0.247474045,-0.9045982,-0.45060685,-0.7254451,-0.7616641,176
1747533019640,-0.731439575,-0.26053111,-0.82662188,-0.40480049,-0.66685555,-0.695884025,177
1747533019650,-0.733392,-0.237711765,-0.77256323,-0.27723508,-0.49348375,-0.5392901449999999,178
1747533019660,-0.7375410250000001,-0.1849954,-0.714111515,0.064182175,-0.085487465,-0.214917106,179
1747533019670,-0.69873593,-0.15973547,-0.701542565,0.44714474,0.325704605,0.110254869,180
1747533019680,-0.66700846,-0.16571487,-0.7250941,0.5704491,0.44368264,0.20186761,181
1747533019690,-0.63833173,-0.15046129,-0.8267439,0.6508765750000001,0.5587312200000001,0.337955145,182
1747533019700,-0.6094109299999999,-0.112510385,-0.9789136,0.67484504,0.6591324000000001,0.57817229,183
1747533019710,-0.5785377,-0.089324947,-1.0717774,0.53263223,0.60427125,0.75260935,184
1747533019720,-0.475545555,-0.122516737,-1.14560465,0.2519350389999999,0.51106061,0.85886945,185
1747533019730,-0.382437695,-0.16364039,-1.1662275,-0.013049489,0.45193845,0.8847020999999999,186
1747533019740,-0.34900184,-0.17303659,-1.1310833,-0.126766468,0.45566687,0.85913577,187
1747533019750,-0.33179581,-0.167667325,-1.0777568,-0.195742345,0.483363745,0.8314389,188
1747533019760,-0.333382205,-0.153756065,-1.0261387,-0.23196134,0.50946274,0.81412838,189
1747533019770,-0.341680155,-0.1381364,-0.99270285,-0.26764769,0.475640595,0.80294312,190
1747533019780,-0.349367945,-0.13142483,-0.98172028,-0.33156356,0.38216363,0.77950727,191
1747533019790,-0.3790209,-0.1389906149999999,-0.98123218,-0.41199103,0.283626665,0.754473525,192
1747533019800,-0.42038861,-0.13288918,-0.9715919,-0.49561429,0.180828645,0.753674595,193
1747533019810,-0.43844886,-0.104334475,-0.93742388,-0.570449115,0.0790958885,0.77737674,194
1747533019820,-0.419290365,-0.081027005,-0.8648168300000001,-0.568052265,0.0503337435,0.85221157,195
1747533019830,-0.3701128299999999,-0.083589605,-0.80612107,-0.4751079549999999,0.13502227,0.92278535,196
1747533019840,-0.28725538,-0.11324256,-0.7721971,-0.26897928,0.35952675,0.92518216,197
1747533019850,-0.26712066,-0.12190659,-0.7662177,-0.1912149699999999,0.423975255,0.90627373,198
1747533019860,-0.26529023,-0.123126875,-0.7662177,0.0274305649999999,0.5520733,0.836498925,199
1747533019870,-0.3226437,-0.09030118,-0.7985553,0.2412824,0.56938386,0.7861652,200
1747533019880,-0.3397277,-0.05588911,-0.8644508,0.24394556,0.52144696,0.80054625,201
1747533019890,-0.33570075,-0.0388051025,-0.9008153,0.217313945,0.4247742,0.83383575,202
1747533019900,-0.302508965,-0.0150095205,-0.9889199,0.07456851,0.32197617,0.87857685,203
1747533019910,-0.260653145,-0.00683360275,-1.03809745,-0.099069595,0.25113609,0.907339,204
1747533019920,-0.233684815,-0.00256260113,-1.014668,-0.20506341,0.214917105,0.920921125,205
1747533019930,-0.20525215,-0.01842632138,-0.96097543,-0.267115055,0.166447575,0.929709555,206
1747533019940,-0.1111680785,-0.064065027,-0.879826395,-0.221042365,0.091612745,0.84129263,207
1747533019950,-0.0339239575,-0.088714812,-0.835407965,-0.076166406,0.036218993,0.6450176,208
1747533019960,-0.0698003715,-0.0673598015,-0.8579833,-0.0324905645,0.0436758435,0.623446,209
1747533019970,-0.1171474775,-0.02403963788,-0.91240807,0.06551377,0.07190535,0.61199445,210
1747533019980,-0.140699005,0.01220286212,-1.00002462,0.0559263875,0.0918790575,0.6255765600000001,211
1747533019990,-0.11080199,0.0163518355,-1.10008805,-0.0729706125,0.1275654125,0.6346313100000001,212
1747533020000,-0.03648655675,-0.003050715,-1.1251039,-0.2727077,0.128098047,0.593086005,213
1747533020010,0.01415532125,-0.025870067,-1.0565239,-0.417583675,0.08708537,0.49375008,214
1747533020020,0.029652956,-0.041001615,-0.974764725,-0.50094062,0.0388821524999999,0.3832288849999999,215
1747533020030,0.0053692589999999,-0.0460047885,-0.916679025,-0.51425643,0.0042610579999999,0.291083515,216
1747533020040,-0.0114706905,-0.012080832,-0.87885013,-0.48815745,-0.042610579,0.164317045,217
1747533020050,0.0064675175,0.0359984464999999,-0.84590241,-0.47191216,-0.1235706825,0.02530003,218
1747533020060,0.00536926,0.0641870575,-0.82894043,-0.484961645,-0.21678132,-0.08042747,219
1747533020070,-0.024405725,0.127886,-0.8336995,-0.5161206,-0.30786142,-0.2050634,220
1747533020080,-0.0322155575,0.17669745,-0.8374824000000001,-0.5270395800000001,-0.23648871,-0.239151865,221
1747533020090,-0.047591165,0.239664215,-0.84407195,-0.53289853,-0.0822916839,-0.274571915,222
1747533020100,-0.04698102,0.27993365,-0.8590815,-0.5320996,0.0892159011,-0.27057718,223
1747533020110,-0.018914435515,0.295431285,-0.87274875,-0.5581986,0.229298185,-0.289219305,224
1747533020120,0.036608588,0.24600971,-0.8161274,-0.6556703,0.21092236,-0.4250405,225
1747533020130,0.02501586875,0.2416166699999999,-0.7614586,-0.6796387500000001,0.100933806,-0.498277435,226
1747533020140,0.01244692025,0.24112856,-0.6262509,-0.7009440499999999,-0.383228874,-0.7131945500000001,227
1747533020150,-0.033679902,0.28713336,-0.5604774699999999,-0.647148175,-0.8881642000000001,-0.872451615,228
1747533020160,-0.02391761,0.42734426,-0.6936107,-0.509995355,-1.05860655,-0.8604674,229
1747533020170,0.0613803949999999,0.4139211,-0.7529166,-0.350472005,-1.017327575,-0.85966842,230
1747533020180,0.29433305,0.409894135,-0.89141905,-0.1925465479999999,-0.7025418999999999,-1.11373397,231
1747533020190,0.4512618499999999,0.441865635,-0.96402608,-0.107591713,-0.4066647,-1.4604776,232
1747533020200,0.41184659,0.490310995,-0.926807405,-0.09933591,-0.34274884,-1.67086735,233
1747533020210,0.310928925,0.567066995,-0.905696455,-0.1014664399999999,-0.409860515,-1.80588955,234
1747533020220,0.239420155,0.65126675,-0.93510533,-0.25806032,-0.8048073,-1.9542276,235
1747533020230,0.17755165,0.710206595,-0.95426385,-0.45193845,-1.30415,-2.0828583,236
1747533020240,0.130082515,0.76682788,-0.96280585,-0.45593318,-1.6921726,-2.0756679,237
1747533020250,0.154000125,0.81807989,-0.96890727,-0.3824299399999999,-1.6737968,-2.0660804500000003,238
1747533020260,0.18975451,0.850295455,-0.99843822,-0.21012342,-1.5579493,-2.0386499,239
1747533020270,0.220871815,0.87262668,-1.10301675,0.061252705,-1.15874142,-1.97393505,240
1747533020280,0.237467705,0.88019245,-1.18038285,0.298806675,-0.72491247,-1.91055175,241
1747533020290,0.21806514,0.8760435,-1.1762339,0.40986049,-0.511859585,-1.8740665,242
1747533020300,0.18572756,0.87274873,-1.15683135,0.47883637,-0.411458385,-1.8343854,243
1747533020310,0.09054524,0.9098454,-1.1734272,0.48522797,-0.40959418,-1.7411747,244
1747533020320,0.015253577,0.946820075,-1.22382505,0.31158986,-0.4490089699999999,-1.5747272,245
1747533020330,-0.080172808,0.977449275,-1.24164125,0.0591221785,-0.525441705,-1.3499564,246
1747533020340,-0.16010156,0.98428285,-1.146825,-0.0721716665,-0.585362825,-1.23171205,247
1747533020350,-0.21904138,1.008688575,-1.1359644,-0.1619202,-0.6010754700000001,-1.0737866,248
1747533020360,-0.329721335,1.06530985,-1.09691525,-0.212253945,-0.55473647,-0.825579935,249
1747533020370,-0.29823795,1.0470055,-1.0435888,-0.10918961,-0.19973709,-0.07563378,250
1747533020380,-0.23356278,0.9962417,-1.0243083,-0.02876214,-0.027164243,0.1123854,251
1747533020390,-0.21843125,0.95621634,-1.018451,0.0077231669999999,0.0356863585,0.19574235,252
1747533020400,-0.232952645,0.94254912,-1.04236855,0.066312712,0.158191775,0.38589205,253
1747533020410,-0.23600335,0.91155385,-1.1060674499999998,0.069774822,0.252201355,0.5685849,254
1747533020420,-0.210255315,0.85664095,-1.20491065,-0.0703074529999999,0.322775125,0.74248935,255
1747533020430,-0.1935374,0.80343645,-1.26812145,-0.266316115,0.36991309,0.8780442500000001,256
1747533020440,-0.18572757,0.7524285,-1.2310247,-0.45060685,0.40906155,0.99282646,257
1747533020450,-0.189144365,0.74034767,-1.20649695,-0.477504775,0.43382895,1.03330653,258
1747533020460,-0.178771925,0.705447495,-1.1409676,-0.4958805899999999,0.5241101100000001,1.1518172,259
1747533020470,-0.16400647,0.6440671,-1.0758044,-0.41971418,0.6562029,1.2772521,260
1747533020480,-0.14960709,0.6130718,-1.0584763,-0.34887412,0.680704,1.2868395,261
1747533020490,-0.1492410049999999,0.6002588,-1.0496902499999998,-0.30679616,0.6809703,1.28630685,262
1747533020500,-0.14460391,0.571948175,-1.0372433,-0.216248675,0.68043767,1.2825784,263
1747533020510,-0.108605465,0.528872075,-1.0257726,-0.11504856,0.68336717,1.27405625,264
1747533020520,-0.14374973,0.4983649,-1.0584763,0.040213735,0.7331682850000001,1.2455604500000002,265
1747533020530,-0.188290165,0.5307025000000001,-1.12278535,0.1510012399999999,0.822384185,1.2719258,266
1747533020540,-0.2328306,0.5630401,-1.1870944,0.15925704,0.8655274,1.3214606,267
1747533020550,-0.138136408,0.5346073650000001,-1.30570625,-0.038882155,0.98829915,1.4048175,268
1747533020560,-0.067847913,0.454922705,-1.240665,-0.21598237,1.02238755,1.3568806,269
1747533020570,-0.055523025,0.38951537,-1.1036269,-0.310524585,0.95714007,1.22505415,270
1747533020580,-0.064919226,0.3612047,-0.93303084,-0.22210763,0.783502,1.0679276,271
1747533020590,-0.0451505895,0.3391175349999999,-0.892395345,-0.133158052,0.7265103500000001,1.020257025,272
1747533020600,-0.0037828869999999,0.297749845,-0.840533175,0.054328488,0.61705443,0.908670575,273
1747533020610,-0.012080833,0.28725539,-0.861400015,0.234358175,0.54035538,0.7997472999999999,274
1747533020620,-0.0632108275,0.31617616,-0.957436565,0.383228875,0.54594802,0.7368967,275
1747533020630,-0.17230442,0.37536004,-1.0753163,0.44101948,0.6940198,0.75101143,276
1747533020640,-0.17486702,0.39476259,-1.07470615,0.427437365,0.7302388,0.789360965,277
1747533020650,-0.118367763,0.38170554,-1.0056379,0.4173173599999999,0.80560625,0.825579965,278
1747533020660,-0.066749653,0.356567655,-0.91314015,0.456199515,0.8426241999999999,0.827444165,279
1747533020670,-0.020988923,0.35363895,-0.8500514,0.5954828,0.8159926,0.8293084,280
1747533020680,0.0239176085,0.33155176,-0.83150303,0.6564692,0.81013365,0.7912252,281
1747533020690,0.06882414,0.30946457,-0.81295466,0.7174556,0.8042747,0.753142,282
1747533020700,0.13288917,0.2893298549999999,-0.78928113,0.91852425,0.72118405,0.53183329,283
1747533020710,0.202689555,0.26419197,-0.73485635,1.1712582500000002,0.61146178,0.267914005,284
1747533020720,0.17084008,0.29701767,-0.792942,1.2397015,0.572313305,0.216781315,285
1747533020730,0.127885998,0.332528,-0.8984968,1.22665205,0.569650175,0.231961325,286
1747533020740,0.1392346529999999,0.33618885,-0.99929245,1.1198593,0.593086,0.287887705,287
1747533020750,0.20525214,0.28127598,-0.9919707,0.8452873299999999,0.5518069800000001,0.2697782199999999,288
1747533020760,0.237467705,0.208302865,-0.8731148,0.59814598,0.42770368,0.15153387,289
1747533020770,0.22270224,0.16766733,-0.73217175,0.5571333,0.298274055,0.016777915,290
1747533020780,0.142773485,0.1773075949999999,-0.6535853199999999,0.6218481,0.179230745,-0.068176925,291
1747533020790,0.08395569,0.215868635,-0.734856395,0.6940198,0.0988032775,-0.09933591,292
1747533020800,0.1007956425,0.225874985,-0.8461464949999999,0.669518715,0.0766990405,-0.15952335,293
1747533020810,0.1158051599999999,0.206472435,-0.8347978,0.593085965,0.054328486,-0.25965821,294
1747533020820,0.1005515825,0.192683195,-0.76426523,0.5355617,-0.016511602,-0.34834148,295
1747533020830,0.04100161615,0.20854691,-0.70373907,0.50173956,-0.125168575,-0.38456047,296
1747533020840,-0.0046370877,0.2277054,-0.68336034,0.48948902,-0.18482338,-0.3850931,297
1747533020850,-0.0046370877,0.2277054,-0.68336034,0.48948902,-0.18482338,-0.3850931,298
1747533020860,-0.0046370877,0.2277054,-0.68336034,0.48948902,-0.18482338,-0.3850931,299
1747533020870,-0.01867037862,0.044296391,-0.801972125,0.25246766,-0.21358553,-0.52411014,300
1747533020880,-0.082125265,0.012568949,-0.7809832,0.2348908049999999,-0.17230653,-0.54275227,301
1747533020890,-0.12141848,-0.032581642,-0.723385675,0.219178165,-0.182692855,-0.5922870650000001,302
1747533020900,-0.1108019849999999,-0.074803548,-0.684946655,0.22077606,-0.31212249,-0.673247165,303
1747533020910,-0.1198321099999999,-0.1098257629999999,-0.68763131,0.21438447,-0.4681837299999999,-0.773382015,304
1747533020920,-0.13374338,-0.12056428,-0.69971216,0.2082592,-0.54648066,-0.82344943,305
1747533020930,-0.27444238,-0.08236932,-0.7985553299999999,0.1478054429999999,-0.73316827,-0.85008107,306
1747533020940,-0.31410167,-0.0676038575,-0.880192475,0.063649553,-0.8394284000000001,-0.83969472,307
1747533020950,-0.30336314,-0.079318605,-0.90520835,-0.0101200125,-0.8940232,-0.861266325,308
1747533020960,-0.24454537,-0.12813005,-0.93107843,-0.0740358775,-0.92172007,-0.880973725,309
1747533020970,-0.2212379,-0.146434345,-0.924488865,-0.12090751,-0.91213267,-0.90627375,310
1747533020980,-0.18694785,-0.27041543,-0.81832397,-0.1470065,-0.9012137,-1.0444918,311
1747533020990,-0.224532665,-0.267120665,-0.80770746,-0.127565423,-0.897485285,-1.0519486,312
1747533021000,-0.3092205249999999,-0.26577835,-0.8091717949999999,-0.0751011465,-0.876446335,-1.0394317,313
1747533021010,-0.3841461,-0.28627914,-0.84150934,0.015978966,-0.8330368,-0.9779128,314
1747533021020,-0.3653537,-0.34607318,-0.801484,0.07882957,-0.8863,-1.015197,315
1747533021030,-0.3935423,-0.38109538,-0.7809832,0.14247912,-0.99149485,-1.09882025,316
1747533021040,-0.45931573,-0.4174599049999999,-0.768414275,0.231428705,-1.15448035,-1.20641195,317
1747533021050,-0.53192276,-0.406477345,-0.806487175,0.27217507,-1.2351741500000002,-1.22904885,318
1747533021060,-0.5896422800000001,-0.37462787,-0.889710665,0.28975193,-1.22931515,-1.21040675,319
1747533021070,-0.647239825,-0.322521655,-0.976351015,0.284958245,-1.12172345,-1.17392145,320
1747533021080,-0.7490117,-0.29482117,-0.9974619,0.32650355,-0.6221144,-1.0407634,321
1747533021090,-0.7977011,-0.289817985,-0.98769962,0.370712025,-0.51532166,-0.97232015,322
1747533021100,-0.8941037000000001,-0.2501586799999999,-0.98245242,0.452737385,-0.33768883,-0.8074704699999999,323
1747533021110,-0.95353165,-0.190242625,-1.0368772,0.506266935,-0.20479709,-0.5816344,324
1747533021120,-0.91057765,-0.19158493,-1.1243718,0.4063984,-0.082558,-0.011717909,325
1747533021130,-0.8892226249999999,-0.19536782,-1.1324257,0.3486078,-0.0892159,0.0727042955,326
1747533021140,-0.85175985,-0.17938207,-1.1273005,0.24208135,-0.0761664085,0.24394556,327
1747533021150,-0.834553805,-0.17059601,-1.11619585,0.165648625,-0.0061252715,0.43143211,328
1747533021160,-0.751696345,-0.180114245,-1.09288835,0.144343335,0.202932887,0.7534082799999999,329
1747533021170,-0.68604493,-0.19841854,-1.0806855,0.15073492,0.3616573,0.97471696,330
1747533021180,-0.5437595550000001,-0.2346610499999999,-1.1275445,0.1478054449999999,0.48948905,1.01066963,331
1747533021190,-0.37267542,-0.281153965,-1.1890469,0.1177117249999999,0.66126295,1.02744755,332
1747533021200,-0.33838538,-0.292502635,-1.20137175,0.063649552,0.73476615,0.98030962,333
1747533021210,-0.36559776,-0.268218935,-1.1858741,-0.0420779455,0.7640609,0.93956327,334
1747533021220,-0.397447225,-0.237833785,-1.16634955,-0.1792307424999999,0.7169229699999999,0.933438,335
1747533021230,-0.36266908,-0.23649146,-1.1363305,-0.36325517,0.53529537,0.9374327,336
1747533021240,-0.351076365,-0.237101615,-1.1246158,-0.41784997,0.473510045,0.92837795,337
1747533021250,-0.33435844,-0.234783075,-1.09776955,-0.514256415,0.36378781,0.9126653,338
1747533021260,-0.331795825,-0.24796216,-1.033460425,-0.563791215,0.30839405,0.9028116,339
1747533021270,-0.35217461,-0.27639484,-0.960365275,-0.516386935,0.30999195,0.876446325,340
1747533021280,-0.38048525,-0.29018408,-0.927295515,-0.413855235,0.33049829,0.840759995,341
1747533021290,-0.38744087,-0.26931718,-0.932542715,-0.32836777,0.3688478149999999,0.8199873200000001,342
1747533021300,-0.38390204,-0.2240445549999999,-0.97049362,-0.271376115,0.435426845,0.8117315,343
1747533021310,-0.36889252,-0.185117425,-1.00478367,-0.246342395,0.5222458999999999,0.81945465,344
1747533021320,-0.28627914,-0.16425052,-0.9679311,-0.20559604,0.7355651,0.80747044,345
1747533021330,-0.27334413,-0.17718557,-0.9203399,-0.18322549,0.743288265,0.78936094,346
1747533021340,-0.27468644,-0.166691105,-0.91338427,-0.137419118,0.758201965,0.7597998699999999,347
1747533021350,-0.294699125,-0.14924101,-0.90411012,-0.093743273,0.77950725,0.7504788,348
1747533021360,-0.347415485,-0.132889175,-0.91789935,-0.05912218,0.8080031000000001,0.77284935,349
1747533021370,-0.363767325,-0.1287402,-0.94157287,-0.058855862,0.8008125850000001,0.84235788,350
1747533021380,-0.34607318,-0.13398743,-0.94913864,-0.072970614,0.77924097,0.89162636,351
1747533021390,-0.263459795,-0.1658369,-0.92729552,-0.131293842,0.678040835,0.83223788,352
1747533021400,-0.152657805,-0.163640385,-0.841143325,-0.1938781299999999,0.50999535,0.70813457,353
1747533021410,-0.14741059,-0.045638707,-0.7577977,-0.06498113,0.38136467,0.5438175,354
1747533021420,-0.16254213,-0.007809832,-0.76987855,-0.021571604,0.40187101,0.567519625,355
1747533021430,-0.153512,0.08053889,-0.84248555,0.0628506,0.49960902,0.6530071,356
1747533021440,-0.12703179,0.08676235,-0.857129025,0.06578008,0.53023536,0.66552395,357
1747533021450,-0.08346757,0.049787678,-0.81832397,0.10865697,0.54275227,0.62584287,358
1747533021460,-0.107019095,0.051740138,-0.816981635,0.13262542,0.519316435,0.6255765550000001,359
1747533021470,-0.14765463,0.0557670814999999,-0.82955055,0.179763375,0.47217847,0.6412892050000001,360
1747533021480,-0.15192564,0.0540586775,-0.884707475,0.20586236,0.4308994699999999,0.6817692550000001,361
1747533021490,-0.101039705,0.041245672,-0.948162405,0.186421285,0.40959418,0.69774822,362
1747533021500,-0.044418419,0.014521405,-0.98660143,0.128098053,0.4130563,0.65859975,363
1747533021510,-0.029652956,0.0002440573,-1.02259985,-0.015712652,0.417051045,0.56485648,364
1747533021520,-0.047957249,0.001342314815,-1.0254065,-0.188818125,0.3896204749999999,0.473510055,365
1747533021530,-0.076878032,-0.0029286869849999,-0.9852591,-0.31025827,0.3174488,0.426105775,366
1747533021540,-0.099819415,-0.0195245805,-0.900205175,-0.423975245,0.152332814,0.3464772499999999,367
1747533021550,-0.115195025,-0.007321718,-0.831259025,-0.4916195399999999,0.0063915865,0.27324033,368
1747533021560,-0.1050666475,0.0391711864999999,-0.8213747,-0.5145227299999999,-0.0327568825,0.24767399,369
1747533021570,-0.088104665,0.058817793,-0.818568,-0.5273059,-0.04314321,0.23489082,370
1747533021580,-0.0322155565,0.060526195,-0.793674175,-0.57604176,-0.075101143,0.15286545,371
1747533021590,0.0120808334999999,0.068580087,-0.755479225,-0.60853233,-0.129962263,0.01864213,372
1747533021600,0.05137405,0.082613377,-0.72741262,-0.6322344499999999,-0.2095907799999999,-0.133690685,373
1747533021610,0.060038082,0.09737884,-0.72948709,-0.63010392,-0.25832663,-0.247940305,374
1747533021620,0.038561042,0.14936304,-0.77024466,-0.60560286,-0.21997711,-0.39414784,375
1747533021630,0.040757559,0.17938208,-0.77561393,-0.57364494,-0.14168017,-0.5752428,376
1747533021640,0.063210823,0.2164787799999999,-0.76316702,-0.5720470200000001,-0.177366535,-0.6327670750000001,377
1747533021650,0.085908147,0.222092095,-0.69959009,-0.559796475,-0.30812775,-0.76592514,378
1747533021660,0.088348724,0.22062775,-0.65382934,-0.54914385,-0.4032026,-0.84155893,379
1747533021670,0.033679901,0.314833835,-0.6437009499999999,-0.45060687,-0.83916207,-0.98350545,380
1747533021680,0.071020658,0.43259145,-0.7822034849999999,-0.3696467599999999,-1.15634457,-1.0500845,381
1747533021690,0.195123765,0.54766445,-0.963294035,-0.34301515,-1.36779955,-1.1022824,382
1747533021700,0.366573975,0.5696296,-1.04834795,-0.39361521,-1.4333133,-1.1899004,383
1747533021710,0.49238549,0.5649925,-1.0942307,-0.46019424,-1.52039865,-1.34196695,384
1747533021720,0.5269196,0.5662128,-1.1175382,-0.49534798,-1.5760587,-1.4317155,385
1747533021730,0.703373,0.5853713,-1.2711722,-0.5968144,-1.7108147,-1.7086842,386
1747533021740,0.7844,0.60843474,-1.360131,-0.6327671,-1.7134779,-2.04876995,387
1747533021750,0.73900535,0.6679846949999999,-1.3783133,-0.6343650000000001,-1.6527577999999998,-2.2517028,388
1747533021760,0.6356471,0.7824475449999999,-1.4049155999999998,-0.6359629,-1.6122777,-2.3339944,389
1747533021770,0.528139885,0.88043652,-1.4058918,-0.646349225,-1.39230065,-2.3915187,390
1747533021780,0.4268561349999999,0.93559345,-1.31632275,-0.5539375,-0.8900285,-2.2929816,391
1747533021790,0.32728078,0.94840647,-1.1596380000000002,-0.4663195,-0.78696413,-2.27007855,392
1747533021800,0.2091570649999999,0.966832785,-1.03956182,-0.26098978,-0.56911753,-2.19737435,393
1747533021810,-0.020256752,1.0811737,-0.9864794,0.07137272,-0.23489082,-1.9302592,394
1747533021820,-0.1169034259999999,1.1408457,-1.0384636,0.12516858,-0.077497995,-1.6186693,395
1747533021830,-0.230878165,1.21150025,-1.10301675,0.130228585,0.1107875,-1.14489295,396
1747533021840,-0.26358183,1.2145509,-1.12608015,0.0039947399999999,0.165382305,-0.82877577,397
1747533021850,-0.29701768,1.1856301500000002,-1.1185144,-0.151800185,0.20213393,-0.52490907,398
1747533021860,-0.31861675,1.13608655,-1.0716554,-0.28815404,0.2213086899999999,-0.19387813675,399
1747533021870,-0.282618295,1.045785315,-1.001122815,-0.3768373,0.24181503,0.20240024825,400
1747533021880,-0.22709526,0.956948465,-0.939498365,-0.396012055,0.258060315,0.49907641,401
1747533021890,-0.17303659,0.8717725,-0.8964222,-0.3387541,0.267914,0.71106404,402
1747533021900,-0.16449458,0.84089925,-0.89385965,-0.301203525,0.3025351,0.76672412,403
1747533021910,-0.15753895,0.80087385,-0.90764892,-0.220243425,0.402669965,0.8847021500000001,404
1747533021920,-0.143261605,0.76036035,-0.96036527,-0.139549645,0.5880259649999999,1.0578076,405
1747533021930,-0.1175135669999999,0.7171622,-1.0113732,-0.126766475,0.7406250999999999,1.2282499,406
1747533021940,-0.089569012,0.6886075,-1.04212445,-0.20106867,0.771251465,1.3278521,407
1747533021950,-0.048079276,0.648094,-1.05188675,-0.31158985,0.736630365,1.3954964,408
1747533021960,0.057841559,0.57719538,-0.983428675,-0.449275285,0.6447513,1.40135535,409
1747533021970,0.18572757,0.46541715,-0.81466305,-0.4958806,0.55074173,1.3006879,410
1747533021980,0.186215685,0.43332364,-0.760970475,-0.432497365,0.536893265,1.2594089,411
1747533021990,0.1691316749999999,0.376092225,-0.67762495,-0.25752768,0.513457435,1.1781825,412
1747533022000,0.136305975,0.34534101,-0.67164555,-0.019441075,0.50839746,1.11000555,413
1747533022010,0.1043344775,0.3527847699999999,-0.754991075,0.20666131,0.536893275,1.0687265,414
1747533022020,0.0892029255,0.393664345,-0.956338275,0.32650356,0.6103965,1.005076975,415
1747533022030,0.074193403,0.4366184,-1.13376795,0.26658243,0.64741445,0.932372725,416
1747533022040,0.0298970125999999,0.458339495,-1.1730612,0.09267800775,0.6002765,0.8980179500000001,417
1747533022050,-0.0036608583999999,0.46053602,-1.1548789,-0.08415589225,0.5126585,0.8721852999999999,418
1747533022060,-0.021965152,0.4036707,-1.0267489,-0.21704763,0.39707732,0.8372979,419
1747533022070,0.021232981,0.3082443,-0.7922098,-0.11451593,0.1470065,0.64555025,420
1747533022080,-0.0035388295,0.299092165,-0.76878032,-0.004793692,0.15499598,0.596015455,421
1747533022090,-0.095548415,0.30983068,-0.77012265,0.251668733,0.199470765,0.55660066,422
1747533022100,-0.1834090199999999,0.335822775,-0.8557867299999999,0.47777111,0.26471822,0.5962817650000001,423
1747533022110,-0.1568067799999999,0.31336951,-1.0042956,0.5558017,0.311856185,0.572845965,424
1747533022120,-0.1309367149999999,0.29323478,-1.10435905,0.51212587,0.320910935,0.49295113,425
1747533022130,-0.19207305,0.325328305,-1.1072877,0.43489422,0.304931955,0.479369,426
1747533022140,-0.2111095,0.33631086,-1.0365112,0.379766775,0.28628982,0.508663785,427
1747533022150,-0.186703785,0.3127593549999999,-1.00783445,0.3571299,0.26738138,0.5195827500000001,428
1747533022160,-0.148630865,0.276028755,-0.96597863,0.372309925,0.25379926,0.49881008,429
1747533022170,-0.0852980085,0.22453267,-0.91472663,0.5699165,0.28442562,0.33822146,430
1747533022180,-0.046858992,0.18304294,-0.8576172,0.68869346,0.35420042,0.28336033,431
1747533022190,-0.075169631,0.202079405,-0.8777519,0.7329019299999999,0.392549945,0.28975193,432
1747533022200,-0.10006347,0.23014599,-0.913994385,0.7917578000000001,0.44980791,0.3105245949999999,433
1747533022210,-0.08346758,0.23222047,-0.939986535,0.79388835,0.465786875,0.32756883,434
1747533022220,-0.07028849,0.22526483,-0.9498709,0.7813715,0.4628574,0.330232,435
1747533022230,-0.075169632,0.226851225,-1.00637,0.54754593,0.180828645,0.312921435,436
1747533022240,-0.07028849,0.20476404,-1.0083225,0.4788364,0.08362326,0.29614353,437
1747533022250,-0.100795645,0.18877829,-0.9700055,0.31372039,-0.229298175,0.2173139499999999,438
1747533022260,-0.1665690699999999,0.1841411949999999,-0.8971544499999999,0.29854037,-0.370712025,0.19734024,439
1747533022270,-0.17596528,0.18523945,-0.8642067,0.63436496,-0.1257012,0.23915187,440
1747533022280,-0.16961979,0.193659425,-0.88141273,0.71319455,-0.00319579,0.239418185,441
1747533022290,-0.165958925,0.24393522,-0.99587558,0.8018778200000001,0.28575719,0.27190875,442
1747533022300,-0.14692246,0.28493683,-1.1096063,0.733168265,0.45327003,0.31398669,443
1747533022310,-0.097256815,0.27163571,-1.10374895,0.559263855,0.4026699649999999,0.31079089,444
1747533022320,-0.0464929065,0.23429496,-1.0332164,0.36165729,0.22663501,0.26019084,445
1747533022330,-0.0131790914,0.18706988,-0.92705145,0.21917817,-0.023435815,0.183491805,446
1747533022340,0.0046370876,0.12996048,-0.79709095,0.23915188,-0.317715125,0.04713795,447
1747533022350,-0.0300190424999999,0.1089715575,-0.7464491,0.35952675,-0.494815335,-0.070573772,448
1747533022360,-0.145580155,0.1638844425,-0.8261338,0.46472159,-0.45087318,-0.058056914,449
1747533022370,-0.2574804,0.241860735,-0.94303725,0.525707975,-0.30280143,0.046605323,450
1747533022380,-0.268829065,0.276760925,-1.0388297,0.512924825,-0.128630685,0.178698115,451
1747533022390,-0.1393566985,0.221115865,-1.0628693,0.33129725,-0.04660532,0.20746025,452
1747533022400,-0.0001220295,0.1458242,-0.99099443,0.1387506975,-0.096140115,0.12170646,453
1747533022410,0.056133166,0.09689073,-0.8293065,0.099069595,-0.21198763,0.0095873789999999,454
1747533022420,0.035998443,0.087250465,-0.7968469,0.1296959475,-0.33396042,-0.091879056,455
1747533022430,-0.036852645,0.07883049,-0.76292295,0.214384475,-0.4258394749999999,-0.14540859,456
1747533022440,-0.132157005,0.085420038,-0.8531021,0.338221475,-0.4274373649999999,-0.13662016,457
1747533022450,-0.147288555,0.086152208,-0.972202035,0.39388155,-0.34461306,-0.13422332,458
1747533022460,-0.108849535,0.077610205,-0.992580835,0.358727815,-0.247407675,-0.178431795,459
1747533022470,-0.10323622,0.083589608,-0.96939543,0.320910915,-0.16484967,-0.21598237,460
1747533022480,-0.1313028,0.110191843,-0.956582395,0.26764769,-0.10386328,-0.182426545,461
1747533022490,-0.149607095,0.12629962,-0.97220203,0.197606555,-0.0774979875,-0.11265172,462
1747533022500,-0.107995335,0.1036023,-0.97586289,0.124635945,-0.0985369624999999,-0.094009585,463
1747533022510,0.0024405725,-0.016107777,-0.8988628,0.028229509,-0.25353295,-0.22370553,464
1747533022520,0.00756577425,-0.0541807085,-0.8411432999999999,0.0364853095,-0.338754105,-0.30732879,465
1747533022530,-0.031117297,-0.0652853135,-0.759018075,0.187486555,-0.478303745,-0.499875325,466
1747533022540,-0.1156831349999999,-0.013423148,-0.7745156900000001,0.4069310299999999,-0.487891115,-0.6050702,467
1747533022550,-0.1692537049999999,0.0214770385,-0.854322415,0.54301855,-0.399474165,-0.57710702,468
1747533022560,-0.20757069,0.030263099,-0.94132885,0.60320597,-0.349140435,-0.5291701200000001,469
1747533022570,-0.26968326,0.034412072,-1.03931775,0.5621932999999999,-0.37683732,-0.47004795,470
1747533022580,-0.319715,0.03465613,-1.1087521,0.4026699699999999,-0.5038701,-0.36325518,471
1747533022590,-0.29579738,0.007931861,-1.1205888000000002,0.2218413199999999,-0.6359628850000001,-0.26951191,472
1747533022600,-0.221115865,-0.0512520189999999,-1.11143665,0.1054611799999999,-0.711862985,-0.26658243,473
1747533022610,-0.1375262649999999,-0.127153825,-1.05054445,0.007989483,-0.7984157,-0.42237735,474
1747533022620,-0.18304294,-0.21281794,-0.882511,0.0833569414999999,-0.829841,-0.5653891,475
1747533022630,-0.22258021,-0.20281158,-0.88751415,0.20399814,-0.857271575,-0.7289072,476
1747533022640,-0.301044615,-0.1795041,-0.91350625,0.27909929,-0.820519955,-0.7403588,477
1747533022650,-0.364865585,-0.143261605,-0.9599992,0.30999195,-0.75074513,-0.697215575,478
1747533022660,-0.4183141,-0.09322987,-1.0196712,0.2561961,-0.61838603,-0.57417756,479
1747533022670,-0.39793533,-0.142895515,-1.0010008,0.1555286,-0.43569317,-0.4527374,480
1747533022680,-0.3339923449999999,-0.23722363,-0.9653684,0.1613875599999999,-0.3882889,-0.4791027,481
1747533022690,-0.26748675,-0.3153219499999999,-0.94242705,0.1933455,-0.27616981,-0.5752428,482
1747533022700,-0.27114761,-0.35620156,-0.93852215,0.2641855899999999,-0.129695945,-0.71399348,483
1747533022710,-0.3481476599999999,-0.33692104,-0.951945285,0.3336941,-0.0135821219999999,-0.79495358,484
1747533022720,-0.443818105,-0.263215745,-1.018816985,0.28868667,-0.058323232,-0.74488615,485
1747533022730,-0.48372148,-0.210011265,-1.10240655,0.1110538167,-0.221042375,-0.6660566,486
1747533022740,-0.49921911,-0.191828995,-1.1324256,-0.1035969683,-0.349140425,-0.6231797,487
1747533022750,-0.5740226500000001,-0.1513154925,-1.13071725,-0.28495824,-0.381364675,-0.529702735,488
1747533022760,-0.6373555,-0.1220286275,-1.07885505,-0.41385524,-0.319579335,-0.363521485,489
1747533022770,-0.6160005,-0.17059602,-0.9261973,-0.58429754,-0.21252026,0.004261058,490
1747533022780,-0.6033095,-0.19256116,-0.8583493,-0.5640575,-0.30200246,0.10279802,491
1747533022790,-0.5946455,-0.188656245,-0.84236355,-0.5331648499999999,-0.30439931,0.14327807,492
1747533022800,-0.575364985,-0.179382075,-0.837238365,-0.46125952,-0.24261398,0.2295644949999999,493
1747533022810,-0.5808562349999999,-0.1701079,-0.861278015,-0.370978355,-0.0623179725,0.331829885,494
1747533022820,-0.6157564200000001,-0.1566847499999999,-0.883975315,-0.196008663,0.3326288275,0.56086173,495
1747533022830,-0.64126042,-0.153756065,-0.931566465,-0.0298274055,0.71639035,0.8372978600000001,496
1747533022840,-0.6305219,-0.178771935,-1.02430825,0.010652645,0.8213189,0.94116116,497
1747533022850,-0.58219855,-0.223312385,-1.13596445,-0.0964064365,0.934503225,1.15581195,498
1747533022860,-0.491653325,-0.304095325,-1.2349297,-0.47430899,0.805606245,1.1366372,499
1747533022870,-0.4300289,-0.3734076,-1.206375,-0.8852347650000001,0.618652345,1.01226755,500
1747533022880,-0.46358675,-0.36327922,-1.1564653,-1.056742365,0.52384381,0.92784532,501
1747533022890,-0.516791235,-0.33423641,-1.05005632,-1.1185277,0.48522797,0.90654004,502
1747533022900,-0.548396635,-0.303363175,-0.94547777,-1.09882035,0.4870922,0.96912437,503
1747533022910,-0.5398546,-0.266266465,-0.905696465,-0.94622117,0.665524,1.09402665,504
1747533022920,-0.50104953,-0.24613173,-0.931322485,-0.792290445,0.90946955,1.2042815,505
1747533022930,-0.4651731,-0.27456442,-0.9452337,-0.71958613,1.1195929,1.2218584,506
1747533022940,-0.4638307849999999,-0.28493685,-0.92424482,-0.714526115,1.1246529,1.20215095,507
1747533022950,-0.4638307849999999,-0.299458255,-0.8810466699999999,-0.71612403,1.08337395,1.17045925,508
1747533022960,-0.39878955,-0.2936009,-0.78684056,-0.7643272,0.6870956,1.1105382,509
1747533022970,-0.3458291249999999,-0.288719735,-0.78720665,-0.7723167,0.6218481499999999,1.0599381,510
1747533022980,-0.2445453699999999,-0.24576564,-0.7839118700000001,-0.780572525,0.536893285,0.94648745,511
1747533022990,-0.18231077,-0.17572122,-0.74449663,-0.750745125,0.521180635,0.8327705,512
1747533023000,-0.195733915,-0.12459123,-0.67945538,-0.64874605,0.5238438,0.7563377499999999,513
1747533023010,-0.22367847,-0.066993714,-0.6557818150000001,-0.49508165,0.50360376,0.73316825,514
1747533023020,-0.22428861,-0.028554698,-0.66139513,-0.4133226,0.48469532,0.7355651,515
1747533023030,-0.096280585,-0.0020744863999999,-0.7967248849999999,-0.092944326,0.43010053,0.623179705,516
1747533023040,-0.08346758,0.0108605483499999,-0.83345552,-0.0093210635,0.4319647399999999,0.550209105,517
1747533023050,-0.097256815,0.0300190404999999,-0.8794603000000001,0.0814927325,0.38482678,0.477238475,518
1747533023060,-0.061746486,0.028554698,-1.0121055,0.1051948675,0.289751925,0.40746364,519
1747533023070,-0.0602821395,0.0198906655,-1.0371213,0.010386329,0.199470765,0.32064459,520
1747533023080,-0.0793186035,0.0137892335,-1.0501783,-0.1142496135,0.11291803,0.21944447,521
1747533023090,-0.097256812,0.032825699,-0.93791198,-0.25300032,0.011717909,0.08575379,522
1747533023100,-0.09469421,0.049299564,-0.83760446,-0.23675503,0.00266316115,0.0593884935,523
1747533023110,-0.09469421,0.049299564,-0.83760446,-0.22050974,-0.0063915867,0.033023197,524
1747533023120,-0.096158557,0.05845171,-0.67335393,0.19361182,-0.11211908,-0.071639033,525
1747533023130,-0.104334472,0.09481624,-0.75450297,0.3067961649999999,-0.18056232,-0.110521182,526
1747533023140,-0.14570218,0.187802055,-0.95572817,0.238352915,-0.34621095,-0.0772316694999999,527
1747533023150,-0.13850249,0.232098435,-1.1242497,0.038882151,-0.55074175,-0.043143211,528
1747533023160,-0.09445015,0.21184167,-1.1497537,-0.056991648,-0.6306366,-0.058056913,529
1747533023170,0.041733786,0.19304928,-1.1373067,-0.22849922,-0.8085357,-0.19441076,530
1747533023180,0.19878462,0.136061915,-0.91094367,-0.265517165,-1.077515,-0.76885463,531
1747533023190,0.1053107,0.2209938349999999,-0.85688502,-0.002396845,-1.14169725,-1.15474668,532
1747533023200,0.039903358,0.3381413049999999,-0.9880658,0.2218413249999999,-1.11027195,-1.37552275,533
1747533023210,0.030507156,0.42343931,-1.1316935,0.193079185,-1.052215,-1.41866595,534
1747533023220,0.102137963,0.481524945,-1.19819905,0.090281165,-1.05514445,-1.4697986,535
1747533023230,0.29945826,0.531800745,-1.14889945,-0.07669904,-1.211472,-1.6863136,536
1747533023240,0.467125565,0.59781823,-1.07592635,-0.2593919,-1.5126755,-2.1065605,537
1747533023250,0.5282619,0.66176123,-1.04724965,-0.28069718,-1.56593875,-2.2037659,538
1747533023260,0.53936654,0.7490117,-1.0301657,-0.33129725,-1.7086842,-2.492719,539
1747533023270,0.52033,0.8268659,-1.0687267,-0.39148468,-1.7656758,-2.6732812,540
1747533023280,0.4351540499999999,0.9353494,-1.0720215,-0.463390025,-1.68018835,-2.7571708,541
1747533023290,0.3065359,1.0808075499999998,-1.03651118,-0.522245885,-1.47326075,-2.8352014,542
1747533023300,0.2630937,1.1177822,-0.99770606,-0.5091964,-1.3518206,-2.8293424,543
1747533023310,0.13911264,1.1492655,-0.8710403,-0.175236,-0.87032104,-2.625877,544
1747533023320,0.091277415,1.17977275,-0.906550625,-0.029561085,-0.7574030199999999,-2.5489116000000003,545
1747533023330,-0.0220871825,1.2544543,-1.003807475,0.234091865,-0.50999536,-2.2439796000000003,546
1747533023340,-0.1587592375,1.3365795,-1.1395033,0.321709865,-0.3145193349999999,-1.8176075,547
1747533023350,-0.252355195,1.39600745,-1.26531475,0.2047970949999999,-0.208259205,-1.3970943500000002,548
1747533023360,-0.252843305,1.3942991,-1.3323085,-0.13262543,-0.10013486,-0.7946873,549
1747533023370,-0.21855325,1.26116585,-1.26189805,-0.356064665,-0.08362326,-0.52890381,550
1747533023380,-0.23026801,1.1187584,-1.1163179,-0.6130597,-0.0375505715,-0.1392833275,551
1747533023390,-0.26712066,1.06665215,-1.01442395,-0.63516393,0.0583232285,0.1225054125,552
1747533023400,-0.2731000649999999,1.01979315,-0.95926695,-0.58909123,0.2380866,0.43382895,553
1747533023410,-0.24600971,0.9584128,-0.94730817,-0.539556435,0.44421528,0.7227819200000001,554
1747533023420,-0.18926639,0.8416314,-0.937301845,-0.5123922350000001,0.6492787,1.00774015,555
1747533023430,-0.1409430549999999,0.71911465,-0.913262175,-0.493483775,0.7664577699999999,1.2263857,556
1747533023440,-0.1317909099999999,0.659686735,-0.89813065,-0.482831125,0.75260932,1.31719955,557
1747533023450,-0.14533609,0.636623355,-0.90545238,-0.4791027,0.716922975,1.4066817500000002,558
1747533023460,-0.170229935,0.62307817,-0.9233906,-0.48442901,0.699079825,1.50788185,559
1747533023470,-0.187191915,0.5836629,-0.95304355,-0.51292486,0.720651435,1.6602147,560
1747533023480,-0.15668476,0.5008055,-0.9698835,-0.5656554,0.73822826,1.7757958,561
1747533023490,-0.139844807,0.4724948399999999,-0.949748785,-0.573112275,0.71372718,1.7638116,562
1747533023500,-0.1083614195,0.4157515149999999,-0.887636215,-0.558997545,0.6532734499999999,1.7275926,563
1747533023510,-0.0783423775,0.365475725,-0.80978193,-0.47697217,0.585362835,1.67113355,564
1747533023520,-0.07541369,0.348635775,-0.780006965,-0.251136095,0.5773733350000001,1.5603460999999998,565
1747533023530,-0.099453328,0.37133311,-0.809659915,-0.0157126519999999,0.644485,1.4721955,566
1747533023540,-0.113608648,0.385854515,-0.85432235,0.099069593,0.71745562,1.44849335,567
1747533023550,-0.14741059,0.37243137,-0.9093573,0.16724652,0.7435546,1.4002901,568
1747533023560,-0.173890795,0.35241866,-0.9386442,0.130761215,0.6426207749999999,1.3907027,569
1747533023570,-0.179992225,0.309464575,-0.965612535,0.0679106115,0.470047935,1.3491574000000002,570
1747533023580,-0.142163355,0.25992096,-0.93852216,0.0330231975,0.34061831,1.25967525,571
1747533023590,-0.15253578,0.23136626,-0.8984967450000001,0.0410126809999999,0.256196095,1.1688615,572
1747533023600,-0.1774296149999999,0.22380049,-0.842851695,0.147805445,0.2000034,1.1100056,573
1747533023610,-0.1261776,0.20940112,-0.8095379,0.32117724,0.13582122,1.0215886,574
1747533023620,-0.10055158,0.20256752,-0.81149036,0.39254996,0.06018744,0.90973586,575
1747533023630,-0.102870125,0.196832175,-0.8130767050000001,0.4253068399999999,0.037017939,0.86366318,576
1747533023640,-0.145580145,0.2140382,-0.841387325,0.49295111,0.036218991,0.8122641500000001,577
1747533023650,-0.2080588,0.2579685,-0.9013034,0.5488775,0.1059938119999999,0.82451468,578
1747533023660,-0.20549619,0.23356278,-1.0089327,0.5273059,0.2514024,0.8708537,579
1747533023670,-0.1398448,0.18011424,-0.9784255,0.50173956,0.2231729,0.8343684,580
1747533023680,-0.134597565,0.172914555,-0.956094235,0.464987935,0.15659388,0.7512777799999999,581
1747533023690,-0.10958171,0.16986385,-0.8817788,0.46525425,0.08175905,0.67005138,582
1747533023700,-0.08834873,0.165470815,-0.86347453,0.514789045,0.0375505725,0.60320602,583
1747533023710,-0.053936655,0.17462296,-0.858715445,0.614923895,0.0604537595,0.5390238199999999,584
1747533023720,-0.058573738,0.20818083,-0.9298581,0.79681784,0.23542345,0.49055427,585
1747533023730,-0.064309084,0.21171967,-0.9562163,0.78430097,0.238885555,0.49454902,586
1747533023740,-0.07004443,0.21525851,-0.9825745,0.7717841,0.24234766,0.49854377,587
1747533023750,-0.147044495,0.2494265,-1.0780009000000002,0.6364955299999999,0.16005599,0.5528722699999999,588
1747533023760,-0.14301755,0.260775165,-1.12266335,0.4972122,0.06604639675,0.5845638799999999,589
1747533023770,-0.050763908,0.21855327,-1.0673844,0.33262883,-0.05858954825,0.4905542899999999,590
1747533023780,0.01403329175,0.186459745,-0.9642702,0.28602351,-0.1073253949999999,0.32916671,591
1747533023790,0.01427734975,0.18475134,-0.8842194000000001,0.40346892,-0.0484695305,0.22556974,592
1747533023800,0.0036608591,0.19390348,-0.873846985,0.61092917,0.0585895495,0.136886485,593
1747533023810,-0.0054912879,0.210011265,-0.943891435,0.75766935,0.144609655,0.0777643074999999,594
1747533023820,-0.041855817,0.234294965,-1.0623812,0.7366303750000001,0.182426535,0.0833569425,595
1747533023830,-0.104700555,0.2768829499999999,-1.19514835,0.614124955,0.22237395,0.143278065,596
1747533023840,-0.12886222,0.3014107,-1.2520137,0.52837116,0.2396845,0.18801917,597
1747533023850,-0.070898627,0.270537465,-1.25128155,0.280430863,0.201867615,0.21305289,598
1747533023860,0.049299563,0.195001745,-1.0959390999999998,-0.098536962,0.01864213,0.129163317,599
1747533023870,0.115195023,0.13960074,-0.859325575,-0.164050725,-0.171773895,-0.038615838,600
1747533023880,0.118855886,0.12886222,-0.77732235,-0.09853696,-0.21678132,-0.0974717,601
1747533023890,0.067847915,0.143383625,-0.76902437,0.263386635,-0.2612561,-0.2671150599999999,602
1747533023900,-0.01793821,0.186825825,-0.916801,0.518517465,-0.137152791,-0.352336215,603
1747533023910,-0.06687169,0.2432030499999999,-1.0587203,0.6498113,-0.021837922,-0.37816888,604
1747533023920,-0.136916115,0.278713375,-1.16964435,0.58483018,0.110787504,-0.26658243,605
1747533023930,-0.16534878,0.262117485,-1.2174796,0.4202468299999999,0.24474451,-0.109988555,606
1747533023940,-0.09835507,0.21855326,-1.1877046,0.065247445,0.09800433,-0.0703074549999999,607
1747533023950,-0.0534485385,0.1854835,-1.08983765,-0.2444781899999999,-0.1179780399999999,-0.104928555,608
1747533023960,0.010006348,0.12910628,-0.8756774,-0.26897928,-0.27803403,-0.21038973,609
1747533023970,0.020134724,0.11263242,-0.821862785,-0.19547603,-0.296409845,-0.262055055,610
1747533023980,0.021599067,0.10030753,-0.750354035,-0.02210424,-0.3105246,-0.358994115,611
1747533023990,-0.067359803,0.15192564,-0.81844602,0.23089607,-0.22157501,-0.4205131399999999,612
1747533024000,-0.16852153,0.23331874,-0.96756492,0.39947417,-0.064182182,-0.3779025649999999,613
1747533024010,-0.20085911,0.27554062,-1.1416998,0.30626354,0.18002969,-0.1784318,614
1747533024020,-0.20854692,0.280055685,-1.17110875,0.2191781649999999,0.193611815,-0.1267664725,615
1747533024030,-0.17279253,0.243813185,-1.12827675,-0.019441075,0.115314879,-0.0591221775,616
1747533024040,-0.0924977,0.14814276,-0.9308343,-0.1808286399999999,-0.048203216,-0.06924219,617
1747533024050,-0.0507639095,0.123248915,-0.88360925,-0.157392825,-0.1768339,-0.142212805,618
1747533024060,0.011104604,0.077244118,-0.8107581850000001,-0.0572579649999999,-0.2599245249999999,-0.25273399,619
1747533024070,0.009640261,0.058085626,-0.784155935,0.09454222,-0.276702435,-0.371777295,620
1747533024080,-0.1100698175,0.127641943,-0.8675015,0.31079091,-0.162186509,-0.4053331249999999,621
1747533024090,-0.20818083,0.1952458,-0.9518233,0.4428837,0.0426105809999999,-0.30679616,622
1747533024100,-0.23514916,0.25406359,-1.1377949,0.3949468,0.204264465,-0.17763285,623
1747533024110,-0.188900305,0.2172109549999999,-1.1903892,0.2719087599999999,0.2761698099999999,-0.1139833,624
1747533024120,-0.10640896,0.113974735,-1.1113146,0.135288587,0.25752768,-0.13289174,625
1747533024130,-0.039415245,0.016351837,-0.95877885,0.0575242805,0.08575379,-0.273772965,626
1747533024140,-0.00915214638,-0.0190364655,-0.8540783,0.0873516885,-0.12330436,-0.4460794849999999,627
1747533024150,-0.00024405726,-0.01183677662,-0.8268659,0.1938781299999999,-0.22184132,-0.55739962,628
1747533024160,-0.03892712838,0.02879875588,-0.86750145,0.302801415,-0.23568976,-0.62610917,629
1747533024170,-0.1319129425,0.10689708,-0.95853485,0.36112465,-0.13102753,-0.574443835,630
1747533024180,-0.17145022,0.13203498,-1.02772505,0.3339604149999999,-0.0484695324999999,-0.494282695,631
1747533024190,-0.138258435,0.08371164,-1.0421244,0.243412935,-0.0721716675,-0.50014166,632
1747533024200,-0.1133646,0.04978768,-1.0301656,0.1448759675,-0.118244355,-0.5440838,633
1747533024210,-0.124103115,0.03477816,-0.98562518,0.0780306215,-0.170176,-0.58909123,634
1747533024220,-0.14911898,0.018304294,-0.93473928,0.083623259,-0.22050975,-0.605336545,635
1747533024230,-0.149485065,0.0006101429,-0.9263193,0.1190433,-0.25379926,-0.599743915,636
1747533024240,-0.123492965,-0.0313613561,-0.94023055,0.1169127725,-0.31212249,-0.6237123499999999,637
1747533024250,-0.0993312975,-0.0690682,-0.9459659,0.0924116925,-0.40240365,-0.68416608,638
1747533024260,-0.1016498425,-0.084443807,-0.95218938,0.07057377,-0.46125952,-0.74355458,639
1747533024270,-0.20500809,-0.13569583,-0.96719885,0.0777643,-0.43356264,-0.7771104,640
1747533024280,-0.21330604,-0.1524137549999999,-0.967076825,0.0793621975,-0.42663841,-0.77977355,641
1747533024290,-0.22160399,-0.16913168,-0.9669548,0.080960095,-0.41971418,-0.7824367,642
1747533024300,-0.284204645,-0.206472435,-0.98342867,0.030626353,-0.45699845,-0.78723045,643
1747533024310,-0.32911119,-0.199028695,-1.01710857,-0.043675841,-0.492951115,-0.7637946,644
1747533024320,-0.39317623,-0.15583056,-1.02589465,-0.2159823699999999,-0.460194235,-0.63543025,645
1747533024330,-0.4380827699999999,-0.139966835,-0.96671077,-0.38402784,-0.37017938,-0.4415521,646
1747533024340,-0.43173729,-0.188778285,-0.86078992,-0.371510985,-0.37310886,-0.43702474,647
1747533024350,-0.44760099,-0.24064044,-0.76060438,-0.314253015,-0.38456047,-0.4332963199999999,648
1747533024360,-0.478474225,-0.23209843,-0.7601162800000001,-0.172839153,-0.36378782,-0.44368264,649
1747533024370,-0.515326875,-0.196832165,-0.827354075,-0.060720073,-0.29348035,-0.45140581,650
1747533024380,-0.5736565499999999,-0.170229925,-0.882999155,-0.0455400549999999,-0.2058623499999999,-0.42184472,651
1747533024390,-0.63186422,-0.144847975,-0.937179865,-0.059388492,-0.1046622349999999,-0.33262882,652
1747533024400,-0.68689912,-0.126421655,-0.982208385,-0.090281162,0.04181163,-0.16298546,653
1747533024410,-0.6877533149999999,-0.103724328,-1.01417985,-0.153398085,0.250337145,0.11877698,654
1747533024420,-0.64028418,-0.100307533,-1.01698655,-0.233825555,0.35499938,0.356597275,655
1747533024430,-0.591106615,-0.12459123,-0.990750425,-0.300937225,0.291616145,0.465786885,656
1747533024440,-0.52447901,-0.148752895,-0.953409645,-0.36059203,0.171507575,0.5305017000000001,657
1747533024450,-0.4515059,-0.20061506,-0.90642864,-0.4048005,-0.015978966,0.5422196,658
1747533024460,-0.5012936,-0.19280522,-0.9183875,-0.2860235,0.058056913,0.5837649,659
1747533024470,-0.515204875,-0.185483505,-0.934251175,-0.198139185,0.2149171064999999,0.63170182,660
1747533024480,-0.537658125,-0.173524705,-0.975252725,-0.0569916478,0.5142564199999999,0.72544509,661
1747533024490,-0.5503491,-0.172060365,-1.02320995,0.0165115991999999,0.75527252,0.81918837,662
1747533024500,-0.49799883,-0.17706353,-1.08056345,0.0135821219999999,0.8886969,0.897219015,663
1747533024510,-0.39586085,-0.18572757,-1.0953289,-0.30839407,0.69508505,0.84848315,664
1747533024520,-0.390979705,-0.184385255,-1.06787245,-0.45380265,0.49747851,0.7861652,665
1747533024530,-0.38829508,-0.17694151,-1.012227415,-0.496679545,0.4130562949999999,0.77205042,666
1747533024540,-0.377556575,-0.16998588,-0.951823265,-0.5480785699999999,0.276436125,0.7555388199999999,667
1747533024550,-0.323009775,-0.17681948,-0.887514175,-0.5206480099999999,0.214917105,0.72544512,668
1747533024560,-0.249914625,-0.172914565,-0.831747075,-0.373375195,0.32437302,0.6125270700000001,669
1747533024570,-0.2894519,-0.09859913,-0.822717,-0.1454086,0.5917544,0.5225122,670
1747533024580,-0.3214234,-0.072362975,-0.838824775,-0.1059938149999999,0.63915868,0.5440838,671
1747533024590,-0.3627911099999999,-0.0303851269999999,-0.886293875,-0.057524281,0.70200928,0.58935755,672
1747533024600,-0.3214234099999999,0.0003660864999999,-0.9656125,-0.087884316,0.7054713850000001,0.6162555000000001,673
1747533024610,-0.23307467,0.01586372,-0.96768695,-0.26471822,0.599477585,0.5749765,674
1747533024620,-0.21916342,0.008542004,-0.8681116,-0.46498793,0.3536678,0.4575311,675
1747533024630,-0.22624107,0.018060237,-0.8133207499999999,-0.434095265,0.31185617,0.45193845,676
1747533024640,-0.236491475,0.0347781575,-0.730829415,-0.33103094,0.25752768,0.459128975,677
1747533024650,-0.23966423,0.041977845,-0.70312893,-0.25885928,0.24501082,0.47191215,678
1747533024660,-0.20342172,0.052228252,-0.74962185,0.19068234,0.2231729,0.5470133,679
1747533024670,-0.14484798,0.045760734,-0.84785485,0.23009712,0.11930962,0.5022722,680
1747533024680,-0.0630887988999999,0.070654575,-0.97891355,0.2223739599999999,0.0732369315,0.4759068999999999,681
1747533024690,0.0400253861,0.103236221,-1.0793431,0.151267557,0.0516653245,0.34887411,682
1747533024700,0.10372432,0.12178457,-1.0426126,0.0625842845,0.108124338,0.17337179,683
1747533024710,0.10067361,0.132889175,-1.0066141,0.0487358475,0.143544385,0.04607268665,684
1747533024720,0.08688438,0.15192564,-0.95182322,0.084422205,0.12570121,-0.0484695333499999,685
1747533024730,0.0583296819999999,0.16547082,-0.93400707,0.128896995,0.074035882,-0.128897,686
1747533024740,0.013179092,0.19243915,-0.9536537,0.15899072,-0.014647385,-0.243412925,687
1747533024750,-0.035022215,0.225508895,-0.9797678,0.16698021,-0.091080112,-0.34115094,688
1747533024760,-0.055400997,0.2349050899999999,-0.9866014,0.16538231,-0.113450665,-0.396012075,689
1747533024770,-0.063210827,0.231976405,-0.989041985,0.15739282,-0.122771725,-0.467917435,690
1747533024780,-0.050275791,0.23209843,-0.976839135,0.161920195,-0.145408595,-0.5685849350000001,691
1747533024790,-0.028066584,0.23771176,-0.964880325,0.19547603,-0.16724652,-0.7502125,692
1747533024800,-0.041855818,0.25345346,-0.954141775,0.22716765,-0.179763375,-0.8958874,693
1747533024810,-0.05662128,0.264314,-0.9401085,0.23808661,-0.18801917,-0.9219864,694
1747533024820,-0.106286935,0.281275975,-0.92509903,0.26498453,-0.2833603449999999,-0.925981115,695
1747533024830,-0.14643435,0.274686435,-0.96195168,0.2607234699999999,-0.38615836,-0.899882135,696
1747533024840,-0.134353515,0.26626646,-1.01479005,0.24234766,-0.55979645,-0.8349010050000001,697
1747533024850,-0.09689073,0.26651052,-1.0338265,0.23009712,-0.67218184,-0.78989357,698
1747533024860,-0.0605262,0.24552159,-1.0423685,0.2082592,-0.7355651,-0.8181231,699
1747533024870,-0.05735345,0.24088451,-1.073852,0.18695391,-0.7488809,-0.8314389,700
1747533024880,-0.09249769,0.27041544,-1.10082025,0.08548747115,-0.751277735,-0.8330367999999999,701
1747533024890,-0.1184897899999999,0.298482015,-1.1192465,-0.02982740385,-0.721716635,-0.8229168,702
1747533024900,-0.0690682,0.28115395,-1.0662861,-0.092678005,-0.696682925,-0.848749465,703
1747533024910,-0.064919226,0.27724904,-0.9906283,-0.14274544,-0.71319455,-0.9416938,704
1747533024920,-0.0783423779999999,0.30104462,-0.926929385,-0.0945422225,-0.789627275,-0.9851033,705
1747533024930,-0.099575363,0.328012935,-0.843583855,0.0127831725,-0.9254485,-1.0532802,706
1747533024940,-0.107385196,0.33118567,-0.82393724,0.07190535,-0.984837,-1.0780476,707
1747533024950,-0.114706913,0.377556575,-0.8581052849999999,0.20373183,-1.1076087,-1.11799505,708
1747533024960,-0.107385196,0.38805103,-0.878118,0.23861924,-1.1408982,-1.1371698,709
1747533024970,-0.14606826,0.396715045,-0.9746426,0.313720375,-1.1385014,-1.1656656,710
1747533024980,-0.03526627,0.41648367,-1.07580435,0.3403519849999999,-1.0729875999999998,-1.1941614,711
1747533024990,0.14716653,0.43259147,-1.1603702,0.302002475,-1.01732755,-1.29988895,712
1747533025000,0.234783085,0.466881535,-1.1963686,0.180828645,-1.0274476,-1.44503125,713
1747533025010,0.23819989,0.57377857,-1.1499978,-0.08735169,-1.1345067,-1.6101472,714
1747533025020,0.20671648,0.6743302,-1.040416,-0.2047970949999999,-1.2287826,-1.62426195,715
1747533025030,0.1791380149999999,0.6848246499999999,-1.02455235,-0.36485307,-1.3843112,-1.6271914,716
1747533025040,0.1330111974999999,0.7178944,-1.00136692,-0.437823685,-1.4900387,-1.59203765,717
1747533025050,0.0944501525,0.766583835,-0.99136052,-0.47723848,-1.53797555,-1.5275892,718
1747533025060,0.0554009949999999,0.812222515,-0.986601415,-0.46818373,-1.4844460000000002,-1.4263891,719
1747533025070,-0.0064675169999999,0.85737308,-0.989530085,-0.349673055,-1.19709095,-1.1952267,720
1747533025080,-0.046736963,0.8910530000000001,-1.02577262,-0.19041602,-0.8125304499999999,-0.8844357999999999,721
1747533025090,-0.044174362,0.8991069,-1.057012,-0.13156016,-0.6583334,-0.7440872,722
1747533025100,0.0113486626499999,0.882266915,-1.18563015,-0.1368864775,-0.35819517,-0.477238485,723
1747533025110,0.0064675175,0.8607898949999999,-1.2370042,-0.2117212949999999,-0.21864553,-0.32756881,724
1747533025120,-0.0361204715,0.825523645,-1.22065235,-0.36751623,-0.100134863,-0.1025316935,725
1747533025130,-0.093473926,0.7726852,-1.1121689,-0.49135323,-0.0039947429999999,0.1227717315,726
1747533025140,-0.1215405079999999,0.7636551,-1.07629245,-0.4916195399999999,0.075633775,0.27244139,727
1747533025150,-0.21721096,0.7480355,-1.0008788,-0.38083205,0.23009712,0.54275227,728
1747533025160,-0.23100019,0.7257042300000001,-1.0268709,-0.2450108299999999,0.41598576,0.750212535,729
1747533025170,-0.2391761,0.69055998,-1.07690265,-0.0825579965,0.68816083,1.0263823,730
1747533025180,-0.2273393249999999,0.6666424,-1.10985035,-0.0412789975,0.84528735,1.15714345,731
1747533025190,-0.205984315,0.6462635999999999,-1.10863005,-0.0079894834999999,0.97817912,1.2660668,732
1747533025200,-0.184385245,0.6197833500000001,-1.0909358999999998,0.026098979,1.098554,1.3462279499999998,733
1747533025210,-0.200371005,0.56560265,-1.06933685,0.0804274665,1.21546675,1.43597645,734
1747533025220,-0.22062775,0.49982923,-1.0648217,0.13209279,1.2543489,1.530785,735
1747533025230,-0.2080588,0.481646965,-1.0805634,0.110787505,1.21786355,1.53477975,736
1747533025240,-0.19548985,0.4634647,-1.0963051,0.03169162,1.102815,1.5177355499999998,737
1747533025250,-0.16315227,0.414287165,-1.08751915,-0.070840085,0.96273275,1.4823155,738
1747533025260,-0.1624201,0.39793533,-1.0389517499999998,-0.1627191399999999,0.8333031,1.4732607,739
1747533025270,-0.1253234,0.36681804,-0.971347875,-0.1984055049999999,0.760598815,1.4559502000000002,740
1747533025280,-0.039781332,0.3141017,-0.86567104,-0.11025487,0.78989357,1.3566142,741
1747533025290,-0.043198133,0.3134915499999999,-0.8523699199999999,-0.0513990095,0.82930836,1.32625425,742
1747533025300,-0.057109397,0.32142339,-0.8416314,0.0644485004999999,0.915328475,1.28071425,743
1747533025310,-0.077000065,0.30372924,-0.8428516699999999,0.192280235,0.99122855,1.2370383500000002,744
1747533025320,-0.09786696,0.26211749,-0.8351638699999999,0.279099285,0.975249585,1.19469405,745
1747533025330,-0.1082393949999999,0.230756135,-0.81930015,0.312122475,0.846618935,1.1590077,746
1747533025340,-0.09615856,0.192439145,-0.8053889000000001,0.33902041,0.6540724,1.09509185,747
1747533025350,-0.08859278,0.155342435,-0.811246285,0.35553202,0.42397527,1.00587595,748
1747533025360,-0.0729731164999999,0.137160175,-0.860667885,0.39121838,0.1717738935,0.8434231,749
1747533025370,-0.057353454,0.143505665,-0.91643497,0.4466121349999999,0.0628506035,0.6764429000000001,750
1747533025380,-0.0888368375,0.16559284,-0.95572817,0.503337465,0.15899072,0.59441755,751
1747533025390,-0.148386805,0.2024454849999999,-1.0205254,0.5526059350000001,0.37097834,0.5784385999999999,752
1747533025400,-0.157416925,0.231488295,-1.1050912,0.508131145,0.67697555,0.6114618249999999,753
1747533025410,-0.10323621,0.20549619,-1.1067996,0.3435478,0.87564737,0.59761333,754
1747533025420,-0.09469421,0.1859716149999999,-1.0564018,0.3166498749999999,0.8498147149999999,0.567785945,755
1747533025430,-0.0719968875,0.1446039175,-0.93425117,0.3028014249999999,0.76432726,0.50200588,756
1747533025440,-0.057841565,0.122760795,-0.86249834,0.3158509,0.70467246,0.4660532,757
1747533025450,-0.0924976975,0.114462845,-0.7945283949999999,0.5454154,0.5278385449999999,0.34834148,758
1747533025460,-0.21232979,0.12642166,-0.8251576,0.862331575,0.29134983,0.2367550299999999,759
1747533025470,-0.235393205,0.14313958,-0.92863785,0.951813775,0.196008665,0.24501083,760
1747533025480,-0.29018406,0.18511742,-1.1497537,0.87378315,0.14674018,0.259391905,761
1747533025490,-0.3219115,0.21037734,-1.2673893,0.50014165,0.160588615,0.3142530249999999,762
1747533025500,-0.31044081,0.26943919,-1.47373965,0.0764327225,0.23089606,0.356330965,763
1747533025510,-0.27419831,0.2482062099999999,-1.3681849,-0.20080236,0.34940675,0.34088463,764
1747533025520,-0.24735201,0.206472425,-1.17550175,-0.184557075,0.376304675,0.33609094,765
1747533025530,-0.202201425,0.1550983799999999,-0.9841609,-0.079628521,0.415985765,0.31505196,766
1747533025540,-0.1033582435,0.1057988149999999,-0.88434145,0.241016089,0.424507885,0.18535601,767
1747533025550,-0.0308732415,0.076511945,-0.8971544,0.520648015,0.386691005,0.004261055,768
1747533025560,-0.023429496,0.07541369,-0.9283937,0.5683186,0.35313517,-0.06338324,769
1747533025570,-0.11507299,0.130082515,-1.03943985,0.52837117,0.20319919,-0.1235706799999999,770
1747533025580,-0.14033292,0.18072439,-1.142554,0.423442615,0.13102753,-0.0924116899999999,771
1747533025590,-0.119343995,0.21245184,-1.2326111,0.151800178,0.117711725,-0.0343547772499999,772
1747533025600,-0.085175975,0.21037735,-1.2464004,-0.162452822,0.148604395,0.00825579975,773
1747533025610,-0.04515059,0.192317105,-1.1905112999999998,-0.353401475,0.18269286,0.016777915,774
1747533025620,-0.02391761,0.18060236,-1.142432,-0.43303,0.1965413,0.015978966,775
1747533025630,0.0428320505,0.0572314275,-0.823693175,-0.4743090199999999,0.0572579645,-0.0713727195,776
1747533025640,0.03697467675,-0.0134231475,-0.650656625,-0.29880668,-0.2553971505,-0.242347667,777
1747533025650,-0.06296676825,-0.0104944605,-0.67115743,-0.0782969355,-0.574710185,-0.3877562599999999,778
1747533025660,-0.1574169249999999,0.0374627895,-0.77671218,0.0471379495,-0.64475132,-0.394147845,779
1747533025670,-0.20329969,0.08078295,-0.9386441,0.135554895,-0.5478122400000001,-0.369380445,780
1747533025680,-0.21428226,0.08615221,-0.9956315,0.16831178,-0.235423444,-0.33635725,781
1747533025690,-0.23466104,0.0990872449999999,-1.0551815,0.117445405,0.0585895409999999,-0.29640984,782
1747533025700,-0.264680075,0.1105579325,-1.0438328,0.0133158039999999,0.1126517125,-0.247141355,783
1747533025710,-0.276394825,0.1072631575,-1.00942075,-0.14594123,-0.02876214,-0.1736381,784
1747533025720,-0.1831649699999999,0.0331917835,-0.9447456,-0.23435818,-0.20399815,-0.20399815,785
1747533025730,-0.079562664,-0.051496077,-0.8510276,-0.24980451,-0.46552056,-0.42770368,786
1747533025740,-0.0995753595,-0.037828872,-0.8371163500000001,-0.19813919,-0.46978162,-0.454068975,787
1747533025750,-0.1394787175,-0.0156196635,-0.8250355,0.0053263223,-0.37444046,-0.46658584,788
1747533025760,-0.1699858699999999,0.0045150585,-0.86164405,0.08069378615,-0.275104545,-0.4402205449999999,789
1747533025770,-0.18426323,0.016107777,-1.0255286,0.1989381399999999,0.0242347699999999,-0.340085685,790
1747533025780,-0.174500935,-0.0013423155,-1.01515615,0.21704763,0.222640275,-0.2532666249999999,791
1747533025790,-0.15436621,-0.0367306165,-0.98525912,0.1565938725,0.154197035,-0.2426139749999999,792
1747533025800,-0.14399378,-0.054668825,-0.96573454,0.0830906275,-0.03222425,-0.25539716,793
1747533025810,-0.104334475,-0.090667265,-0.92229233,0.006391587,-0.2908172049999999,-0.2857572,794
1747533025820,-0.04441841885,-0.118489795,-0.9003271850000001,-0.082557998,-0.65220816,-0.390685735,795
1747533025830,-0.04271002,-0.093717985,-0.91814333,-0.13475595,-0.8873653,-0.5544701,796
1747533025840,-0.054790855,-0.0870064075,-0.91631293,-0.1078580225,-0.82584625,-0.5792375,797
1747533025850,-0.0865182925,-0.08212526,-0.90142545,-0.0087884275,-0.62637548,-0.62291338,798
1747533025860,-0.1233709325,-0.0899350949999999,-0.874701205,0.148604395,-0.36884782,-0.64528398,799
1747533025870,-0.16400647,-0.123492965,-0.87787397,0.377636245,-0.1038632835,-0.65833345,800
1747533025880,-0.203787805,-0.155586495,-0.9241228,0.53715959,0.046605319,-0.6743124,801
1747533025890,-0.2484502699999999,-0.1632742999999999,-0.99831615,0.51851747,0.0253000302499999,-0.6769755799999999,802
1747533025900,-0.29445505,-0.1616879299999999,-1.0583542,0.4213120999999999,-0.05246427425,-0.65567028,803
1747533025910,-0.349734025,-0.16803342,-1.057256,0.2295644949999999,-0.247141352,-0.5736449,804
1747533025920,-0.383902045,-0.19402551,-1.020281335,0.034621095,-0.49188586,-0.4852279499999999,805
1747533025930,-0.38622059,-0.22941381,-0.97159186,-0.0545948,-0.64768078,-0.454068965,806
1747533025940,-0.41611761,-0.25577198,-0.922536375,-0.074834825,-0.726510345,-0.4319647399999999,807
1747533025950,-0.46895601,-0.25345344,-0.89117505,-0.057790597,-0.752875665,-0.387756275,808
1747533025960,-0.54266132,-0.2421048,-0.9160689,-0.049268482,-0.7446199,-0.2700445449999999,809
1747533025970,-0.5491288,-0.23478308,-1.0000246,-0.094542225,-0.70307455,-0.1520665,810
1747533025980,-0.4087959,-0.24698594,-1.1187584,-0.28176245,-0.5949502,-0.15180019,811
1747533025990,-0.3841461149999999,-0.243325085,-1.14096765,-0.3779025649999999,-0.5454154,-0.190149705,812
1747533026000,-0.410870375,-0.231488305,-1.11814825,-0.60080914,-0.448210015,-0.27537086,813
1747533026010,-0.48250116,-0.2047640299999999,-1.017840725,-0.8551410500000001,-0.300670895,-0.266049795,814
1747533026020,-0.522160465,-0.184263225,-0.89703244,-0.98323912,-0.13582122,-0.153664395,815
1747533026030,-0.5994046,-0.19939478,-0.70971847,-0.9086706,0.00479369,0.039947417,816
1747533026040,-0.6190511999999999,-0.21062141,-0.6612730849999999,-0.8364989,0.01917476,0.1113201385,817
1747533026050,-0.6415044649999999,-0.231854395,-0.59855037,-0.66525762,0.0572579624999999,0.2428803,818
1747533026060,-0.6958072,-0.20769271,-0.70288485,-0.13795175,0.27856666,0.5944176,819
1747533026070,-0.6964173499999999,-0.2023234549999999,-0.751452275,-0.05352954,0.36112465,0.67324715,820
1747533026080,-0.68458055,-0.1935374,-0.88312117,0.081226415,0.58269964,0.84768418,821
1747533026090,-0.65468355,-0.186337715,-1.03199607,0.1142496125,0.82291677,1.01679493,822
1747533026100,-0.588788125,-0.191462915,-1.1420659,0.03355583,0.9946907,1.1307782,823
1747533026110,-0.4563870599999999,-0.217821085,-1.18794865,-0.2279666025,1.0791129000000002,1.14302875,824
1747533026120,-0.32288775,-0.2474740349999999,-1.1421879,-0.496679575,1.04076337,1.0636666,825
1747533026130,-0.25089086,-0.2569922799999999,-1.0594525,-0.606668125,0.927579045,0.94435695,826
1747533026140,-0.236857565,-0.23990828,-0.9980721,-0.654871325,0.815459925,0.83516732,827
1747533026150,-0.25113491,-0.20793677,-0.9580467,-0.6498113249999999,0.7326356,0.78296937,828
1747533026160,-0.2417387,-0.184873355,-0.92961403,-0.5968144200000001,0.65220815,0.758201975,829
1747533026170,-0.221603985,-0.17877193,-0.91253003,-0.56192699,0.55633435,0.713727175,830
1747533026180,-0.21220778,-0.1383804599999999,-0.91118773,-0.58163437,0.4655205599999999,0.66312712,831
1747533026190,-0.20769271,-0.09859913,-0.91253006,-0.5970807,0.42184472,0.64341974,832
1747533026200,-0.158271125,0.0145214065,-0.91033358,-0.65700187,0.347276215,0.6197176,833
1747533026210,-0.053692598,0.010494461,-0.7936742,-0.6490123999999999,0.373108875,0.58562914,834
1747533026220,-0.0405135055,-0.0029286864999999,-0.7532827,-0.5507417299999999,0.422111045,0.51718592,835
1747533026230,-0.0340459865,-0.015497634,-0.69178025,-0.37657098,0.432763695,0.43516054,836
1747533026240,-0.069678345,0.0024405729999999,-0.67079132,-0.185089695,0.41571946,0.3842941549999999,837
1747533026250,-0.14863087,0.060038086,-0.7690244,0.12836437,0.2796319,0.39521313,838
1747533026260,-0.1425294349999999,0.076267893,-0.80429065,0.14008228,0.248739245,0.3949468,839
1747533026270,-0.132279025,0.1098257649999999,-0.86066785,0.1520665,0.19281287,0.391750985,840
1747533026280,-0.11543907,0.16986385,-0.89300543,0.154729655,0.151533865,0.38722361,841
1747533026290,-0.092009575,0.213672115,-0.884341415,0.195476025,0.14514228,0.387489945,842
1747533026300,-0.0646751675,0.251256935,-0.86359655,0.2870887749999999,0.1912149699999999,0.3936152149999999,843
1747533026310,-0.0550349095,0.24051842,-0.8494412,0.39121838,0.26738138,0.39787626,844
1747533026320,-0.049299564,0.23600335,-0.8473667,0.44208476,0.3073288,0.39787626,845
1747533026330,-0.0785864325,0.20696054,-0.88409737,0.566987,0.36884782,0.395745755,846
1747533026340,-0.115072995,0.175843245,-0.9426711,0.60879865,0.325171965,0.39974049,847
1747533026350,-0.14313958,0.14741058,-0.99258085,0.6117281299999999,0.221042375,0.4013383849999999,848
1747533026360,-0.152901865,0.14924101,-1.01674255,0.589357555,0.102265393,0.401871025,849
1747533026370,-0.128008023,0.1858495949999999,-1.0456633,0.548078525,-0.010386327,0.406398385,850
1747533026380,-0.072607029,0.215990665,-1.0790991,0.48203214,-0.0905474775,0.40266995,851
1747533026390,-0.006711575,0.211841695,-1.0819057,0.36938044,-0.1533980824999999,0.33369408,852
1747533026400,0.0367306145,0.21147561,-1.0632354,0.283094025,-0.164317045,0.2364887,853
1747533026410,0.04515059,0.2328306,-1.0594525,0.25433189,-0.0982706475,0.17550231,854
1747533026420,0.0250158674999999,0.23697958,-1.0534731,0.233292915,-0.0111852774999999,0.1331580525,855
1747533026430,-0.026114126,0.24234885,-1.0378535,0.23675503,0.05113269,0.1169127725,856
1747533026440,-0.057109397,0.24356914,-1.0282133,0.24501083,0.045806368,0.13528858,857
1747533026450,-0.02001269495,0.24369117,-1.09154605,0.21385184,0.0005326315,0.154197025,858
1747533026460,-0.0039049159,0.24161668,-1.1097283,0.18482338,-0.019707393,0.15286545,859
1747533026470,0.073461229,0.224532675,-1.1240057,0.0311589865,-0.1217064675,0.0865527375,860
1747533026480,0.103114185,0.210987495,-1.11143675,-0.0932106435,-0.16218652,-0.0149137025,861
1747533026490,0.0787084635,0.212939945,-1.0795873,-0.181361275,-0.18588865,-0.1206412,862
1747533026500,0.0402694465,0.23344076,-1.061649,-0.202932875,-0.198405505,-0.17417074,863
1747533026510,0.021110952,0.261263285,-1.06518785,-0.23675503,-0.22184132,-0.213585525,864
1747533026520,0.0397813315,0.2920144999999999,-1.05091055,-0.318780395,-0.30306773,-0.263386645,865
1747533026530,0.060770255,0.3077562,-1.0338265,-0.37550572,-0.3653857,-0.2972088,866
1747533026540,0.07700006,0.3044614,-0.963049885,-0.3864246799999999,-0.41119207,-0.35047201,867
1747533026550,0.078830495,0.29482117,-0.9081371,-0.371244655,-0.47324373,-0.42237735,868
1747533026560,0.061258372,0.28383857,-0.9091133,-0.309991955,-0.49428271,-0.4612595,869
1747533026570,0.0414897335,0.301166635,-0.9527995,-0.2197108,-0.5198490499999999,-0.51052798,870
1747533026580,0.0268462974999999,0.33277206,-1.02772505,-0.170442315,-0.5672533200000001,-0.5448827700000001,871
1747533026590,0.05332651,0.34863578,-1.07922115,-0.19920445,-0.63436499,-0.5573996299999999,872
1747533026600,0.113974735,0.333870305,-1.1087520999999998,-0.2775014,-0.7547399,-0.64395237,873
1747533026610,0.183653085,0.31617616,-1.1418219,-0.3054646,-0.7627293500000001,-0.7065366500000001,874
1747533026620,0.24710796,0.318128625,-1.18550815,-0.433030015,-0.6775081700000001,-0.918790565,875
1747533026630,0.258944735,0.30433939,-1.15317055,-0.5219795650000001,-0.51931642,-1.12997925,876
1747533026640,0.22026167,0.29262464,-1.052863,-0.462591075,-0.396811,-1.2434299,877
1747533026650,0.14814276,0.34265637,-0.97427654,-0.32011196,-0.27057716,-1.3496901,878
1747533026660,0.1336213525,0.34424275,-0.97622902,-0.2932140399999999,-0.27324033,-1.3741911999999998,879
1747533026670,0.1189779155,0.3414360899999999,-0.99209275,-0.28362666,-0.36085834,-1.4689997,880
1747533026680,0.1198321129999999,0.333992335,-1.00759035,-0.325171975,-0.498277455,-1.59017345,881
1747533026690,0.094450155,0.3425343349999999,-1.0094208,-0.371510985,-0.580302815,-1.68418305,882
1747533026700,0.0461268185,0.3842681249999999,-1.01759675,-0.39840891,-0.5898902,-1.72306525,883
1747533026710,-0.01586372,0.44027928,-1.0479817,-0.38935417,-0.44368264,-1.6564863,884
1747533026720,0.021232981,0.47786412,-1.0599406,-0.35313517,-0.18642128,-1.4988271,885
1747533026730,0.09127741,0.4983649,-1.0350468,-0.3635215,-0.17656759,-1.4623418,886
1747533026740,0.122394705,0.49018899,-0.9983162,-0.384027835,-0.2191781749999999,-1.4144049,887
1747533026750,0.172914555,0.4962903899999999,-0.940108515,-0.401604695,-0.3893541749999999,-1.3928333,888
1747533026760,0.239054075,0.5643823299999999,-0.8984967150000001,-0.4362258,-0.76512625,-1.341168,889
1747533026770,0.28615712,0.6491922800000001,-0.85151575,-0.4319647399999999,-1.0143981000000002,-1.2684637,890
1747533026780,0.259310815,0.71801645,-0.8118564500000001,-0.322775125,-0.89748527,-1.17232355,891
1747533026790,0.21025531,0.7779325,-0.77964085,-0.1241033067,-0.61545652,-1.03703495,892
1747533026800,0.120076163,0.8971544499999999,-0.8061211,0.2167813183,-0.075101135,-0.75260935,893
1747533026810,0.0450285614999999,1.02857925,-0.8942258000000001,0.47697215,0.4351605149999999,-0.4032025999999999,894
1747533026820,0.053204484,1.0731196,-0.9601213,0.5044027,0.7552725,-0.023435818,895
1747533026830,0.05027579,1.0553036,-0.9269294,0.45167214,0.82557994,0.2066613,896
1747533026840,0.051984194,1.03333845,-0.90288975,0.430366845,0.812264145,0.348341475,897
1747533026850,0.09054524,0.8263778,-0.8156393,0.53263223,0.6609966,0.8628642,898
1747533026860,0.08566409,0.76292294,-0.8812907,0.63010395,0.6428871,1.0024139,899
1747533026870,0.08664032,0.74437463,-0.9957536,0.70147663,0.6892261,1.1307782,900
1747533026880,0.079074545,0.724239885,-1.0585983,0.722781915,0.751810375,1.1829762,901
1747533026890,0.071142685,0.694952995,-1.19331785,0.74834825,0.901213705,1.28124685,902
1747533026900,0.07687803,0.6657882,-1.4133356,0.5853628,1.2964269,1.427987,903
1747533026910,0.08664032,0.6382097,-1.4392056,0.40852892,1.3725933,1.470065,904
1747533026920,0.12544543,0.57402265,-1.3899059,0.14807177,1.3843112,1.5068166,905
1747533026930,0.1507053549999999,0.5326549549999999,-1.34231475,0.052197963,1.3528859,1.5038871,906
1747533026940,0.211841695,0.4458926,-1.2361499,-0.112918037,1.26979525,1.4791197,907
1747533026950,0.295431305,0.289695945,-1.023332,-0.170442315,1.11479925,1.3084111,908
1747533026960,0.323619915,0.1652267499999999,-0.80819555,-0.0703074514999999,0.9667275,1.07831397,909
1747533026970,0.22282428,0.17840585,-0.73510045,0.22690132,0.89162636,0.87511474,910
1747533026980,0.13862452,0.2203837,-0.79782313,0.39095205,0.8905611,0.8223842,911
1747533026990,0.117513565,0.231610335,-0.8391908400000001,0.42663841,0.8844358299999999,0.806138885,912
1747533027000,0.05296042,0.24088451,-1.027481,0.3339604,0.7749799,0.7052051,913
1747533027010,0.02391761,0.23600335,-1.0526189,0.19920446,0.7089335,0.6535397,914
1747533027020,-0.028066583,0.22648512,-1.0206474,0.0793622,0.6375608,0.60293967,915
1747533027030,-0.0474691364999999,0.222946295,-1.0014889,-0.004261058,0.5635249,0.561927,916
1747533027040,-0.06845806,0.205984315,-0.941572885,-0.0202400254999999,0.523311165,0.53103435,917
1747533027050,-0.10592084,0.118855886,-0.6552937,0.165116,0.34194988,0.3637878,918
1747533027060,-0.12202862,0.1098257629999999,-0.618441075,0.44101948,0.30146983,0.31052458,919
1747533027070,-0.18743597,0.113974735,-0.6535853,0.7685883,0.29667616,0.30360037,920
1747533027080,-0.21891935,0.13716017,-0.77732235,0.922519,0.32011196,0.32969934,921
1747533027090,-0.269683265,0.168765585,-0.897520525,0.92651375,0.30626352,0.39308257,922
1747533027100,-0.30970863,0.19475769,-1.1175382,0.7643272,0.18908444,0.49747851,923
1747533027110,-0.310928915,0.199150715,-1.15024185,0.53103435,0.049002163,0.5219796,924
1747533027120,-0.29982433,0.21220777,-1.21357465,0.40160471,-0.0210389755,0.53103435,925
1747533027130,-0.2109875,0.193903475,-1.23004845,0.04394216,-0.184823387,0.50946275,926
1747533027140,-0.0828574335,0.132034967,-1.1496316,-0.228499225,-0.29427931,0.42557316,927
1747533027150,0.014765464,0.0641870555,-0.98257445,-0.2087918349999999,-0.28948562,0.27963192,928
1747533027160,0.0737052875,0.0178161787,-0.82235087,0.11451593,-0.17204021,0.041545313,929
1747533027170,0.03660858525,0.0147654632,-0.763166995,0.40959418,-0.03568636,-0.023435818,930
1747533027180,-0.042954076,0.05222825,-0.9408407,0.53076801,0.0226368674999999,-0.026098979,931
1747533027190,-0.064309083,0.071020655,-1.02333205,0.70573772,0.1478054475,-0.047670585,932
1747533027200,-0.109947795,0.12654368,-1.163909,0.6820356000000001,0.22184133,-0.033289515,933
1747533027210,-0.119588055,0.1696198,-1.2583592,0.36591834,0.18109496,0.076166406,934
1747533027220,-0.1049446175,0.161199815,-1.2561627,0.230097125,0.13635385,0.1014664379999999,935
1747533027230,0.016351834,0.077122085,-1.1219312,-0.36005938,-0.21092236,0.16564862,936
1747533027240,0.065895452,0.0377068421,-1.08214985,-0.39894153,-0.26844664,0.104662232,937
1747533027250,0.16571487,-0.06443111,-0.9613415,-0.429301575,-0.34328146,-0.044474793,938
1747533027260,0.17157225,-0.08127106,-0.8644508,-0.29614353,-0.3270362,-0.3110572,939
1747533027270,0.12764194,-0.065773425,-0.8284523500000001,-0.08468852,-0.2082592,-0.41598576,940
1747533027280,-0.015253582,0.02306341,-0.867989575,0.10492855,-0.05060006,-0.35659728,941
1747533027290,-0.129594402,0.109703732,-1.007468325,0.28842035,0.14674018,-0.2458097799999999,942
1747533027300,-0.167179215,0.138014367,-1.13035115,0.178431795,0.161387565,-0.12863068,943
1747533027310,-0.14960709,0.12568948,-1.2510375,-0.17630127,-0.015446335,-0.009054748,944
1747533027320,-0.0723629725,0.0615024250999999,-1.14609285,-0.353401485,-0.2274339675,-0.084422209,945
1747533027330,0.0197686375,-0.0256260109,-0.944623565,-0.501206925,-0.53316485,-0.231961335,946
1747533027340,0.0327036715,-0.046126821,-0.7737835150000001,-0.3571299049999999,-0.654605,-0.3645867499999999,947
1747533027350,0.0169619785,-0.021355010515,-0.70239675,-0.0852211549999999,-0.62903867,-0.4580636999999999,948
1747533027360,-0.046614934,0.04807928,-0.8090498,0.3616573,-0.3254383,-0.4777711,949
1747533027370,-0.0733392019999999,0.092741755,-0.93803405,0.49960905,0.01438106,-0.3752394,950
1747533027380,-0.09945333,0.12129645,-1.1066776,0.5872270500000001,0.397343635,-0.243146615,951
1747533027390,-0.092985815,0.08480989,-1.1418218,0.45060688,0.391484695,-0.209590785,952
1747533027400,-0.09261973,0.048079275,-1.1175381,0.26658244,0.22690134,-0.212786575,953
1747533027410,-0.0883487299999999,0.01317909025,-1.0653099,0.082025365,-0.03781689,-0.238086605,954
1747533027420,-0.059305915,-0.03184946975,-0.98220842,-0.0881506349999999,-0.40746366,-0.3028014249999999,955
1747533027430,-0.01903646605,-0.080904975,-0.90447617,-0.15765914,-0.668187125,-0.398941545,956
1747533027440,0.0065895454499999,-0.1108019849999999,-0.8637186,-0.0958738,-0.698280845,-0.50120692,957
1747533027450,-0.0069556315,-0.11739153,-0.853224125,0.0335558299999999,-0.616255495,-0.596548085,958
1747533027460,-0.074193403,-0.0683360275,-0.907404825,0.17736653,-0.4559332,-0.6388923550000001,959
1747533027470,-0.136428,0.01854835,-1.0245523,0.269245585,-0.2037318335,-0.57417752,960
1747533027480,-0.110313875,0.01232489065,-1.03675515,0.2463424,-0.0380832049999999,-0.49348374,961
1747533027490,-0.08419975,0.0061014313,-1.048958,0.19387813,-0.036218993,-0.47723848,962
1747533027500,0.0007321715,-0.0588177959999999,-0.98257447,-0.033822144,-0.28336034,-0.570981745,963
1747533027510,0.0073217175,-0.088470755,-0.8739690200000001,-0.18216021,-0.6029396650000001,-0.683367135,964
1747533027520,-0.024893839,-0.13154685,-0.7404697,-0.22104238,-0.94595486,-0.7978831,965
1747533027530,-0.0257480405,-0.151315495,-0.734002175,-0.16724652,-0.97977703,-0.8362326,966
1747533027540,-0.0286767275,-0.178161795,-0.747669375,-0.069242187,-0.9928265,-0.9092032,967
1747533027550,-0.058817793,-0.1701079,-0.839801,0.015978966,-0.87618,-0.99282646,968
1747533027560,-0.058817793,-0.1701079,-0.839801,0.015978966,-0.87618,-0.99282646,969
1747533027570,-0.11348662,-0.22709527,-0.87396895,-0.020506341,-0.6791061,-1.1507519,970
1747533027580,-0.176453395,-0.26077516,-0.842363565,-0.0383495215,-0.66818712,-1.22718465,971
1747533027590,-0.21794313,-0.2767609,-0.82344913,-0.04261058,-0.67218184,-1.2607405,972
1747533027600,-0.35546938,-0.32410803,-0.7948944499999999,-0.022903186,-0.70813455,-1.29243205,973
1747533027610,-0.40513504,-0.3431445,-0.7883049,-0.013315806,-0.7206514,-1.2937636,974
1747533027620,-0.66798466,-0.28042176,-0.8256457,-0.039947417,-0.8825716,-1.073254,975
1747533027630,-0.71874858,-0.251745045,-0.836140135,-0.0418116305,-0.88203895,-0.98696755,976
1747533027640,-0.7900133,-0.196344065,-0.860057715,-0.036485308,-0.85514103,-0.7981494,977
1747533027650,-0.80856165,-0.162786185,-0.88617183,-0.01597896655,-0.780838845,-0.60613547,978
1747533027660,-0.81734773,-0.156440695,-0.90838105,0.08894958445,-0.549410135,-0.329433025,979
1747533027670,-0.822961065,-0.146556385,-0.9343732,0.275370855,-0.223172905,-0.0082558049999999,980
1747533027680,-0.7231416,-0.14301755,-1.0352908,0.5853628,0.29348037,0.43516052,981
1747533027690,-0.64955835,-0.161565895,-1.10155235,0.6130596749999999,0.42131211,0.512392195,982
1747533027700,-0.531922775,-0.18096845,-1.21613725,0.607200745,0.63356605,0.638093415,983
1747533027710,-0.456631125,-0.187557995,-1.29228315,0.381897325,0.711330355,0.74488618,984
1747533027720,-0.43832684,-0.2111095,-1.3135161,-0.054328486,0.58696073,0.829841,985
1747533027730,-0.441377555,-0.1998828799999999,-1.2987506,-0.172572843,0.5222459150000001,0.8508800000000001,986
1747533027740,-0.44442827,-0.18865626,-1.2839851,-0.2908172,0.4575311,0.871919,987
1747533027750,-0.4361302999999999,-0.19036466,-1.2113781499999998,-0.5731123,0.327036185,0.96566222,988
1747533027760,-0.3978133,-0.21660081,-1.08178375,-0.63995762,0.35526571,1.01173492,989
1747533027770,-0.392810135,-0.23087816,-0.953409675,-0.560062785,0.4958806249999999,1.04369285,990
1747533027780,-0.424415555,-0.21550255,-0.909113225,-0.397609965,0.684432425,1.08470555,991
1747533027790,-0.45333634,-0.2037878,-0.897032375,-0.232493975,0.87671265,1.14728985,992
1747533027800,-0.46297659,-0.21208575,-0.902767745,-0.109988555,1.01706125,1.211472,993
1747533027810,-0.40452488,-0.23161034,-0.91582482,-0.052464271,1.07325395,1.24529415,994
1747533027820,-0.319470945,-0.23307468,-0.9054524,-0.0625842885,1.03517073,1.2197278,995
1747533027830,-0.29457711,-0.21977356,-0.8688438,-0.0982706475,0.93184008,1.16273615,996
1747533027840,-0.29457711,-0.18609366,-0.8592035499999999,-0.1166464575,0.73822828,1.1022824,997
1747533027850,-0.29140437,-0.15936938,-0.8683557,-0.120907515,0.60560286,1.067395,998
1747533027860,-0.281398015,-0.1311807675,-0.8888564999999999,-0.1214401475,0.550209105,1.03969815,999
1747533027870,-0.27419833,-0.0901791475,-0.92375665,-0.11451593,0.497478525,1.01120235,1000
