timestamp,acc_x,acc_y,acc_z,gyro_x,gyro_y,gyro_z,id
1747533309170,-0.75279455,0.38939334,0.99026227,-0.7803062475,-0.4905543,-1.61307675,1
1747533309180,-0.17425688,0.6399181,0.82296103,-2.4298682,-1.2351742,0.2759035,2
1747533309190,-0.24161668,0.6067263,0.7592621,-2.4109597000000003,-1.0998856,0.292148785,3
1747533309200,-0.25162303,0.57377857,0.7058135,-2.2716765,-0.97738016,0.29827404,4
1747533309210,-0.34119204,0.5859815,0.46932206,-1.8519622,-1.7204021,0.32863408,5
1747533309220,-0.30409533,0.6274712,0.36559775,-1.8375812,-2.3137543,0.3222425,6
1747533309230,-0.20110317,0.66993713,0.42246306,-1.9425098,-2.7387948,0.2647182,7
1747533309240,-0.13569583,0.6770147950000001,0.48030466,-2.03971515,-2.78779695,0.221308685,8
1747533309250,-0.011470691,0.6626154,0.7050814,-2.27593745,-2.6852653,0.123304365,9
1747533309260,-0.0573534505,0.6161224999999999,0.8398009799999999,-2.5094967,-2.2708775,0.052730592,10
1747533309270,-0.20061506,0.52350277,1.027481,-2.6977823,-0.9550096,0.20186761,11
1747533309280,-0.25137895,0.50031734,1.0501783,-2.6216159,-0.89029477,0.260190845,12
1747533309290,-0.24552159,0.497998805,1.0649438,-2.38672505,-0.896686345,0.34860779,13
1747533309300,-0.23649146,0.49397188,1.0435888,-1.7875137,-1.2948289,0.41971418,14
1747533309310,-0.16571487,0.5645044,0.7004443,-1.176052,-2.283927,0.45327002,15
1747533309320,-0.12202863,0.6040417,0.5361938,-1.2708606,-2.663161,0.38722363,16
1747533309330,-0.059549972,0.58305275,0.52374685,-1.6399746,-2.7435887,0.32277513,17
1747533309340,-0.0237955835,0.555596325,0.579880025,-1.798699,-2.64158955,0.302002475,18
1747533309350,0.0274564405,0.50068345,0.72399583,-2.1603563,-2.1576931,0.23542345,19
1747533309360,-0.102504045,0.35461518,1.0040516,-2.1656826,-1.3949639,0.3584615,20
1747533309370,-0.19256116,0.31605414,0.9969738,-2.0149477,-1.2926984,0.5454154,21
1747533309380,-0.1313028,0.32850105,0.95475197,-1.8221349,-1.427987,0.67324716,22
1747533309390,-0.014887495,0.385366395,0.86969802,-1.6698021,-2.1928468,0.53476274,23
1747533309400,0.17352471,0.4932397,0.737541,-1.8935076,-2.5577,0.29614353,24
1747533309410,0.2047640299999999,0.486284075,0.76255687,-2.0485036,-2.5555695,0.215716055,25
1747533309420,0.26675457,0.42661208,0.94865054,-2.49698,-2.330266,0.02130529,26
1747533309430,0.25821257,0.37218732,1.2251674,-2.5566348000000003,-2.13106155,-0.00532632,27
1747533309440,0.2113535799999999,0.32178949,1.3851469,-2.4370588,-1.53424715,0.0237021349999999,28
1747533309450,0.07297312,0.25894472,1.4994878,-1.9100192,-1.0018812,0.16298546,29
1747533309460,0.00073217176,0.26480213,1.380876,-1.5696672,-1.0780476,0.25885928,30
1747533309470,0.0012202862,0.28798756,1.1992973,-1.3203954,-1.2996227,0.35313517,31
1747533309480,0.061502427,0.3316738,1.0006347,-1.2697952,-1.5925703,0.37071204,32
1747533309490,0.1353297385,0.359618365,0.9358375,-1.52785555,-1.7193368,0.25965822,33
1747533309500,0.246009695,0.381095415,0.89764255,-2.091114,-1.6745957,0.030360037,34
1747533309510,0.3360668,0.34265637,1.0323621,-2.3350596,-1.4104102,-0.10759171,35
1747533309520,0.30922052,0.30873242,1.2158931,-2.4165523,-1.1025487,-0.20719394,36
1747533309530,0.20012695,0.2613853,1.40699,-2.1694112,-0.73769563,-0.14807177,37
1747533309540,0.17718556,0.25943284,1.4014987,-2.0405141,-0.728907195,-0.11744541,38
1747533309550,0.15058333,0.25943285,1.3415827,-1.649562,-0.8271778,-0.016511599,39
1747533309560,0.16364039,0.26492414,1.3079028,-1.52199655,-0.9494169,-0.0039947414999999,40
1747533309570,0.18548351,0.2793235149999999,1.2379804,-1.262871,-1.2351742,-0.017044231,41
1747533309580,0.20671648,0.2596769,1.0792211,-1.2090752,-1.3374395,-0.053795855,42
1747533309590,0.19158493,0.24393521,1.06530985,-1.21040675,-1.3190637,-0.0431432105,43
1747533309600,0.16205402,0.191829,1.0304097,-1.2101405,-1.2820457,0.01917476,44
1747533309610,0.164494585,0.17511108,1.0311419000000002,-1.19842255,-1.272991,0.045540055,45
1747533309620,0.17547716,0.14521407,1.0213796,-1.135572,-1.23837,0.14221281,46
1747533309630,0.20244548,0.13252309,1.0056379,-1.08257505,-1.26686575,0.211188675,47
1747533309640,0.24832825,0.12007617,0.97598495,-1.005343325,-1.34223315,0.30226879,48
1747533309650,0.32093528,0.11495096,0.95060295,-0.9528791,-1.4950987,0.3222425,49
1747533309660,0.34948997,0.107019103,0.935349375,-0.93743275,-1.5864451000000002,0.287887725,50
1747533309670,0.38731885,0.07687803,0.90496427,-0.94329166,-1.7294569,0.221575,51
1747533309680,0.41465324,0.04612682,0.8973985,-0.9912286,-1.748099,0.19441076,52
1747533309690,0.42661207,0.0355103295,0.905940515,-1.0450244,-1.7417074,0.15126756,53
1747533309700,0.43076107,0.012202863,0.9235126,-1.103614,-1.7198695,0.113983296,54
1747533309710,0.427466275,0.00841997535,0.92095005,-1.1448930000000002,-1.7172063,0.106260128,55
1747533309720,0.42417148,0.0046370877,0.9183875,-1.186172,-1.7145431,0.09853696,56
1747533309730,0.50031734,-0.06345488,1.0723876,-1.31933,-1.6602147,0.08681905,57
1747533309740,0.49909707,-0.07236297,1.0812956,-1.3070794499999998,-1.5978967000000002,0.07590009,58
1747533309750,0.483355375,-0.083589605,1.0841022,-1.303351,-1.5100124,0.061252706,59
1747533309760,0.439425065,-0.09469421,1.0727536,-1.32945,-1.50655025,0.061519023,60
1747533309770,0.43173727,-0.117147475,1.1251038,-1.4210628,-1.4974954500000002,0.0644485,61
1747533309780,0.455410835,-0.1204422475,1.17098665,-1.4820492,-1.47219545,0.0601874425,62
1747533309790,0.49055508,-0.13105874,1.3176651,-1.3784522,-1.3534185,0.04314321,63
1747533309800,0.48006064,-0.13886857,1.3669646,-1.1680624,-1.2112057,0.06977482,64
1747533309810,0.45052966,-0.13374338,1.3586667,-0.9827065,-1.1302456,0.112918034,65
1747533309820,0.40269446,-0.10543273,1.2710502,-0.6609966,-1.0540792,0.18375812,66
1747533309830,0.3746279,-0.07907455,1.1853861,-0.5816344,-1.0407634,0.2396845,67
1747533309840,0.37755656,-0.049787678,1.1153417,-0.5704491,-1.0636666,0.29507825,68
1747533309850,0.40684342,-0.014887493,1.108508,-0.58962387,-1.107875,0.29614353,69
1747533309860,0.4795725,0.033191785,1.1434082,-0.62104917,-1.1185277,0.21252026,70
1747533309870,0.5276518,0.0605262,1.172695,-0.6396913,-1.1286477,0.15339808,71
1747533309880,0.5725583,0.07175283,1.2383465,-0.63702816,-1.0551444,0.03834952,72
1747533309890,0.6023333,0.07614586,1.292283,-0.6178534,-0.9108011,-0.05273059,73
1747533309900,0.63186425,0.08908089,1.3281596,-0.6130597,-0.7440872,-0.15606125,74
1747533309910,0.6321083,0.0959145,1.3828284,-0.6412892,-0.30786142,-0.40586576,75
1747533309920,0.5781716,0.08542004,1.4357888,-0.65513766,-0.029827405,-0.5006743,76
1747533309930,0.5298483,0.061502427,1.4699568,-0.6631271,0.2790993,-0.5448828,77
1747533309940,0.51203212,0.0479572485,1.49411845,-0.659665,0.4130563,-0.5483449,78
1747533309950,0.484087545,0.0252599235,1.5428079,-0.6306365650000001,0.64847975,-0.55233962,79
1747533309960,0.4583395,0.000366085,1.6019918,-0.29294774,1.139833,-0.5699165,80
1747533309970,0.4217309,-0.044174362,1.6346955,-0.11611383,1.31933,-0.5305017,81
1747533309980,0.40794168,-0.0524723085,1.63652585,0.072970614,1.5142734,-0.45380265,82
1747533309990,0.38792899,-0.0668716875,1.6387223,0.174703367,1.60082615,-0.40852891,83
1747533310000,0.38902727,-0.10494461,1.7269491,0.49375007,1.788579,-0.29827404,84
1747533310010,0.41099238,-0.12202863,1.7342708,1.0466223,1.9206718,-0.19760656,85
1747533310020,0.4157515,-0.13532975,1.7213358,1.17764985,1.9662119,-0.167779155,86
1747533310030,0.44808912,-0.15229172,1.649583,1.5286545,2.130529,-0.083090626,87
1747533310040,0.52033,-0.14082102,1.513643,1.6868463,2.343582,-0.06764429,88
1747533310050,0.5446137,-0.13325525,1.45104235,1.70016205,2.435461,-0.0932106375,89
1747533310060,0.536926,-0.06687169,1.2119883,1.5739282,2.847452,-0.23542345,90
1747533310070,0.49641246,-0.05906185,1.2224828,1.4711303,2.9539783,-0.26418558,91
1747533310080,0.4588276,-0.06467517,1.3069266,1.4354439,3.059972,-0.2695119,92
1747533310090,0.44027925,-0.074681518,1.3526873,1.4626081000000002,3.1236217,-0.257527675,93
1747533310100,0.3901255,-0.1021379605,1.42688065,1.5590145,3.2426650500000003,-0.20879183,94
1747533310110,0.30555966,-0.12739788,1.3974718,2.0271983,3.2879388,0.07137272,95
1747533310120,0.2853029,-0.13179092,1.2949678,2.143312,3.2767534,0.16245283,96
1747533310130,0.27334413,-0.122516744,1.2244352,2.1965754,3.244263,0.2561961,97
1747533310140,0.28298439,-0.106408962,1.1907553000000002,2.19790695,3.2389366,0.289751925,98
1747533310150,0.323253825,-0.060892283,1.1581737,2.21921215,3.18194485,0.319845645,99
1747533310160,0.3704789,0.028798755,1.1097283,2.273807,3.0381343,0.24714136,100
1747533310170,0.32850105,0.058573738,1.0438329,2.2269354,2.9523804,0.17736652,101
1747533310180,0.305193575,0.062234599,1.0418804499999998,2.1797974,2.9270804,0.163784405,102
1747533310190,0.2255089,0.06931226,1.1438963,2.038916,3.042928,0.20186761,103
1747533310200,0.22599702,0.088836834,1.193684,2.071673,3.072489,0.218112895,104
1747533310210,0.19402552,0.1300825,1.1944162,2.2221417,3.139867,0.25300032,105
1747533310220,0.18548352,0.16010156,1.1172941,2.2871227,3.1361384,0.24501082,106
1747533310230,0.14277348,0.17987019,1.0116173,2.283927,3.129747,0.2428803,107
1747533310240,0.1299604775,0.188046115,0.9953875,2.2266691,3.1318775,0.235423445,108
1747533310250,0.12666571,0.23307467,0.9581688,2.0809941,3.134008,0.15606125,109
1747533310260,0.123004854,0.26992732,0.959145,1.9702066,3.0834079,0.040480047,110
1747533310270,0.10592084,0.28994003,0.9942892,1.9177423,3.0546458000000003,-0.0340884615,111
1747533310280,-0.0319715,0.2677308,1.0074683,1.79976425,3.15318275,-0.157126505,112
1747533310290,-0.08529801,0.266266465,0.99892632,1.7038905,3.35398505,-0.18722023,113
1747533310300,-0.23185438,0.27456442,0.9613415,1.6298546,3.5116444,-0.08948222,114
1747533310310,-0.26687659,0.27114761,0.95438585,1.62239775,3.5137749,-0.03994742,115
1747533310320,-0.3121492,0.26626647,0.9266854,1.6527578,3.4589138,0.09321064,116
1747533310330,-0.38341394,0.3099527,0.8473667,1.7837853,3.1430628,0.24554345,117
1747533310340,-0.3660859,0.33069757,0.82149667,1.7773937,2.9694247,0.29987195,118
1747533310350,-0.33362624,0.34265637,0.86933196,1.7475663,2.9550436,0.33289513,119
1747533310360,-0.307024,0.34119204,0.9476743,1.7598169,3.0668964,0.3749731,120
1747533310370,-0.27529657,0.33265,1.0040516,1.8210696,3.197924,0.39734364,121
1747533310380,-0.28579104,0.3968371,0.93107843,1.9622171,3.3358757,0.39574575,122
1747533310390,-0.293112755,0.3968371,0.894103765,1.9672771,3.3398704500000003,0.3960120649999999,123
1747533310400,-0.296895635,0.399277665,0.82662192,1.97606555,3.34945775,0.391751005,124
1747533310410,-0.29811592,0.40696545,0.766095695,1.97792975,3.36357245,0.378967835,125
1747533310420,-0.3180066,0.4036707,0.6723777,1.9350529,3.3981936,0.3616573,126
1747533310430,-0.35827604,0.38341394,0.61795294,1.8817897,3.4346789,0.37896784,127
1747533310440,-0.358886185,0.383902045,0.603797645,1.80881905,3.4922032,0.4082626099999999,128
1747533310450,-0.35607952,0.3917119,0.5518134,1.76248,3.49513265,0.4127899849999999,129
1747533310460,-0.36901456,0.42002252,0.5708499,1.7422401,3.2272186,0.350472,130
1747533310470,-0.46541715,0.3961049,0.5535218,1.7491642,3.1888692,0.40586576,131
1747533310480,-0.5213063,0.38805103,0.5532778,1.7507621,3.1947281,0.452204765,132
1747533310490,-0.5437595,0.366574,0.5679212,1.7757958,3.2075113,0.566454365,133
1747533310500,-0.51520485,0.3533949,0.54253924,1.8769959,3.2474587,0.7637946,134
1747533310510,-0.42856455,0.383658,0.35632357,2.0378509,3.180347,0.89801794,135
1747533310520,-0.4339338,0.42783237,0.264314,2.0357203,3.075951,0.9219864,136
1747533310530,-0.4424758,0.45687518,0.18841219,1.9744676,2.9523804,0.97258645,137
1747533310540,-0.447967085,0.47078644,0.184873365,1.93265605,2.87701295,0.989630675,138
1747533310550,-0.46736962,0.52374685,0.2689511,1.8615496,2.6535738,1.0407634,139
1747533310560,-0.42246306,0.54986095,0.413677,2.0229373,2.4058998,1.0551444,140
1747533310570,-0.39293218,0.5645044,0.39366436,2.13479,2.3446472,1.0242518,141
1747533310580,-0.3448529,0.562796,0.2962855,2.2045648,2.3281355,0.9683254,142
1747533310590,-0.331185685,0.560111375,0.24454536,2.21069,2.3481092500000003,0.90973585,143
1747533310600,-0.32728076,0.5656026599999999,0.14399377,2.1177456,2.4149544,0.7685883,144
1747533310610,-0.351686495,0.5739006099999999,0.085542065,1.9861856,2.489523,0.7078682,145
1747533310620,-0.37316352,0.5459561,0.0976229,1.8562233,2.6407907,0.6194513,146
1747533310630,-0.4322254,0.5725583,0.12544543,1.8620823,2.6083001,0.61838605,147
1747533310640,-0.44430622,0.5596232800000001,0.129838465,1.89270865,2.52973675,0.646349235,148
1747533310650,-0.46736963,0.55376588,0.13716018,1.94703705,2.4346618500000003,0.7235808850000001,149
1747533310660,-0.43588626,0.54961693,0.15692882,2.0644825,2.3212113,0.8788432,150
1747533310670,-0.23942018,0.5459561,0.010738519,2.326005,2.2748723,0.9337043,151
1747533310680,-0.16571487,0.5630401,-0.15741692,2.3270702,2.2727418,0.8564726,152
1747533310690,-0.17633136,0.591594765,-0.240396385,2.257828,2.2530344,0.796285175,153
1747533310700,-0.18694785,0.62014943,-0.32337585,2.10070145,2.2394523,0.688160825,154
1747533310710,-0.2383218999999999,0.613803965,-0.275296575,1.780057,2.2264028,0.49215218,155
1747533310720,-0.3011666549999999,0.5847611500000001,-0.20451998,1.78538325,2.2000375,0.489222705,156
1747533310730,-0.26821893,0.49592432,-0.19793043,1.81893905,2.1752701,0.49375008,157
1747533310740,-0.24723,0.48665015,-0.2373456649999999,1.8852518,2.18459105,0.496413245,158
1747533310750,-0.1969542,0.48103684,-0.43588625,1.90123075,2.1494373,0.466053205,159
1747533310760,-0.1769415,0.48201308,-0.72021294,1.7241305,2.016013,0.45380265,160
1747533310770,-0.1769415,0.48201308,-0.72021294,1.7241305,2.016013,0.45380265,161
1747533310780,-0.1769415,0.48201308,-0.72021294,1.7241305,2.016013,0.45380265,162
1747533310790,-0.1188558775,0.4726168699999999,-0.6933666199999999,1.68844415,1.72359785,0.519582725,163
1747533310800,-0.0278225264,0.46187833,-0.680431575,1.7566211,1.190433,0.61678815,164
1747533310810,0.0455166761,0.4408893849999999,-0.80416864,1.8200043,0.88843054,0.7323693,165
1747533310820,0.15863721,0.4144092,-1.0391958,1.7848506,0.7419567,0.7781757,166
1747533310830,0.23917611,0.41343296,-1.1748916,1.6911073,0.5336975,0.7504788,167
1747533310840,0.264680095,0.41331093,-1.26165395,1.6266588,0.42743737,0.71505877,168
1747533310850,0.3106848749999999,0.40623328,-1.42297575,1.46686915,0.204530777,0.61838602,169
1747533310860,0.40659937,0.3572998,-1.722556,0.82078624,-0.34621096,0.16192019,170
1747533310870,0.4041588,0.342900425,-1.74769395,0.67058397,-0.44181845,0.0324905624999999,171
1747533310880,0.384390175,0.300190405,-1.79308865,0.3565972799999999,-0.633566055,-0.2213086974999999,172
1747533310890,0.17425688,0.17767367,-1.7916242,-0.43089947,-1.160073,-0.680704,173
1747533310900,0.06369894,0.12642166,-1.7118175,-0.7259777,-1.3965617,-0.72651035,174
1747533310910,-0.025137896,0.07858644,-1.5522041,-1.0189254,-1.6687368,-0.6876282,175
1747533310920,-0.07858644,0.053936653,-1.40699,-1.097755,-1.7760622,-0.6578008,176
1747533310930,-0.12715383,0.06345488,-1.2849613,-1.2809805,-2.1310616,-0.567786,177
1747533310940,-0.22258021,0.10543273,-1.1463369,-1.4626081,-2.6013758,-0.43089947,178
1747533310950,-0.25650415,0.111046046,-1.0926442,-1.6106799,-2.7467844,-0.35153726,179
1747533310960,-0.2801777,0.12202863,-0.9999026,-1.7757958,-2.8421257,-0.27483824,180
1747533310970,-0.3014107,0.13447554,-0.87348086,-1.8983012,-2.9097698,-0.19973709,181
1747533310980,-0.3316738,0.15692882,-0.62063754,-1.9632823,-2.961435,0.0026631611,182
1747533310990,-0.3316738,0.15692882,-0.62063754,-1.9702066,-2.9254825,0.05938849555,183
1747533311000,-0.37487194,0.21794313,-0.51593703,-2.00322985,-2.8405278000000003,0.179230745,184
1747533311010,-0.3746279,0.2723679,-0.48152497,-2.1038973,-2.711098,0.34940675,185
1747533311020,-0.33826336,0.3392396,-0.4217309,-2.16515,-2.6839337,0.39521313,186
1747533311030,-0.30458346,0.4296628,-0.40623328,-2.2090922,-2.74545275,0.335558315,187
1747533311040,-0.24820623,0.5725583,-0.38878322,-2.3499734,-2.9348035,0.16298546,188
1747533311050,-0.25284332,0.6118515,-0.29091623,-2.4783378,-3.0344057,0.027164243,189
1747533311060,-0.26992732,0.6147802,-0.09664667,-2.5238779,-3.04053105,-0.0189084434999999,190
1747533311070,-0.27993366,0.60306543,0.27139166,-2.492719,-2.5390577,-0.21198763,191
1747533311080,-0.31898284,0.6037976,0.27944556,-2.4485104,-2.1582258,-0.23382555,192
1747533311090,-0.36584184,0.6191732,0.18548352,-2.47674,-1.7821875,-0.24660872,193
1747533311100,-0.35461518,0.656514,0.07004443,-2.610963,-1.5387745,-0.31265512,194
1747533311110,-0.36047256,0.708254135,0.056255196,-2.7055053,-1.5014902499999998,-0.39840891,195
1747533311120,-0.4024504,0.8027043,0.15229172,-2.957174,-1.4988271,-0.6876282,196
1747533311130,-0.46273252,0.7743936,0.23917611,-3.0578415,-1.7273263,-1.0460896,197
1747533311140,-0.49140926,0.7451067499999999,0.316786305,-2.922553,-1.9275961,-1.113734,198
1747533311150,-0.6321083,0.6164886,0.6284474,-2.63866,-2.000034,-1.0317086,199
1747533311160,-0.69556314,0.5432714,0.78366786,-2.2200112,-1.9984361,-0.8223842,200
1747533311170,-0.71874857,0.5981843,0.54766446,-1.6421051,-1.8226675,-0.4293016,201
1747533311180,-0.70190865,0.596964,0.353883,-1.6532904,-1.6687368,-0.28122982,202
1747533311190,-0.63186425,0.60721445,0.22624107,-1.7853832,-1.5345135,-0.19014971,203
1747533311200,-0.57451075,0.68384844,0.25308737,-1.9078887,-1.5856462,-0.20559604,204
1747533311210,-0.5252112,0.7507201,0.30897647,-1.979794,-1.7726,-0.31851408,205
1747533311220,-0.48567393,0.69507504,0.44345203,-2.0820594,-2.112952,-0.60293967,206
1747533311230,-0.5130083,0.6440671,0.59135073,-2.020274,-2.137453,-0.6327671,207
1747533311240,-0.5637722,0.5610876,0.818568,-1.90842125,-2.0945762,-0.59894495,208
1747533311250,-0.6203935,0.5125202,0.93278676,-1.4434333,-1.9025623,-0.3930826,209
1747533311260,-0.6074585,0.5369259,0.75401485,-1.28550785,-1.83518435,-0.307595115,210
1747533311270,-0.5781716,0.5935472,0.37487194,-1.1451592,-1.5382419,-0.10173275,211
1747533311280,-0.563284125,0.58939825,0.3173964449999999,-1.26926255,-1.4658039,-0.099868538,212
1747533311290,-0.5136185,0.5779275500000001,0.2646800849999999,-1.5219966,-1.3582122,-0.125434888,213
1747533311300,-0.483477425,0.5961098,0.354371145,-1.73797895,-1.3819143,-0.231961325,214
1747533311310,-0.497388675,0.59964865,0.468711955,-1.84903275,-1.55182395,-0.3587278,215
1747533311320,-0.532777,0.5261874,0.7089863,-1.7385116,-2.0953753,-0.4564658,216
1747533311330,-0.5735345,0.46810177,0.93254274,-1.4636734,-2.10443,-0.3153183,217
1747533311340,-0.5765852499999999,0.453458355,0.97915772,-1.30255215,-2.05382995,-0.223172915,218
1747533311350,-0.53253293,0.4751795,0.9225364,-0.9214538,-1.8556907,-0.008522116,219
1747533311360,-0.48396555,0.5254553,0.60892284,-1.0082728,-1.5542208,0.06711166,220
1747533311370,-0.4617563,0.5437595,0.5637722,-1.1712582,-1.4519554,0.04314321,221
1747533311380,-0.43881494,0.55523026,0.58085626,-1.3219932,-1.412008,-0.034088463,222
1747533311390,-0.45004156,0.5520575,0.60770255,-1.3683321,-1.4626081,-0.08735169,223
1747533311400,-0.4588276,0.53643787,0.6372335,-1.3651364,-1.5888419,-0.12410331,224
1747533311410,-0.4971446,0.49128726,0.8232051,-1.1552793,-1.7837853,-0.08628642,225
1747533311420,-0.4983649,0.4600479,0.878362,-0.9901633,-1.816276,0.007989483,226
1747533311430,-0.48128088,0.46065805,0.86847773,-0.91452952,-1.81068335,0.0527305915,227
1747533311440,-0.46419686,0.4612682,0.85859346,-0.83889574,-1.8050907,0.0974717,228
1747533311450,-0.417581945,0.48530785,0.766583825,-0.80693782,-1.7920412,0.1238369949999999,229
1747533311460,-0.34216827,0.5008055,0.7043492,-0.9917612,-1.5377092,0.13262543,230
1747533311470,-0.31947094,0.5132524,0.74632704,-1.0700581,-1.4892397,0.072970614,231
1747533311480,-0.30946457,0.5091034,0.7985553,-1.0977551,-1.4658039,0.011717909,232
1747533311490,-0.317030355,0.50117155,0.8078294500000001,-1.09455925,-1.464206,-0.0087884314999999,233
1747533311500,-0.34680536,0.47810817,0.8266219,-1.0615361,-1.4796523,-0.041012682,234
1747533311510,-0.37218732,0.44491637,0.8847075,-0.91825795,-1.5339808,0.015978966,235
1747533311520,-0.37194324,0.42319524,0.89032084,-0.8069378,-1.5515577,0.0974717,236
1747533311530,-0.3338703,0.42587993,0.8437059,-0.7126619,-1.5776566,0.17630127,237
1747533311540,-0.303485175,0.441011465,0.807707435,-0.724379825,-1.6042882500000002,0.175768635,238
1747533311550,-0.18426323,0.4761557,0.76389915,-0.8586032,-1.567004,0.03834952,239
1747533311560,-0.13740423,0.4795725,0.81978834,-1.1883025,-1.4455639,-0.060720075,240
1747533311570,-0.11568313,0.48006064,0.873725,-1.3331785,-1.2873721,-0.19068234,241
1747533311580,-0.14911897,0.4617563,0.9174112,-1.4439659,-1.1456919,-0.30200246,242
1747533311590,-0.183897135,0.442719825,0.93412915,-1.4801849,-1.087635,-0.32969934,243
1747533311600,-0.28261828,0.38121742,0.9864794,-1.5318503,-0.9576728,-0.34674358,244
1747533311610,-0.30629185,0.3265486,1.0931324,-1.3049489,-0.9938917,-0.24341293,245
1747533311620,-0.3141017,0.30922052,1.0687267,-1.0482203,-1.0769824,-0.15446335,246
1747533311630,-0.2979939,0.3048275,0.97598493,-0.91186637,-1.1776499,-0.08841695,247
1747533311640,-0.23258655,0.32337585,0.81783587,-0.90920323,-1.3369069,-0.056991648,248
1747533311650,-0.20085911,0.3316738,0.8002637,-0.99069595,-1.33957,-0.072970614,249
1747533311660,-0.191828995,0.32935525,0.8050228,-1.039165475,-1.32678685,-0.078296937,250
1747533311670,-0.1461903,0.31532198,0.8529801,-1.1462245,-1.3006879,-0.099069595,251
1747533311680,-0.15070535,0.31275937,0.87848408,-1.13850135,-1.3089437,-0.1059938145,252
1747533311690,-0.15839316,0.25528386,0.9535317,-0.9491506,-1.4695324,-0.041012682,253
1747533311700,-0.15424417,0.23039004,0.9601213,-0.8213189,-1.5153387,0.0479369,254
1747533311710,-0.12056428,0.21159762,0.9344952,-0.7004114,-1.577124,0.13102753,255
1747533311720,-0.07004443,0.21232979,0.8773858,-0.6247776,-1.6399746,0.17097494,256
1747533311730,-0.0120808325,0.23026801,0.831625075,-0.7118629750000001,-1.6966999,0.1131843449999999,257
1747533311740,0.045882765,0.24820623,0.78586435,-0.79894835,-1.7534252,0.05539375,258
1747533311750,0.051740136,0.2203837,0.8639627,-1.1616709,-1.5526229,-0.104928546,259
1747533311760,0.03636453,0.1849954,0.9279056,-1.2985574,-1.4242586,-0.12996227,260
1747533311770,0.021232981,0.15326795,0.99233675,-1.3550164,-1.3662016,-0.14114754,261
1747533311780,-0.034900185,0.09737884,1.0662861,-1.2748552,-1.4106763999999998,-0.116912775,262
1747533311790,-0.051252022,0.07565775,1.0382195,-1.0950918,-1.5520903,-0.012250541,263
1747533311800,-0.036120474,0.06296677,1.0194272,-1.0024139,-1.6735305,0.06338324,264
1747533311810,-0.021477038,0.06613952,1.0011228,-0.9187906,-1.7816548,0.12410331,265
1747533311820,0.022697324,0.07175283,0.9606094,-0.8948221,-1.8679413,0.17150758,266
1747533311830,0.09640261,0.10494461,0.96256185,-1.0562097,-1.923335,0.118776985,267
1747533311840,0.10543273,0.09396204,1.0265048,-1.1526161,-1.8423749,0.07829694,268
1747533311850,0.10518867,0.059794027,1.0958171,-1.2330436,-1.6895094,0.08149273,269
1747533311860,0.10055158,0.039537273,1.1658615,-1.2362394,-1.5856462,0.120907515,270
1747533311870,0.11482893,0.0374627865,1.219188,-1.13583825,-1.5635419000000002,0.1648496775,271
1747533311880,0.13520771,0.041245673,1.2590914,-0.8788432,-1.5664713,0.22743396,272
1747533311890,0.14765464,0.04807928,1.2068632,-0.75101143,-1.6421051,0.2396845,273
1747533311900,0.1499731799999999,0.056255195,1.17611195,-0.710265065,-1.6847157,0.2386192349999999,274
1747533311910,0.15107143,0.08419975,1.1136333,-0.64395237,-1.7811222,0.2247708,275
1747533311920,0.16449459,0.091033354,1.0843463,-0.70254192,-1.7419737,0.21571605,276
1747533311930,0.17718557,0.082003236,1.1055794,-0.8266452,-1.6106799,0.21038973,277
1747533311940,0.178405845,0.082003236,1.1198567,-0.8458199799999999,-1.57605875,0.218911845,278
1747533311950,0.20915705,0.082735404,1.1731832,-0.8538095,-1.5121429,0.22743396,279
1747533311960,0.2403964,0.08566409,1.1975889,-0.7946873,-1.4839134,0.2066613,280
1747533311970,0.2541856249999999,0.092741752,1.1740374,-0.7350324850000001,-1.46154285,0.19867182,281
1747533311980,0.27310005,0.10396838,1.0933765,-0.67005134,-1.4152038,0.17310548,282
1747533311990,0.28286234,0.10323621,1.0501783,-0.70147663,-1.3864417,0.15499598,283
1747533312000,0.29482117,0.09542638,1.0277251,-0.7483483,-1.3534185,0.12996227,284
1747533312010,0.2975058,0.08615221,1.0125935,-0.81545997,-1.3230585,0.101200126,285
1747533312020,0.29726174,0.08639627,1.0128375,-0.91985583,-1.3885722,0.05965481,286
1747533312030,0.31312546,0.093473926,1.0431006,-0.9305085,-1.478587,0.019707393,287
1747533312040,0.33826336,0.09200958,1.0841023,-0.91985583,-1.5739282,-0.03888215,288
1747533312050,0.34729347,0.08346757,1.1131451,-0.908936885,-1.6018914,-0.07030745,289
1747533312060,0.33094162,0.07028849,1.2039344,-0.8543421,-1.655421,-0.17204021,290
1747533312070,0.3333822,0.05832968,1.3183973,-0.7701862,-1.5888419,-0.19760656,291
1747533312080,0.344852885,0.060648225,1.3436572,-0.72251562,-1.53824185,-0.198938135,292
1747533312090,0.364743545,0.072240945,1.3930788,-0.64262077,-1.41440485,-0.22716764,293
1747533312100,0.3619369,0.11153416,1.4745939,-0.5784386,-1.1824435,-0.3387541,294
1747533312110,0.35437113,0.122516744,1.6566606,-0.5502091,-0.83889574,-0.51026165,295
1747533312120,0.37316352,0.110801995,1.7606289,-0.4809669,-0.5773733,-0.5885586,296
1747533312130,0.41245672,0.102748096,1.9080396,-0.32863408,-0.25246766,-0.67484504,297
1747533312140,0.40611124,0.102992153,1.96941995,-0.199470768,-0.0617853299999999,-0.7102650699999999,298
1747533312150,0.345341,0.099575356,2.067897,0.22796659,0.5811018,-0.75101143,299
1747533312160,0.18401916,0.08444381,1.9199983,0.438888945,1.08523815,-0.635430245,300
1747533312170,0.119588055,0.09811102,1.8604484,0.7254451,1.8823223,-0.39254996,301
1747533312180,0.1012837575,0.1049446199999999,1.8683802,0.76725675,1.98778345,-0.3443467449999999,302
1747533312190,0.08517598,0.112144305,1.89388425,0.86685897,2.16301945,-0.253532945,303
1747533312200,0.1718163,0.11495096,2.0066388,1.3198626,2.3659523,-0.087884314,304
1747533312210,0.22819352,0.12861817,2.016889,1.5472966,2.402704,-0.066046394,305
1747533312220,0.2425929,0.133865405,2.0273835,1.65808415,2.4101609,-0.0729706119999999,306
1747533312230,0.27700497,0.14741058,2.0284818,1.866077,2.4522388,-0.096406432,307
1747533312240,0.3231317999999999,0.156684755,1.97881615,2.02320345,2.586462,-0.133690692,308
1747533312250,0.354859235,0.15204767,1.85776375,2.0575583,3.0629016,-0.1850897,309
1747533312260,0.3607166,0.14130914,1.7396401,1.9632823,3.7939394,-0.21997711,310
1747533312270,0.32850105,0.15741692,1.700835,1.9009644,4.055462,-0.22050974,311
1747533312280,0.315077905,0.16461661,1.68216455,1.87965915,4.11271985,-0.23169502,312
1747533312290,0.28457075,0.18401916,1.6642264,1.871137,4.1561294,-0.2876214,313
1747533312300,0.23551524,0.17962612,1.692537,1.952097,4.1049967,-0.32490566,314
1747533312310,0.17767367,0.102992155,1.6476305,2.202967,4.065582,-0.24181503,315
1747533312320,0.15839316,0.07687803,1.6012596,2.354767,4.065582,-0.11558119,316
1747533312330,0.14509204,0.0721189174999999,1.57917245,2.40803025,4.072506000000001,-0.0644484979999999,317
1747533312340,0.122272685,0.06406503,1.54732295,2.50523575,4.080495300000001,0.044208472,318
1747533312350,0.1181237,0.052472305,1.5253577,2.6317358,4.031493,0.20026971,319
1747533312360,0.122516744,0.071264714,1.3676969,2.773416,3.943609,0.25992453,320
1747533312370,0.119588055,0.082247294,1.2832531,2.7920582,3.8578553,0.25300032,321
1747533312380,0.07150877,0.07858644,1.2483528,2.819755,3.7635794,0.27164245,322
1747533312390,-0.067847915,0.028066583,1.2485968,3.0205574,3.4605117,0.49428272,323
1747533312400,-0.067847915,0.028066583,1.2485968,3.0205574,3.4605117,0.49428272,324
1747533312410,0.082491346,0.017572122,1.2798362,3.5654402,3.00085,0.6791061,325
1747533312420,0.1666911,0.04002539,1.1717188,3.7864826,2.884736,0.61838603,326
1747533312430,0.22672918,0.08005078,0.97330034,3.8525288,2.845854,0.4841627,327
1747533312440,0.22965786,0.16449459,0.6047739,3.3763556,3.0019152,0.14753912,328
1747533312450,0.1889003,0.16766733,0.59232694,3.029612,3.171825,0.05273059,329
1747533312460,0.1726705,0.16681313,0.613681945,2.88873085,3.25491565,0.02902845615,330
1747533312470,0.09445015,0.17791773,0.72826684,2.5901904,3.4024546,-0.028229509,331
1747533312480,-0.025626011,0.16010156,0.8156393,2.5704832,3.37316,-0.025566347,332
1747533312490,-0.0555230255,0.159369385,0.8182019199999999,2.64771485,3.2639703,0.0354200415,333
1747533312500,-0.09689073,0.15107143,0.8263778,2.8692899,3.0232205,0.1933455,334
1747533312510,-0.053936653,0.1313028,0.8102701,3.045591,2.9273467,0.2647182,335
1747533312520,0.0039049159,0.14911897,0.70215267,3.180347,2.900715,0.27377295,336
1747533312530,-0.01427734855,0.1893884149999999,0.57804957,3.1313448,2.88899715,0.222373945,337
1747533312540,-0.0566212815,0.2308781449999999,0.4233173,3.0184268000000003,2.87994245,0.17204021,338
1747533312550,-0.07651195,0.2399082699999999,0.362425015,2.89325825,2.89325825,0.179497065,339
1747533312560,-0.07516963,0.3133695,0.2723679,2.6573021,2.8852687,0.13848437,340
1747533312570,-0.11348662,0.33777523,0.2716357,2.538525,2.834136,0.103863284,341
1747533312580,-0.13435351,0.32484019,0.2849368249999999,2.5244103,2.783536,0.111053822,342
1747533312590,-0.16888762,0.30726805,0.23087814,2.5108283,2.7116306,0.1454086,343
1747533312600,-0.181700625,0.316908325,0.1957339049999999,2.49538195,2.6943201,0.153664395,344
1747533312610,-0.17669745,0.33753118,0.0976229,2.411226,2.6743464,0.17204021,345
1747533312620,-0.1300825,0.3692586,0.029530926,2.1758027,2.8362665,0.08628642,346
1747533312630,-0.14936304,0.37267542,0.017328065,2.0064256,2.9656963,0.030360037,347
1747533312640,-0.18133454,0.37609221,0.0202567525,1.929194,2.9928606,0.014913702,348
1747533312650,-0.26187342,0.39537275,-0.013911263,1.9052255,2.9246836,0.01917476,349
1747533312660,-0.32606047,0.41904628,-0.040513504,1.9062908,2.8021781,0.056991648,350
1747533312670,-0.26162934,0.43808278,-0.051496077,1.9323897,2.6296053,0.17257284,351
1747533312680,-0.23746769,0.47505744,-0.053936651,1.9363845,2.62268115,0.165382305,352
1747533312690,-0.20305563,0.51740135,-0.0549128825,1.9422435,2.63839375,0.15313177,353
1747533312700,-0.18987654,0.532777,-0.071020655,1.9180087,2.700978,0.14753912,354
1747533312710,-0.24100653,0.55510825,-0.066017484,1.90309495,2.6932548,0.164050725,355
1747533312720,-0.27505252,0.5298483,-0.09225364,2.0628846,2.5662222,0.30786142,356
1747533312730,-0.27200181,0.5400987,-0.147776665,2.1118868,2.50816525,0.29534456,357
1747533312740,-0.2489384,0.5693855,-0.35022214,2.197108,2.3094933,0.21518342,358
1747533312750,-0.2169669,0.55571836,-0.5332651,2.1576931,2.1699438,0.12197278,359
1747533312760,-0.2711476,0.52350277,-0.83077085,2.0213394,2.0655477,0.03781689,360
1747533312770,-0.23795582,0.49006698,-0.8095379,1.6138756,1.8935076,0.11558119,361
1747533312780,-0.13960074,0.4846977,-0.7487676,1.5488945,1.8210696,0.16564862,362
1747533312790,-0.124591225,0.4940939,-0.72192132,1.57952085,1.73265265,0.18162759,363
1747533312800,-0.10958171,0.5034901,-0.69507504,1.6101472,1.6442357,0.19760656,364
1747533312810,-0.100063475,0.4723728,-0.854566435,1.7145431000000002,1.4072143499999998,0.28549088,365
1747533312820,-0.1483868,0.44516042,-1.1370627,1.6612799,1.1169298,0.37444046,366
1747533312830,-0.14777666,0.4346659499999999,-1.19844315,1.61547355,0.979244365,0.3800330899999999,367
1747533312840,-0.142163345,0.41416514,-1.3193735,1.51294185,0.686030315,0.37044571,368
1747533312850,-0.12886222,0.38512233,-1.4633673,1.2937636,0.20186761,0.29348037,369
1747533312860,-0.09884318,0.357055755,-1.5181581,0.85753787,-0.34940675,0.10652645,370
1747533312870,-0.060038086,0.31141704,-1.6188318,0.51931643,-0.6593987,-0.026631612,371
1747533312880,-0.058817793,0.29042813,-1.6364038,0.24021713,-0.908138,-0.103863284,372
1747533312890,-0.0684580565,0.289940015,-1.61382855,0.12144014555,-1.0341055,-0.133690692,373
1747533312900,-0.1001855025,0.286401185,-1.51315495,-0.17177389945,-1.4247912,-0.158990725,374
1747533312910,-0.1403329,0.28749946,-1.3498806,-0.49534798,-1.9132149,-0.15233281,375
1747533312920,-0.17254847,0.30800024,-1.2688537,-0.6396913,-2.1379857,-0.13102753,376
1747533312930,-0.174989045,0.3101967599999999,-1.23297725,-0.7126619249999999,-2.2442458500000004,-0.130228585,377
1747533312940,-0.17742962,0.31239328,-1.1971008,-0.78563255,-2.350506,-0.12942964,378
1747533312950,-0.197686365,0.311539085,-1.078855,-1.02078968,-2.5853969,-0.180828645,379
1747533312960,-0.2831064,0.27432033,-0.87348086,-1.4199976,-2.625877,-0.2514024,380
1747533312970,-0.3248402,0.2677308,-0.83077085,-1.5920377,-2.58806,-0.22849922,381
1747533312980,-0.35241866,0.26504618,-0.7670719,-1.7640779,-2.5640914,-0.18961707,382
1747533312990,-0.36047253,0.25674823,-0.690438,-1.9238676,-2.5268073,-0.14008227,383
1747533313000,-0.38951537,0.28920785,-0.5342413,-2.1278658,-2.5507758,-0.002130529,384
1747533313010,-0.379509,0.3141017,-0.49299565,-2.167813,-2.6519759,0.036218993,385
1747533313020,-0.36218095,0.3436326,-0.41587353,-2.1917815,-2.808037,0.032490566,386
1747533313030,-0.37413976,0.34168017,-0.27505252,-2.1688783,-2.9454563,0.075101145,387
1747533313040,-0.3828038,0.341802195,-0.21538052,-2.15316565,-2.95211415,0.1214401474999999,388
1747533313050,-0.36706212,0.38487828,-0.04612682,-2.0943098,-2.737197,0.34674358,389
1747533313060,-0.33118567,0.44442827,-0.065407336,-2.160889,-2.6280074,0.37284255,390
1747533313070,-0.2865232,0.4983649,-0.10128376,-2.2357238,-2.56568945,0.352602525,391
1747533313080,-0.2608972,0.4978768,-0.13325526,-2.51722,-2.3292007,0.2609898,392
1747533313090,-0.2685849999999999,0.484819715,-0.1116561899999999,-2.62081695,-2.25330065,0.220776065,393
1747533313100,-0.30580373,0.4544345899999999,-0.0180602335,-2.78113915,-2.17473745,0.1483380799999999,394
1747533313110,-0.4702983,0.417826,0.47762007,-2.4101608,-2.7015107,0.1667139,395
1747533313120,-0.53033644,0.43930307,0.571338,-2.2290659,-2.85863725,0.2162487,396
1747533313130,-0.5400987,0.44955346,0.5405868,-1.7315874,-3.2447956,0.39734364,397
1747533313140,-0.5400987,0.44955346,0.5405868,-1.7315874,-3.2447956,0.39734364,398
1747533313150,-0.52667555,0.447600995,0.38097337,-1.48284815,-3.37369265,0.6087986249999999,399
1747533313160,-0.41684976,0.5252112,0.09054524,-1.7267936,-3.3145704,0.87298423,400
1747533313170,-0.29506522,0.5864696,0.09518232,-2.0777984,-3.2373388,0.84209156,401
1747533313180,-0.050763905,0.63406074,0.37828872,-2.8639636,-2.7126958,0.39787626,402
1747533313190,0.01586372,0.6160005,0.59086263,-3.0029805,-2.3936493,0.10972224,403
1747533313200,-0.0148874935,0.6107532499999999,0.641382465,-3.0048447,-2.25862705,-0.023169505,404
1747533313210,-0.15717287,0.5474204,0.7560893,-2.9236183,-1.9110844,-0.314253,405
1747533313220,-0.28042176,0.46224442,0.7812273,-2.7526433,-1.7108147,-0.3334278,406
1747533313230,-0.5464442,0.39927766,0.67799103,-2.3398533,-1.7390442,-0.032490566,407
1747533313240,-0.5696296,0.44149956,0.6211257,-2.2045648,-2.052232,0.1635181,408
1747533313250,-0.51398456,0.47981656,0.64138246,-2.1560953,-2.4623587,0.3153183,409
1747533313260,-0.38170552,0.51788944,0.7770783,-2.0996363,-2.812298,0.38562572,410
1747533313270,-0.24698594,0.5994046,0.8998391,-2.076733,-2.871953,0.20026971,411
1747533313280,-0.161321845,0.60050285,0.9182654,-2.14171415,-2.68606435,0.1235706729999999,412
1747533313290,-0.07468152,0.5691415,0.98892,-2.336125,-1.8913771,-0.08841695,413
1747533313300,-0.105432735,0.5520575,0.98757765,-2.4056335,-1.57366195,-0.1302285799999999,414
1747533313310,-0.2523552,0.5186216,0.99868226,-2.6184201,-0.8516789,-0.19760656,415
1747533313320,-0.4300289,0.4803047,1.2014939,-2.4698157,-0.75793564,-0.11025487,416
1747533313330,-0.46492904,0.46151224,1.2659249,-2.1784658,-0.98856544,-0.010120012,417
1747533313340,-0.46029195,0.5127643,1.2932593,-1.8136127,-1.4173343,0.050600063,418
1747533313350,-0.44686884,0.55718267,1.2571388,-1.4088123,-1.9164108,0.072970614,419
1747533313360,-0.40659937,0.5357057,1.1675699,-1.31267215,-2.0032298,0.091879057,420
1747533313370,-0.3443648,0.5130083,1.0152781,-1.1685951,-1.8152106,0.1736381,421
1747533313380,-0.34338856,0.5032460249999999,1.003685385,-1.1875035500000002,-1.6804547,0.19041602,422
1747533313390,-0.3515644599999999,0.4875043599999999,0.972812185,-1.22665205,-1.40934495,0.23302661,423
1747533313400,-0.36169282,0.47664383,0.90130347,-1.3054816,-1.0753845,0.314253,424
1747533313410,-0.35290676,0.4893348,0.86664724,-1.3704628,-0.9667275,0.34780884,425
1747533313420,-0.31727442,0.49250755,0.90447617,-1.4231933,-1.0641992,0.4101268,426
1747533313430,-0.2711476,0.4881145,1.0079564,-1.2916331,-1.2564794,0.40746364,427
1747533313440,-0.26529023,0.50885934,1.0858107,-1.0402308,-1.5419703,0.4048005,428
1747533313450,-0.27212384,0.50934744,1.09118,-0.7600662,-1.8455707,0.4362258,429
1747533313460,-0.20232345,0.47932845,0.98892,-0.33662358,-2.1774006,0.5592638,430
1747533313470,-0.093717985,0.5095915,0.8551766,-0.3552657,-2.1236048,0.5448828,431
1747533313480,-0.049299565,0.51898775,0.80880572,-0.46019425,-2.02586675,0.49960905,432
1747533313490,0.04881145,0.528384,0.7197248,-0.90281165,-1.6202673,0.3323625,433
1747533313500,0.06931226,0.51447266,0.7404697,-1.090830825,-1.43837335,0.271109795,434
1747533313510,0.041855819,0.48128089,0.7989214,-1.60961465,-0.90148003,0.0990695905,435
1747533313520,-0.019280521,0.40611124,0.95719254,-2.0373182,-0.44528055,-0.07084008,436
1747533313530,-0.039537273,0.3704789,1.0697029,-1.9590213,-0.49960902,-0.13262543,437
1747533313540,-0.0435642165,0.362669065,1.11302305,-1.845837,-0.58056913,-0.1568601949999999,438
1747533313550,-0.0562551929999999,0.3444868,1.1556111,-1.5907062,-0.7712514699999999,-0.19707393,439
1747533313560,-0.107629254,0.30433938,1.0050278,-1.1009508,-1.2218584,-0.2034655,440
1747533313570,-0.102504045,0.2894519,0.94620997,-1.0998856,-1.2767195,-0.17204021,441
1747533313580,-0.071264714,0.26821893,0.9410847,-1.1563445,-1.2330436,-0.15606125,442
1747533313590,-0.055156937,0.256016065,0.94376935,-1.18910145,-1.1819109,-0.15925704,443
1747533313600,-0.043198135,0.21745501,0.94962674,-1.2857742,-1.0120013,-0.15286545,444
1747533313610,-0.079318605,0.1769415,0.97452056,-1.3337111,-0.9086706,-0.05912218,445
1747533313620,-0.078830495,0.15888128,1.0003906,-1.2761868,-0.9507485,0.0005326322,446
1747533313630,-0.0619905424999999,0.159247365,1.0036854000000002,-1.2282499,-1.0064086,0.0255663476,447
1747533313640,0.00073217176,0.1769415,0.96573454,-1.1142666,-1.2080098,0.06018744,448
1747533313650,0.0605262,0.18133454,0.8771418,-1.2032162,-1.3720607,0.013315806,449
1747533313660,0.09298581,0.17596528,0.8573731,-1.3960291,-1.3592775,-0.01917476,450
1747533313670,0.11568313,0.15741692,0.9056965,-1.5520903,-1.2958943,-0.058589544,451
1747533313680,0.14692247,0.12422514,1.0238202,-1.6186694,-1.2144015,-0.10333065,452
1747533313690,0.14374972,0.1108019899999999,1.0815397,-1.598163,-1.17498675,-0.118244355,453
1747533313700,0.049787678,0.05344854,1.2461562,-1.2250541,-1.0892329,-0.037284255,454
1747533313710,0.041977847,0.046614936,1.2291943,-1.1142666,-1.1110708,0.0101200124999999,455
1747533313720,0.037828874,0.033923957,1.1485333,-0.8000136,-1.2058793,0.15286545,456
1747533313730,0.055645052,0.049787678,1.0509106,-0.66525763,-1.3203954,0.22743396,457
1747533313740,0.0718748585,0.059427939,0.99929245,-0.670850265,-1.41813335,0.24261398,458
1747533313750,0.18279888,0.08444381,0.9405966,-0.93157375,-1.6117451,0.17417073,459
1747533313760,0.20744865,0.07736614,1.0035634,-1.0498182,-1.5339808,0.13475595,460
1747533313770,0.22502078,0.06882414,1.0753163,-1.08284135,-1.49137025,0.123038045,461
1747533313780,0.24454537,0.061746486,1.1365746,-1.1110709,-1.3566142,0.08681905,462
1747533313790,0.25284332,0.052472305,1.1902672,-1.0471549,-1.284709,0.06924219,463
1747533313800,0.25284332,0.052472305,1.1902672,-1.0471549,-1.284709,0.06924219,464
1747533313810,0.2413726199999999,0.0505198485,1.1565873,-0.890028415,-1.2349079,0.0561927,465
1747533313820,0.20500809,0.0370967,1.0714114,-0.6279734,-1.2181299,0.07669904,466
1747533313830,0.194269575,0.0272123825,1.03260625,-0.60214075,-1.2397015,0.10066749,467
1747533313840,0.1786499,0.0053692595,0.93205464,-0.55287224,-1.3283848,0.16724652,468
1747533313850,0.2020794,-0.022453265,0.85444444,-0.56245965,-1.4807175,0.23702134,469
1747533313860,0.22794947,-0.026602242,0.8439499,-0.5858955,-1.5355787,0.26897928,470
1747533313870,0.2762728,-0.02757847,0.84468216,-0.60773337,-1.5654061,0.29827404,471
1747533313880,0.3000683899999999,-0.0313613565,0.843583855,-0.6183860000000001,-1.5723303,0.30945932,472
1747533313890,0.36755022,-0.045882765,0.8339436,-0.6562029,-1.6005598,0.3190467,473
1747533313900,0.41636166,-0.07150877,0.8537123,-0.70467246,-1.6809874,0.27696875,474
1747533313910,0.41465324,-0.08297946,0.86249834,-0.72278196,-1.7140105,0.2711098,475
1747533313920,0.41880222,-0.08761655,0.8627423949999999,-0.73716301,-1.73718,0.27004454,476
1747533313930,0.4229512,-0.09225364,0.86298645,-0.75154406,-1.7603495,0.26897928,477
1747533313940,0.45297024,-0.117879644,0.92497694,-0.8745821,-1.9297266,0.24341293,478
1747533313950,0.4915313,-0.13886857,0.9613415,-0.89322424,-1.937716,0.25726137,479
1747533313960,0.50934744,-0.15570852,1.0204034,-0.90281165,-1.9483687,0.24021713,480
1747533313970,0.5274077,-0.16254212,1.0750722,-0.87032104,-1.9185413,0.2082592,481
1747533313980,0.48152497,-0.18304294,1.1343781,-0.7616641,-1.814678,0.23702134,482
1747533313990,0.47688788,-0.17742962,1.1453607,-0.7206514,-1.7731327,0.27483824,483
1747533314000,0.5020258,-0.16913168,1.159516,-0.6791061,-1.7273263,0.29507825,484
1747533314010,0.5034901,-0.15204766,1.1697664,-0.6450176,-1.659682,0.3073288,485
1747533314020,0.49201941,-0.13838045,1.1648853,-0.6173208,-1.5893745,0.32863408,486
1747533314030,0.487626385,-0.133133225,1.16891225,-0.5992113,-1.53185025,0.343281475,487
1747533314040,0.48884668,-0.123614998,1.1836777,-0.56698702,-1.45302075,0.354733065,488
1747533314050,0.5008055,-0.10152781,1.2134526,-0.51665324,-1.3763217,0.3222425,489
1747533314060,0.4954362399999999,-0.08566409,1.2227268,-0.490021645,-1.335309,0.3046656399999999,490
1747533314070,0.49677854,-0.0495436195,1.2429836,-0.4420847599999999,-1.28710575,0.27164244,491
1747533314080,0.5452239,0.06711575,1.3459758,-0.32277513,-1.23837,0.08149273,492
1747533314090,0.5605994999999999,0.077122095,1.3678189,-0.2657835,-1.1217234,-0.019707393,493
1747533314100,0.5781716,0.088836834,1.4179726,-0.221575,-0.92784536,-0.10013486,494
1747533314110,0.528384,0.102259986,1.4362769,-0.18855181,-0.4016047,-0.111852765,495
1747533314120,0.53253293,0.13057062,1.5165718,-0.1603223,-0.14168017,-0.12463594,496
1747533314130,0.5266756,0.15936938,1.5756336,-0.113450665,0.00559264,-0.14514228,497
1747533314140,0.5346074199999999,0.168521525,1.6129744,-0.0122505415,0.243412925,-0.18908444,498
1747533314150,0.54766446,0.18694785,1.6971741,0.16245283,0.51665324,-0.26365295,499
1747533314160,0.54839665,0.19890666,1.7298778,0.28176245,0.7094661,-0.30679616,500
1747533314170,0.59110665,0.20915705,1.8016307,0.49801114,1.0711234,-0.41705105,501
1747533314180,0.62600684,0.20281157,1.8090744,0.55420382,1.18590565,-0.466585825,502
1747533314190,0.6737200299999999,0.189876545,1.8068778,0.69295454,1.572863,-0.6199839,503
1747533314200,0.6889736,0.16278619,1.7855228,0.7350325,1.8663434,-0.71319455,504
1747533314210,0.6804316,0.113974735,1.820911,0.77125144,2.1688783,-0.78989357,505
1747533314220,0.6562699,0.09176553,1.8353105,0.9603359,2.7830033,-0.93796533,506
1747533314230,0.63381665,0.0783423779999999,1.83409025,1.0221212,2.8951224,-0.95287904,507
1747533314240,0.5873237499999999,0.0453946469999999,1.8420222,1.1563445,3.07861425,-0.964863275,508
1747533314250,0.53411928,0.0115927191,1.86337725,1.3254553,3.20857655,-0.93636745,509
1747533314260,0.52155036,-0.0269683259,1.87594605,1.6330504,3.3374736,-0.8245147,510
1747533314270,0.54839665,-0.05686534,1.8787527,2.1007016,3.3763556,-0.74089146,511
1747533314280,0.550593175,-0.05954997,1.8617907,2.2192122,3.380084,-0.72810826,512
1747533314290,0.5620638,-0.07516963,1.7938206,2.564624,3.444,-0.65886605,513
1747533314300,0.5708499,-0.087616555,1.7467177,2.6876621,3.5452,-0.61199445,514
1747533314310,0.5989165,-0.10323621,1.6686195,2.8101676,3.755057,-0.50333744,515
1747533314320,0.6286915,-0.093473926,1.6788697,2.8916605,3.7529266,-0.49161956,516
1747533314330,0.64357895,-0.07541369,1.69693,3.0258837,3.707653,-0.515588,517
1747533314340,0.6291796,-0.0776102,1.7105973,3.2128377,3.652259,-0.5438175,518
1747533314350,0.6045298,-0.08517598,1.6410409,3.384878,3.6389434,-0.53529537,519
1747533314360,0.53985465,-0.10396838,1.461903,3.5372107,3.6362803,-0.47723848,520
1747533314370,0.50885934,-0.08615221,1.3838046,3.5718317,3.6112466,-0.4016047,521
1747533314380,0.51447267,-0.07724412,1.35280935,3.552657,3.6000613,-0.38855521,522
1747533314390,0.5022698,-0.0690682,1.3093672,3.5084486,3.6027243,-0.36112466,523
1747533314400,0.5037342,-0.07199689,1.2988727,3.5100465,3.6501286,-0.3387541,524
1747533314410,0.50568664,-0.046858992,1.2612879,3.5867455,3.5995286,-0.3888215,525
1747533314420,0.4742032,-0.037584815,1.1863623,3.6746297,3.581419,-0.42024684,526
1747533314430,0.467247575,-0.035754386,1.1222973,3.68075505,3.576359,-0.42663842,527
1747533314440,0.43051702,-0.027090356,0.96353805,3.6607814,3.54040645,-0.44607949,528
1747533314450,0.385244385,-0.0147654642499999,0.951335175,3.6024581,3.4551853,-0.47004794,529
1747533314460,0.32215557,-0.011226633,0.9342511,3.5707664,3.2533176,-0.5161206,530
1747533314470,0.3275248,0.0034168016,0.84883106,3.5718317,3.2288165,-0.55979645,531
1747533314480,0.319837,0.0172060358,0.79782313,3.5300201,3.21390285,-0.595749125,532
1747533314490,0.26699865,0.051740136,0.65382934,3.3353431,3.2107072,-0.7041398,533
1747533314500,0.255772,0.055645052,0.5759751,3.1435955,3.2852757,-0.7680557,534
1747533314510,0.11495096,0.070532545,0.62259,2.9513152,3.3763556,-0.74248934,535
1747533314520,0.052716363,0.114462845,0.61722076,2.9209552,3.2756882,-0.6578008,536
1747533314530,0.038805101,0.1225167325,0.63845375,2.91988995,3.2109734,-0.62104917,537
1747533314540,0.029530926,0.09811102,0.69458693,3.0024478,3.1222901,-0.5251754,538
1747533314550,0.0056133163,0.111046046,0.6296677,3.196326,3.0743532,-0.42770368,539
1747533314560,-0.035876416,0.13203497,0.53302103,3.2549155,3.0328078,-0.3888215,540
1747533314570,-0.082003236,0.13838045,0.36169282,3.2240229,3.033873,-0.3355583,541
1747533314580,-0.092131611,0.1586371999999999,0.28017771,3.1350733,3.0083067,-0.31318775,542
1747533314590,-0.114096763,0.21782109,0.17340268,2.9031119,2.91882455,-0.3001382649999999,543
1747533314600,-0.123004854,0.23600335,0.31678632,2.4873924,2.898052,-0.34248254,544
1747533314610,-0.12910628,0.2438132,0.28920785,2.4937842,3.0072415,-0.27537087,545
1747533314620,-0.15546446,0.31019676,0.22526483,2.4730115,3.0450585,-0.2263687,546
1747533314630,-0.1365500225,0.32972135,0.18926639,2.44398295,3.04985215,-0.22290659,547
1747533314640,-0.09127741,0.3841461,0.08908089,2.3457124,3.0328078,-0.2514024,548
1747533314650,-0.19475769,0.43491003,0.00976229,2.2050974,2.821353,-0.32117724,549
1747533314660,-0.26529023,0.45785138,0.044418417,2.1576931,2.6578348,-0.3158509,550
1747533314670,-0.2979939,0.4583395,0.10177187,2.16515,2.5598304,-0.29454562,551
1747533314680,-0.271269635,0.48103685,0.073949345,2.1560953,2.57234725,-0.280963495,552
1747533314690,-0.19890666,0.532777,0.0056133163,2.1257353,2.6184201,-0.3334278,553
1747533314700,-0.18157859,0.5376581199999999,-0.04734710685,2.1054952,2.66768855,-0.382163635,554
1747533314710,-0.17767367,0.52301466,-0.23502712,1.9702066,2.843191,-0.52357745,555
1747533314720,-0.23942018,0.5108118,-0.35095432,1.7923075,2.9795446,-0.572047,556
1747533314730,-0.3612047,0.49006698,-0.4471129,1.4935007,2.979012,-0.561927,557
1747533314740,-0.396226935,0.507517055,-0.4087959,1.4927017500000002,2.85544135,-0.5139901,558
1747533314750,-0.415385435,0.514228615,-0.29982433,1.5552861,2.58779375,-0.4114584,559
1747533314760,-0.3104408,0.5193538,-0.13154685,1.9659456,2.098571,-0.26525086,560
1747533314770,-0.2438132,0.57524294,-0.16986385,2.2770028,1.8333201,-0.26684874,561
1747533314780,-0.2438132,0.57524294,-0.16986385,2.2770028,1.8333201,-0.26684874,562
1747533314790,-0.03526627295,0.46968818,-0.770976815,2.38752405,1.7797906,-0.492418485,563
1747533314800,-0.00646751745,0.4036707,-1.08068545,1.995773,2.020274,-0.6508766,564
1747533314810,-0.0113486624999999,0.3308196,-1.3766049,1.6026903,2.167813,-0.6892261,565
1747533314820,-0.022209208,0.18401916,-1.7218238,1.202151,2.2567627,-0.7286409,566
1747533314830,-0.116903414,0.118123705,-1.85068615,0.8823053249999999,2.07673305,-0.70467245,567
1747533314840,-0.3321619,-0.0019524579,-2.0622838,0.2545982,1.2964269,-0.49375007,568
1747533314850,-0.37450583,-0.01110460495,-2.03653575,0.1659149375,0.98829915,-0.387223635,569
1747533314860,-0.39573883,-0.009640261515,-1.8700887,0.0197073925,0.3603257235,-0.168844424,570
1747533314870,-0.35022214,0.05588911,-1.5795386,-0.18855181,-1.0301107,0.19973709,571
1747533314880,-0.31434575,0.10470056,-1.4318839,-0.247141355,-1.20907515,0.228232915,572
1747533314890,-0.31092894,0.126909765,-1.36489015,-0.38962048,-1.4948323499999998,0.2604571599999999,573
1747533314900,-0.33191785,0.19988288,-1.1670818,-0.68869346,-1.7241305,0.25513083,574
1747533314910,-0.3482697,0.2421048,-1.0252845,-0.9150622,-1.7731327,0.2412824,575
1747533314920,-0.38121742,0.29311275,-0.7797629,-1.3502227,-1.6735305,0.1454086,576
1747533314930,-0.3939083949999999,0.296407525,-0.753404725,-1.4269216999999998,-1.64130625,0.124369625,577
1747533314940,-0.43832684,0.30629185,-0.69287854,-1.6431705,-1.5520903,0.083090626,578
1747533314950,-0.45248213,0.30336314,-0.67481834,-1.7720674,-1.5100124,0.087884314,579
1747533314960,-0.4787182949999999,0.3210573049999999,-0.61905122,-1.8266622,-1.5217303,0.102531702,580
1747533314970,-0.50934744,0.36169282,-0.49226347,-1.9888487,-1.7113473,0.26365295,581
1747533314980,-0.50641877,0.37926496,-0.4557769,-1.9960393,-1.77073585,0.3025351,582
1747533314990,-0.47151858,0.42905265,-0.35363895,-1.9984361,-1.9110844,0.41225734,583
1747533315000,-0.45504474,0.45565489,-0.348635775,-2.02133925,-1.9342539,0.43675842,584
1747533315010,-0.36730617,0.5518134,-0.31776255,-2.2066953,-1.9787288,0.43409526,585
1747533315020,-0.33704305,0.56865335,-0.298482,-2.2743397,-1.9771309,0.37124467,586
1747533315030,-0.330087425,0.5684092949999999,-0.291404335,-2.3105587,-1.99444145,0.3336941,587
1747533315040,-0.33118567,0.57988006,-0.24820623,-2.415487,-2.0831246,0.21784659,588
1747533315050,-0.3441207,0.61819696,-0.08127106,-2.4948494,-2.189651,0.14274544,589
1747533315060,-0.3214234,0.59037447,0.07565775,-2.582201,-2.218413,0.036218993,590
1747533315070,-0.3214234,0.5771954,0.15961345,-2.5608957,-2.044775,0.008522116,591
1747533315080,-0.33191786,0.5831748,0.172792535,-2.5608957,-1.9869845,0.0010652646499999,592
1747533315090,-0.3398497099999999,0.594401425,0.184873365,-2.56968415,-1.90975285,-0.03169161735,593
1747533315100,-0.33594479,0.603187475,0.224898755,-2.5646242,-1.91161705,-0.103330654,594
1747533315110,-0.41807005,0.61892915,0.3687705,-2.4458473,-2.0857878,-0.2412824,595
1747533315120,-0.4566311,0.63503695,0.439059,-2.4335966,-2.1012342,-0.24714136,596
1747533315130,-0.41855815,0.6286915,0.5215503,-2.385127,-2.0889835,-0.24873926,597
1747533315140,-0.36315718,0.65212095,0.5610876,-2.3046997,-2.12467,-0.32490566,598
1747533315150,-0.37804466,0.69165826,0.58207655,-2.20563,-2.223207,-0.45380265,599
1747533315160,-0.41343296,0.63186425,0.5259434,-2.1518342,-2.120409,-0.5917544,600
1747533315170,-0.4549227,0.60892284,0.545468,-2.1992385,-1.8796592,-0.58696073,601
1747533315180,-0.4677357199999999,0.5956217349999999,0.546932325,-2.22507115,-1.7494306000000002,-0.567785965,602
1747533315190,-0.48750437,0.575609015,0.553399805,-2.2674154,-1.5443672,-0.5403553999999999,603
1747533315200,-0.5603554,0.55669457,0.60013676,-2.2381206,-1.438107,-0.5049353,604
1747533315210,-0.6228341,0.5256993,0.6555378,-1.9451729,-1.7065537,-0.34514567,605
1747533315220,-0.64992446,0.532777,0.6962953,-1.7241305,-1.9968382,-0.23542345,606
1747533315230,-0.6355250800000001,0.52582135,0.72485002,-1.5486282,-2.1843248,-0.155794928,607
1747533315240,-0.588178,0.51618105,0.8251576,-1.0594054,-2.591256,0.04314321,608
1747533315250,-0.5374141,0.50446635,0.7380291,-0.59867865,-2.5827336,0.3270362,609
1747533315260,-0.5022698,0.511544,0.59061855,-0.58269966,-2.4309335,0.43995422,610
1747533315270,-0.43320164,0.5176454,0.43808278,-0.71958613,-2.2429142,0.49694586,611
1747533315280,-0.3900035,0.52813988,0.3636453149999999,-0.8623315650000001,-2.1494373,0.486293215,612
1747533315290,-0.30360723,0.5442476549999999,0.27346614,-1.19575935,-1.98059295,0.421312085,613
1747533315300,-0.20488607,0.564138325,0.357055735,-1.70522215,-1.8258633,0.1896170705,614
1747533315310,-0.17230442,0.5696296,0.59061855,-2.13638795,-1.78857905,-0.0881506344999999,615
1747533315320,-0.22575295,0.5181335,0.77097684,-2.2983081,-1.8801918,-0.27057716,616
1747533315330,-0.242104785,0.49397185,0.86164412,-2.24957225,-1.86288125,-0.276968745,617
1747533315340,-0.26187342,0.44540447,1.1050912,-1.9744676,-1.748099,-0.26312032,618
1747533315350,-0.32581642,0.42514774,1.0653099,-1.4972292,-1.4705976,-0.18269286,619
1747533315360,-0.39464056,0.400742,0.9237567,-1.4269217,-1.3422332,-0.08948222,620
1747533315370,-0.40903994,0.38194957,0.8117344,-1.4327807,-1.242631,0.02130529,621
1747533315380,-0.37328556,0.381583495,0.79538257,-1.4452976,-1.26952895,0.0386158365,622
1747533315390,-0.32776889,0.39476259,0.8018501200000001,-1.3907027,-1.5611451,-0.013315806,623
1747533315400,-0.35412705,0.38268176,0.91155386,-1.107875,-2.0309267,-0.011717909,624
1747533315410,-0.38097337,0.38731885,0.912286,-0.9651296,-2.207228,0.06551377,625
1747533315420,-0.36047256,0.379997135,0.927417525,-0.8913600500000001,-2.2556975,0.103330655,626
1747533315430,-0.24698594,0.38170552,0.9200958,-0.66365975,-2.2775354,0.22264028,627
1747533315440,-0.21989559,0.39659303,0.8232051,-0.59814599,-2.1859226,0.27803404,628
1747533315450,-0.1381364,0.42075467,0.71093875,-0.6668556,-2.0421119,0.3291667,629
1747533315460,-0.06833603,0.44540447,0.6892177,-0.9177253,-1.9861856,0.2428803,630
1747533315470,-0.04368625,0.44833317,0.76756,-1.2655342,-1.8189391,0.11824436,631
1747533315480,-0.0959145,0.4036707,0.9654905,-1.6543556,-1.4588797,0.0026631611,632
1747533315490,-0.12629963,0.388051035,1.01967125,-1.6562199,-1.4194649,0.0039947417,633
1747533315500,-0.20988922,0.3526627,1.129985,-1.5478293,-1.4040185,0.054328486,634
1747533315510,-0.218065145,0.34106999,1.15963795,-1.44369965,-1.44529755,0.087884318,635
1747533315520,-0.211719665,0.31873876,1.1717188,-1.201352,-1.51773555,0.1541970349999999,636
1747533315530,-0.145092035,0.315077905,1.07958725,-0.8753811,-1.6096146,0.2269013299999999,637
1747533315540,-0.071996887,0.33240597,0.9642702,-0.7115966499999999,-1.70974945,0.2335592249999999,638
1747533315550,-0.065407336,0.34753752,0.9005712,-0.83889574,-1.7283915,0.175236,639
1747533315560,-0.046614934,0.3248402,0.92400074,-0.9491506,-1.6463662,0.1768339,640
1747533315570,-0.049787678,0.3231318,0.9818423,-1.0045444,-1.5563514,0.18961707,641
1747533315580,-0.055889109,0.30873242,1.0134477,-0.95953698,-1.5148061,0.229298175,642
1747533315590,-0.064919226,0.28115395,1.040172,-0.8556737,-1.475125,0.29960564,643
1747533315600,-0.004881145,0.27554062,0.99502134,-0.6860303,-1.514806,0.3685815,644
1747533315610,0.057841565,0.28164205,0.95670444,-0.6279734,-1.5968314,0.33822146,645
1747533315620,0.09030118,0.27212384,0.85590875,-0.76485986,-1.6346483,0.267914,646
1747533315630,0.099819415,0.27224587,0.848098925,-0.859668405,-1.60348935,0.2484729299999999,647
1747533315640,0.117391534,0.27261195,0.88421935,-1.1435614,-1.4950987,0.17576863,648
1747533315650,0.13911264,0.25211114,0.9669548,-1.2751216,-1.4072144,0.11717909,649
1747533315660,0.12776397,0.24015233,1.00429555,-1.3001553,-1.36034275,0.10626013,650
1747533315670,0.08078295,0.200371,1.1104605,-1.29669315,-1.2644688999999998,0.1270327849999999,651
1747533315680,0.083833665,0.19963883,1.11326715,-1.21999415,-1.2128036,0.18375812,652
1747533315690,0.12886223,0.1943916,1.1098503,-1.045557,-1.2687299,0.20719394,653
1747533315700,0.1969542,0.19671014,1.0933765,-0.83729786,-1.4354439,0.13209279,654
1747533315710,0.1415532,0.1666911,0.9076489,-0.7004114,-1.6777915,0.120907515,655
1747533315720,0.14472595,0.15253578,0.84907514,-0.7637946,-1.7310548,0.13688648,656
1747533315730,0.1415532,0.149485065,0.85005137,-0.8069378,-1.74516955,0.146473865,657
1747533315740,0.16132185,0.12813005,0.8710403,-0.9406285,-1.7704695,0.18056233,658
1747533315750,0.1889003,0.10909359,0.91155386,-1.0301107,-1.7475663,0.19281286,659
1747533315760,0.23600335,0.097134784,0.97452056,-1.154214,-1.6016251,0.2130529,660
1747533315770,0.2613853,0.08419975,1.002099,-1.1845741,-1.5227956,0.23861924,661
1747533315780,0.27139165,0.07565775,1.0196711,-1.17365515,-1.4857776500000002,0.25752768,662
1747533315790,0.30470547,0.060282145,1.0451751,-1.1286477,-1.44316705,0.28282771,663
1747533315800,0.3459511549999999,0.0528383949999999,1.05847625,-1.0428939,-1.4719292,0.283094025,664
1747533315810,0.3436326,0.06613952,0.99209267,-0.904143225,-1.6274578,0.26232137,665
1747533315820,0.33838537,0.05979403,0.961951615,-0.819188375,-1.78564955,0.2572613649999999,666
1747533315830,0.33777523,0.04344219,0.9003272,-0.8476842,-1.8362496,0.28469193,667
1747533315840,0.36510965,0.025626011,0.9132622,-0.928378,-1.8386464,0.34248254,668
1747533315850,0.3990336,-0.0019524579,0.9476743,-0.9507485,-1.7896442,0.38935417,669
1747533315860,0.45589894,-0.022453265,0.98330665,-0.89801794,-1.7486316,0.46019423,670
1747533315870,0.47395915,-0.014643434,0.9691513,-0.9044095,-1.784318,0.46711847,671
1747533315880,0.487748375,-0.0111046045,0.96829715,-0.9044095,-1.784318,0.46711847,672
1747533315890,0.5183776,-0.0012202864,0.9820864,-0.98403805,-1.83731485,0.433296305,673
1747533315900,0.6274712,0.008786061,1.1099724,-1.0828413,-1.8269285,0.36485308,674
1747533315910,0.626495,0.006345488,1.168302,-1.1318434,-1.6708673,0.23808661,675
1747533315920,0.60184515,0.0019524579,1.2005177,-1.113734,-1.5717977,0.19867182,676
1747533315930,0.5691415,-0.008542004,1.2315128,-1.0764498,-1.4881744,0.18109496,677
1747533315940,0.55144735,-0.0148874925,1.2532339,-1.02824655,-1.4218617,0.17496969,678
1747533315950,0.5022698,-0.011470691,1.3049742,-0.88470215,-1.2495552,0.18109496,679
1747533315960,0.5088593349999999,-0.0019524579999999,1.304242,-0.821585225,-1.1875035500000002,0.179497065,680
1747533315970,0.50763905,0.03441207,1.355494,-0.71585774,-1.0748519,0.118776985,681
1747533315980,0.500683425,0.04515059,1.393811,-0.68336717,-1.0442255500000002,0.09800433,682
1747533315990,0.4889687,0.0586957684999999,1.46654005,-0.6016081,-0.981641225,0.067644294,683
1747533316000,0.443574055,0.0735832585,1.5534244,-0.38962046,-0.85940209,0.0703074565,684
1747533316010,0.43173727,0.0993313,1.5836874,-0.022903185,-0.61891866,0.08575379,685
1747533316020,0.4720067,0.13349932,1.5302389,0.08948222,-0.47723848,0.036751624,686
1747533316030,0.47554555,0.153267955,1.50558915,0.11744541,-0.40400155,-0.00346211,687
1747533316040,0.476521775,0.187313935,1.4631232,0.1504686,-0.25992453,-0.092145377,688
1747533316050,0.464074835,0.20988923,1.4403038499999998,0.144609645,-0.1203748825,-0.18216022,689
1747533316060,0.3939084,0.1952458,1.5097381,0.105993815,0.34248254,-0.26897928,690
1747533316070,0.3829258,0.16913168,1.5539125,0.128897,0.5747102,-0.2796319,691
1747533316080,0.37304149,0.15949141,1.5739252,0.162452825,0.680704,-0.28176245,692
1747533316090,0.35168649,0.1376482849999999,1.6234689,0.254065575,0.85860315,-0.278034035,693
1747533316100,0.35083228,0.117025455,1.71157355,0.5486112,1.0354371,-0.25033715,694
1747533316110,0.40562314,0.09493827,1.7198714,0.9464875,1.2873721,-0.26525086,695
1747533316120,0.41196862,0.08078295,1.6849711,1.0684602,1.4631407,-0.28336033,696
1747533316130,0.41196862,0.08078295,1.6849711,1.0684602,1.4631407,-0.28336033,697
1747533316140,0.40562315,0.0661395125,1.6078492,1.1741878,1.76141475,-0.267381365,698
1747533316150,0.446502725,0.0584517125,1.5234054,1.21812995,1.94810235,-0.26711505,699
1747533316160,0.4737151,0.06833603,1.3938109,1.2596753,2.3031018,-0.34141725,700
1747533316170,0.46712556,0.07272906,1.3525653,1.2197278,2.3845944,-0.39095205,701
1747533316180,0.46529513,0.07443746,1.35451775,1.2000204,2.4032366,-0.435160525,702
1747533316190,0.4322254,0.07468152,1.3964956,1.2277173,2.4037693,-0.50173956,703
1747533316200,0.39756927,0.057841565,1.4357888,1.3097427,2.401106,-0.48735848,704
1747533316210,0.36291313,0.012935034,1.5033927,1.4413028,2.3979104,-0.43196473,705
1747533316220,0.32581642,-0.03172744,1.602724,1.6335831,2.411226,-0.34088463,706
1747533316230,0.34607318,-0.0466149335,1.6289601500000002,1.90362765,2.44265135,-0.230629755,707
1747533316240,0.3734076,-0.03807293,1.5717287,2.394182,2.525742,-0.054328486,708
1747533316250,0.377800625,-0.017450093,1.52816445,2.4586305,2.530802,-0.0218379205,709
1747533316260,0.398057375,0.0231854395,1.4403038,2.521481,2.5204158,0.018642128,710
1747533316270,0.440035215,0.0560111375,1.38392655,2.4980452,2.5577,-0.02130529,711
1747533316280,0.510811815,0.104700555,1.33865395,2.4221451,2.6495791,-0.120907515,712
1747533316290,0.552667625,0.15253578,1.3142483,2.3092271,2.79605295,-0.27723507,713
1747533316300,0.5366819,0.17108414,1.3247427,2.2237396,3.0045784,-0.41758367,714
1747533316310,0.50934744,0.16644704,1.2988727,2.1800637,3.1712923,-0.47137952,715
1747533316320,0.40391475,0.17254847,1.3210819,2.1422467,3.290602,-0.5139901,716
1747533316330,0.364377475,0.167545295,1.3286477,2.15156785,3.38834,-0.512125875,717
1747533316340,0.28505886,0.16058967,1.3113196,2.1603563,3.5398738,-0.4676511,718
1747533316350,0.21428227,0.16571487,1.3391421,2.1827269,3.5430696,-0.42397526,719
1747533316360,0.17279254,0.14814276,1.4011327,2.290851,3.5238948,-0.36272255,720
1747533316370,0.119099945,0.1295944,1.4345685,2.7712855,3.4173684,-0.1965413,721
1747533316380,0.1100698225,0.131058745,1.3818521499999998,2.87541505,3.38967155,-0.153398085,722
1747533316390,0.13447554,0.14008886,1.1736712,3.1004522,3.3502567,-0.05752428,723
1747533316400,0.16620298,0.183287,1.018451,3.110572,3.3566482,-0.039947417,724
1747533316410,0.19329333,0.2626056,0.9659786,2.8852687,3.3838124,-0.18961707,725
1747533316420,0.21794313,0.2523552,0.9693954,2.8320055,3.567038,-0.20719394,726
1747533316430,0.207448665,0.26236155,0.941938965,2.7800739,3.6578518,-0.2082591999999999,727
1747533316440,0.14521407,0.27944556,0.9235126,2.6519759,3.8621163,-0.20453078,728
1747533316450,0.1298384575,0.26956123,0.9303462,2.66342745,3.89061215,-0.1850897,729
1747533316460,0.07687803,0.24991462,0.90447617,2.7702203,3.9116511,-0.101200126,730
1747533316470,0.028066582,0.25528388,0.850417485,2.89379095,3.81045105,-0.035153728,731
1747533316480,-0.0157416925,0.275296585,0.7507201,3.04053115,3.6296224,0.057790595,732
1747533316490,-0.011470691,0.28188613,0.708132115,3.08926705,3.4610442,0.111320135,733
1747533316500,0.03734076,0.26284966,0.72631437,3.226686,3.278884,0.1603223,734
1747533316510,-0.014643434,0.26577836,0.6238103,3.4163032,3.2597091,0.20026971,735
1747533316520,-0.012935034,0.27017137,0.4978768,3.4013894,3.2431977,0.23382555,736
1747533316530,-0.034045987,0.284082635,0.44052333,3.3433325,3.2112398,0.2545982,737
1747533316540,-0.028066583,0.32972133,0.31141704,3.2389367,3.1563785,0.23915187,738
1747533316550,-0.05296042,0.35949633,0.36266908,3.1569111,3.0349383,0.21038973,739
1747533316560,-0.05588911,0.32093528,0.34680536,3.2016523,2.9332056,0.22743396,740
1747533316570,-0.11202228,0.3577879,0.3192269,3.21603335,2.902313,0.230629755,741
1747533316580,-0.122028625,0.35058823,0.2877435,3.24053445,2.85544145,0.2444781899999999,742
1747533316590,-0.13203497,0.34338856,0.2562601,3.2506545,2.8394625,0.25513083,743
1747533316600,-0.107141133,0.3729194799999999,0.119954137,3.1148332,2.7470507,0.218379215,744
1747533316610,-0.13276714,0.3738957,0.077122085,2.9640985,2.7318707,0.17470337,745
1747533316620,-0.17328064,0.3912238,0.045638707,2.9049761,2.7233486,0.18162759,746
1747533316630,-0.20659446,0.4185582,0.0496656525,2.86183295,2.66662325,0.188285495,747
1747533316640,-0.26687661,0.45187199,0.077732234,2.8064392,2.454902,0.24181503,748
1747533316650,-0.279323535,0.4766437999999999,0.108239385,2.850115,2.2093585,0.2561961,749
1747533316660,-0.22526483,0.47469133,0.04148973,3.0264163,1.9845877,0.15446335,750
1747533316670,-0.21452633,0.41538543,-0.1181237,2.9870014,2.066613,0.113983296,751
1747533316680,-0.2205057249999999,0.420388615,-0.18987652,2.841593,2.1907163,0.090014845,752
1747533316690,-0.20793676,0.43124917,-0.38487828,2.442119,2.4021714,-0.015978966,753
1747533316700,-0.24771811,0.43954712,-0.383658,2.305765,2.4405208,-0.058056913,754
1747533316710,-0.26065314,0.41733786,-0.40171823,2.218946,2.4394555,-0.060720075,755
1747533316720,-0.23893206,0.4183141,-0.38146147,2.221609,2.3691483,-0.007989483,756
1747533316730,-0.17718557,0.41977844,-0.41196862,2.3238745,2.3062975,0.025033714,757
1747533316740,-0.1574169249999999,0.41270079,-0.45797341,2.4234767,2.2221417,0.043675844,758
1747533316750,-0.0056133163,0.38341394,-0.82125264,2.481001,2.0090888,-0.05006743,759
1747533316760,0.048567392,0.3585201,-1.0616491,2.3664849,1.9712719,-0.17949706,760
1747533316770,0.15595257,0.29433304,-1.351345,2.1182783,1.959554,-0.3797668,761
1747533316780,0.14399378,0.25992095,-1.6034561,1.94464025,1.9555592,-0.48975535,762
1747533316790,0.1125103949999999,0.23087815,-1.7102311,1.3385048,1.8785939,-0.7419567,763
1747533316800,-0.0065895454,0.102259986,-1.8187146,0.4133226,1.180313,-0.7664578,764
1747533316810,-0.10494461,-0.009030119,-1.9190221,0.18642128,0.8831042,-0.71159667,765
1747533316820,-0.12129646,-0.05418071,-1.8941283,0.036218993,0.6428871,-0.690824,766
1747533316830,-0.168277485,-0.0399033605,-1.89961955,-0.0609863885,0.474309,-0.6245113,767
1747533316840,-0.25894472,0.009518232,-1.8553232,-0.39254996,-0.1736381,-0.38615838,768
1747533316850,-0.22746135,0.10665302,-1.6080933,-0.74302197,-1.1856394,-0.19014971,769
1747533316860,-0.22233616,0.16132185,-1.462635,-0.87032104,-1.6698021,-0.16245283,770
1747533316870,-0.21696689,0.1790159949999999,-1.3953973,-1.010936,-2.0490363,-0.15925704,771
1747533316880,-0.2090350249999999,0.20976721,-1.2656809,-1.13131085,-2.18033005,-0.158724405,772
1747533316890,-0.2054962,0.24784014,-1.12229725,-1.3662016,-2.3297334000000003,-0.157925455,773
1747533316900,-0.17840585,0.34070393,-0.6965394,-1.8295918,-2.1789985,-0.22370553,774
1747533316910,-0.20476402,0.36462155,-0.57377857,-1.917476,-2.016013,-0.25086978,775
1747533316920,-0.25308737,0.38390204,-0.5188657,-1.995773,-1.8423749,-0.2444782,776
1747533316930,-0.2975057949999999,0.384512185,-0.513252375,-2.0711405,-1.66926945,-0.165648625,777
1747533316940,-0.3533949,0.43027294,-0.4876264,-2.17021,-1.4753913,-0.0482032149999999,778
1747533316950,-0.356689665,0.461146175,-0.47469135,-2.1981733,-1.5164039,0.029827405,779
1747533316960,-0.35632357,0.5298483,-0.4412555,-2.1955101,-1.6964337,0.025033714,780
1747533316970,-0.38194957,0.60697037,-0.40781966,-2.22373955,-1.8029601,0.0167779149999999,781
1747533316980,-0.3907356349999999,0.6306439349999999,-0.34436478,-2.251969,-1.9094865,0.008522116,782
1747533316990,-0.38463422,0.632718415,-0.16425053,-2.2314627,-2.0402477,-0.023968449,783
1747533317000,-0.37072295,0.6037976,-0.011226633,-2.0943098,-1.9206718,-0.04527374,784
1747533317010,-0.37194324,0.5959878,-0.036608588,-2.0090888,-1.8194717,-0.05486112,785
1747533317020,-0.3909797,0.5835409,-0.111290105,-1.952097,-1.7406421,-0.068176925,786
1747533317030,-0.42893059,0.61282777,-0.1768194775,-2.0269319,-1.80722115,-0.0687095574999999,787
1747533317040,-0.4574853,0.62576279,-0.205374175,-2.1518342500000003,-1.90442655,-0.068176925,788
1747533317050,-0.41990051,0.60538399,-0.11434082,-2.21495115,-1.95875505,-0.090547478,789
1747533317060,-0.34924594,0.63284045,0.024893839,-2.1992385,-2.0330572,-0.20240025,790
1747533317070,-0.37243137,0.61795294,0.020256752,-2.2034996,-2.0224047,-0.3552657,791
1747533317080,-0.37999715,0.60245532,0.0017084005,-2.2349248,-1.9949741,-0.366184665,792
1747533317090,-0.4139211,0.59061855,-0.004881145,-2.3076291,-1.95236345,-0.379500465,793
1747533317100,-0.44149956,0.59037447,0.049299564,-2.4426515,-1.9329224,-0.37284255,794
1747533317110,-0.4515059,0.55523026,0.14082102,-2.4889903,-1.911617,-0.32863408,795
1747533317120,-0.42319524,0.5774395,0.27017137,-2.5427864,-1.8951055,-0.28815404,796
1747533317130,-0.43625231,0.575487,0.341680135,-2.5286715,-1.9518308,-0.29294772,797
1747533317140,-0.51496077,0.5691415,0.55791485,-2.3574302,-2.1949775,-0.2775014,798
1747533317150,-0.56426036,0.5254553,0.6570021,-2.1081583,-2.3691483,-0.20559604,799
1747533317160,-0.60721445,0.49299565,0.6374775,-1.5899072,-2.6051042,0.076166406,800
1747533317170,-0.5886661,0.49738866,0.5757311,-1.4626081,-2.591256,0.2034655,801
1747533317180,-0.5618198,0.49982923,0.5632841500000001,-1.4476944,-2.5446506,0.2561961,802
1747533317190,-0.48176903,0.5432714,0.5374141,-1.4966966,-2.3233418,0.38083205,803
1747533317200,-0.4356422,0.56645685,0.5186216,-1.6154735,-2.156628,0.38402784,804
1747533317210,-0.38780698,0.54986095,0.5418071,-1.8018948,-1.8977686,0.30306774,805
1747533317220,-0.39537275,0.5527897,0.53131264,-1.8311896,-1.9531624,0.25353295,806
1747533317230,-0.42783237,0.545712,0.5112999,-1.824798,-2.0921793,0.22530343,807
1747533317240,-0.46883395,0.50641876,0.52960426,-1.7747306,-2.3068302,0.24660872,808
1747533317250,-0.47835222,0.49592432,0.5852493,-1.68152,-2.5438516,0.2977414,809
1747533317260,-0.3443648,0.5264315,0.74437463,-1.5616777,-2.7063043,0.396811,810
1747533317270,-0.25650415,0.536926,0.7602383,-1.6186694,-2.4192157,0.38562572,811
1747533317280,-0.233196685,0.54070885,0.7529166,-1.6772589,-2.23172905,0.365385695,812
1747533317290,-0.21355009,0.53948855,0.716186,-1.8232001,-1.8378475,0.329965665,813
1747533317300,-0.26065314,0.53765815,0.6313761,-2.1342573,-1.3070794,0.30253512,814
1747533317310,-0.2898179899999999,0.523136725,0.68140785,-2.24797425,-1.2423646499999998,0.30759512,815
1747533317320,-0.33313814,0.4881145,0.82149667,-2.2253375,-1.3923006,0.30786142,816
1747533317330,-0.346805335,0.486284075,0.860545835,-2.0762004000000003,-1.5686019,0.321443545,817
1747533317340,-0.345340995,0.483965525,0.90764888,-1.7443705,-1.9454393,0.364586755,818
1747533317350,-0.27895743,0.5232587,0.8815348,-1.2074772,-2.6141589,0.4346279,819
1747533317360,-0.088104665,0.5771954,0.8332114,-1.154214,-2.634399,0.39894155,820
1747533317370,-0.0547908515,0.57914787,0.8291845,-1.25248465,-2.46821775,0.378168885,821
1747533317380,-0.01147069075,0.57792757,0.8483430000000001,-1.4644723000000002,-2.0708741,0.33236251,822
1747533317390,-0.02391761,0.5547421,0.92937,-1.7496969,-1.3672669,0.25726137,823
1747533317400,-0.10323621,0.52033,0.98818773,-1.8237327,-1.0215886,0.24021713,824
1747533317410,-0.22477673,0.46956614,1.0079564,-1.593103,-1.0002834,0.31158987,825
1747533317420,-0.2443013,0.46810177,0.9967298,-1.2905679,-1.2612731,0.3568636,826
1747533317430,-0.2443013,0.46810177,0.9967298,-1.11985925,-1.49616395,0.36804887,827
1747533317440,-0.160833725,0.516059075,0.8234491850000001,-0.92784532,-1.9238676,0.35979307,828
1747533317450,-0.056499251,0.5388784200000001,0.74718125,-1.2548815,-2.202967,0.21411815,829
1747533317460,0.07809832,0.51569295,0.8139309,-1.37978375,-2.06900995,0.18002969,830
1747533317470,0.0909113199999999,0.498853015,0.86188815,-1.7299895,-1.5584819,0.06498113,831
1747533317480,0.0901791475,0.45992589,0.95938905,-1.79843275,-1.35581535,0.03195793275,832
1747533317490,0.0353883005,0.4233173,1.0348028,-1.8849855,-1.01066965,-0.0053263222499999,833
1747533317500,-0.14301755,0.3355787,1.1431642,-1.6399746,-0.84581995,0.12144015,834
1747533317510,-0.14374973,0.31190515,1.1641531,-1.2399678,-1.1632688,0.22530343,835
1747533317520,-0.13203498,0.326670625,1.1398694,-1.061003375,-1.3685985,0.2466087149999999,836
1747533317530,-0.0995753625,0.35961835,1.04151435,-0.776577775,-1.783519,0.26019083,837
1747533317540,-0.0606482285,0.37731249,0.902889825,-0.66685555,-2.1254689,0.239151865,838
1747533317550,0.0029286855,0.360960665,0.812832675,-1.0098706,-2.150769,0.21092236,839
1747533317560,0.0611363385,0.32728076,0.8255236349999999,-1.10760865,-2.02746465,0.21278658,840
1747533317570,0.078830495,0.26797485,0.98379475,-1.2532836,-1.7760622,0.229298175,841
1747533317580,0.078830495,0.26797485,0.98379475,-1.3012205,-1.6479641,0.24394555,842
1747533317590,0.068214,0.231610325,1.07153335,-1.1624698,-1.4463628,0.340618315,843
1747533317600,0.092741755,0.2297798999999999,1.010397,-0.91053475,-1.6287893,0.3898868,844
1747533317610,0.1398448,0.25845662,0.8434618,-0.7701862,-2.0410466,0.3552657,845
1747533317620,0.156684755,0.26016502,0.8258897000000001,-0.84582,-2.1015004,0.32623725,846
1747533317630,0.196588125,0.24552159,0.833699585,-1.0173276,-2.13825205,0.2743056,847
1747533317640,0.24845028,0.17450093,1.0082005,-1.470065,-1.7326527,0.20399815,848
1747533317650,0.243325085,0.1618099499999999,1.05237485,-1.51161025,-1.6335831,0.20506341,849
1747533317660,0.24674188,0.12690976,1.1870944,-1.5254587,-1.3864417,0.21944448,850
1747533317670,0.21599068,0.10494461,1.2595794,-1.3970944,-1.335309,0.2545982,851
1747533317680,0.20696054,0.10177187,1.2261436,-1.051416,-1.4929681,0.35260254,852
1747533317690,0.20696054,0.10177187,1.2261436,-1.051416,-1.4929681,0.35260254,853
1747533317700,0.22526483,0.1432616,1.1160738,-0.90920323,-1.7449032,0.34514567,854
1747533317710,0.2608972,0.1461903,1.0906918,-0.92997587,-1.7699369,0.34408042,855
1747533317720,0.26748675,0.14472595,1.0902036,-0.9763149,-1.7049558,0.34887412,856
1747533317730,0.29189247,0.1398448,1.1402354,-1.0045444,-1.4913702,0.41065946,857
1747533317740,0.30629185,0.13789235,1.1748916,-0.94808537,-1.3795174,0.44581318,858
1747533317750,0.29884811,0.1383804599999999,1.1869724,-0.899882135,-1.3595437,0.46951531,859
1747533317760,0.27602875,0.1342315,1.1888028,-0.73982614,-1.3603427,0.55606806,860
1747533317770,0.287255375,0.13398744,1.15182815,-0.62664182,-1.42612275,0.6085323300000001,861
1747533317780,0.33435842,0.14057697,1.053107,-0.43249738,-1.5680692,0.67537767,862
1747533317790,0.34949,0.14301755,0.9952655,-0.38562572,-1.6341157,0.6785734,863
1747533317800,0.35815402,0.14582421,0.96841917,-0.38376151,-1.6634105,0.68336712,864
1747533317810,0.41904628,0.16132185,0.91375035,-0.404534175,-1.7198695000000002,0.68017134,865
1747533317820,0.41904628,0.16132185,0.91375035,-0.509462725,-1.7241305,0.61332597,866
1747533317830,0.5042223,0.1889003,0.9130182,-0.5917544,-1.7012273,0.5544701,867
1747533317840,0.5154489,0.16791139,0.943647385,-0.71292822,-1.5512914000000002,0.5006743,868
1747533317850,0.5150828000000001,0.151559545,0.97293422,-0.77098517,-1.45728175,0.494549015,869
1747533317860,0.5227706350000001,0.13459757,1.00331935,-0.8032094000000001,-1.39283325,0.494016395,870
1747533317870,0.5806122,0.1181237,1.0636015,-0.78456725,-1.33637425,0.45007424,871
1747533317880,0.581344375,0.1158051599999999,1.06042875,-0.737163,-1.2985573499999998,0.37843519,872
1747533317890,0.573534525,0.11031388,1.05127655,-0.70706928,-1.28284475,0.32543829,873
1747533317900,0.5546201,0.106286935,1.0457853,-0.698547155,-1.25861,0.28948562,874
1747533317910,0.5319228,0.102626072,1.069947,-0.70733559,-1.2261194,0.27031085,875
1747533317920,0.528384,0.087616555,1.1348661,-0.71532506,-1.0796455,0.2561961,876
1747533317930,0.5310686,0.0832235249999999,1.15390265,-0.69588398,-1.033572815,0.25220136,877
1747533317940,0.52423495,0.065163285,1.2061309,-0.6103965,-0.8900285,0.25193503,878
1747533317950,0.523502775,0.0616244545,1.21638125,-0.5648564650000001,-0.853543175,0.25699505,879
1747533317960,0.5354616,0.05832968,1.2239472,-0.42024684,-0.7685883,0.2625877,880
1747533317970,0.5354616,0.05832968,1.2239472,-0.42024684,-0.7685883,0.2625877,881
1747533317980,0.5359497,0.09152147,1.1582958,-0.279631925,-0.6647250499999999,0.214917105,882
1747533317990,0.555352275,0.115073,1.0859327,-0.299605635,-0.60400495,0.16058862,883
1747533318000,0.55693865,0.12398108,1.0620151,-0.341949895,-0.540355375,0.10306434,884
1747533318010,0.52252656,0.1261776,1.0262607,-0.479369,-0.4016047,-0.0015978967,885
1747533318020,0.52399087,0.10470056,1.0506665,-0.5209143,-0.34887412,-0.03568636,886
1747533318030,0.524601035,0.0983550699999999,1.07153335,-0.520648,-0.31984566,-0.0484695329999999,887
1747533318040,0.51544892,0.0931078375,1.11607375,-0.5041363999999999,-0.26098979,-0.0692421905,888
1747533318050,0.50544257,0.0990872375,1.16586145,-0.46392266,-0.21624868,-0.0852211575,889
1747533318060,0.51154397,0.1076292425,1.24701055,-0.39760996,-0.1222390949999999,-0.127565415,890
1747533318070,0.5407088200000001,0.1089715625,1.33389495,-0.338487785,0.022903185,-0.192546545,891
1747533318080,0.5635282,0.10665302,1.3657444,-0.32170987,0.08894958,-0.2231729,892
1747533318090,0.554498035,0.1159271895,1.4304195,-0.233559235,0.35712991,-0.3155846,893
1747533318100,0.50959152,0.1117782145,1.46776025,-0.0314253,0.8213189,-0.3888215,894
1747533318110,0.447967085,0.1000634675,1.4976573000000002,0.032490565,0.90654005,-0.3736414999999999,895
1747533318120,0.41868021,0.09286378,1.50717555,0.175236,1.04742125,-0.33262883,896
1747533318130,0.423317285,0.09811101,1.50607725,0.345678315,1.1339739999999998,-0.287088765,897
1747533318140,0.4573632949999999,0.111534155,1.4924100500000002,0.5608617300000001,1.17898145,-0.274305595,898
1747533318150,0.48323337,0.131180775,1.4370091,0.8466189,1.1763183,-0.31185618,899
1747533318160,0.50495446,0.15741692,1.3530535,1.0791129,1.1387677,-0.386691,900
1747533318170,0.5127643,0.14594623,1.3276714,1.09162975,1.1829762,-0.4079963,901
1747533318180,0.52374685,0.134963655,1.31473635,1.0942929,1.3118732,-0.43888897,902
1747533318190,0.5444917,0.12129646,1.2971642,1.0295781,1.613343,-0.4511395,903
1747533318200,0.530580425,0.121662545,1.31253985,0.9763149,2.0367856,-0.47244477,904
1747533318210,0.47542354,0.117635585,1.3452435,1.0066749,2.172607,-0.47351006,905
1747533318220,0.457973435,0.1158051599999999,1.3547618,1.036236,2.17766695,-0.468450055,906
1747533318230,0.433323655,0.113974735,1.3642801,1.09855395,2.16328575,-0.4649879449999999,907
1747533318240,0.420632675,0.1111680774999999,1.37355425,1.1720572,2.11375095,-0.47271112,908
1747533318250,0.39317623,0.08419975,1.437009,1.2689963,2.04983515,-0.47404269,909
1747533318260,0.4024504,0.071264714,1.4553133,1.617604,1.9009644,-0.41225734,910
1747533318270,0.4062332899999999,0.066627627,1.45873015,1.617604,1.9009644,-0.41225734,911
1747533318280,0.41001618,0.06199054,1.462147,1.7646105,1.9025623,-0.37284255,912
1747533318290,0.47542352,0.076511945,1.45750985,1.8849854,1.969674,-0.32277513,913
1747533318300,0.52399087,0.11299851,1.3894179,2.05888985,2.3835292,-0.316383535,914
1747533318310,0.5042223,0.13716017,1.3335288,2.0591562,2.5843315,-0.3685815,915
1747533318320,0.490921185,0.145580145,1.30009295,2.04104675,2.622681,-0.378967835,916
1747533318330,0.462488505,0.160467635,1.25445425,2.0069583,2.664759,-0.397077335,917
1747533318340,0.4275883,0.178283815,1.2464004,1.995773,2.62960525,-0.4095941899999999,918
1747533318350,0.3870748,0.19109682,1.2693418,2.04876995,2.4666197,-0.41705103,919
1747533318360,0.38756293,0.20403185,1.3891739,2.2226744,2.189651,-0.43409526,920
1747533318370,0.400864035,0.1990286849999999,1.4289552,2.341185,2.1656825,-0.44607949,921
1747533318380,0.429906845,0.185117425,1.4598284,2.5454494,2.1923141,-0.462591095,922
1747533318390,0.46566124,0.188412195,1.3955193499999998,2.6559706,2.3382554,-0.475906895,923
1747533318400,0.48518583,0.27871338,1.1363305,2.556102,2.6844663,-0.556866975,924
1747533318410,0.4772539449999999,0.28213017,1.11558565,2.3521039,3.0719562,-0.666855545,925
1747533318420,0.4497974999999999,0.27724903,1.0845904000000002,2.21308695,3.3161682,-0.7238472149999999,926
1747533318430,0.39268811,0.268462975,1.07580435,2.12893105,3.453321,-0.7512777850000001,927
1747533318440,0.3241080149999999,0.26712066,1.0772687,2.1281321,3.44746205,-0.7536746350000001,928
1747533318450,0.26309371,0.2798116349999999,1.00063472,2.1877869,3.20990805,-0.7416903850000001,929
1747533318460,0.221603975,0.29652955,0.922902495,2.2197448,2.9302761,-0.73902722,930
1747533318470,0.2234344,0.3005565,0.951945305,2.2280005000000003,2.8035097,-0.7499461700000001,931
1747533318480,0.19134088,0.30116665,1.1194906,2.3707461,2.713761,-0.7281082,932
1747533318490,0.17730759,0.28566901,1.1332798,2.4479778,2.817092,-0.65513766,933
1747533318500,0.161809955,0.264069945,1.1277885,2.5001757,2.88526885,-0.6093312799999999,934
1747533318510,0.15570852,0.27358818,1.0050278,2.5995116,3.01150265,-0.538224875,935
1747533318520,0.1513155,0.32093528,0.792942,2.7249465,3.0418627,-0.56938386,936
1747533318530,0.13227903,0.32728076,0.73827318,2.72547915,3.01842685,-0.590689155,937
1747533318540,0.094816238,0.3347245,0.6477279300000001,2.7004454,2.9635657,-0.614657625,938
1747533318550,0.058329681,0.34887983,0.6072143999999999,2.64372,2.8620993,-0.613326025,939
1747533318560,0.017084008,0.4166057,0.65065664,2.5582325,2.58806,-0.6199839,940
1747533318570,0.000366087,0.3726754,0.7318056500000001,2.6589,2.5715484,-0.6061354800000001,941
1747533318580,-0.0264802109999999,0.319837,0.7628009,2.81735815,2.6234801,-0.5597964799999999,942
1747533318590,-0.06858008,0.3385074,0.5503491,2.87674665,2.75397505,-0.50120692,943
1747533318600,-0.088836835,0.33997175,0.5058086500000001,2.8527782,2.86316455,-0.44474791,944
1747533318610,-0.09689073,0.33533466,0.40830776,2.7510455,2.94013,-0.35792887,945
1747533318620,-0.15033926,0.32044718,0.47835222,2.78619925,2.8940573,-0.334493035,946
1747533318630,-0.181334525,0.30873242,0.4778641,2.821353,2.8479846,-0.3110572,947
1747533318640,-0.2933568,0.29652956,0.41514137,3.03627,2.65756845,-0.202666565,948
1747533318650,-0.29774983,0.30080056,0.396226935,3.1856732,2.4335966,-0.041545313,949
1747533318660,-0.23100018,0.3231317999999999,0.301288665,3.19419535,2.4274714,-0.0021305289999999,950
1747533318670,-0.13911263,0.3610827049999999,0.21171966,3.18061325,2.44957565,0.0143810695,951
1747533318680,-0.11836776,0.38097337,0.19817449,3.158509,2.4778051,-0.008522116,952
1747533318690,-0.110557935,0.3940304249999999,0.18365308,3.0317427,2.7249465,-0.085221158,953
1747533318700,-0.113974735,0.38487828,0.12129646,2.8884647,3.137204,-0.14061491,954
1747533318710,-0.23722363,0.42099872,0.071264714,2.7334685,3.3619747,-0.165116,955
1747533318720,-0.249548525,0.4153854099999999,0.0418558165,2.6248115,3.44719575,-0.15126756,956
1747533318730,-0.26187342,0.4097721,0.012446919,2.5161545,3.5324168,-0.13741912,957
1747533318740,-0.43661842,0.46492904,-0.043198135,2.4607608,3.1947281,-0.08575379,958
1747533318750,-0.469078,0.42954078,-0.013179091,2.4828651,3.1161649,-0.0287621405,959
1747533318760,-0.42014454,0.42307324,-0.0615024305,2.6061695,2.85171305,0.1150485595,960
1747533318770,-0.29872608,0.4356422,-0.27944556,2.73559905,2.5806032,0.1912149699999999,961
1747533318780,-0.27151369,0.431859325,-0.35217463,2.73613165,2.4359935000000004,0.1653823099999999,962
1747533318790,-0.22709526,0.432469475,-0.49214145,2.6213494,2.36195765,0.13502227,963
1747533318800,-0.22270223,0.472250775,-0.55950122,2.32121115,2.30789555,0.066579028,964
1747533318810,-0.2613853,0.4729829,-0.48006064,2.0330572,2.2482407,-0.002130529,965
1747533318820,-0.25870067,0.45223808,-0.45687518,2.0591562,2.1486385,0.029827405,966
1747533318830,-0.25870067,0.45223808,-0.45687518,2.0591562,2.1486385,0.029827405,967
1747533318840,-0.225997015,0.460169925,-0.57878175,2.1371869,1.97659815,0.0524642745,968
1747533318850,-0.1308146875,0.419778465,-0.8173477499999999,2.09297835,1.9265307,0.0263652953499999,969
1747533318860,-0.012935034,0.3526627,-1.138527,1.6010925,2.1406488,-0.09267801,970
1747533318870,0.0026846299999999,0.33618885,-1.2157712,1.4658039,2.1936458,-0.13156016,971
1747533318880,0.0135451774999999,0.31129502,-1.35793455,1.20587935,2.208027,-0.205862355,972
1747533318890,-0.0120808345,0.297749845,-1.488017,0.99602225,2.0333236,-0.270044535,973
1747533318900,-0.052716363,0.22916976,-1.7398841,0.74595145,1.5126754999999998,-0.324373025,974
1747533318910,-0.0683360265,0.2255089,-1.7574562,0.4841627149999999,0.93370425,-0.331563565,975
1747533318920,-0.100185495,0.2195295,-1.7635577,0.296942465,0.5491438150000001,-0.277235075,976
1747533318930,-0.12751991,0.21013329,-1.72853555,0.1115864494999999,0.119309625,-0.18162759,977
1747533318940,-0.145702175,0.210987485,-1.6737446500000002,-0.0516653255,-0.3233077649999999,-0.0780306215,978
1747533318950,-0.2111095,0.26821893,-1.4821596,-0.25113609,-0.917725375,0.0615190185,979
1747533318960,-0.22331238,0.307024,-1.3596429,-0.5028048,-1.653823,0.23755397,980
1747533318970,-0.21721096,0.34290043,-1.2078394,-0.62104917,-1.917476,0.28655612,981
1747533318980,-0.21721096,0.34290043,-1.2078394,-0.62104917,-1.917476,0.28655612,982
1747533318990,-0.156196635,0.37462787,-1.0452971999999998,-0.8282430999999999,-2.0817931,0.247141345,983
1747533319000,-0.14130914,0.39781332,-0.9576807,-1.0093381,-2.04424245,0.15739282,984
1747533319010,-0.19146291,0.40061997,-0.92595325,-1.6698021,-1.7129452,-0.10759171,985
1747533319020,-0.26931717,0.39708114,-0.8620102000000001,-1.78165485,-1.6658073,-0.1315601549999999,986
1747533319030,-0.3231317999999999,0.38255973,-0.787206625,-1.9824572,-1.58191775,-0.1571265,987
1747533319040,-0.36730616,0.37853278,-0.704837325,-2.1454427000000003,-1.54063875,-0.149669655,988
1747533319050,-0.43588626,0.43930307,-0.41148052,-2.2748723,-1.7172064,-0.080960095,989
1747533319060,-0.45980385,0.47493544,-0.3355787,-2.21575,-1.8578212,-0.032490566,990
1747533319070,-0.452848225,0.49226347,-0.31227125,-2.17713415,-1.93079185,-0.0085221155,991
1747533319080,-0.41611758,0.55059314,-0.26919514,-2.09830465,-2.06767835,0.0242347659999999,992
1747533319090,-0.35974038,0.57402265,-0.29018408,-2.03305725,-2.1614216,0.0173105468499999,993
1747533319100,-0.3321619,0.5447358,-0.28383857,-2.0543625,-2.0469058,-0.035153728,994
1747533319110,-0.34119204,0.54912883,-0.29116032,-2.0921794,-2.0013657,-0.035952676,995
1747533319120,-0.3469273699999999,0.554864165,-0.28603511,-2.18033005,-1.92413395,-0.0378168869999999,996
1747533319130,-0.359984435,0.58134435,-0.268462975,-2.3015039,-1.87166965,-0.041545312,997
1747533319140,-0.358520105,0.6114854000000001,-0.21074343,-2.4463799,-1.8309233,-0.0474042685,998
1747533319150,-0.31300342,0.6565139799999999,-0.0252599249999999,-2.5377263,-1.7976338,-0.1206412015,999
1747533319160,-0.28286234,0.681896,0.20110317,-2.4580977,-1.7837853,-0.27643612,1000
