id,timestamp,acc_x,acc_y,acc_z,gyro_x,gyro_y,gyro_z
1,1747533645070,-0.342778411,0.24661984,0.8836092,0.856206325,0.195476025,-0.2000034
2,1747533645080,2.3217165,3.836336,2.38688,-3.1643682,-1.7283915,-4.5630603
3,1747533645090,2.4952412,3.687217,2.5821257,-3.6261601,-0.6695187,-5.0056777
4,1747533645100,2.8896377,3.0763416,3.3025827,-3.4722295,1.3102753,-5.684784
5,1747533645110,3.0111784,2.8389959,3.97435035,-2.424542,1.8940402,-5.8413777
6,1747533645120,3.025822,2.77127,4.1538544,-0.8223842,2.1513016,-5.907424
7,1747533645130,3.06206435,2.7330751,4.1548307,0.09667275,2.257828,-5.910886
8,1747533645140,3.4703721,2.46985925,3.12783765,4.720453,2.71642435,-6.17880025
9,1747533645150,3.59081425,2.3316009,2.6016502,5.58811085,2.6932548,-6.52208175
10,1747533645160,3.68892525,2.1485579,2.2106704500000003,6.01368405,2.541721,-7.039267499999999
11,1747533645170,3.738713,2.0483723,2.0574026,6.1673484,2.4325314,-7.359912
12,1747533645180,3.07878215,1.6005274,1.5410995,6.2818646,2.181129,-7.953797
13,1747533645190,2.63825885,1.3007031,1.21564915,6.252037,1.8706044,-8.264854
14,1747533645200,2.5550354,1.21931,1.0906918,6.014483,1.6996294,-8.351673
15,1747533645210,2.451067,1.0482259,0.79782313,5.7199373,1.9062908,-8.36925
16,1747533645220,2.3378243,0.9005712,0.55010504,5.3566823,2.1278658,-8.339955
17,1747533645230,2.2536247,0.7582859,0.34070393,4.937501,2.3414512,-8.188688
18,1747533645240,2.2951143,0.61673266,0.14570218,4.6525426,2.356365,-8.123174
19,1747533645250,2.4527755,0.34631723,-0.094206095,4.1955442,1.9947077,-8.356467
20,1747533645260,2.3470986,0.1806023614999999,-0.0186703775,4.2275021,1.353152185,-8.482168000000001
21,1747533645270,2.2414217,0.014887493,0.05686534,4.25946,0.71159667,-8.607869
22,1747533645280,1.97759575,-0.333992345,0.089202923,4.70633825,-0.7494135500000001,-8.5673895
23,1747533645290,1.888881,-0.43002886,0.026114127,4.65334135,-1.0902982,-8.36206
24,1747533645300,1.7764927,-0.47334904,-0.046126818,4.4229778500000005,-1.33743955,-8.0395512
25,1747533645310,1.7088889,-0.47639978,-0.082735404,4.270645,-1.427987,-7.8595214
26,1747533645320,1.8240839,-0.38146147,-0.025381953,3.3481262,-1.7198695,-7.158577
27,1747533645330,1.875702,-0.352540685,0.0418558185,3.17981435,-1.74383795,-7.0744212
28,1747533645340,1.9453802,-0.3082443,0.1889003,2.7393274,-1.6037556,-6.842726
29,1747533645350,2.1518528,-0.336921025,0.218919345,2.4309335,-1.2911005,-6.7425914
30,1747533645360,2.2023726,-0.35168648,0.20061506,2.0857878,-0.87618,-6.6595006
31,1747533645370,1.9627083,-0.46810179,0.254673725,1.722,-0.5001417,-6.548713
32,1747533645380,1.9053549,-0.47151858,0.28408262,1.1206582,-0.18748654,-6.114618
33,1747533645390,1.7955291,-0.4595598,0.3048275,0.984837,-0.06178534,-5.8499
34,1747533645400,1.6837509,-0.4949481,0.3568117,0.9358348,0.051665325,-5.555354
35,1747533645410,1.5570853,-0.5215503,0.46078008,1.000816,0.047404267,-5.27732
36,1747533645420,1.398692,-0.58427304,0.6450433,1.1851068,0.01438107,-5.042962
37,1747533645430,1.406502,-0.64260274,0.7133793,1.7369137,-0.12357068,-4.780374
38,1747533645440,1.3525653,-0.7145996,0.7285109,2.0224047,-0.104928546,-4.7308393
39,1747533645450,1.34255895,-0.764143225,0.74095782,2.2945797,-0.05965481,-4.6972837
40,1747533645460,1.0515206,-1.4010106,0.7917217,2.582201,0.036218993,-4.647749
41,1747533645470,0.9171671,-1.5451264,0.7814713,3.0328078,0.15606125,-4.8288436
42,1747533645480,0.338507405,-1.9889446,0.76804817,3.1015174,-0.034088463,-4.742025
43,1747533645490,0.18157859,-2.1330605,0.75145227,2.9960563,-0.22796659,-4.463458
44,1747533645500,-0.020744866,-2.515254,0.8053889,2.8186898,-0.18216023,-4.1662493
45,1747533645510,-0.49055508,-3.0380247,0.81466305,2.2045648,0.4063984,-3.0764837
46,1747533645520,-0.7497439,-3.3218632,0.8505395,1.7651432,0.82824314,-2.146508
47,1747533645530,-0.9959976,-3.4741552,0.8856837,1.3273195,1.2602079,-1.0588728
48,1747533645540,-0.89202925,-3.70112825,0.801117885,0.548611165,1.8636802,0.790958885
49,1747533645550,-0.7990434,-3.7733693,0.74339837,0.30146983,1.9792614,1.2735237
50,1747533645560,-0.471884665,-3.75872585,0.376702355,-0.95660746,1.8173412,2.740393
51,1747533645570,-0.42441553,-3.7179682,0.33313814,-1.593103,1.6261262,3.2623725
52,1747533645580,-0.300556495,-3.56738485,0.258456625,-2.2248049,1.4333134,3.746535
53,1747533645590,-0.25650415,-3.516865,0.24137263,-2.8208203,1.2181299,4.2264366
54,1747533645600,-0.0795626649999999,-3.35127195,0.14448189,-4.601143349999999,0.862597885,5.4182015
55,1747533645610,0.060892285,-3.21923705,0.161077785,-5.0626693,0.8628642,5.701828
56,1747533645620,0.11202228,-3.1695716,0.17206036,-5.814746,0.9715212,6.1023674
57,1747533645630,0.1461903,-3.090009,0.23893206,-6.5300713,1.0940266,6.480004
58,1747533645640,0.11861181,-2.988725,0.38902727,-7.079215,1.2101405,6.9625683
59,1747533645650,0.374139765,-2.84814815,0.58451712,-7.497597799999999,1.3819143,8.2901545
60,1747533645660,0.58207655,-2.7763953,0.63308454,-7.58202,1.4604776,8.998289
61,1747533645670,0.9628058,-2.6463127,0.5935472,-7.539409,1.4269217,9.595369
62,1747533645680,1.5994292,-2.4089671,0.49323968,-7.4477965,0.937166425,10.43613
63,1747533645690,2.3500272,-2.1475818,0.436618405,-7.407849,0.64075655,10.738399
64,1747533645700,3.1229565,-1.89693505,0.409283995,-7.345530999999999,-0.8942895200000001,11.524297
65,1747533645710,3.52650515,-1.77075745,0.43710652,-7.3828153,-1.2346415,11.5922075
66,1747533645720,3.6894133,-1.7193834,0.4595598,-7.4131756,-1.355549,11.598599
67,1747533645730,3.9354231,-1.6263975,0.75535715,-7.358314,-1.5227956,11.614046
68,1747533645740,4.1238356,-1.4697127,0.9767171,-7.1335435,-1.562743,11.616709
69,1747533645750,4.428663,-1.2249234,1.2866699,-6.541789,-1.448227,11.452658
70,1747533645760,4.6192718,-1.0679946,1.355738,-6.2195463,-1.6724652,11.01803
71,1747533645770,4.7142096,-0.8644508,1.3737983,-6.1300645,-1.8690065,10.634535
72,1747533645780,4.6900482,-0.73729694,1.45714385,-6.24218345,-1.8700718,10.00816
73,1747533645790,4.660273,-0.70361704,1.4985116,-6.3047676,-1.8168086,9.78552
74,1747533645800,4.238786149999999,-0.72729055,1.9293946,-6.24111815,-1.3792512,8.4856305
75,1747533645810,4.096989,-0.7487676,2.0539858,-6.0997043,-1.3390374,8.212124
76,1747533645820,3.7946022,-0.7883049,2.2902331,-5.499428,-1.4088123,7.745005
77,1747533645830,3.4875782,-0.7897693,2.515498,-4.549212,-1.5920377,7.380685
78,1747533645840,2.94540485,-0.66603223,2.5933523000000003,-0.747016695,-2.6328010500000003,6.674947
79,1747533645850,2.8745062,-0.6286915,2.5079324,0.591488055,-3.01576365,6.40703295
80,1747533645860,2.68328735,-0.4972666599999999,2.17101135,1.220793,-3.1782165,6.2626896
81,1747533645870,2.6114125,-0.45321432,2.0371459,2.2631543,-3.2234902,5.9793296
82,1747533645880,2.3281842,-0.304705465,1.3324306,3.15637865,-2.3041671,5.7012955000000005
83,1747533645890,2.25313655,-0.2037878,0.780739165,3.3246903,-1.6207999,5.642706
84,1747533645900,2.32659765,-0.160711705,0.48530783,2.7981833,-0.5587312,5.44722975
85,1747533645910,2.3675992,-0.13911264,0.35949633,2.5598304,-0.2828277,5.3407035
86,1747533645920,2.3727245,-0.031483386,0.2767609,2.0282636,0.09374327,5.012602
87,1747533645930,2.3080494,0.114218794,0.3133695,1.8200043,0.13954964,4.829909
88,1747533645940,2.622151,0.6642018249999999,-0.48579596,1.14329505,-0.464189,3.84853415
89,1747533645950,2.4990243,0.888002305,-0.87543337,0.50466903,-0.9912286,3.4455979
90,1747533645960,2.411774,0.99917036,-1.0750722,0.11664646,-1.2591426,3.2666335
91,1747533645970,2.0200617,1.2210184,-1.1778203,-0.8591358,-1.6911073,3.180347
92,1747533645980,1.6310346,1.4123594,-0.8529801,-1.6911073,-1.9531624,3.4514568
93,1747533645990,1.43359225,2.0641142,0.27968961,-1.41733435,-1.5976303500000002,5.1588094
94,1747533646000,2.0112757500000003,3.01349685,0.852369935,-0.7803062,-1.3688648,6.2456455
95,1747533646010,2.4803538,3.4731786,0.88836837,0.4958806,-1.3747238,7.0717583
96,1747533646020,4.059892,4.658565,0.4876264,1.7651432,-1.5089471,6.9247518
97,1747533646030,6.2085727,6.45116515,-0.79940952,3.0184269,-1.9534287,4.34068645
98,1747533646040,6.4366442,6.88046195,-1.49777935,3.07728265,-2.351305,1.4024207
99,1747533646050,6.0621382,6.4001573,-1.52438155,2.5603630500000003,-2.59791375,-0.9736517
100,1747533646060,5.6494372,5.729488,-1.46653995,2.2327943,-2.599778,-1.5126755
101,1747533646070,5.426857,5.37951,-1.4372531,2.2327943,-2.599778,-1.5126755
102,1747533646080,5.18768065,4.34434085,-1.1238836,-1.22318987,-0.9155948,-2.99685515
103,1747533646090,5.1522923,4.0489097,-0.9828185,-1.911617,-0.5230448,-3.2320123
104,1747533646100,4.85076,2.7050085,0.359984433,-3.7140445,0.7020092499999999,-4.5428202
105,1747533646110,4.778397,2.451067,0.68580085,-3.711914,0.8495484,-4.805408
106,1747533646120,4.380828,1.8572757,1.4955828,-3.0301447,1.026915,-5.597432
107,1747533646130,4.3649637,1.64482385,1.39027205,-0.24394557,0.76991988,-6.0786655
108,1747533646140,4.375214,1.5907651,1.3359693,0.28868666,0.63436496,-6.275473
109,1747533646150,4.288818,1.4672722,1.1875826,1.4157364,0.2263687,-6.804909
110,1747533646160,4.10065,1.2795922,0.95060295,2.0399814,-0.06551377,-7.1335435
111,1747533646170,3.7145514,1.0318741,0.60892284,2.63866,-0.2247708,-7.445133
112,1747533646180,3.576903,0.9440134,0.4612682,2.705239,-0.021837922,-7.4856133
113,1747533646190,3.4385225000000004,0.883975355,0.30861039,2.5949842,0.427703675,-7.590275650000001
114,1747533646200,3.4006937,0.86664724,0.27920148,2.48925665,0.64714815,-7.71677575
115,1747533646210,3.431933,0.68604493,0.3572998,2.4383903,0.7339672,-7.7908115
116,1747533646220,3.4092357,0.5625519,0.4229512,2.7217507,0.69135666,-8.450743
117,1747533646230,3.346757,0.38512233,0.47151858,2.9944584,0.4809669,-8.739963
118,1747533646240,3.3347983,0.0964026093,0.59671997,3.56810315,0.08468853,-9.0994885
119,1747533646250,3.3538346,0.0036608586,0.6545615,4.0834248,-0.3336941,-9.3476955
120,1747533646260,3.3260121,-0.17498904,0.7175283,4.363323,-0.588026,-9.470201
121,1747533646270,3.1170993,-0.53887844,0.71167094,5.258678,-2.0378509,-9.722669
122,1747533646280,2.9535809,-0.66090703,0.70971847,5.636847,-2.763296,-9.683254
123,1747533646290,2.8206917,-0.737663025,0.6088008,5.816344000000001,-3.52895485,-9.4124105
124,1747533646300,2.8037298,-0.7402256,0.58427304,5.8051586,-3.7332194,-9.293367
125,1747533646310,2.7873778,-0.7141115,0.4097721,5.545234,-3.9894154,-9.020126
126,1747533646320,2.7778594,-0.74413055,0.4229512,4.695153,-4.060788,-8.624913
127,1747533646330,2.902939,-0.7222873999999999,0.6373554699999999,4.32231035,-4.1798315,-8.611864
128,1747533646340,2.85058875,-0.69007185,0.64577545,4.2392197,-4.2083273,-8.644621
129,1747533646350,2.7812765,-0.6743302,0.626739,3.84294165,-4.4631918,-8.292284500000001
130,1747533646360,2.5779767,-0.64235866,0.76511943,3.6666403,-4.6275086,-7.988418
131,1747533646370,2.518915,-0.614048,0.81197846,3.6048548,-4.690892,-7.5878787
132,1747533646380,2.5017089,-0.61429205,0.80465673,3.52496005,-4.658135,-7.3186331
133,1747533646390,2.4845028,-0.6145361,0.797335,3.2623725,-4.2631884,-6.5902586
134,1747533646400,2.2200668,-0.595865785,0.77646812,2.927613,-3.3044502,-5.735117450000001
135,1747533646410,1.8848542,-0.5497389500000001,0.82869637,2.84771825,-2.8429244,-5.23124745
136,1747533646420,1.7552598,-0.5469323,0.8195442,2.8650289,-2.7505128,-5.0988884
137,1747533646430,1.5978428,-0.5358277,0.7202129500000001,2.8083034,-2.57554315,-4.8051417
138,1747533646440,1.5727049,-0.520086,0.6577343,2.7627633,-2.5246768,-4.740427
139,1747533646450,1.30375385,-0.44601461,0.243447095,1.6671388500000002,-2.75770325,-4.749748
140,1747533646460,1.1485334,-0.510689775,0.28115395,1.1438277,-3.03360685,-4.72444795
141,1747533646470,1.0672623,-0.54937285,0.35193056,0.8969527,-3.1664987,-4.6988816
142,1747533646480,0.759872265,-0.6530971999999999,0.6460195500000001,0.47377635,-3.14519335,-4.576908599999999
143,1747533646490,0.65334123,-0.6965394,0.746083,0.3818973,-3.042928,-4.5289717
144,1747533646500,0.18401916,-1.33145425,1.20381245,0.534496435,-1.4397049000000002,-4.08662085
145,1747533646510,0.08639627,-1.4409139,1.2346857,0.67031767,-0.75314196,-3.70419085
146,1747533646520,0.015375607,-1.8426323,1.1314493,0.71585774,-0.45327002,-3.5020568
147,1747533646530,-0.15204766,-2.2414217,0.9872115,0.6263755,-0.20612867,-3.0945933
148,1747533646540,-0.45785138,-2.9020846,0.69287854,-0.3174488,-0.777643,-2.1955101
149,1747533646550,-0.9196077,-3.2000787,0.72777873,-0.8527442,-1.158475,-1.9718045
150,1747533646560,-1.3075367,-3.63730705,0.83589603,-1.4029533,-1.3688648,-1.6974989
151,1747533646570,-1.4160202,-3.7794704,0.8759214,-1.963815,-1.3432984,-1.2394352
152,1747533646580,-1.4996098,-3.9191932,0.93656965,-2.5049694,-1.1563445,-0.62371236
153,1747533646590,-1.6981503,-4.1951003,1.1368186,-2.906574,-0.8127968,0.14487597
154,1747533646600,-1.6881441,-4.222923,1.1026506,-3.70791925,0.3605920299999999,2.32387435
155,1747533646610,-1.5831994,-4.148973,0.9813542,-3.961186,0.67324716,2.7579696
156,1747533646620,-1.38526895,-3.95128695,0.89678835,-4.4192495,1.2405005,3.2618399
157,1747533646630,-1.330112,-3.8827069,0.8705522,-4.838964,1.8562233,3.6085835
158,1747533646640,-1.2566508,-3.657198,0.7192367,-5.513276,2.8016455,4.4219127
159,1747533646650,-1.1342560000000002,-3.5122278,0.6513888,-5.7095511,3.1949944500000003,5.329784399999999
160,1747533646660,-1.0394398,-3.4521897,0.6379657,-5.7151437,3.2884715,5.6506953
161,1747533646670,-0.83858067,-3.312833,0.55620646,-5.597432,3.3593116,6.2626896
162,1747533646680,-0.49055508,-3.07975845,0.234172921,-5.331382250000001,3.11403425,7.19452965
163,1747533646690,0.0457607399999999,-2.8274032,-0.0302630989999999,-5.244297,2.9768815,7.5085163
164,1747533646700,0.43832684,-2.6526582,-0.10470056,-5.3750582,1.76887165,9.1114735
165,1747533646710,0.9081371,-2.426417,-0.18841219,-5.4829164,1.5116103,9.372197
166,1747533646720,1.5495194,-2.302192,-0.11226633,-5.677327,1.0029465,9.63585
167,1747533646730,2.08827585,-2.05972115,0.1930492899999999,-5.721535,0.5219796,9.768476
168,1747533646740,2.2455707,-1.9822329,0.32044718,-5.5633435,0.055926383,9.880328
169,1747533646750,2.7661449,-1.8559334,0.8411433,-4.718056,-0.44528055,10.120545
170,1747533646760,2.9267346,-1.8149318,0.9623177,-4.1529336,-0.46711847,10.272346
171,1747533646770,3.0148392,-1.79016,1.0079564,-3.4908717,-0.44421527,10.499247
172,1747533646780,3.1910486,-1.7428128,0.9447456,-3.184608,-0.32756883,10.639861
173,1747533646790,3.4343739,-1.6910727,0.78708464,-3.2517197,-0.1736381,10.711234
174,1747533646800,4.0059557,-1.6681312,0.72167724,-4.3569317,0.039947417,10.54239
175,1747533646810,4.2324407,-1.66471445,0.95768062,-4.861068,0.0641821834999999,10.147443
176,1747533646820,4.4589257,-1.6612977,1.193684,-5.3652043,0.08841695,9.752496
177,1747533646830,4.370089,-1.5795386,1.5075417,-5.316202,-0.1123854,9.299226
178,1747533646840,3.9921664,-1.31949545,1.82091115,-4.798484,-0.40746364,8.907742
179,1747533646850,3.7948463,-1.1917315,1.8702106,-2.7217507,-1.1494204,8.276039
180,1747533646860,3.6215653,-1.0611609,1.7894278,-1.7965685,-1.4519554,7.9767003
181,1747533646870,3.2501104,-0.88104665,1.5321914,-0.5049353,-1.7033578,7.283213
182,1747533646880,3.00947,-0.801484,1.4047935,-0.21092236,-1.6245283,6.921556
183,1747533646890,2.762972,-0.7477914,1.2981404,-0.13262543,-1.4056164,6.6019764
184,1747533646900,2.545029,-0.7058135,1.2210184,-0.302002475,-0.8988168650000001,6.226737
185,1747533646910,2.3841953,-0.6789673,1.193928,-0.38456047,-0.70147663,6.118879
186,1747533646920,2.2336118,-0.66993713,1.1661055,-0.62104917,0.3355583,5.7534933
187,1747533646930,2.1757705,-0.6282034,1.1968567,-0.8740495,0.72011876,5.632586
188,1747533646940,2.1935866,-0.5876899,1.1841658,-0.8511462750000001,1.1997540999999998,5.3886404
189,1747533646950,2.318788,-0.6218578,1.1529264,-0.8383631,1.3326459,5.2831793
190,1747533646960,2.3998148,-0.6411384,1.1153417,-0.78936094,1.407747,5.04456
191,1747533646970,2.5139116,-0.570239765,0.8820229500000001,-0.75394092,1.17525302,4.96413235
192,1747533646980,2.6704744500000004,-0.41026023,0.59403537,-0.7914915,0.845287355,4.82431635
193,1747533646990,2.7577249000000004,-0.273588175,0.449919535,-1.1025487,0.7803062350000001,4.6464172
194,1747533647000,2.800923,-0.246741885,0.24491143,-1.722,0.92411695,4.443218
195,1747533647010,2.7993367,-0.26748675,0.12935033,-2.1033647,1.0354371,4.3585296
196,1747533647020,2.7031782,-0.26651052,0.033191785,-4.3239083,1.3970944,4.3814325
197,1747533647030,2.6533904,-0.117635585,0.18597162,-4.8155279,1.4953650500000002,4.50819895
198,1747533647040,2.5591843,0.16815543,0.5806122,-5.830725,1.4652712,4.9795785
199,1747533647050,2.558208,0.7807391,1.2739788,-5.5590825,1.0157297,5.50795
200,1747533647060,2.8486362,1.5590377,1.7415925,-4.534298,0.3797668,6.239254
201,1747533647070,4.914093,3.3326018,2.2262902,-1.5377092,-1.9169434,6.900783
202,1747533647080,6.2517705,5.0140342,1.7526971,-0.207726567,-2.62614315,5.10022
203,1747533647090,6.462636,5.5086164,1.6786258,0.015978966,-2.5007083,4.4554687
204,1747533647100,6.52365,5.9276624,1.6688635,0.23382555,-1.8210696,3.2586439
205,1747533647110,6.949286000000001,5.7026415,1.32876965,0.34248254,-1.0024139,2.3228092
206,1747533647120,7.114269,5.5437603,1.2632403,0.07669904,0.13156016,0.26045716
207,1747533647130,7.2541137,4.9824286,1.2793481,-0.34248254,0.7323693,-1.222391
208,1747533647140,7.047153,4.1023583,1.4289552,-0.85700524,1.4823155,-2.7425234
209,1747533647150,5.659565499999999,2.19163405,1.7561140000000002,-1.3299826,2.3254724,-3.9888828
210,1747533647160,4.874555,1.2171135,1.9055991,-1.8434401,4.38116645,-5.19662625
211,1747533647170,4.2182856,0.6784792,2.0959635,-1.7470337,4.6429553,-5.1707935
212,1747533647180,3.8484168,0.451383905,2.22848665,-1.216532,4.876248,-4.8485513
213,1747533647190,3.478548,0.22428861,2.3610098,-0.4000068,4.797951,-4.4842305
214,1747533647200,3.4578032,0.017572122,2.3263538,0.61625546,4.454936,-4.2647862
215,1747533647210,3.453166,-0.033435844,2.1464834,2.62854,3.3230925,-4.4277716
216,1747533647220,3.4285164,-0.06931226,1.8994975,3.3401368,2.7095,-4.7308393
217,1747533647230,3.3667698,-0.08346758,1.7742961,3.5728971,2.4341292,-4.95108265
218,1747533647240,3.0887885,-0.084931925,1.3357253,3.814712,2.0591562,-5.4227285
219,1747533647250,2.9055016,-0.17523311,0.8778739,3.5238948,2.2530344,-5.5649414
220,1747533647260,2.826427,-0.23722363,0.7365648,2.4181504,3.3428,-5.6879797
221,1747533647270,2.7349055,-0.32093528,0.7268025,1.8690065,4.03895,-5.636847
222,1747533647280,2.5435646,-0.36730617,0.82247293,1.5456988,4.6525426,-5.580388
223,1747533647290,2.4273934,-0.41538543,0.9554841,1.5222629,5.068528,-5.551093
224,1747533647300,2.3014598,-0.5132524,1.1807489,2.2280006,4.954545,-5.596367
225,1747533647310,2.3568609,-0.5349735,1.2893544,3.095126,4.2322955,-5.806224
226,1747533647320,2.3478308,-0.588178,1.3393861,3.89727,3.4551852,-6.0661483
227,1747533647330,2.3444138,-0.6909261,1.283497,4.5827675,2.6003106,-6.3596287
228,1747533647340,2.3595455,-1.0499343,1.1258361,5.2885056,1.2974921,-6.797985
229,1747533647350,2.3685756,-1.1651293,1.1224194,5.5244613,1.0231866,-6.899185
230,1747533647360,2.5245283,-1.2498171,1.1463369,5.746569,0.75101143,-7.1260867
231,1747533647370,2.56919075,-1.3102213,1.1611023500000002,5.84537235,0.5874933450000001,-7.2994585
232,1747533647380,2.5907898,-1.4227317,1.15365855,5.995841,0.27483823,-7.63261985
233,1747533647390,2.4991462,-1.5502517,1.1121689,6.101302,-0.17310548,-7.9905486
234,1747533647400,2.7566266,-1.6015036,1.2886223,6.2978435,-0.70147663,-8.033159
235,1747533647410,2.9774985,-1.5570853,1.3716017,6.5343323,-1.055677,-8.2398205
236,1747533647420,2.9546791,-1.52975085,1.389906,6.676811450000001,-1.2263857,-8.36978275
237,1747533647430,2.7646806,-1.4765464,1.4008886,7.1702952,-1.89590435,-8.42411125
238,1747533647440,2.5994537,-1.4230978,1.228096,7.266169,-2.0383835,-8.280833
239,1747533647450,2.5111051,-1.2956999,1.0870309,7.224623749999999,-1.57472715,-8.1873565
240,1747533647460,2.489384,-1.261776,1.0245523,7.1798825,-1.3736585,-8.192949
241,1747533647470,2.5379512,-1.2654368,0.8546885,6.987602,-1.1840415,-8.268582
242,1747533647480,2.6802368,-1.3403623,0.84517026,6.8294106,-1.2431636,-8.371913
243,1747533647490,2.706107,-1.3838046,0.8876362,6.802246,-1.5009576,-8.448612
244,1747533647500,2.4159226,-1.4057697,0.76853627,6.753244,-1.9451729,-8.306932
245,1747533647510,2.21665,-1.33767775,0.635891175,6.6690884,-2.0527647,-8.20946
246,1747533647520,2.1428227,-1.3196175,0.57451075,6.5103636,-1.9813919,-8.157263
247,1747533647530,2.03263085,-1.32388855,0.5202080149999999,6.368949799999999,-1.8836539,-8.1199785
248,1747533647540,1.4121152,-1.3933228,0.39659303,5.866944,-1.4620755,-7.931959
249,1747533647550,0.981720265,-1.4532388,0.32020311,4.93430495,-0.0921453769999999,-6.9870696
250,1747533647560,0.84761083,-1.496803,0.27529657,4.7452207,0.098004326,-6.7830715
251,1747533647570,0.6901939,-1.6979064,0.18914436,4.325506,0.3749731,-6.4672203
252,1747533647580,0.5718261,-1.9861377,0.04344219,3.7934067,0.5475459,-6.2328625
253,1747533647590,0.31483385,-2.50598,-0.22892569,2.9891322,0.56672066,-6.0475063
254,1747533647600,-0.5693855,-3.167619,-0.47835222,0.39840892,-0.4628574,-5.4269896
255,1747533647610,-0.81197846,-3.610339,-0.28920785,-0.8431568,-0.61572284,-5.0711913
256,1747533647620,-1.1792847,-4.0735593,-0.122516744,-1.9904467,-0.24341293,-4.5076666
257,1747533647630,-1.7723436,-4.5548406,-0.027334413,-2.7297401,-0.046871636,-3.7555897
258,1747533647640,-2.2467911,-4.888711,0.08444381,-3.3438652,-0.2615224,-2.8320055
259,1747533647650,-2.6587596,-5.1191006,0.6816519,-3.5196338,-0.6578008,-0.59761333
260,1747533647660,-2.579197,-5.1151958,0.8256457,-3.218164,-0.45806372,0.51292485
261,1747533647670,-2.3815105,-4.8962765,0.5940353,-3.0248184,0.1257012,2.240251
262,1747533647680,-2.2565534,-4.649779,0.41245672,-3.2597091,0.3834952,2.9625003
263,1747533647690,-2.047152,-4.3761907,0.33509058,-3.764112,0.79255676,3.8280277
264,1747533647700,-1.7640458,-4.003759,0.3577879,-4.1225734,1.1531488,4.4773064
265,1747533647710,-1.4223657,-3.684288,0.46078008,-4.3366914,1.5057513,5.0259175
266,1747533647720,-0.8002637,-3.0599897,0.5142286,-4.3771715,2.139051,5.8642807
267,1747533647730,-0.5464442,-2.7951877,0.45174995,-4.3627906,2.3318639,6.2962456
268,1747533647740,-0.22697324,-2.5294094,0.36096066,-4.379302,2.454902,6.719156
269,1747533647750,0.2722458675,-2.20798585,0.26309371,-4.405401,2.4714136,7.1111727
270,1747533647760,0.45077375,-2.0954754,0.22575295,-4.452273,2.3425164,7.4520574
271,1747533647770,1.1578076,-1.6695957,0.114218794,-4.723915,1.7214674,7.9127846
272,1747533647780,1.5290186,-1.46654,0.19475769,-4.753476,1.56513985,7.9362204
273,1747533647790,1.7818619,-1.3327967,0.31239328,-4.7292414,1.2080098,7.9617867
274,1747533647800,1.9253676,-1.2498171,0.43100512,-4.5587993,1.0540792,8.005995
275,1747533647810,2.0564265,-1.1722069,0.62600684,-4.3068643,0.87511474,8.1013365
276,1747533647820,2.0703375,-1.1905112,0.64138246,-3.7454698,0.4383563,8.404937
277,1747533647830,2.1479478,-1.2290722,0.613804,-3.5723643,0.19387813,8.622251
278,1747533647840,2.3431935,-1.2803243,0.5854933,-3.5452,-0.035153728,8.764996
279,1747533647850,2.5120814,-1.2988727,0.588178,-3.6895435,-0.27537087,8.828912
280,1747533647860,2.8693812,-1.1758678,0.7407138,-4.10766,-0.65886605,8.977516
281,1747533647870,3.0875683,-1.0926442,0.89764255,-4.286624,-0.79681784,9.003615
282,1747533647880,3.2220438,-1.0064921,1.0638455,-4.3430834,-0.829841,8.9242525
283,1747533647890,3.320155,-0.9418169,1.2505494,-4.2546663,-0.85594,8.670187
284,1747533647900,3.3284528,-0.87079626,1.3950312,-4.04694,-0.8543421,8.293616
285,1747533647910,3.1402845,-0.88934463,1.4384733,-3.5611792,-0.793622,7.6693716
286,1747533647920,3.0577934,-0.9203399,1.4306636,-3.4732948500000003,-0.7368967,7.6017273
287,1747533647930,2.9645634,-0.8839754,1.427979,-3.1771512,-0.55979645,7.33115
288,1747533647940,2.9172163,-0.86201024,1.4021089,-3.0360036,-0.4575311,7.099455
289,1747533647950,2.8706014,-0.8258897,1.4189488,-2.6610305,-0.19228023,6.582802
290,1747533647960,2.6385028,-0.7302193,1.4553133,-2.3798008,-0.03888215,6.326606
291,1747533647970,2.5484458,-0.703861115,1.44994405,-2.2133533,-0.0021305284999999,6.202769
292,1747533647980,2.2505739,-0.6477279300000001,1.40174285,-1.4732608,0.007456852,5.76893965
293,1747533647990,2.2053013,-0.64235866,1.3838046,-1.2751216,-0.024501082,5.677327
294,1747533648000,2.0731443,-0.53021437,1.15134005,-0.4889564,-0.24021713,5.316202
295,1747533648010,2.0493488,-0.48957884,1.0980135,-0.30146983,-0.26045716,5.1958275
296,1747533648020,2.0879097,-0.46492904,1.0201592,-0.2498045099999999,-0.22770028,5.151885249999999
297,1747533648030,2.1916342,-0.44540447,0.9772052,-0.12197278,-0.061252706,5.0184608
298,1747533648040,2.3505154,-0.37145513,0.9269294,-0.04314321,0.120907515,4.957208
299,1747533648050,2.621907,0.020988923,0.7058135,0.2428803,0.5390238,4.7260456
300,1747533648060,2.8701131,0.1683995,0.53180075,0.39734364,0.45806372,4.294614
301,1747533648070,2.825939,0.25211114,0.45321432,0.5587312,-0.010120012,3.7593184
302,1747533648080,2.5711432,0.21208574,0.34900185,0.5885586,-0.5075985,3.3907368
303,1747533648090,2.119027,0.26443601,0.1540001299999999,-0.3600594,0.09267802,4.2320294
304,1747533648100,2.1788211,0.5376581,-0.05247231,-1.3129385,1.05194865,5.0669305
305,1747533648110,2.2814472,0.6530972,-0.1969542,-1.6927053,1.3672669,5.282114
306,1747533648120,2.6070197,0.9225364,-0.38975942,-2.05888995,1.401888,5.385711000000001
307,1747533648130,3.3389473,1.2588474,-0.43515408,-2.809635,1.0391655,5.409413
308,1747533648140,3.7667797,1.7869871,-0.38975942,-2.737197,0.25193503,5.220861
309,1747533648150,4.5758295,3.4499934,-0.3939084,-1.663943,-1.8338528,4.963067
310,1747533648160,5.2923813,4.3937626,-0.65334123,-1.3432984,-2.3105586,4.3574643
311,1747533648170,5.4793296,5.1784067,-0.8759214,-1.6261262,-2.011752,3.4887412
312,1747533648180,5.5137415,5.741203,-0.7392494,-2.10443,-1.3773869,2.6152241
313,1747533648190,5.5064197,6.261777,-0.061502427,-2.4410534,-0.60080916,1.9004318
314,1747533648200,5.998927,6.287891,0.20281157,-2.2722092,0.49641323,0.47990164
315,1747533648210,6.5678244,6.0814185,0.37828872,-2.0682108,0.5656554,-0.82557994
316,1747533648220,6.7059608,5.588179,0.6130718,-1.8540928,0.44687843,-2.4431841
317,1747533648230,6.3862457,4.8259883,0.8434618,-1.6362462,0.38562572,-3.9414785
318,1747533648240,5.051985,2.9740815,1.2046666,-1.0386329,0.628506,-5.686382
319,1747533648250,4.5336075,2.3671112,1.2249234,-0.75420725,0.7004114,-5.80143
320,1747533648260,4.3080983,1.9829651,1.1951483,-0.55606806,0.72171664,-5.82167
321,1747533648270,4.275639,1.7447653,1.2100358,-0.39361522,0.7707188,-5.9628177
322,1747533648280,4.246352,1.5463467,1.2503053,-0.18482338,0.8676579,-6.208894
323,1747533648290,4.1715485,1.058232225,1.2506714,0.049002163,0.9422264,-6.5050373
324,1747533648300,4.156295,0.96671075,1.257383,0.56672066,1.0365024,-7.114901
325,1747533648310,4.130913,0.7475473,1.2793481,0.892159,1.0599382,-7.421165
326,1747533648320,4.0079083,0.5103237,1.432372,1.5339808,1.0578076,-7.795605
327,1747533648330,3.845854,0.3482697,1.5246257,2.2503712,1.0178602,-8.0342245
328,1747533648340,3.67745445,0.0560111374999999,1.4455511,3.6591834,0.63303339,-8.442487
329,1747533648350,3.6157079,-0.084931925,1.3686731,4.3153863,0.39148468,-8.65048
330,1747533648360,3.559331,-0.268463,1.2671453,4.883172,0.1454086,-8.89123
331,1747533648370,3.5007572,-0.45052966,1.1656175,5.3838468,-0.11451593,-9.14636
332,1747533648380,3.414605,-0.64260274,1.0575,5.798767,-0.38722363,-9.384447
333,1747533648390,3.2596285,-0.8437059,0.9025237,6.088519,-0.69987875,-9.557552
334,1747533648400,3.068776,-1.1741594,0.6262509,5.943643,-1.5211977,-9.572467
335,1747533648410,3.1476064,-1.2512815,0.5784157,5.5692024,-1.8018948,-9.596435
336,1747533648420,3.1947093,-1.2683655,0.55620646,5.090899,-1.8988339,-9.660351
337,1747533648430,3.1739645,-1.2527459,0.54668826,4.557734,-1.8104169,-9.670471
338,1747533648440,2.966516,-1.1963686,0.6050179,3.507383,-1.2314457,-9.298694
339,1747533648450,2.8454635,-1.1441404,0.65895456,3.1095068,-0.88949585,-9.01267
340,1747533648460,2.763216,-1.0953289,0.77317333,2.8953888,-0.6924219,-8.760202
341,1747533648470,2.6852398,-1.0772687,0.8022161400000001,2.8613002,-0.6354303,-8.501876
342,1747533648480,2.374921,-1.0638455,0.8756774,2.9020467,-1.2322447,-7.99401085
343,1747533648490,2.3885884,-1.1297411,0.96256185,2.902313,-1.4242586,-7.8861527
344,1747533648500,2.4349592,-1.2080834,1.0465174,2.9017804,-1.7374463,-7.6640453
345,1747533648510,2.28156925,-1.21308655,1.1912434,2.9361352,-1.7872474,-7.17855065
346,1747533648520,2.1293995,-1.1761118,1.2488409,2.9843384,-1.48604395,-6.72288385
347,1747533648530,1.9387908,-1.108508,1.258115,3.0162964,-1.2958943,-6.5508437
348,1747533648540,1.7894278,-1.0301657,1.2329772,3.1451933,-0.80800307,-6.213155
349,1747533648550,1.6268855,-0.9947773,1.1451166,3.3406694,-0.35899413,-5.8562913
350,1747533648560,1.3364575,-0.924000725,0.9432813,3.61630655,-0.55127436,-5.4014235
351,1747533648570,1.1802609,-0.8812907,0.8258897,3.7326868,-0.7765778,-5.160141
352,1747533648580,1.1129011,-0.82857436,0.7807391,3.7635794,-1.1781825,-4.981709
353,1747533648590,1.0865429,-0.815517305,0.77024465,3.7449372,-1.40934485,-4.9947585
354,1747533648600,1.0601847,-0.80246025,0.7597502,3.726295,-1.6405072,-5.007808
355,1747533648610,0.92229235,-1.022844,0.99453324,3.764112,-1.5659387,-4.977448
356,1747533648620,0.4195344,-1.1946602,1.0980135,3.9920785,-1.278317325,-4.7390952
357,1747533648630,0.1466784,-1.4631232,1.0631135,4.437359,-0.6775082,-4.1039314
358,1747533648640,0.06711575,-1.8018748,0.8671354,4.4362936,-0.38935417,-3.7428067
359,1747533648650,0.028798755,-2.1808956,0.50763905,3.2053807,0.15978967,-3.538276
360,1747533648660,-0.50324607,-3.064627,-0.6365013,1.6181368,0.103863284,-3.487676
361,1747533648670,-0.50324607,-3.064627,-0.6365013,0.71852092,0.0316916185,-3.414439
362,1747533648680,-1.0167425,-3.3282084,-0.71191496,-1.591505,-0.009054748,-3.1883366
363,1747533648690,-1.61151,-3.8990586,-0.17108414,-2.5294704,0.18642128,-2.938532
364,1747533648700,-2.3224488,-4.56728745,0.2144042769999999,-3.3017871,0.33609092,-2.4841967
365,1747533648710,-2.87914335,-4.8058533,0.4988529849999999,-3.27142715,0.442617385,0.0031957799999999
366,1747533648720,-2.9311275,-4.838435,0.5347294,-3.0956585,0.49747851,0.6631271
367,1747533648730,-2.84961235,-4.8206188,0.48799245,-2.834136,0.53955644,1.8983012
368,1747533648740,-2.7680972,-4.8028026,0.4412555,-2.834136,0.53955644,1.8983012
369,1747533648750,-1.9944358,-4.2685614,-0.012446919,-2.7606328,0.9108011,3.597398
370,1747533648760,-1.3032657,-3.6596384,-0.13496366,-3.5095139,1.5739282,4.4165864
371,1747533648770,-1.18819265,-3.5366335,-0.15485433,-3.7806237,1.7558221,4.6109972
372,1747533648780,-0.8500514,-3.1683512,-0.18572757,-4.71273,2.3031018,5.387575
373,1747533648790,-0.63186425,-2.988725,-0.11836776,-5.1367054,2.4804683,5.921805
374,1747533648800,0.1635183575,-2.57126525,0.034778157,-5.586513500000001,2.4082967,7.29439835
375,1747533648810,0.35583547,-2.4781573,0.05662128,-5.742841,2.2983081,7.5271587
376,1747533648820,0.7917217,-2.2909653,0.09664667,-5.8429756,1.9393139,7.9047947
377,1747533648830,0.99197065,-2.23287975,0.134719605,-5.8906463,1.721201,8.060057350000001
378,1747533648840,1.8916878,-1.9157273,0.49189738,-5.937784000000001,0.8380968,8.629174500000001
379,1747533648850,2.2223854,-1.7972375,0.68409246,-5.899967,0.6151902,8.788964
380,1747533648860,2.4322746,-1.7413484,0.8539563,-5.2693305,-0.22050974,8.916264
381,1747533648870,2.5647976,-1.7220681,1.0816617,-4.7542753,-0.43036684,9.087771
382,1747533648880,2.579685,-1.6439695,1.2583592,-4.08955,-0.6040049,9.309346
383,1747533648890,2.8153222500000004,-1.51730395,1.09642723,-3.5313516,-0.6854977,9.596968
384,1747533648900,3.0343637,-1.4555575,0.98111016,-3.3949978,-0.5230448,10.107229
385,1747533648910,3.347733,-1.3730661,0.9264413,-3.8663774,-0.22104238,10.228669
386,1747533648920,3.8778255,-1.2981404,0.97793734,-4.5827675,0.028229509,10.026802
387,1747533648930,4.296628,-1.2036903,1.0433447,-5.6347165,0.39574575,9.274725
388,1747533648940,4.2238984,-1.1746475,1.2466444,-6.449111,0.6269081,8.557269
389,1747533648950,3.551033,-1.432128,1.7296337,-7.398794,0.7121293,7.6837525
390,1747533648960,3.2503545,-1.5504957,2.0312884,-7.2757564,0.69721556,7.5543227
391,1747533648970,2.9679801,-1.5688,2.2665596,-6.994260199999999,0.6538060299999999,7.5343492
392,1747533648980,2.8237424,-1.5241375,2.3585694,-5.7992997,0.5368933,7.4882765
393,1747533648990,2.694636,-1.3188853,2.2704647,-4.680772,0.36751625,7.404653
394,1747533649000,2.604579,-1.205887,2.0996244,-2.0788636,-0.4362258,7.0888023
395,1747533649010,2.5424663,-1.0875191,1.70388565,-1.1185277,-0.9353022,6.879478
396,1747533649020,2.5252602,-1.0543274,1.5739251,-0.38722363,-1.4104102,6.6323366
397,1747533649030,2.5373411,-1.01173935,1.47971905,-0.152066502,-1.58218405,6.5111628
398,1747533649040,2.681945,-0.7577977,1.1753798,0.36751625,-1.6303873,5.8589544
399,1747533649050,2.613121,-0.6828722,1.1900232,0.40107206,-1.3044163,5.614476
400,1747533649060,2.5201352,-0.677747,1.3330406,0.5699165,-1.0141318,5.483449
401,1747533649070,2.3829749,-0.65041256,1.4702009,1.0146644,-0.79042625,5.496232
402,1747533649080,2.3512475,-0.5867136,1.4470154,1.6325178,-0.6066681,5.5649414
403,1747533649090,2.3512475,-0.5867136,1.4470154,1.6325178,-0.6066681,5.5649414
404,1747533649100,2.3512475,-0.5867136,1.4470154,1.6325178,-0.6066681,5.5649414
405,1747533649110,3.2969692,0.43442193,-0.8122225,0.3653857,-0.67218184,4.08955
406,1747533649120,3.300264,0.507273015,-0.87518925,-0.99442434,-0.6609966,3.4993937
407,1747533649130,2.8791435,0.58183247,-0.6562699,-2.314287,-0.3850931,3.2304144
408,1747533649140,1.7799095,0.7353445,0.6186851,-3.4466631,0.97258645,4.040548
409,1747533649150,1.6163912,1.0330943,0.7653635,-3.3326797,1.6804547,4.756406
410,1747533649160,1.9505056,1.5636748,0.45174995,-3.1334753,1.9148128,5.3955646
411,1747533649170,2.8288677,2.0244548,-0.01415532,-3.07169,1.5781893,5.6315207
412,1747533649180,3.688193,2.6441162,-0.366574,-3.1174965,0.783502,5.5319185
413,1747533649190,4.293455,3.4761076,-0.3145898,-2.9491847,-0.12996227,5.4115434
414,1747533649200,6.040539000000001,6.1978337,-0.49641245,-1.87406645,-0.1102548699999999,3.965447
415,1747533649210,6.335238,6.582712,-0.6360132,-1.8258632,0.02130529,3.365703
416,1747533649220,6.5664823000000005,6.66801,-0.65151083,-1.9369171,-0.045806372,2.5438515
417,1747533649230,6.832016449999999,6.637746999999999,-0.4778641,-2.15503,-0.280963502,0.920921125
418,1747533649240,6.677406,5.478353,0.882511,-2.030394,-0.3797668,-2.449043
419,1747533649250,6.657638,4.8406315,1.2571388,-1.8013622,-0.02609898,-3.4956653
420,1747533649260,6.5500083,4.072095,1.5160836,-1.5542208,0.4745753,-4.5209823
421,1747533649270,5.789282,2.455704,1.7230443,-1.2974921,0.9981528,-5.3593454
422,1747533649280,5.789282,2.455704,1.7230443,-1.0040118,1.3044163,-5.9388494
423,1747533649290,5.241617,1.6132184,1.75648,-0.128897,1.6927053,-6.492787
424,1747533649300,5.251990149999999,1.33792185,1.6218824,0.81306305,1.8072212,-6.9828086
425,1747533649310,5.273101,1.2664131,1.5463467,1.1696603,1.7848506,-7.2203627
426,1747533649320,5.140578,0.8166155,1.329868,2.1257353,1.0982877,-8.076303
427,1747533649330,4.8601560500000005,0.498853015,1.3448775,2.8083035,0.58403124,-8.551943
428,1747533649340,4.70115255,0.29396695,1.34634185,3.22695235,0.2956108899999999,-8.810802500000001
429,1747533649350,4.6363554,0.18816814,1.3564702,3.4301515,0.1454086,-8.93171
430,1747533649360,4.4733253,0.039537273,1.4311516,3.849333,-0.1965413,-9.139969
431,1747533649370,4.0572076,-0.26187342,1.4831358,4.8858356,-0.65034395,-9.431851
432,1747533649380,3.879778,-0.41977844,1.3667207,5.4376426,-0.75420725,-9.467005
433,1747533649390,3.8273058,-0.5544981,1.074584,5.6405754,-0.8064052,-9.485115
434,1747533649400,3.6894133,-0.63332856,0.8246695,5.6214004,-0.89375687,-9.5751295
435,1747533649410,3.396545,-0.84248555,0.57280236,5.3087454,-1.2314457,-9.739181
436,1747533649420,3.2896478,-0.91448253,0.5757311,5.090899,-1.4588797,-9.776998
437,1747533649430,3.1651785,-0.9606094,0.63406074,4.8858356,-1.7214674,-9.841978
438,1747533649440,3.0502276,-1.0035634,0.69165826,4.705806,-1.9574234,-9.889915
439,1747533649450,2.9340563,-1.0787331,0.73510045,4.507134,-2.0847225,-9.825467
440,1747533649460,2.7263634,-1.1419438,0.7138674,4.234426,-2.0996363,-9.625197
441,1747533649470,2.681701,-1.1104605,0.73436826,3.4083135,-1.9675435,-9.057411
442,1747533649480,2.7004936,-1.0777569,0.79269797,2.9491846,-1.85595705,-8.807340499999999
443,1747533649490,2.7168453,-1.0560358,0.9000831,2.828277,-1.8295918,-8.752213
444,1747533649500,2.7019577,-1.044321,1.0138137,2.8165592,-1.8991002,-8.497614250000002
445,1747533649510,2.6320354000000004,-1.15829565,1.330234,2.910835,-1.9702066,-8.3239765
446,1747533649520,2.6450925,-1.1968567,1.3596429,3.1185617,-1.952097,-8.070443
447,1747533649530,2.647289,-1.2525018,1.3691611,3.2943304,-1.8482338,-7.7199717
448,1747533649540,2.6416757,-1.2554306,1.3276714,3.4115095,-1.6634104,-7.2869415
449,1747533649550,2.2854741,-1.1917315,1.0385856,3.2080439,-1.4367754499999998,-6.802512699999999
450,1747533649560,2.229951,-1.1946602,1.0423685,3.0541131,-1.3603427,-6.5833344
451,1747533649570,2.1067023,-1.2205303,1.0291895,2.9129655,-1.3965617,-6.3255405
452,1747533649580,1.9646608,-1.3015573,0.99917036,2.790993,-1.3944311,-5.9867864
453,1747533649590,1.8753358,-1.3240106,1.0474937,2.7047064,-1.3677995,-5.6746635
454,1747533649600,1.526334,-1.2317569,1.0728757,2.7047064,-1.1957593,-5.4083476
455,1747533649610,1.2776396,-1.2024701,1.0167425,2.9454563,-0.5954828,-4.9028797
456,1747533649620,0.9615856,-1.1909994,0.9015475,3.0328078,-0.45007423,-4.5891595
457,1747533649630,0.7055695,-1.210768,0.82149667,3.0828753,-0.39148468,-4.213121
458,1747533649640,0.21159762,-1.3891739,0.8583493,3.63228545,-0.27350666,-3.20777765
459,1747533649650,0.12666571,-1.4985116,0.77170897,3.7912762,-0.26312032,-3.026949
460,1747533649660,0.067847915,-1.7286574,0.4002539,3.8402784,-0.28122982,-2.7510455
461,1747533649670,-0.0358764125,-1.8528826,0.20793678175,3.6346823,-0.34567831,-2.63040425
462,1747533649680,-0.4720067,-2.1323283,-0.19646609,3.04239525,-0.55606803,-2.34091865
463,1747533649690,-0.59745216,-2.7449117,-0.2135501,1.5520903,-0.9571401,-1.7965685
464,1747533649700,-0.98403883,-3.0319233,-0.12715383,-0.18429075,-0.7190535,-1.6293219
465,1747533649710,-1.80895235,-3.34334025,-0.0885927775,-0.9305085,-0.26045716,-1.3012205
466,1747533649720,-2.199322,-3.54627385,-0.086030175,-1.5707325,0.15499598,-0.727043
467,1747533649730,-2.3341637,-3.6415782,-0.08297946,-2.1587584,0.314253,-0.08841695
468,1747533649740,-2.5196471,-3.6650078,-0.033191785,-2.6780748,0.32650355,0.52411014
469,1747533649750,-2.50683405,-3.6241281,0.0395372725,-3.0306773,0.29001825,1.00214752
470,1747533649760,-2.3478308,-3.5393183,0.13789235,-3.6826193,0.19014971,1.8599517
471,1747533649770,-2.2312934,-3.51295995,0.165470815,-3.87596465,0.20213393,2.0447751
472,1747533649780,-1.9314691,-3.3362625,0.28554696,-4.3196473,0.28442562,2.402704
473,1747533649790,-1.88631845,-3.0597457,0.48884667,-4.81020165,0.45912895,2.6993802
474,1747533649800,-1.8582519,-3.10038115,0.57914785,-4.8874335,0.5789712,2.855974
475,1747533649810,-1.8226196,-3.1373558,0.6142921,-4.9944925,1.037035,3.4141726
476,1747533649820,-1.7616051,-3.1746967,0.6731099,-5.0578756,1.6607473,4.1816955
477,1747533649830,-1.6600775,-3.162982,0.68433654,-5.041897,2.3212113,5.114867
478,1747533649840,-0.94865054,-3.0302148,0.50031734,-5.002482,3.307646,7.093596
479,1747533649850,-0.023917615,-2.7650466500000004,0.22660715,-5.167065,3.400324,7.6731
480,1747533649860,0.26626647,-2.677064,0.14765464,-5.4765244,3.2655683,8.047008
481,1747533649870,0.8263778,-2.5196471,0.073949344,-5.895706,2.829875,8.262724
482,1747533649880,1.3606192,-2.395422,0.14008886,-6.292517,2.1438446,8.344749
483,1747533649890,2.1152442,-2.247035,0.9308343,-6.1545653,0.5022722,8.494951
484,1747533649900,2.254967,-2.2402015,1.3347491,-5.18890315,-0.09187905,8.8193245
485,1747533649910,2.3946898,-2.233368,1.7386639,-4.223241,-0.6860303,9.143698
486,1747533649920,2.5940845,-2.2013965,1.8677702,-2.6711507,-0.9150622,9.853164
487,1747533649930,3.1661546,-2.1581984,1.744277,-1.7741979,-0.7845673,10.273943
488,1747533649940,4.0340223,-1.7459855,1.2246792,-1.6969663,-0.08362326,10.142916
489,1747533649950,4.2273154,-1.4855764,1.0472497,-2.3579628,0.33182988,9.717342
490,1747533649960,4.3178606,-1.295944,0.9818423,-3.246926,0.8633968,9.28378
491,1747533649970,4.292723,-1.1985651,1.1260802,-4.1486726,1.4924355,8.950885
492,1747533649980,4.131157,-1.1582958,1.26202,-4.962002,2.1140172,8.67871
493,1747533649990,3.9925323,-1.1722069,1.4816716,-5.4983625,2.5683527,8.352738
494,1747533650000,3.4543862,-1.1973449,1.9753993,-5.1287155,2.3164175,7.506386
495,1747533650010,3.1739645,-1.2124764,2.0710697,-4.4826326,1.8599517,7.29067
496,1747533650020,3.018256,-1.2156491,2.0871775,-3.706055,1.3406353,7.1436634
497,1747533650030,2.9394255,-1.1868503,2.0176213,-2.9119003,0.9214538,6.997722
498,1747533650040,2.8932986,-1.0411482,1.7396401,-2.2413163,0.57364494,6.782539
499,1747533650050,2.843755,-0.9828185,1.7044959,-1.2144015,-0.019707393,6.1934476
500,1747533650060,2.5807835,-0.92741752,1.6786257999999998,-0.6737798,-0.12357068,5.8546934
501,1747533650070,2.4107976,-0.92497694,1.6637384,0.6130597,0.004261058,5.636847
502,1747533650080,2.4365455000000003,-0.958168805,1.39381095,1.39975745,-0.0271642415,5.87306925
503,1747533650090,2.489628,-0.95377576,1.3205938,1.653823,-0.09640643,5.9473715
504,1747533650100,2.6914632,-0.74291027,1.07434,2.1662152,-0.3222425,5.9431105
505,1747533650110,2.8537614,-0.44394013,0.7243619,2.5662222,-0.6498113,5.7657437
506,1747533650120,3.0359502,0.01244691,-0.055278985,2.3505061,-0.88337055,5.16200515
507,1747533650130,3.218139,0.46883395,-0.83491987,2.13479,-1.1169298,4.5582666
508,1747533650140,3.1485825,0.656514,-1.3415827,0.8159926,-0.7073356,4.1177797
509,1747533650150,2.8618152,0.7192367,-1.5607461,-1.3704628,0.23116238,3.972371
510,1747533650160,1.8150537,0.91497064,-0.686289,-3.9659796,2.014415,4.8006144
511,1747533650170,1.667155,1.087519,-0.23356278,-4.349475,2.3654196,5.4056845
512,1747533650180,1.9519699,1.3674527,0.2806658,-3.8360174,2.137453,6.101835
513,1747533650190,2.96676,1.9507496,0.4978768,-2.6253443,1.6245283,6.8240843
514,1747533650200,4.3334804,2.8173969,0.09200958,-1.3949639,1.1483551,7.0579095
515,1747533650210,6.37746,5.197199,-1.4057697,-0.4543353,0.4878911,5.7359166
516,1747533650220,6.972716,6.0931334,-1.8772882,-0.9768475,0.325970915,4.11831245
517,1747533650230,7.183825,6.7240214,-1.8858303,-1.4993597,0.16405073,2.5007083
518,1747533650240,7.235565,6.702056,-1.53512,-1.8876486,-0.12942964,0.8000136
519,1747533650250,7.1779675,6.3896627,-0.9894081,-1.82852645,-0.28069718,-1.37152795
520,1747533650260,6.870211,5.306781,-0.23161033,-1.7315874,-0.30146983,-2.0192087
521,1747533650270,6.630303,4.4328117,-0.033191785,-1.2463595,-0.16724652,-4.1294975
522,1747533650280,6.322547,3.6440187,0.09469421,-1.2516857,-0.022903185,-4.9753175
523,1747533650290,5.9269304,2.9250262,0.32337585,-1.3342438,0.19547603,-5.634184
524,1747533650300,5.274565,1.9148731,0.8022162,-1.1664646,0.7595336,-6.474145
525,1747533650310,5.0907903,1.5954022,0.92448884,-0.91985583,1.0588728,-6.7207537
526,1747533650320,5.0505204,1.3235224,0.94865054,-0.6103965,1.2506205,-7.006244
527,1747533650330,5.00561405,1.19258575,0.94852847,-0.2695119,1.2687299,-7.3290195
528,1747533650340,4.7930403,0.8510276,0.99795,0.15180019,1.0865698,-7.6027923
529,1747533650350,4.428907,0.46614933,1.1192465,1.1510183,0.6098639,-7.93622
530,1747533650360,4.31932525,0.39049159,1.1238836,1.64370305,0.493750075,-8.060323499999999
531,1747533650370,3.9974136,0.18182266,1.090936,1.6655409,0.48203218,-8.062986
532,1747533650380,3.7743454,0.041001618,1.0155222,2.6375947,0.17576863,-8.305867
533,1747533650390,3.5371218,-0.110801995,0.95719254,2.9827404,-0.06924219,-8.355402
534,1747533650400,3.3182025,-0.34168017,0.9606094,3.73535,-0.40746364,-8.447015
535,1747533650410,3.193001,-0.42026657,0.9784255,4.179565,-0.5864281,-8.52904
536,1747533650420,3.1090453,-0.524479,0.8529801,4.5023403,-0.8021441,-8.588695
537,1747533650430,3.1224685,-0.6296677,0.73485637,4.625378,-1.0807108,-8.706939
538,1747533650440,3.0585253,-0.7185045,0.63308454,4.565191,-1.3385048,-8.923187
539,1747533650450,2.69805285,-0.9814762,0.572314275,3.861051,-1.8178738,-9.268866
540,1747533650460,2.613609,-1.036023,0.588178,3.45412,-1.8594191,-9.228386
541,1747533650470,2.4954853,-1.0726316,0.6487042,3.067429,-1.7976338,-9.098424
542,1747533650480,2.4100654,-1.0841023,0.70361704,2.7350664,-1.6943032,-8.952482
543,1747533650490,2.3505154,-1.0958171,0.7909895,2.49698,-1.6053536,-8.817726
544,1747533650500,2.3121984,-1.0721434,0.9606094,2.378203,-1.5739282,-8.46033
545,1747533650510,2.340021,-1.0814177,0.9825745,2.3952472,-1.6261262,-8.239288
546,1747533650520,2.403964,-1.1451166,1.0287013,2.4335966,-1.7028252,-7.9953423
547,1747533650530,2.4749846,-1.1700104,1.1077759,2.5198832,-1.7704695,-7.6997313
548,1747533650540,2.5482018,-1.1336459,1.1663495,2.6317358,-1.7299895,-7.5244956
549,1747533650550,2.2471571,-1.10411505,1.0462735,2.86689305,-1.2663331,-7.1303477
550,1747533650560,2.1171966,-1.0811737,1.0040516,2.8900626,-1.1781825,-7.0280824
551,1747533650570,2.0084692,-1.0617711,0.95975517,2.8953888,-1.1355719,-6.91569685
552,1747533650580,1.700591,-1.0238202,0.80368054,2.900715,-1.0503508,-6.5732145
553,1747533650590,1.3606192,-0.97647303,0.7197248,2.9523804,-1.0365024,-6.1082263
554,1747533650600,1.2068632,-0.9730562,0.6953191,3.045591,-1.24928885,-5.6906427
555,1747533650610,1.0716554,-1.0042956,0.69263446,3.0796795,-1.3672669,-5.5186024
556,1747533650620,1.0716554,-1.0042956,0.69263446,3.0796795,-1.3672669,-5.5186024
557,1747533650630,1.036267,-1.1539028,0.8117344,3.2490566,-1.7912422,-4.981709
558,1747533650640,0.86323047,-1.3701375,0.93181056,3.5718317,-1.6905746,-4.437892
559,1747533650650,0.6277153,-1.5141312,0.967443,3.8461373,-1.31640055,-3.8453385
560,1747533650660,0.36852646,-1.666667,0.921072,3.9143143,-1.1914983,-3.632552
561,1747533650670,0.22514282,-1.717919,0.86030175,3.91671115,-1.0839066,-3.4202979
562,1747533650680,-0.0626006799999999,-1.7977257,0.7133792999999999,3.88102475,-0.82504735,-3.01416575
563,1747533650690,-0.483477395,-2.0251869,0.143993767,3.19286395,0.057524285,-2.09217945
564,1747533650700,-0.55620646,-2.153561,-0.119343996,2.727077,0.29028457,-1.8061559
565,1747533650710,-0.71093875,-2.2499638,-0.42099872,1.8956381,0.25672874,-1.7124126
566,1747533650720,-0.79355216,-2.3223268,-0.501659675,0.9438243,0.035153728,-1.695901
567,1747533650730,-0.9898962,-2.6792605,-0.55693865,0.051665325,-0.28815404,-1.7310548
568,1747533650740,-1.4025971,-3.2032514,-0.27310005,-1.149953,-0.52411014,-1.3246564
569,1747533650750,-1.7943089,-3.4736667,-0.1022599885,-1.5068166,-0.52411014,-0.87138635
570,1747533650760,-1.9168257,-3.5310202,-0.030507157,-1.7454358,-0.5906891,-0.17044231
571,1747533650770,-2.01530275,-3.5670186,0.0225752964999999,-1.76807265,-0.57923755,0.118510665
572,1747533650780,-2.2916975,-3.6186368,0.0873725,-2.18911845,-0.45886266,1.4295848800000002
573,1747533650790,-2.1649097,-3.5241867,0.0957924679999999,-2.4783378,-0.37816888,1.8636801
574,1747533650800,-2.1315958,-3.475131,0.099575356,-2.8991172,-0.18855181,2.1166804
575,1747533650810,-2.182604,-3.3694544,0.16034561,-3.3646379,0.034621093,2.431466
576,1747533650820,-2.165032,-3.367258,0.3372871,-3.7108488,0.3190467,2.9055088
577,1747533650830,-2.0620399,-3.3401675,0.51471674,-3.8370826,0.74035877,3.5542548
578,1747533650840,-1.4804512,-3.18934,0.53643787,-3.776895,1.3496901,4.5513425
579,1747533650850,-1.0753163,-3.069996,0.38853914,-3.7838194,2.0367856,6.0299296
580,1747533650860,-0.665056,-2.9301512,0.28383857,-3.9542618,2.2349248,6.698383
581,1747533650870,-0.19622204,-2.8200815,0.24674188,-4.1699777,2.2786007,7.287474
582,1747533650880,0.90398806,-2.519891,0.562796,-4.111388,1.5116103,8.135958
583,1747533650890,1.56086815,-2.2165279,0.75010994,-3.49992645,0.679905055,8.595087
584,1747533650900,1.7742962,-2.1306198,0.79831123,-3.2655683,0.43249738,8.731441
585,1747533650910,2.1596625,-1.9907749,0.85590875,-2.8101676,0.09534117,8.973787
586,1747533650920,2.8271592,-1.7784452,1.1653733,-1.7337179,-0.3717773,9.368468
587,1747533650930,2.9155078,-1.6246891,1.2678773,-1.087635,-0.4293016,9.553824
588,1747533650940,3.068776,-1.5229172,1.2117443,-0.5773733,-0.2514024,9.7493
589,1747533650950,3.3313816,-1.5190123,1.0919122,-0.39041942,0.00479369,9.851033
590,1747533650960,4.0908875,-1.3735542,0.7831797,-0.58429754,0.23276028,9.799368
591,1747533650970,4.24073875,-1.29569995,0.76463135,-1.26020782,0.46578689,9.583119
592,1747533650980,4.4749115,-1.07714665,1.097281415,-2.8288097,1.0780476,9.104282
593,1747533650990,4.464539,-1.044565,1.3181533,-3.6011264,1.4210628,8.696286
594,1747533651000,4.287842,-1.0091767,1.7262169,-3.6591835,1.613343,8.358598
595,1747533651010,3.7562852,-1.1070436,2.242154,-3.307646,1.6671388,8.056063
596,1747533651020,3.4722025,-1.1524384,2.2658274,-2.60616945,1.58484715,7.87336985
597,1747533651030,3.2464495,-1.1922196,2.1686926,-1.0961571,1.3321131,7.588944
598,1747533651040,3.1180754000000004,-1.17891855,1.98857845,-0.7368966750000001,1.1984224499999998,7.548996499999999
599,1747533651050,2.94442865,-1.14536065,1.56721365,0.4580637199999999,0.79255672,7.2800173
600,1747533651060,2.899156,-1.1251038,1.325963,0.7254451,0.7281082,7.1404676
601,1747533651070,2.7929912,-1.1304731,1.211012,0.77231675,0.78989357,7.0904
602,1747533651080,2.7414951,-1.1292529,1.1824573,0.8793758,1.172589875,7.20145385
603,1747533651090,2.8483922,-1.1373067,1.1021625,0.902279,1.3459617,7.2603097
604,1747533651100,3.0826871,-1.0982577,1.0091767,0.8495484,1.7555559,7.3769565
605,1747533651110,3.6803832,-0.7053254,0.61624455,0.27643612,2.6514432,7.4738955
606,1747533651120,3.8570807,-0.39830142,0.41611758,-0.042077947,2.6205506,7.303453
607,1747533651130,4.10345635,0.0045150549999999,0.30885443,0.1019990715,2.0176109,6.688529
608,1747533651140,4.349832,0.40733153,0.20159128,0.24607609,1.4146712,6.073605
609,1747533651150,4.0703868,1.25665078,-0.6183190275,0.60933125,0.88896316,5.6251287
610,1747533651160,3.9939969,1.5321914,-1.1490215,-0.25193503,0.7664578,4.896488
611,1747533651170,3.4434037,1.8799729,-1.2949678,-1.5393071,1.325189,4.654673
612,1747533651180,2.47815725,2.2985311,-0.430150897,-3.006709,2.490322,4.7534763
613,1747533651190,2.2489874,2.4012792,-0.014643434,-3.2437303,2.9150963,4.896488
614,1747533651200,2.8969595,2.907454,0.5933032,-1.3651364,3.6123118,6.2286015
615,1747533651210,4.1826534,3.5136921,0.21769907,0.17736652,3.1308122,6.6413913
616,1747533651220,5.8795834,4.6175632,-0.7941623,1.7955033,2.3489082,5.9239354
617,1747533651230,7.1591754,5.594036,-1.7745403,2.5811357,1.4956313,4.437359
618,1747533651240,7.783718,6.7215805,-3.4087477,2.4746094,-0.4825648,0.50600064
619,1747533651250,7.4630265,6.470202,-3.6401138,1.5867114,-1.2314457,-1.2080098
620,1747533651260,6.8328705,5.8134437,-3.5039299,0.25300032,-1.6303873,-2.501241
621,1747533651270,6.574658,5.0715094,-2.911115,-1.0940266,-1.6357136,-3.2959282
622,1747533651280,6.396497,4.344463,-2.2973108,-2.2828617,-1.0908308,-3.8456047
623,1747533651290,6.2222395,3.709182,-1.6852154,-3.71377825,-0.07030745,-5.05414725
624,1747533651300,5.959146,2.4686391,-0.2853029,-4.16838,0.26684874,-5.6954365
625,1747533651310,5.8124676,1.9988288,0.38585448,-3.8621163,0.33289513,-6.191317
626,1747533651320,5.6030664,1.6559285,0.9205839,-3.1622376,0.34674358,-6.621684
627,1747533651330,5.452971,1.3447554,1.19344,-2.3116238,0.30360037,-7.0280824
628,1747533651340,4.9520435,0.7494997999999999,1.1846539,-0.79894835,-0.002130529,-7.7284937
629,1747533651350,4.7474015000000005,0.54949487,1.10716575,-0.0015978999999999,-0.294012985,-8.084292000000001
630,1747533651360,4.664422,0.45297024,1.065554,0.21944448,-0.40426785,-8.157263
631,1747533651370,4.56679915,0.34863577,1.06506585,0.4095941899999999,-0.408262595,-8.127169
632,1747533651380,4.044150699999999,0.0854200349999999,1.0654319499999998,0.8133294,-0.20879184,-8.002799
633,1747533651390,3.8521998,0.03929322,1.070191,1.2820457,0.068176925,-8.10826
634,1747533651400,3.7279744,-0.09176553,1.0960611,1.6383767,0.046871636,-8.285094
635,1747533651410,3.507835,-0.24283697,1.1131451,2.1049626,-0.013848438,-8.444884
636,1747533651420,3.3299172,-0.3829258,1.1048472,2.6312032,-0.16458336,-8.567922
637,1747533651430,3.1483386,-0.528384,1.0823939,2.91056885,-0.311589855,-8.627576999999999
638,1747533651440,2.962855,-0.78586435,0.9696394,3.7183056,-0.8580705,-8.79216
639,1747533651450,2.715137,-0.88031447,0.8288184,4.37876965,-2.25915955,-8.911203749999999
640,1747533651460,2.6504617,-0.9408407,0.7185045,4.3425508,-2.4889903,-8.9370365
641,1747533651470,2.5957928,-0.99868226,0.71996886,4.0970073,-2.8591697,-8.94396
642,1747533651480,2.6072636,-1.0562798,0.780007,3.7555897,-3.0120351,-8.878447
643,1747533651490,2.6748674,-1.0889834,1.0304097,3.0402648,-2.6780748,-8.573248
644,1747533651500,2.6863382,-1.1036268,1.19344,2.8453214,-2.364887,-8.360728
645,1747533651510,2.6119008,-1.1014304,1.3201057,2.8479846,-2.1092236,-8.158328
646,1747533651520,2.56845855,-1.0852005999999998,1.34048445,2.91589515,-2.02719825,-8.045942499999999
647,1747533651530,2.53990375,-1.01747468,1.29301535,3.3433324,-2.0588899,-7.578291399999999
648,1747533651540,2.5655298,-0.99111646,1.21931,3.4823494,-2.1763353,-7.4797544
649,1747533651550,2.7222145,-0.9628058,1.108264,3.445598,-2.4756746,-7.551127
650,1747533651560,2.8017771,-0.97476465,1.057012,3.3081787,-2.8346686,-7.698666
651,1747533651570,2.784449,-1.0277251,1.0948408,3.1435955,-3.0913975,-7.7620497
652,1747533651580,2.7319767,-1.1265682,1.21028,3.042928,-3.1190944,-7.631022
653,1747533651590,2.3771176,-1.2539662,1.4892373,3.240002,-2.4058998,-6.8437915
654,1747533651600,2.1442869,-1.1355984,1.3696493,3.491937,-1.73212,-6.3399215
655,1747533651610,1.9514818,-1.0516427,1.1441404,3.5963328,-1.3736585,-6.114618
656,1747533651620,1.89193175,-1.03443665,1.014546,3.5286884,-1.23837,-5.9670787
657,1747533651630,1.7459855,-1.0330943,0.728999,3.2820797,-1.3054816,-5.8605523
658,1747533651640,1.5785623,-1.2024701,0.81734776,2.97049,-1.4679344,-5.7689395
659,1747533651650,1.3525653,-1.3025336,0.95060295,2.6887274,-1.619202,-5.5564194
660,1747533651660,1.0716554,-1.4821596,1.0423685,2.753176,-1.5800535,-5.44509935
661,1747533651670,0.7748818,-1.7176749,1.108508,3.0274816,-1.3065468,-4.9454904
662,1747533651680,0.5349735,-1.9431838,1.0535952,3.2559807,-0.8159926,-4.340953
663,1747533651690,0.24918245,-2.1686926,0.72070104,3.148389,-0.34461305,-3.8834217
664,1747533651700,-0.3226437,-2.2826674,0.15326795,1.9153455,0.0793622,-3.0652986
665,1747533651710,-0.48689422,-2.3390448,0.017084008,1.073254,0.11132014,-2.8479846
666,1747533651720,-1.24554625,-2.7451559,-0.0729731156499999,-0.8932243,-0.345944645,-2.6644927000000003
667,1747533651730,-1.3701375,-2.8950071,-0.0061014313,-1.2101405,-0.51292485,-2.6205506
668,1747533651740,-1.6105338,-3.2510867,0.19158493,-1.582983,-0.8117315,-2.347843
669,1747533651750,-2.0039542,-3.551521,0.38756293,-1.8168086,-1.0439591,-1.6373115
670,1747533651760,-2.3763855,-3.7758098,0.58036816,-1.7811222,-0.89642006,-0.1587244
671,1747533651770,-2.783717,-4.0708747,0.67579454,-1.7390442,-0.6918893,0.6828345
672,1747533651780,-2.890126,-4.135306,0.51349646,-1.9132149,-0.48149952,1.5776566
673,1747533651790,-2.8527853,-4.178504,0.3802412,-2.3419838,-0.22264028,2.3568976
674,1747533651800,-2.702446,-4.0903993,0.40318257,-2.8905952,0.077231675,2.99073
675,1747533651810,-2.336116,-3.9285893,0.65382934,-3.823234,0.7755125,3.759851
676,1747533651820,-2.24191,-3.8961298,0.7819594,-4.260525,1.2431636,4.20886
677,1747533651830,-2.1347687,-3.8788018,0.9730562,-4.4496098,1.6085494,4.6797066
678,1747533651840,-1.9751554,-3.7738572,1.2609217,-4.375041,1.9393139,5.305017
679,1747533651850,-1.564407,-3.68526455,1.27373475,-3.8208374,2.5116273,6.4421868
680,1747533651860,-1.2415192,-3.6325483,1.210524,-3.5867455,2.7190876,6.8507156
681,1747533651870,-0.69117016,-3.4673214,0.94254905,-2.6977823,3.3374736,8.485364
682,1747533651880,-0.08981306,-3.2984335,0.68580085,-2.437325,3.4562504,9.145295
683,1747533651890,0.59964865,-3.1088011,0.3738957,-2.4498420000000003,3.37315995,9.83585325
684,1747533651900,1.9592915,-2.72868205,0.03160541,-2.7587687,2.60803375,10.15596525
685,1747533651910,2.643384,-2.5428324,-0.0319715,-2.9912627,1.9238676,10.295781
686,1747533651920,3.0641387,-2.4322746,0.102504045,-2.9550436,1.160073,10.309096
687,1747533651930,3.375068,-2.395666,0.31898284,-2.7105653,0.5411543,10.395383
688,1747533651940,3.6081424,-2.3846834,0.5723142,-2.2844596,0.30626354,10.620687
689,1747533651950,3.9498224,-2.2277546,0.8254016,-1.7901769,0.5028048,11.023356
690,1747533651960,4.1382346,-2.0359256,0.5835409,-1.5052186,1.717739,11.976235
691,1747533651970,4.4945583,-1.9292725,0.32386398,-2.267948,2.4090955,12.1488085
692,1747533651980,4.9070153,-1.8533708,0.2979939,-3.7332194,3.0248184,11.885688
693,1747533651990,5.195491,-1.726705,0.6621273,-4.760134,3.0216227,11.344534
694,1747533652000,5.1688886,-1.3337729,1.7291456,-5.1367054,2.2066953,9.761018
695,1747533652010,4.9092116,-1.1241276,2.1167085,-4.5699844,1.5355787,8.836902
696,1747533652020,4.3586183,-0.9442575,2.34539,-4.15293345,1.180313,8.399078
697,1747533652030,3.844878,-0.84468216,2.45546,-2.786199,0.112918034,7.225689
698,1747533652040,3.4504814,-0.78806084,2.5206234,-1.7726,-0.40852892,6.6552396
699,1747533652050,3.1228345500000003,-0.7279007200000001,2.4516772,-0.758734585,-0.50067431,6.29358245
700,1747533652060,2.7951877,-0.6677406,2.382731,0.25513083,-0.5928197,5.9319253
701,1747533652070,2.38919835,-0.5853713,1.96758945,1.43890595,0.2330266015,5.2648034
702,1747533652080,2.32855,-0.5679212,1.8850981,1.5994946,0.4841627,5.0946274
703,1747533652090,2.1799192,-0.5615757,1.6476305,1.7752632,1.0839065,4.7686563
704,1747533652100,2.0056624,-0.5679212,1.1302291,1.6650083,2.004295,4.1976748
705,1747533652110,1.9329334,-0.5645044,0.88007045,1.2855079,2.32733655,3.7699709
706,1747533652120,1.9329334,-0.5645044,0.88007045,1.1366372,2.3712788,3.6112466
707,1747533652130,1.9520918,-0.59745213,0.7069118,0.639691295,2.21415225,3.1571776
708,1747533652140,1.90950385,-0.66139513,0.8829991500000001,0.672714505,2.04104675,3.2216261
709,1747533652150,1.9426957,-0.6723777,0.9576807,0.81705785,1.9526298,3.3523872
710,1747533652160,2.0405626,-0.5933032,0.96036524,1.2351742,2.2860575,3.5995286
711,1747533652170,2.2895012,-0.44101146,0.66090703,1.4359765,2.6626284,3.6575856
712,1747533652180,2.6834095,-0.22697324,0.136428,1.170193,2.6897926,3.3523872
713,1747533652190,2.9050133,-0.0021965152,-0.652365,-0.6844324,1.6463662,2.4293356
714,1747533652200,2.6785283,0.14985114,-0.5527897,-1.7923075,1.1430287,2.3819313
715,1747533652210,2.6328895,0.3448529,-0.0976229,-2.4783378,1.2996227,2.7174897
716,1747533652220,2.5948167,0.6118515,0.12910628,-2.5145566,1.824798,3.0754185
717,1747533652230,2.7779817500000004,1.401620825,0.3619369,-2.282329,1.9212044,3.4546525
718,1747533652240,3.0548646,1.8397036,0.4356422,-0.79894835,1.5398397,4.7596016
719,1747533652250,4.0686784,2.693904,0.21525851,0.2412824,1.0562097,5.0972905
720,1747533652260,4.988042,3.4634163,-0.19646609,1.1084076,0.41705105,4.9092712
721,1747533652270,5.665057,4.289794,-0.5684093,1.7923075,0.19387813,4.3196473
722,1747533652280,6.1380396,5.0968914,-0.81832397,2.6429212,0.49055427,3.536678
723,1747533652290,6.783205049999999,5.9751315,-2.20627755,5.68904495,-0.37630466945,0.550741743
724,1747533652300,6.7806425,5.7782993,-2.7568707,5.9345884,-0.7552725,-0.087884314
725,1747533652310,6.5165725,5.730708,-3.227657,5.751363,-1.4594123,-1.3097427
726,1747533652320,6.4739845,5.5210628,-3.50246555,5.2807823,-1.89111075,-1.95768975
727,1747533652330,6.2266326,4.6656423,-4.005468,3.1143007,-2.7398603,-3.7364151
728,1747533652340,5.6035542,3.3567636,-3.2623134,-1.04955175,-2.2791333,-5.1292484
729,1747533652350,5.4146543,2.7095234,-2.5252602,-3.1814122,-1.8285265,-5.6533585
730,1747533652360,5.2643147,2.1589303,-1.615415,-5.09516,-0.90494215,-6.1993065
731,1747533652370,5.19402635,1.88656245,-1.03480276,-5.444566699999999,-0.58003649,-6.428072
732,1747533652380,4.884806,1.2622641,0.5503491,-5.6533585,0.22903186,-7.0089073
733,1747533652390,4.4617326,0.787938825,2.2344662,-2.9920616,-0.0223705499999999,-7.31410565
734,1747533652400,4.4240255,0.73558855,2.3680875,-1.3118732,-0.3749731,-7.394533
735,1747533652410,4.4213414,0.6469958,2.2924297,0.24554345,-0.8644621,-7.5133104
736,1747533652420,4.3886375,0.5400987,2.109875,1.4588797,-1.1638014,-7.722635
737,1747533652430,4.2436676,0.40611124,1.9156054,1.91188335,-1.22771725,-7.81717715
738,1747533652440,3.78886685,-0.078342378,1.3702594,3.55878235,-0.8657937,-8.051002
739,1747533652450,3.717724,-0.1598575,1.2886223,3.6820867,-0.7728494,-8.073639
740,1747533652460,3.610339,-0.281398,1.1231514,3.8280277,-0.7813715,-8.269648
741,1747533652470,3.5420028500000003,-0.34851374,1.0522528,3.86184985,-0.8937569000000001,-8.3940175
742,1747533652480,3.1480944,-0.69458693,0.9510911,4.024569,-1.6825852,-8.964733
743,1747533652490,2.8612051000000003,-0.8604238049999999,0.9700055,4.195278,-2.1270668,-9.10428275
744,1747533652500,2.77127,-0.90740484,0.9596331,4.239753,-2.2626216,-9.1090765
745,1747533652510,2.6590037,-0.9874556,0.916435,4.189685,-2.5177526,-9.008942
746,1747533652520,2.5940845,-1.0494461,0.8944698,3.9340217,-2.748915,-8.802813
747,1747533652530,2.5211112,-1.0977695,0.92937,3.3310819,-2.7718182,-8.54928
748,1747533652540,2.4884076,-1.0675064,0.9691513,3.033873,-2.722816,-8.385762
749,1747533652550,2.5933523,-1.0638455,1.0589644,2.8069718,-2.6903255,-8.274974
750,1747533652560,2.5137897,-1.0484699,1.1907552,2.6083,-2.404302,-8.115185
751,1747533652570,2.5137897,-1.0484699,1.1907552,2.6354642,-2.38512715,-8.053932
752,1747533652580,2.5657737,-1.0504224,1.3147364,2.801113,-2.3121564,-7.8557925
753,1747533652590,2.4422808,-1.1409676,1.3572023,3.0136333,-2.2210765,-7.5798893
754,1747533652600,2.2907214,-1.1475571,1.3279155,3.1872714,-2.2162826,-7.2858763
755,1747533652610,1.9910189,-1.0108851,1.1536586,3.422162,-2.229066,-6.6120963
756,1747533652620,1.93635015,-0.9794017,1.0815397,3.41284095,-2.1941785,-6.49092245
757,1747533652630,1.84055775,-0.914116385,0.9438914,3.3425334500000004,-2.1433121,-6.2893213
758,1747533652640,1.7293897,-0.8236932,0.77292925,3.0700922,-2.1933794,-6.085856
759,1747533652650,1.6571487,-0.7914777,0.7038611,2.789395,-2.3036344,-5.9601545
760,1747533652660,1.6717921,-0.8964222,0.8681116,2.5326662,-2.4090955,-5.8195395
761,1747533652670,1.7379317,-1.014546,1.0423685,2.3579628,-2.3089607,-5.550028
762,1747533652680,1.6227367,-1.0289453,1.0301657,2.4197483,-1.9664782,-5.417935
763,1747533652690,1.4379853,-1.0260166,1.0338265,2.481001,-1.5723304,-5.187838
764,1747533652700,1.2144289,-1.0418804,0.9876996,2.5726137,-1.24849,-4.932707
765,1747533652710,0.5791479,-1.177088,0.96671075,2.8607676,-0.7488809,-4.298875
766,1747533652720,0.5791479,-1.177088,0.96671075,2.8607676,-0.7488809,-4.298875
767,1747533652730,-0.03099527,-1.2942356,0.88690406,3.2493229,-0.674578715,-3.36144195
768,1747533652740,-0.22404456,-1.4187049,0.8090498,3.3342776,-0.7440872,-3.2037828
769,1747533652750,-0.42441553,-1.7955291,0.46639338,3.3902042,-0.8873653,-2.7462518
770,1747533652760,-0.41465324,-2.1352568,0.08297946,3.0407975,-0.8538095,-2.6184201
771,1747533652770,-0.601113,-2.4571683,-0.3355787,2.1528995,-1.0189254,-2.561961
772,1747533652780,-0.9628058,-2.6455805,-0.55840296,0.922519,-1.1163971,-2.540123
773,1747533652790,-1.3569584,-2.818373,-0.520086,-0.25353295,-1.0205233,-2.470881
774,1747533652800,-2.1394057,-3.333822,-0.3807293,-2.240251,-0.62744075,-1.9467708
775,1747533652810,-2.4859672,-3.567385,-0.16058967,-3.0796795,-0.5496765,-1.2895026
776,1747533652820,-2.62312735,-3.65365915,0.019036465,-3.1505196,-0.58349865,-0.9323727
777,1747533652830,-2.902329,-3.806561,0.4698102,-2.9422605,-0.71585774,0.26205507
778,1747533652840,-2.8981798,-3.8434136,0.63625723,-2.4266725,-0.8404937,1.0684602
779,1747533652850,-2.7344174,-3.62132155,0.55230155,-1.33371105,-0.910002185,2.6660906
780,1747533652860,-2.6492414,-3.5576227,0.485918,-1.2362394,-0.8538095,2.9438584
781,1747533652870,-2.4798658,-3.402646,0.42002252,-1.2452941,-0.60720074,3.3955305
782,1747533652880,-2.3053648,-3.295749,0.4131889,-1.3853765,-0.18748654,3.792874
783,1747533652890,-1.9002297,-3.1263733,0.4893348,-1.7225326,1.0088054,4.755873
784,1747533652900,-1.5691660500000002,-2.94955385,0.485429855,-1.7355821,1.6106798,5.417668750000001
785,1747533652910,-1.4472594,-2.8891497,0.46541715,-1.7182716,1.7779263,5.6389775
786,1747533652920,-1.159272,-2.7810323,0.3802412,-1.6559536,2.0383835,6.0933127
787,1747533652930,-0.7987994,-2.668278,0.25284332,-1.613343,2.2770028,6.5428543
788,1747533652940,-0.0053692595,-2.3007276,-0.067847915,-1.7592843,2.6365294,7.4009247
789,1747533652950,0.22575296025,-2.22214115,-0.1249573125,-1.9755329,2.650378,7.749799
790,1747533652960,0.45687518,-2.1435547,-0.18206671,-1.9755329,2.650378,7.749799
791,1747533652970,0.87433509,-1.9937036,-0.21245184,-2.278068,2.45676615,7.999337499999999
792,1747533652980,1.47312955,-1.7816179499999998,-0.184629315,-2.68952645,2.133991,8.3322325
793,1747533652990,1.9998052,-1.6490947,0.035876416,-2.912433,1.7353158,8.519452
794,1747533653000,2.3727245,-1.5729489,0.40830776,-2.7728834,1.4828482,8.772985
795,1747533653010,2.4723,-1.5634308,0.5657247,-2.6402578,1.5302523,9.02492
796,1747533653020,2.5557675,-1.5574514,0.60257735,-2.535862,1.4929681,9.21507
797,1747533653030,2.70207975,-1.5087619,0.67372005,-2.4804683,1.4466291,9.247028
798,1747533653040,2.874018,-1.3735542,0.7380291,-2.360626,1.3385048,9.26567
799,1747533653050,3.1600533,-1.3108315,0.8998391,-2.3750072,1.2522184,9.0669985
800,1747533653060,3.2947729,-1.2803243,1.0045396,-2.3483756,1.149953,8.811335
801,1747533653070,3.380681,-1.2068632,1.0660421,-2.279666,1.015197,8.476309
802,1747533653080,3.3877587,-1.1814811,1.1741594,-2.207228,0.8245147,8.081096
803,1747533653090,3.2485240500000003,-1.1503638,1.30802475,-2.1449100000000003,0.7536746000000001,7.8752338
804,1747533653100,2.899156,-1.0987457,1.586128,-1.5441009,0.6791061,7.034474
805,1747533653110,2.6328895,-1.1009423,1.6105338,-1.1297129,0.70147663,6.963101
806,1747533653120,2.4693713,-1.1148535,1.6615417,-0.63223445,0.62264705,6.9929285
807,1747533653130,2.4112856,-1.0760484,1.7520871,0.18535602,0.41278997,6.9620357
808,1747533653140,2.4225123,-1.0250404,1.6610537,0.9150622,0.35313517,6.843259
809,1747533653150,2.4354472,-0.97647303,1.577586,2.0021646,0.2876214,6.395848
810,1747533653160,2.450579,-0.8917852,1.4753261,2.330266,0.2977414,6.065083
811,1747533653170,2.4625378,-0.7824476,1.3457316,2.5284052,0.45912898,5.653891
812,1747533653180,2.2666817000000004,-0.664689895,1.1276665499999998,2.4908546,1.26153942,5.017129150000001
813,1747533653190,2.1467276,-0.61209553,1.0301657,2.4016387,1.7129452,4.7681236
814,1747533653200,2.0749748,-0.5632841,0.9413288,2.201369,2.1022995,4.648814
815,1747533653210,2.2279985,-0.5232587,0.83101493,2.0714068,2.2588933,4.5327
816,1747533653220,2.600186,-0.52033,0.55840296,1.991512,2.3323965,4.280765
817,1747533653230,2.600186,-0.52033,0.55840296,1.9323897,2.1662152,3.97823
818,1747533653240,2.698785,-0.4737151,0.4131889,1.6980315,1.0114686,3.4562504
819,1747533653250,2.7439356,-0.22965786,0.56645685,1.9355855,0.38242993,3.2607746
820,1747533653260,2.7784698,-0.073095145,0.610143095,2.1877868,0.262853995,3.1856733
821,1747533653270,2.9390595,0.172060355,0.4822571,2.6266757,0.48070058,3.06663
822,1747533653280,3.2524289,0.3219115,-0.58415107,2.5361283,1.4309164499999998,2.9401299
823,1747533653290,3.397033,0.5718261,-1.9883344,-1.6053535499999998,3.12442065,2.90550885
824,1747533653300,3.2381516,0.81319875,-2.2833996,-2.428803,3.2245555,3.0418627
825,1747533653310,2.997267,1.134134,-2.1733298,-3.7864826,3.2256207,3.3651705
826,1747533653320,2.9699326,1.5727049,-1.7850347,-4.22244205,3.23174605,3.46530535
827,1747533653330,3.0729248,1.71328185,-1.53768265,-4.7598679,3.18407545,3.6187034
828,1747533653340,3.2327824,2.208718,-0.82857436,-4.3382893,2.8506477,3.9228363
829,1747533653350,3.8133945,3.537854,-0.48445365,-1.1462245,2.2019017,4.909804
830,1747533653360,6.092645,4.807684,-1.6425053,1.0061423,1.8572886,4.0964746
831,1747533653370,6.945381,5.422464,-2.426417,1.3118732,1.6016251,2.6168222
832,1747533653380,7.0771723,5.878119,-3.0885444,1.1084076,0.99548966,0.90014845
833,1747533653390,6.999806,5.9327874,-3.4890425,0.4990764,0.31957933,-0.7984157
834,1747533653400,6.558551,5.546933,-3.4646366,-0.38029942,-0.1635181,-2.340386
835,1747533653410,5.329478,4.3129797,-2.4444773,-1.7869811,-0.33129725,-4.1859565
836,1747533653420,4.86943,3.6269348,-1.8458049,-2.1241374,-0.072970614,-4.616856
837,1747533653430,4.65649,3.3484654000000003,-1.54598055,-2.1273332,0.054861123,-4.767591
838,1747533653440,4.1431155,2.5208673,-0.7563334,-1.9142802,0.27324033,-5.015265
839,1747533653450,4.011813,2.1540492,-0.42075467,-1.5819178,0.22690132,-5.069061
840,1747533653460,4.084298,1.7035197,0.058817793,-0.82078624,-0.19228023,-5.4349794
841,1747533653470,4.1382346,1.5353642,0.22233616,-0.509729,-0.46818373,-5.8403125
842,1747533653480,4.0102269,1.36623245,0.357299825,-0.25193503,-0.72171664,-6.263755
843,1747533653490,3.87379875,1.1803829,0.436130315,-0.025033714,-0.89375687,-6.614227
844,1747533653500,3.7841077,1.070191,0.48201308,0.14221281,-1.009338,-6.838998
845,1747533653510,3.4792802,0.6518769,0.7394935,0.41864893,-1.252751,-7.166034
846,1747533653520,3.385806,0.48689422,0.88055855,0.56885123,-1.3800501,-7.3503246
847,1747533653530,3.3008742,0.3214234,1.0003906,0.76965356,-1.4929681,-7.511712
848,1747533653540,3.2386398,0.15180361,1.1346222,1.0737866,-1.5558188,-7.665643
849,1747533653550,3.0624304,-0.2552838899999999,1.2241912,2.1702099,-1.5989619,-7.91305065
850,1747533653560,3.0387568,-0.3192269,1.1944162,2.389388,-1.6772588,-7.9527316
851,1747533653570,3.0202084,-0.43491003,1.082638,2.7063043,-1.8658108,-8.036888
852,1747533653580,2.9865284,-0.5222825,0.9654905,2.8831382,-1.9046929,-8.127968
853,1747533653590,2.9044033,-0.6945869,0.73192765,2.8655615,-1.814678,-8.194015
854,1747533653600,2.8586426,-0.767316,0.6369894,2.4074976,-1.5968314,-8.287225
855,1747533653610,2.8215458,-0.86152214,0.626495,2.0687435,-1.4711303,-8.346347
856,1747533653620,2.7395427,-0.94816244,0.7004443,1.7752632,-1.3102753,-8.372446
857,1747533653630,2.61727,-1.0206474,0.8031924,1.5867114,-1.1201255,-8.343684
858,1747533653640,2.5630891,-1.1194906,1.1365746,1.5387745,-1.0492855,-8.277104
859,1747533653650,2.51647435,-1.1590279,1.26348435,1.8636801,-1.0908308,-8.111989
860,1747533653660,2.5091527,-1.1802609,1.3042419,2.2200112,-1.1552793,-8.049138
861,1747533653670,2.46973735,-1.28984255,1.3805098,2.5656893,-1.2394352,-7.9804287
862,1747533653680,2.459365,-1.3323085,1.3838046,3.0312100500000003,-1.3427658999999998,-7.7585873
863,1747533653690,2.3080494,-1.4528728,1.2227268,3.1622376,-1.3496901,-7.6608496
864,1747533653700,2.2443504,-1.5085179,1.0972813,3.3609095,-0.89801794,-7.1452613
865,1747533653710,2.101333,-1.5031487,0.98477095,3.2575786,-0.6450176,-6.8549767
866,1747533653720,1.9536783,-1.4684924,0.8856837,3.063168,-0.40533313,-6.5524416
867,1747533653730,1.8597162,-1.4299314,0.84150934,2.854376,-0.20293288,-6.314355
868,1747533653740,1.6049205,-1.3296238,0.7214332,2.3297334,-0.022903185,-6.039517
869,1747533653750,1.4909457,-1.292283,0.6909261,2.0964406,-0.15765914,-5.976134
870,1747533653760,1.3950312,-1.2725145,0.6901939,1.917476,-0.2977414,-5.9329906
871,1747533653770,1.2825208,-1.279104,0.7243619,1.8098843,-0.43888897,-5.878662
872,1747533653780,1.1329137,-1.32157,0.8122225,1.7997643,-0.5384912,-5.7620153
873,1747533653790,0.77561396,-1.4160202,0.99087244,2.1140172,-0.66579026,-5.4365773
874,1747533653800,0.38756293,-1.5126668,1.0348027,2.4399881,-0.50600064,-5.1201935
875,1747533653810,0.099819414,-1.679602,1.0716554,2.8900626,-0.26631612,-4.769189
876,1747533653820,-0.30580372,-1.7911361,0.9288819,3.3843453,-0.11025487,-4.2647862
877,1747533653830,-0.614048,-1.8426323,0.7409578,3.5654402,-0.06551377,-3.73535
878,1747533653840,-0.7425441500000001,-1.8946165,0.5529117,3.5734296,-0.0077231699999999,-3.2370724
879,1747533653850,-1.034680675,-2.10950875,-0.053814615,3.3465283,0.012250541,-2.4698157
880,1747533653860,-1.0892274,-2.1840682,-0.21184167,2.908172,-0.098004326,-2.3558323
881,1747533653870,-1.1863623,-2.3890765,-0.5122762,2.2913837,-0.16245283,-2.3803334
882,1747533653880,-1.4782547,-2.6109245,-0.8053889,1.5275892,-0.14753912,-2.4149544
883,1747533653890,-1.8597162,-3.167619,-1.0943527,-0.24847292,-0.256995045,-1.98512035
884,1747533653900,-2.6314254,-3.3894668,-0.9303462,-1.1206582,-0.40053943,-1.649562
885,1747533653910,-2.7993367,-3.4641484,-0.79794515,-1.27352365,-0.5150553649999999,-1.30654685
886,1747533653920,-3.1451658,-3.6452392,-0.28054381,-1.4157364,-0.76965356,-0.08149273
887,1747533653930,-3.1517553,-3.6481678,-0.1889003,-1.2175972,-0.6743124,0.92518216
888,1747533653940,-2.5726075,-3.4397428,-0.38609856,-1.186172,0.056459017,2.5550368
889,1747533653950,-2.2201886,-3.2244844,-0.64479923,-1.645301,0.42397526,2.9193573
890,1747533653960,-2.0127401,-3.0155714,-0.8346757,-2.3622239,0.6737798,3.0839405
891,1747533653970,-1.8538588,-2.8576665,-0.8083176,-3.2618399,0.8586032,3.2447956
892,1747533653980,-1.6305465,-2.7478404,-0.6067263,-3.706055,1.0066749,3.400324
893,1747533653990,-1.3269392,-2.565286,-0.24674188,-3.7705035,1.1249193,3.9862196
894,1747533654000,-1.1736712,-2.4818182,-0.099819414,-3.5079157,1.1100056,4.50021
895,1747533654010,-0.96036524,-2.3651588,-0.042221904,-3.160107,1.055677,5.081844
896,1747533654020,-0.6123396,-2.2187245,-0.067847915,-2.884736,0.99442434,5.6277924
897,1747533654030,-0.2796896,-2.0561824,-0.12154051,-2.769155,0.96086854,6.09278
898,1747533654040,0.42368335,-1.8223755,-0.1867038,-3.1622376,0.9864349,6.7468524
899,1747533654050,0.7175283,-1.7166986,-0.13716017,-3.6847498,1.051416,7.0595074
900,1747533654060,0.9203399,-1.6625179,-0.0056133163,-4.159325,1.1318434,7.3306174
901,1747533654070,1.02796915,-1.6339632000000002,0.10433447685,-4.5481467,1.1653993,7.611315
902,1747533654080,1.40699,-1.564651,0.5015376,-4.736166,1.1169298,7.8217044
903,1747533654090,1.8404356,-1.5421977,1.0245523,-4.450675,0.9241169,7.998538
904,1747533654100,1.9888225,-1.5512279,1.0992339,-4.185424,0.83250415,8.024637
905,1747533654110,2.1076784,-1.539025,1.0599406,-4.027232,0.721184,7.984157
906,1747533654120,2.3942015,-1.6212723,0.9022797,-4.153466,0.14061491,7.7284937
907,1747533654130,2.5601604,-1.6788697,0.9413288,-4.209925,-0.3387541,7.6171737
908,1747533654140,2.7673652,-1.69693,1.1058234,-4.034689,-0.8969527,7.4637756
909,1747533654150,2.9184365,-1.63738,1.2956998,-3.540939,-1.3837786,7.315704
910,1747533654160,3.00166,-1.5473229,1.4409139,-2.8202877,-1.4919028,7.333813
911,1747533654170,3.1178312,-1.3069266,1.3491484,-1.5403724,-0.6988135,7.7545924
912,1747533654180,3.2457173,-1.2249234,1.2034464,-1.2772521,-0.16192019,7.846205
913,1747533654190,3.3086839,-1.1524384,1.0245523,-1.25861,0.33502567,7.7833548
914,1747533654200,3.2974577,-1.1014304,0.8429737,-1.551025,0.7914915,7.5372787
915,1747533654210,3.0968425,-1.0155222,0.77732235,-2.2849922,0.9763149,6.8741517
916,1747533654220,2.9047694,-0.98159826,0.85859346,-2.4985778,1.0450244,6.5300713
917,1747533654230,2.668766,-0.96671075,0.96402615,-2.5321336,1.031176,6.2807994
918,1747533654240,2.4805977,-0.9610975,1.0389518,-2.3989756,0.8586032,6.1359234
919,1747533654250,2.3475866,-0.9942892,1.1590278,-2.1007016,0.54275227,6.0730724
920,1747533654260,2.1428227,-0.9584128,1.3540297,-0.912399,-0.11824436,6.07254
921,1747533654270,2.1496563,-0.9437694,1.2793481,-0.31372038,-0.28229508,6.146576
922,1747533654280,2.3056087,-0.93327487,1.1063116,0.14168017,-0.32490566,6.2051654
923,1747533654290,2.4237325,-0.84883106,0.8498074,0.18961707,-0.24501082,6.217416
924,1747533654300,2.71306235,-0.39390841,0.43869291,0.011717909,0.017044231,6.212622
925,1747533654310,2.736858,-0.31239328,0.37267542,-0.7861652,1.073254,6.0656157
926,1747533654320,2.8313081,-0.21403822,0.28627914,-1.3001553,1.4887071,6.0299296
927,1747533654330,2.9833558,-0.14594623,0.22062775,-1.824798,1.7837853,6.0091567
928,1747533654340,3.073901,-0.0012202862,0.25894472,-2.2461102,1.8098843,5.9558935
929,1747533654350,3.2601168,0.39805737,0.14545812,-2.9278793,1.0807108,6.2989087
930,1747533654360,3.2701232,0.9366917,0.117635585,-3.176086,0.7323693,6.385728
931,1747533654370,3.432177,1.4475036,0.08981306,-3.3241577,0.360592,6.3005066
932,1747533654380,3.7723927,1.8633771,-0.032459613,-3.4461305,0.0974717,6.1588264
933,1747533654390,4.0821013,2.3500273,-0.16791138,-3.6048548,-0.07989483,6.088519
934,1747533654400,5.4690785,3.5232103,-0.34265637,-3.9952743,-0.7866978,5.58891
935,1747533654410,6.0245533,4.0982094,-0.45394647,-4.4091296,-1.0460896,4.934305
936,1747533654420,6.4518976,4.7847424,-0.36364532,-4.8608017,-1.0088054,4.2253714
937,1747533654430,6.621273049999999,5.0495447,-0.1611998235,-5.02858085,-0.908404235,3.8376152
938,1747533654440,7.608973,5.6040425,1.2712942,-5.210741,-0.42663842,2.1827269
939,1747533654450,7.5247726,5.329478,1.9800364,-4.3404202,0.2412824,-0.7462177
940,1747533654460,7.084738,4.8718705,2.6143413,-3.3912694,0.5454154,-2.049569
941,1747533654470,6.5441513,4.25465,3.0270422,-2.218413,0.86659265,-3.0924628
942,1747533654480,5.969152,3.4826968,3.0897646,-1.0423613,1.1659319,-3.9105859
943,1747533654490,5.129107,2.46888315,2.5007325500000004,0.741690409,1.7012272999999998,-4.794222749999999
944,1747533654500,4.78401,2.0571587,2.1118274,1.75848535,2.05675935,-5.28584245
945,1747533654510,4.6363554,1.7784452,1.6415291,2.0090888,2.1049626,-5.4829164
946,1747533654520,4.4944362,1.5554989,1.287646035,2.0991036,2.03492145,-5.6770607
947,1747533654530,4.352517,1.3325526,0.93376297,2.2269354,1.6666062,-6.2903867
948,1747533654540,3.965198,0.90789294,0.8871481,2.2455776,0.8543421,-6.9913306
949,1747533654550,3.8111982,0.690438,0.9952655,2.3552997,0.58269966,-7.266169
950,1747533654560,3.6825798,0.49909708,1.0709232,2.5065672,0.48043427,-7.5218325
951,1747533654570,3.6423106,0.28749946,1.0809295,2.6509106,0.5454154,-7.735418
952,1747533654580,3.4783039,-0.18645973,1.22711985,3.123888,0.83942837,-8.131697
953,1747533654590,3.4685416,-0.28627914,1.2639725,3.5238948,0.8213189,-8.37937
954,1747533654600,3.4419394,-0.46200037,1.2942356,4.032026,0.68336713,-8.6606
955,1747533654610,3.410212,-0.65163285,1.2930154,4.6003447,0.39521313,-8.9370365
956,1747533654620,3.307708,-0.84761083,1.2666571,4.89196085,0.1941444555,-9.04808975
957,1747533654630,3.1751847,-1.0321181,1.1622007,5.682121,-0.46179214,-9.311477
958,1747533654640,3.07829405,-1.15597715,0.9944113,5.90556,-0.94568852,-9.3836485
959,1747533654650,2.91624,-1.3153465,0.62734915,5.743373200000001,-2.1899174,-9.502958
960,1747533654660,2.890614,-1.3108315,0.596964,5.524994,-2.4538367,-9.518138
961,1747533654670,2.8501005,-1.2932593,0.5942794,5.1116714,-2.654639,-9.513877
962,1747533654680,2.82179,-1.283497,0.6101431,4.19048405,-2.5827336,-9.2784535
963,1747533654690,2.9803051,-1.3091231,0.831747115,3.5361453000000003,-2.42241135,-9.01986
964,1747533654700,3.014107,-1.3232784,0.88739216,3.345463,-2.336125,-8.91573
965,1747533654710,3.0507154,-1.3406065,0.99209267,3.0221553,-2.0788636,-8.644089
966,1747533654720,3.0904968,-1.3367015,1.0943527,2.7510455,-1.7592843,-8.352738
967,1747533654730,3.0843954,-1.3039979,1.1873385,2.5587652,-1.3795174,-8.106663
968,1747533654740,3.0138628,-1.3135161,1.2332213,2.427205,-0.4575311,-7.8078556
969,1747533654750,2.856446,-1.3498806,1.2888663,2.5134914,-0.3653857,-7.760452
970,1747533654760,2.7372241,-1.3481722,1.30033705,2.721218,-0.46711847,-7.7141128
971,1747533654770,2.3807786,-1.359399,1.2993608,2.9987195,-0.7030745,-7.645403
972,1747533654780,2.1708894,-1.3847809,1.3018013,3.3273535,-1.0317086,-7.529822
973,1747533654790,1.9968764,-1.3703815,1.2525018,3.8940742,-1.6527578,-7.081878
974,1747533654800,1.9702741,-1.3679409,1.180993,4.0448093,-1.7081516,-6.816627
975,1747533654810,1.8536148,-1.3230344,1.0801975,4.0762343,-1.6223978,-6.527408
976,1747533654820,1.6857034,-1.2410312,0.9364477,4.0067259,-1.5137408,-6.33246465
977,1747533654830,1.33975225,-1.11265695,0.698979935,3.478621,-1.2093414500000002,-5.62273225
978,1747533654840,1.0875191,-1.00893265,0.5864695600000001,3.2320123,-1.1675298,-5.367335
979,1747533654850,1.0269929,-0.9711038,0.54937285,3.007774,-1.2042814,-5.175587
980,1747533654860,0.66383571,-1.1825793999999998,0.37767859,2.4543693,-1.25674575,-4.9311093
981,1747533654870,0.25186708,-1.4642214999999998,0.3549812599999999,2.0090888,-1.2101404,-4.7641291500000005
982,1747533654880,-0.09628058,-1.7158445,0.34570709,1.7038905,-1.12704975,-4.53376555
983,1747533654890,-0.2562601,-1.8746037,0.336799,1.540905,-1.0711234,-4.3745084
984,1747533654900,-0.44735694,-2.4371557,0.39830142,1.3651364,-0.8591358,-4.027232
985,1747533654910,-0.74632704,-2.7910388,0.36852646,1.2468921,-0.6002765,-3.5840824
986,1747533654920,-1.4196811,-3.7282186,-0.25333142,0.5832323,-0.45380265,-2.8304076
987,1747533654930,-1.6874119,-3.8809983,-0.4911652099999999,0.214650795,-0.53849119,-2.59871255
988,1747533654940,-2.4661987,-4.3368974,-1.1797727,-1.3454291,-0.8974853,-1.8631475
989,1747533654950,-2.7868898,-4.485772,-1.193684,-2.7787423,-1.1153319,-1.3997575
990,1747533654960,-3.0531561,-4.558989,-0.24259292,-4.359062,-0.9534117,-0.4383563
991,1747533654970,-3.112462,-4.552156,0.10323621,-4.412858,-0.75101143,0.46658584
992,1747533654980,-3.1117299,-4.4743013,0.22184804,-4.2802324,-0.56245965,1.4050838
993,1747533654990,-2.9555333,-4.360327,0.31947094,-4.13003,-0.34514567,2.364887
994,1747533655000,-2.733197,-4.0677023,0.43881494,-3.9404132,-0.18269286,3.1904671
995,1747533655010,-2.3422174,-3.72968295,0.5115439900000001,-3.6621128,-0.073769566,3.64666655
996,1747533655020,-1.7838145,-3.2552356,0.550349085,-3.2653018,0.170442314,4.1936797
997,1747533655030,-1.3781912,-2.89037,0.40342662,-3.0663637,0.846352635,4.5486793500000005
998,1747533655040,-1.1242497,-2.60726365,0.213550095,-3.0770164,1.0354371,4.6509447
999,1747533655050,-1.0638455,-2.523796,0.17718557,-3.148389,1.3683321,5.119128
1000,1747533655060,-0.4729829,-2.2441063,0.19353738,-2.9917953,1.794438,6.1034327
