timestamp,acc_x,acc_y,acc_z,gyro_x,gyro_y,gyro_z,id
1747532731390,0.082125265,0.64931429,0.8873921,2.1425131965,-0.44634581,-0.699079775,1
1747532731400,2.6587596,-0.64235866,0.19451363,-2.9960563,0.13156016,8.406002,2
1747532731410,3.090741,-0.58256465,0.29482117,-3.0397322,0.18429075,8.321313,3
1747532731420,3.3559092,-0.44589259,0.50239185,-2.7917918,0.0942758985,7.7900125,4
1747532731430,3.3312592,-0.419900495,0.61441413,-2.2599586,-0.0412789965,7.363907,5
1747532731440,3.288427,-0.43027294,0.64235866,-1.8738002,-0.11558119,7.170828,6
1747532731450,3.1829946,-0.47444725,0.6872652,-1.1094729,-0.258859255,7.342867849999999,7
1747532731460,3.1022117,-0.51349646,0.68994987,-0.8378305,-0.30519825,7.45259,8
1747532731470,3.20288525,-0.6234442250000001,0.538512305,-0.31851408,-0.38615838,7.7743,9
1747532731480,3.3973989,-0.6706692750000001,0.431859285,0.471379505,-0.6434196999999999,8.256066,10
1747532731490,3.478548,-0.6726217,0.4046469,0.8202536,-0.7824367,8.433699,11
1747532731500,3.65487945,-0.61697665,0.341802165,1.1161308,-0.93982955,8.372446,12
1747532731510,3.8823408,-0.493483735,0.246375795,1.412008,-1.0972224,8.311193,13
1747532731520,3.87745965,-0.2062283895,0.111656196,1.7369137,-1.1435613999999998,7.55245865,14
1747532731530,3.8214486,0.013179091,0.009518232,1.8365159,-1.113734,7.0989223,15
1747532731540,3.6510963,0.2677308,-0.17035197,1.685781,-0.9981528,6.526343,16
1747532731550,3.4507256,0.4886026,-0.35315084,1.2964269,-0.8149273,5.8893147,17
1747532731560,3.0429058,0.81454105,-0.61368198,-0.43995425,-0.268446645,4.3987432,18
1747532731570,2.73307515,0.97195795,-0.6517549,-2.0106867,0.200269715,3.2075112,19
1747532731580,2.5032952,0.9964857,-0.5200859999999999,-2.91669405,0.53982276,2.4828651,20
1747532731590,2.2672918,0.9687852,-0.3247181799999999,-3.63947595,0.9169264,1.8165422,21
1747532731600,2.0052963,0.922292325,-0.1071411369,-4.1404165,1.2934974,1.2351741,22
1747532731610,1.8663057,0.89715445,0.0012202862,-4.3340282,1.4753913,0.968858,23
1747532731620,1.1925857,0.77646812,0.456265015,-4.3651873000000005,2.0442425,0.055127435,24
1747532731630,0.96451422,0.757309645,0.574144675,-4.0887512,2.09803845,-0.154463345,25
1747532731640,0.76109252,0.7575536949999999,0.660785,-3.62802445,2.0128173,-0.284958235,26
1747532731650,0.5896423,0.77561392,0.721067125,-3.3390715,1.929194,-0.3323625,27
1747532731660,0.44137754,0.8230830499999999,0.720823075,-2.19950475,1.3771206,-0.2444782,28
1747532731670,0.36120473,0.870796225,0.6681067350000001,-1.37632165,0.8716526,-0.1099885585,29
1747532731680,0.365231665,0.8983747049999999,0.61111936,-0.9291769,0.53449642,-0.014114754,30
1747532731690,0.433079585,0.92534303,0.568653375,-0.560861735,0.27190875,0.0466053195,31
1747532731700,0.55803691,0.9527995,0.55632848,-0.242880292,0.1139833,0.0490021635,32
1747532731710,0.6291796,0.967443,0.55840296,-0.091080114,0.06338324,0.033023197,33
1747532731720,0.93107843,1.056768,0.5332651,0.48682585,0.05006743,-0.27483824,34
1747532731730,1.0726316,1.0858107,0.48225713,0.79415464,0.051132694,-0.5901565,35
1747532731740,1.1866064,1.0945967,0.40147418,0.9534117,0.049534798,-0.8724516,36
1747532731750,1.2971642,1.0892274,0.32093528,1.0226538,0.06498113,-1.1504856,37
1747532731760,1.4318839,1.0799533,0.28432667,1.0391655,0.12197278,-1.4444987,38
1747532731770,1.82518215,1.008810625,0.27480846,1.0793792,0.350472,-2.2823291,39
1747532731780,1.98894455,0.95304355,0.26992732,1.1041466,0.46578688,-2.63013795,40
1747532731790,2.0739985,0.92278045,0.26992732,1.1206582,0.52837116,-2.8043087,41
1747532731800,2.2968228,0.87226063,0.26651052,1.1733888,0.6450176,-3.1915324,42
1747532731810,2.8608390000000004,0.651266755,0.151315495,1.2237225,0.7102651,-4.560397,43
1747532731820,3.0418074500000003,0.527773795,0.127885995,1.1835088,0.6623282,-5.09995335,44
1747532731830,3.1699375,0.40867385,0.135451775,1.1475561,0.5949502,-5.60062785,45
1747532731840,3.2752482,0.280055685,0.152413755,1.12385395,0.5099953500000001,-6.013418,46
1747532731850,3.334066,0.20769271,0.1598575,1.1142666,0.4628574,-6.194513,47
1747532731860,3.6700108,-0.107141132,0.19170698,0.9717875,0.16538231,-6.85071565,48
1747532731870,3.7267542,-0.15936938,0.21379416,0.928378,0.09267801,-6.9593725,49
1747532731880,3.87343255,-0.30726808,0.31751847,0.78243675,-0.1123854,-7.24566275,50
1747532731890,3.97337405,-0.432957575,0.4414995499999999,0.73796195,-0.16804547,-7.3969303,51
1747532731900,4.053546949999999,-0.520818175,0.5688974499999999,0.753408285,-0.15978967,-7.4928038,52
1747532731910,4.1091919,-0.5745107549999999,0.6539514,0.824781005,-0.08974853,-7.52689215,53
1747532731920,4.15361025,-0.63064393,0.75401487,0.95554222,-0.00213053,-7.584682949999999,54
1747532731930,4.16678935,-0.6722557,0.87421304,1.18563935,0.067377975,-7.6861493,55
1747532731940,3.97910945,-0.765119475,0.99355702,1.540905,0.1235706749999999,-7.8467378,56
1747532731950,3.5971599,-0.8260117499999999,0.96512435,2.1603563500000003,0.0479369,-7.9708413,57
1747532731960,3.3009963,-0.87811795,0.7874507,2.6578349,0.0284958225,-7.96658025,58
1747532731970,3.0721925,-0.983550675,0.65236503,2.8061729,0.1797633775,-7.90346325,59
1747532731980,2.788476,-1.0205254,0.566090765,2.90843825,0.278832975,-7.80013265,60
1747532731990,2.47742515,-1.0383416,0.464318905,2.96995735,0.316383545,-7.64833265,61
1747532732000,2.0500809,-1.07714665,0.32264369,2.9531795,0.29720879,-7.382549,62
1747532732010,1.66471445,-1.0897156,0.210865465,2.86103405,0.24154872,-7.0722905,63
1747532732020,1.5492754,-1.0848345,0.18157859,2.8048413,0.21145499,-6.947122,64
1747532732030,1.2666572,-1.05872035,0.13105874,2.5470474,0.098536965,-6.47654155,65
1747532732040,1.048592025,-1.014668015,0.125567455,2.387524,0.03542004615,-6.20250225,66
1747532732050,0.874091025,-0.97427654,0.14423783,2.1808627,-0.03675162385,-5.8126155,67
1747532732060,0.8263778,-0.96402615,0.15863721,2.05383,-0.07882957,-5.560148,68
1747532732070,0.6855568249999999,-0.9525554,0.205496205,1.96621185,-0.07749799,-5.266401500000001,69
1747532732080,0.6355251,-0.9530435,0.2186753,1.9499665,-0.06231797,-5.182512,70
1747532732090,0.4468688349999999,-1.0096649,0.16900965,1.88471915,0.1238369934999999,-4.905543,71
1747532732100,0.29055015,-1.0860548,0.088226696,1.75022955,0.29481194,-4.678109,72
1747532732110,0.16632502,-1.13547635,0.0261141252,1.58724405,0.396278385,-4.5034055,73
1747532732120,0.10640897,-1.1580516,-0.0034168016,1.504686,0.4394216,-4.415521,74
1747532732130,-0.026114125,-1.1929518,-0.08419975,1.2836437,0.5070659,-4.1587925,75
1747532732140,-0.16522676,-1.2224828,-0.17230442,0.83836315,0.54275224,-3.64506865,76
1747532732150,-0.4002539,-1.27446695,-0.2486943449999999,0.3592604235,0.44315003,-3.0746195500000004,77
1747532732160,-0.563040085,-1.3041199,-0.2654122599999999,-0.0996022265,0.259658215,-2.4759409000000003,78
1747532732170,-0.658100365,-1.3105874,-0.2568702499999999,-0.3685815,0.0628506,-2.03518775,79
1747532732180,-0.73558853,-1.3093671,-0.251867075,-0.6476808000000001,-0.17496968,-1.49616395,80
1747532732190,-0.80648715,-1.3026555000000002,-0.241616665,-1.0439592,-0.416252075,-0.6170544659999999,81
1747532732200,-0.8437058500000001,-1.28410715,-0.20927909,-1.3949638000000002,-0.5254416749999999,0.2655171839999999,82
1747532732210,-0.829550525,-1.2494511,-0.156684755,-1.5867114,-0.499875335,0.8945558499999999,83
1747532732220,-0.7415679100000001,-1.1795287,-0.0716308015,-1.7835190500000002,-0.40772996,1.8122811,84
1747532732230,-0.611241385,-1.11009435,-0.0064675172,-1.93292235,-0.3046656199999999,2.69218955,85
1747532732240,-0.484697715,-1.07543825,0.0123248908,-1.9997677,-0.242880295,3.2208271,86
1747532732250,-0.32484019,-1.04798185,0.0462488464999999,-2.02932885,-0.20879183,3.7374804,87
1747532732260,-0.14863086,-1.0164984,0.092375665,-1.995773,-0.187486545,4.18036415,88
1747532732270,0.07883049,-0.97964575,0.112876475,-1.8607507,-0.15845809,4.6349657,89
1747532732280,0.285913065,-0.951701225,0.112876475,-1.7052221,-0.14727281,5.0131345,90
1747532732290,0.419534415,-0.917167125,0.11421879,-1.58404825,-0.14913702,5.2059473,91
1747532732300,0.542295225,-0.87628755,0.106164902,-1.4524881,-0.13129384,5.3990265,92
1747532732310,0.59672,-0.8603018,0.097134784,-1.387507,-0.11504856,5.500493,93
1747532732320,0.8520039,-0.7670719,0.06296677,-1.2836437,-0.058056913,5.731123,94
1747532732330,1.1143654,-0.67799103,0.068702115,-1.1350393,-0.0950748535,6.19770865,95
1747532732340,1.3185193,-0.62856942,0.07358326,-1.02558335,-0.223971855,6.51888585,96
1747532732350,1.51108045,-0.59488955,0.069800368,-0.95128115,-0.294013,6.6826702,97
1747532732360,1.71132945,-0.5695076,0.029530924,-0.8839031799999999,-0.20746026,7.02861485,98
1747532732370,1.88375585,-0.5737786,-0.035388299,-0.8836368649999999,0.0007989499999999,7.4579165,99
1747532732380,1.999683,-0.60770258,-0.07407137,-0.963531685,0.2042644599999999,7.80306215,100
1747532732390,2.13098585,-0.6590766299999999,-0.07773223,-1.07831395,0.3765709849999999,8.1881555,101
1747532732400,2.34661045,-0.72179933,-0.0528383935,-1.2077436,0.513990085,8.6219845,102
1747532732410,2.485235,-0.7524285,-0.033923957,-1.2740563,0.5789712,8.851815,103
1747532732420,2.8017771,-0.7792748,0.19280522,-1.2841763,0.64075655,9.1133375,104
1747532732430,3.3217412,-0.8258897000000001,0.295797395,-0.986434925,0.5153216899999999,9.722935,105
1747532732440,3.6205892,-0.8567629800000001,0.341802175,-0.793622025,0.421578405,9.8009655,106
1747532732450,3.8786797,-0.87958235,0.36376732,-0.58030283,0.331563565,9.7138805,107
1747532732460,3.99070205,-0.90594052,0.30214288,-0.4016047,0.30945932,9.47898975,108
1747532732470,3.98362445,-0.93181057,0.220993845,-0.359526755,0.402669955,9.31067775,109
1747532732480,3.9739842,-0.94157284,0.20451997,-0.38935417,0.47564057,9.298161,110
1747532732490,4.01779245,-0.97049362,0.244911435,-0.4556668849999999,0.684166085,9.2691325,111
1747532732500,4.1130967,-0.95816875,0.3256944,-0.494549035,0.9584717,9.1681985,112
1747532732510,4.2363455000000005,-0.7431543,0.45638708,-0.22157501,1.05647605,8.653143,113
1747532732520,4.26758515,-0.4368624399999999,0.55108128,0.2109223549999999,1.02718127,7.8318241,114
1747532732530,4.1109005,-0.1752331,0.5331430500000001,0.5821670299999999,0.86179894,7.0366044,115
1747532732540,3.994729,-0.04612682,0.5108118,0.7664578,0.75793564,6.6195536,116
1747532732550,3.3189347,0.38561043,0.18353106,1.0263823,0.5107943,5.801963,117
1747532732560,2.97237335,0.55645053,-0.00366085,0.72411349,0.1222390949999999,4.3838295,118
1747532732570,2.625812,0.72729063,-0.19085276,0.37816888,-0.01917476,3.7049897,119
1747532732580,2.2871826,0.81832397,-0.230512075,-0.380832055,0.089748527,2.9361352,120
1747532732590,2.1160984000000003,0.8363842,-0.156684745,-0.80214413,0.27643612,2.4860610000000003,121
1747532732600,1.854591,0.8504175,0.02391761,-1.06366655,0.6964166249999999,1.9118834,122
1747532732610,1.5840535,0.87787395,0.18609365,-1.06526447,1.12811505,1.40987755,123
1747532732620,1.41882675,0.90386603,0.22148196,-0.86313054,1.32625425,1.15234985,124
1747532732630,1.2773956,0.91448253,0.193659435,-0.59228705,1.4085459,0.90174633,125
1747532732640,1.065676,0.92827175,0.0439303075,-0.34993938,1.3776532499999998,0.693220855,126
1747532732650,0.9193637,0.9396204,-0.076633975,-0.257794,1.3363743,0.61678815,127
1747532732660,0.83016073,0.978547525,-0.20354375,-0.132891745,0.822916805,0.4894890149999999,128
1747532732670,0.8338216,1.019793175,-0.25601605,-0.15819178,0.56885122,0.471912165,129
1747532732680,0.905940515,1.06225915,-0.275540615,-0.20453078,0.33688988,0.41225735,130
1747532732690,1.096671215,1.09728135,-0.2401523199999999,-0.24527714,0.14807176,0.281229815,131
1747532732700,1.3028996,1.1085080500000002,-0.185361475,-0.26471822,-0.04660532,-0.1161138249999999,132
1747532732710,1.3723339,1.1028948,-0.16717921,-0.26897928,-0.15978967,-0.42770368,133
1747532732720,1.4806952,1.0906918,-0.1164153,-0.24607609,-0.2247708,-0.7845673,134
1747532732730,1.5434179,1.0665302,-0.094206095,-0.235157135,-0.303334055,-1.31480265,135
1747532732740,1.6813104,0.9385221,-0.0519841915,-0.2495382,-0.329965665,-1.649562,136
1747532732750,1.7572123,0.8685997,-0.020988923,-0.26045716,-0.33502567,-1.8114822,137
1747532732760,1.88546425,0.77720028,0.0672377735,-0.244211875,-0.22983081,-2.60563695,138
1747532732770,1.9326893,0.7499879,0.09884319,-0.21571605,-0.18482338,-2.7680898,139
1747532732780,2.0513012,0.690682,0.14936304,-0.10333065,-0.10865697,-3.093528,140
1747532732790,2.1891935,0.6101431,0.17840585,0.03355583,-0.08841695,-3.4120421,141
1747532732800,2.6480211,0.4050130199999999,0.178039765,0.316117225,-0.3747067699999999,-4.30313575,142
1747532732810,3.01056815,0.244789415,0.148874925,0.40772997,-0.7563377499999999,-5.04615775,143
1747532732820,3.1397965,0.18157859,0.13179092,0.39734364,-0.922519,-5.331116,144
1747532732830,3.355787,0.020744866,0.09737884,0.27324033,-1.2346416,-5.92287,145
1747532732840,3.5615274,-0.2523552049999999,0.0874945199999999,-0.098803275,-1.454086,-6.711166199999999,146
1747532732850,3.71455125,-0.50812718,0.1975643449999999,-0.528903795,-1.4120080499999998,-7.2757562,147
1747532732860,3.84463375,-0.7494997999999999,0.350954325,-0.92704637,-1.206412,-7.7239662,148
1747532732870,3.879778,-0.8261338,0.4041588,-1.0418286,-1.0711234,-7.842477,149
1747532732880,3.9534833,-0.9813542,0.5435155,-1.1329087,-0.8319715,-7.9442096,150
1747532732890,4.019867,-1.0758044,0.67579454,-1.05141602,-0.5440838,-8.01504985,151
1747532732900,4.1235912,-1.23553985,0.977083165,-0.686562955,-0.37310887,-8.11625,152
1747532732910,4.05964835,-1.2753212,1.03968385,-0.38935417,-0.28495824,-8.195612,153
1747532732920,4.011325,-1.291551,1.0557917,0.012250541,-0.27057716,-8.281366,154
1747532732930,3.8570807,-1.3337729,1.0262607,0.41705105,-0.2743056,-8.3575325,155
1747532732940,3.3693322,-1.37660495,0.8905649,0.98590225,-0.335291985,-8.358064500000001,156
1747532732950,2.97042075,-1.37892345,0.7646313499999999,1.41174175,-0.369380445,-8.195612,157
1747532732960,2.7449118,-1.38551295,0.708620225,1.74756635,-0.366717275,-7.987353199999999,158
1747532732970,2.6426518,-1.3962514,0.69336665,1.8519622,-0.360592,-7.9101214,159
1747532732980,2.1922443,-1.34024035,0.5868357,2.0751351500000004,-0.4181163,-7.555388000000001,160
1747532732990,1.8464152,-1.2765414000000002,0.44796709,2.15343215,-0.37816888,-7.2467278,161
1747532733000,1.59405995,-1.2501832,0.35852009,2.1675469,-0.287887715,-6.85124835,162
1747532733010,1.4200471,-1.20954775,0.36925861,2.2003037,-0.26072348,-6.46695435,163
1747532733020,1.14816735,-1.1818472,0.36388935,2.3494407,-0.283626665,-6.10609615,164
1747532733030,0.9659786,-1.177088,0.34607318,2.4564998,-0.29188246,-5.8898473,165
1747532733040,0.735832575,-1.1703765499999998,0.30995269,2.5955168,-0.34647727,-5.58970905,166
1747532733050,0.58866605,-1.1717187999999998,0.24295898,2.64212215,-0.3701794,-5.407814999999999,167
1747532733060,0.461878315,-1.1918535499999998,0.160101555,2.62108315,-0.404001535,-5.23444315,168
1747532733070,0.40708748,-1.2056428,0.11983211,2.5901904,-0.42557314,-5.150021,169
1747532733080,0.06308880435,-1.24188525,-0.083955689,2.1819279,-0.430366845,-4.68077205,170
1747532733090,-0.07187485565,-1.2527458,-0.17645339,1.7142768,-0.400539445,-4.24374745,171
1747532733100,-0.13764828,-1.2629962,-0.22599702,1.5259913,-0.37710363,-4.0938115,172
1747532733110,-0.302753015,-1.2865478,-0.340459855,0.8295747,-0.254331885,-3.61710545,173
1747532733120,-0.450407625,-1.3183973,-0.4011081,0.066046415,-0.16538231,-3.0786142,174
1747532733130,-0.5437595,-1.342559,-0.43100512,-0.44900897,-0.11451593,-2.7084348,175
1747532733140,-0.712281085,-1.40833235,-0.417459935,-1.16433405,-0.061785335,-2.0524983,176
1747532733150,-0.846390515,-1.4139457,-0.35327287,-1.5635419000000002,-0.0561927,-1.50681655,177
1747532733160,-0.91619086,-1.4072341,-0.30873242,-1.7406421,-0.05965481,-1.2069446,178
1747532733170,-1.0421244,-1.3742863,-0.090789296,-1.9611518,-0.10013486,-0.5123922,179
1747532733180,-1.0167425,-1.3501247,0.0034168016,-2.0080235,-0.26045716,1.1930962,180
1747532733190,-0.8710403200000001,-1.3096112,0.1173915349999999,-1.7433053,-0.295877205,2.29324805,181
1747532733200,-0.81271064,-1.2927712,0.14570218,-1.6325178,-0.29348037,2.650378,182
1747532733210,-0.5520575,-1.1949043,0.14399377,-1.2775184,-0.29214879,3.6213665,183
1747532733220,-0.4139211,-1.1451166,0.12690976,-1.1627362,-0.30040458,3.9281626,184
1747532733230,-0.141797257,-1.1142434,0.081271065,-0.776045145,-0.39734365,5.21420335,185
1747532733240,0.031971498,-1.10716575,0.0356323594999999,-0.716656655,-0.435693175,5.66427765,186
1747532733250,0.21367213,-1.1097283,-0.0266022415,-0.72757563,-0.48469533,6.040316,187
1747532733260,0.52569932,-1.0970373,-0.073827321,-0.85088,-0.62477763,6.329269,188
1747532733270,0.73729694,-1.0833701,-0.08639627,-0.948618,-0.7344999,6.474145,189
1747532733280,0.95377576,-1.053107,-0.082735404,-1.0167949,-0.8085357,6.4863954,190
1747532733290,1.3220581,-0.99136055,-0.087372495,-1.08470555,-0.863663165,6.34817725,191
1747532733300,1.49668105,-0.92217032,-0.074803545,-1.11160345,-0.8708537000000001,6.22061175,192
1747532733310,1.66190785,-0.80551097,-0.0440523315,-1.13903395,-0.8380968,6.2403192,193
1747532733320,1.79467495,-0.71862655,-0.0267242695,-1.1827098,-0.6977482,6.46722055,194
1747532733330,1.8638652,-0.707765985,-0.036730618,-1.2508867499999998,-0.39361521,6.79399035,195
1747532733340,1.9369603,-0.72680247,-0.037706845,-1.35981005,0.0159789699999999,7.1713605000000005,196
1747532733350,2.1840683,-0.761214555,0.0230634099999999,-1.5060176,0.40133838,7.55112725,197
1747532733360,2.56284515,-0.7673159700000001,0.12666571,-1.6333167,0.77418095,8.00173375,198
1747532733370,2.89817975,-0.7346123,0.2050080799999999,-1.63837675,0.99762015,8.3130575,199
1747532733380,3.17701515,-0.6811638,0.26236154,-1.51107765,1.0141317,8.342086,200
1747532733390,3.4005717,-0.62222395,0.323009775,-1.25381625,0.991761165,8.2113245,201
1747532733400,3.5046623,-0.5957437,0.35583547,-1.0828413,0.97418433,8.097075,202
1747532733410,3.4903847,-0.52411295,0.45431256,-0.331297245,0.7739146,7.610782,203
1747532733420,3.4263198,-0.5281399,0.4373506,0.07456851,0.6780408,7.40199,204
1747532733430,3.28415625,-0.615756425,0.30873242,0.51239218,0.7337009,7.40678375,205
1747532733440,3.2388837500000003,-0.67262175,0.239298125,0.708667175,0.7874967850000001,7.46057965,206
1747532733450,3.2132578,-0.707765985,0.182188725,0.89136004,0.8402273650000001,7.5641766,207
1747532733460,3.22668095,-0.713501335,0.147776655,1.027181265,0.84795053,7.6499305,208
1747532733470,3.2496223,-0.7082541,0.13960074,1.0620687,0.8309063,7.6651106,209
1747532733480,3.2718315,-0.6537073250000001,0.12007616,1.0825749999999998,0.79761675,7.55645345,210
1747532733490,3.2846445,-0.547542435,0.09359595,1.1044128999999998,0.75953355,7.34020465,211
1747532733500,3.2222878,-0.356079525,0.0446624749,1.05754125,0.77071885,6.896522,212
1747532733510,3.1089232,-0.117513569,-0.0358764150999999,0.9462211,0.797350435,6.33832335,213
1747532733520,3.0485191,-0.018792408,-0.07443746,0.8831042,0.80800307,6.1162157,214
1747532733530,2.9189248,0.16547081,-0.1598575,0.66579026,0.8186557,5.622998,215
1747532733540,2.7942114,0.35022214,-0.24332508,0.34940675,0.8309063,5.081844,216
1747532733550,2.5826138,0.688363425,-0.3242300449999999,-0.56672069,0.8809736850000001,3.64107395,217
1747532733560,2.37980215,0.883243145,-0.306901975,-1.2695289,0.9209211,2.45809785,218
1747532733570,2.302436,0.92400074,-0.28261828,-1.4631407,0.9374327,2.0969732,219
1747532733580,2.05239945,0.9471861,-0.15558649,-1.83545065,1.0809771,1.17578565,220
1747532733590,1.7924785,0.934129075,-0.044052332,-1.95635815,1.2905679,0.473243735,221
1747532733600,1.5359743,0.911309775,0.0392932155,-1.96914135,1.47832075,-0.12516858,222
1747532733610,1.3927127,0.88129073,0.0780983175,-1.8956381,1.5401061,-0.437291065,223
1747532733620,1.3284036,0.86274236,0.09835507,-1.8466359,1.5579493,-0.5784386,224
1747532733630,1.2141849,0.8171036,0.1398448,-1.6447684,1.5723304,-0.8745821,225
1747532733640,1.0799533,0.771709035,0.153145935,-1.1816445999999998,1.4769892,-1.22026045,226
1747532733650,1.0160103500000002,0.74754736,0.1309367175,-0.8197209999999999,1.3275858500000002,-1.4357102,227
1747532733660,1.00868865,0.737663075,0.0924976949999999,-0.6064018,1.1760519500000002,-1.55182405,228
1747532733670,1.04541925,0.7287549799999999,0.0569873675,-0.4263721099999999,1.0010823,-1.66633995,229
1747532733680,1.10374895,0.7308294449999999,0.0351442445,-0.27350665,0.8143947,-1.7939053500000002,230
1747532733690,1.2230929,0.7272906,0.0241616685,-0.08362326,0.5281048500000001,-2.05675935,231
1747532733700,1.3144923,0.71874857,0.021477038,0.071905353,0.2676476949999999,-2.35982715,232
1747532733710,1.43639895,0.665666125,0.027822526,0.137685433,0.1483380775,-2.5795380000000003,233
1747532733720,1.4687365,0.6455314,0.031239327,0.16724652,0.096939065,-2.6903255,234
1747532733730,1.53512,0.605262,0.03807293,0.20719394,0.036751624,-2.8905952,235
1747532733740,1.7412264,0.510689785,0.072973115,0.259391895,-0.042077948,-3.2152346,236
1747532733750,2.00615055,0.41221269,0.12178457,0.340085685,-0.1717738899999999,-3.6533245,237
1747532733760,2.1760144,0.35119838,0.15058333,0.39840892,-0.267914,-3.96811,238
1747532733770,2.3544204,0.28237423,0.17645338,0.43356264,-0.40213734,-4.343616,239
1747532733780,2.5430765,0.19378147,0.20110317,0.44474792,-0.5725796,-4.85441,240
1747532733790,2.8954952,-0.055156945,0.26248357,0.401072075,-0.7917578000000001,-5.4991615,241
1747532733800,3.0985508,-0.24381319,0.3222776,0.330764625,-0.93823165,-6.0752033,242
1747532733810,3.2169186,-0.36596385,0.3602285,0.24261399,-0.98457065,-6.5692196,243
1747532733820,3.2803736,-0.42612398,0.3790209,0.20453078,-0.9624664,-6.7015786,244
1747532733830,3.3914194,-0.58939826,0.47273886,0.12144015,-0.86179894,-6.900783,245
1747532733840,3.56323565,-0.64455521,0.56535861,0.119575935,-0.75473985,-7.12209175,246
1747532733850,3.77849415,-0.722043395,0.69336665,0.18029601,-0.638892355,-7.413708,247
1747532733860,3.8144927,-0.7636551650000001,0.7519404000000001,0.32304145,-0.6311692,-7.5649755,248
1747532733870,3.7313913,-0.8371164,0.78867103,0.4942826999999999,-0.627973405,-7.7367494,249
1747532733880,3.5496906,-0.92021787,0.7968469499999999,0.79575255,-0.60826603,-7.97350465,250
1747532733890,3.3308933,-0.96780902,0.7748818,1.11346765,-0.5882923,-8.120511,251
1747532733900,3.1051405,-1.0090547,0.73339205,1.3225258,-0.5763080650000001,-8.080829999999999,252
1747532733910,2.87523845,-1.0499342500000002,0.680309575,1.51800185,-0.560062795,-7.975369000000001,253
1747532733920,2.5136676,-1.11290105,0.606482225,1.8269285,-0.54994278,-7.71358,254
1747532733930,2.1409923,-1.1665937,0.52508915,2.0421119,-0.5486112,-7.516506,255
1747532733940,2.0129843,-1.1756238,0.4893348,2.2050974,-0.60080916,-7.2842784,256
1747532733950,1.7291456,-1.1402354,0.41148052,2.2860575,-0.7387609,-6.937535,257
1747532733960,1.4420123,-1.1002101,0.2430810199999999,2.25623,-0.76539252,-6.4134247,258
1747532733970,1.3652563,-1.1002101,0.19060871,2.218413,-0.7595336,-6.2472434,259
1747532733980,0.99184865,-1.001855035,0.141309145,1.8767297,-0.871652635,-5.50155825,260
1747532733990,0.86164413,-0.955240085,0.1195880474999999,1.7457021,-0.8783105499999999,-5.2123389,261
1747532734000,0.80343646,-0.9396204,0.106164895,1.6783241,-0.8708537,-5.0711913,262
1747532734010,0.597330115,-0.8961782199999999,0.0939620425,1.41067645,-0.817057835,-4.6203184,263
1747532734020,0.49885303,-0.8715284,0.10030753,1.335309,-0.7946873,-4.4938183,264
1747532734030,0.361326755,-0.86725745,0.1106799649999999,1.0860371,-0.546480665,-3.9329563,265
1747532734040,0.236247415,-0.8596917,0.104456502,1.0002833,-0.3669835999999999,-3.73641515,266
1747532734050,0.114584875,-0.850173425,0.083223522,0.8993495,-0.190416025,-3.5430696,267
1747532734060,0.0605262,-0.84785485,0.06931226,0.8431568,-0.10333065,-3.4461305,268
1747532734070,-0.14106509,-0.86469483,-0.021965152,0.5438175,0.22423817,-3.0589068,269
1747532734080,-0.3032411299999999,-0.875555375,-0.102504045,0.154197025,0.40187101,-2.6905917,270
1747532734090,-0.39708115,-0.8883684000000001,-0.144970005,-0.103064335,0.4892227,-2.4335966,271
1747532734100,-0.48018263,-0.907282825,-0.18072439,-0.377103605,0.5707154249999999,-2.1310615,272
1747532734110,-0.58000205,-0.9536537,-0.188168135,-0.755805135,0.654871325,-1.59363565,273
1747532734120,-0.6406503,-0.9898962,-0.1803583,-0.99495703,0.7004114,-1.2181299,274
1747532734130,-0.737663,-1.0154002000000002,-0.111656195,-1.1624698,0.69481875,-0.53982277,275
1747532734140,-0.7983112750000001,-1.0182068000000002,-0.066261543,-1.19309615,0.6625945,-0.012250545,276
1747532734150,-0.833455525,-1.007102175,-0.015497635,-1.1558119,0.6175870800000001,0.662860775,277
1747532734160,-0.839801,-0.99550945,0.013667206,-1.1190603,0.59228706,1.0572749,278
1747532734170,-0.70410515,-0.9894081,0.030751214,-0.8524778799999999,0.53423015,2.7089676000000003,279
1747532734180,-0.5850052,-0.9743986,0.028798756,-0.7534083,0.51958275,3.3145703500000003,280
1747532734190,-0.430639,-0.9612195,0.0156196637,-0.68150295,0.4860269,3.86504565,281
1747532734200,-0.130326568,-0.960853425,-0.0162298073,-0.64714815,0.3949468,4.5145908,282
1747532734210,0.178039757,-0.962073725,-0.0619905425,-0.6628608,0.3030677499999999,5.02591785,283
1747532734220,0.36559775,-0.957924735,-0.1050666475,-0.74781567,0.2423476749999999,5.2347095,284
1747532734230,0.550593175,-0.94889456,-0.13947872,-0.877777935,0.1483380799999999,5.360943300000001,285
1747532734240,0.7228976,-0.93815601,-0.1541221549999999,-1.015463365,0.0282295085,5.41846765,286
1747532734250,0.9028898,-0.92741752,-0.1355738,-1.2285162500000002,-0.1427454365,5.47545925,287
1747532734260,1.0452972,-0.928027685,-0.108117358,-1.44875965,-0.2713761249999999,5.58438255,288
1747532734270,1.1230294,-0.95816875,-0.096036528,-1.61041355,-0.26365296,5.7646785000000005,289
1747532734280,1.2136966500000002,-1.01637645,-0.07272906,-1.6948358,-0.23382555,5.8733354,290
1747532734290,1.2654368,-1.0509106,-0.05296042,-1.8604844,-0.082558,6.129532,291
1747532734300,1.6027239,-1.1711087,0.06430908105,-1.9979035,0.295344565,6.71329665,292
1747532734310,1.94623455,-1.223459,0.1732806499999999,-1.9510318,0.481765835,7.0930635,293
1747532734320,2.1793093,-1.20966975,0.26736472,-1.76141475,0.43329631,7.2219605,294
1747532734330,2.3541762,-1.163787,0.37206528,-1.4580807,0.2636529549999999,7.35858065,295
1747532734340,2.4281254,-1.1316935,0.4253918,-1.2799152,0.15180019,7.4392743,296
1747532734350,2.85827645,-1.03480275,0.46920008,-0.39494681,-0.116113825,7.9846895,297
1747532734360,3.0374145500000003,-1.048592,0.421852965,0.249005575,-0.103064334,8.3916205,298
1747532734370,3.116123,-1.056768,0.39659303,0.43888897,-0.049534798,8.504006,299
1747532734380,3.2388837,-1.0797093,0.34656128,0.74302197,0.12197278,8.673916,300
1747532734390,3.53468105,-1.14767925,0.200248975,1.0644654999999998,0.5760417499999999,8.8358355,301
1747532734400,3.8107098,-1.1775762,0.10030753,1.1084077,0.79069253,8.753544,302
1747532734410,3.9404262,-1.1416998,0.031849469485,1.0543455000000002,0.8769789649999999,8.535964,303
1747532734420,3.9749603,-1.1155857,0.00097622897,1.009338,0.89855057,8.413459,304
1747532734430,3.89063845,-0.98452692,-0.00683360325,0.79069258,0.82025365,8.0989395,305
1747532734440,3.77446735,-0.83528592,0.04759116425,0.62797342,0.8428905,7.8035949,306
1747532734450,3.63913765,-0.65871053,0.1253234025,0.54328487,1.005077,7.431550899999999,307
1747532734460,3.499903,-0.5000733150000001,0.158759245,0.55686698,1.2133362,7.1037158,308
1747532734470,3.4211946,-0.42026657,0.16058967,0.56672066,1.3161342,6.9449916,309
1747532734480,3.17445265,-0.173402665,0.0903011834999999,0.4514057999999999,1.59576615,6.3817332,310
1747532734490,2.9607805000000003,0.081515125,0.0106164904999999,0.26152243,1.7286579,5.9258001,311
1747532734500,2.7983604,0.327646855,-0.0329477295,-0.1499359699999999,1.7382453,5.021656699999999,312
1747532734510,2.6917074000000003,0.471030485,-0.00890809,-0.54541538,1.6226641000000002,3.9465384,313
1747532734520,2.6123888,0.53912246,0.012202863,-0.64768076,1.5478293,3.5281558,314
1747532734530,2.3191539,0.64723983,0.055889111,-0.821851535,1.2532836500000002,2.2381206,315
1747532734540,2.01725515,0.64223662,0.046981021,-0.937965385,1.0362360000000002,1.2311794,316
1747532734550,1.7166986999999998,0.61160742,0.023063409,-1.0205234,0.94915062,0.50653328,317
1747532734560,1.5298728499999998,0.596841975,-0.0040269444999999,-1.0663296999999998,0.99495702,0.196807615,318
1747532734570,1.4389615,0.59110665,-0.019768637,-1.091896,1.0290455,0.06551377,319
1747532734580,1.347318,0.5903745,-0.0447845035,-1.1299792,1.07778135,-0.035686355,320
1747532734590,1.1116807,0.5850052,-0.10494461,-1.2713932,1.2452941,-0.28975195,321
1747532734600,0.89361565,0.6119735150000001,-0.131424825,-1.6098809,1.3994912,-0.554203825,322
1747532734610,0.8712844,0.62014943,-0.12983845,-1.6879115,1.3992249,-0.60933125,323
1747532734620,0.8971544499999999,0.66224935,-0.0763899175,-1.7696705499999998,1.3169332,-0.7627293500000001,324
1747532734630,0.9247329,0.677747,-0.057841565,-1.7622137,1.2239889000000002,-0.91000217,325
1747532734640,1.0044176500000002,0.762068775,-0.051740136,-1.73291895,1.10760875,-1.09109717,326
1747532734650,0.99294695,0.8197883050000001,-0.08041686,-1.8216022,0.8535431250000001,-1.30601425,327
1747532734660,1.0119834,0.84651253,-0.066505599,-1.9891151,0.586161775,-1.4695323,328
1747532734670,1.1698884500000002,0.8285743000000001,0.1206863084999999,-2.0626184,0.33875411,-1.66687255,329
1747532734680,1.2954559,0.8097819,0.27139166,-2.0714068,0.16884442,-1.8216022,330
1747532734690,1.4843562,0.77634615,0.44882128,-1.63305045,-0.0436758455,-2.31455335,331
1747532734700,1.6859475000000002,0.6942208299999999,0.53753612,-1.31506905,-0.129429635,-2.67700955,332
1747532734710,1.756236,0.6282033499999999,0.5264314999999999,-1.02824655,-0.17763285,-3.06929325,333
1747532734720,1.7764928,0.5937913,0.51349646,-0.8974853,-0.19068234,-3.2682314,334
1747532734730,1.7764928,0.5937913,0.51349646,-0.8974853,-0.19068234,-3.2682314,335
1747532734740,1.8699666,0.36901456,0.45248213,-0.38562572,0.10652645,-4.0432115,336
1747532734750,2.0869335,0.318738765,0.43368975,-0.22397186,0.333161455,-4.34068625,337
1747532734760,2.1857767,0.30409533,0.4300289,-0.16990969,0.39787626,-4.4570665,338
1747532734770,2.6885345,0.17816179,0.44540447,0.14114754,0.479369,-5.190501,339
1747532734780,2.9047694,0.0976229,0.46541715,0.2972088,0.44900897,-5.5361795,340
1747532734790,3.2933085,-0.0640650299,0.463952825,0.4982774399999999,0.40719732,-6.14311365,341
1747532734800,3.5380979,-0.205496195,0.46102414,0.6127933999999999,0.421312085,-6.6038405,342
1747532734810,3.6615908,-0.28554696,0.4651731,0.6668556,0.43569317,-6.842726,343
1747532734820,3.896496,-0.64248065,0.419900485,0.790426235,0.59734705,-7.52316405,344
1747532734830,3.98801735,-0.7986773,0.421242805,0.836498915,0.7640609,-7.8486022,345
1747532734840,4.09552455,-0.9286378,0.44479433,0.8772452799999999,0.89695265,-7.971640000000001,346
1747532734850,4.161664200000001,-1.02857925,0.48506376,0.97684745,1.01626225,-8.075237000000001,347
1747532734860,4.11309665,-1.1135112,0.5613316500000001,1.2650015,1.05940545,-8.1170485,348
1747532734870,4.0119349500000006,-1.16415305,0.626128875,1.60828305,0.9965549,-8.0595245,349
1747532734880,3.9418907,-1.1643971,0.634670925,1.85622335,0.8791095,-7.94900365,350
1747532734890,3.8978384,-1.1713528,0.597086085,2.0791299,0.7446198500000001,-7.85552645,351
1747532734900,3.8327972,-1.2122323499999998,0.5421731350000001,2.2562301,0.61359235,-7.8280958,352
1747532734910,3.57202195,-1.26360635,0.5137404649999999,2.509763,0.46978165,-7.8810927,353
1747532734920,3.3616445,-1.2927712,0.50837123,2.6855316,0.3898868,-7.9287634,354
1747532734930,2.90098655,-1.32950185,0.42844251,2.91562875,0.29987194,-7.837417,355
1747532734940,2.5733397,-1.3448775,0.3231317999999999,2.9939258,0.2897519349999999,-7.682687299999999,356
1747532734950,2.4266613,-1.3623276,0.27944556,3.0152311,0.28442562,-7.5979986,357
1747532734960,2.1203694,-1.3655003,0.22526483,3.000051,0.094009588,-7.19612785,358
1747532734970,1.6229807,-1.3049742,0.13691612,2.9811425,-0.020240024,-6.9684277,359
1747532734980,1.3972276,-1.2754432,0.09640261,2.9103024,-0.16298546,-6.7090354,360
1747532734990,1.07592635,-1.1931959,0.066993715,2.7004454,-0.45193845,-6.1830615,361
1747532735000,0.81881203,-1.09471875,0.091399435,2.56595575,-0.6266418149999999,-5.8664115,362
1747532735010,0.66798466,-1.0306537,0.11861181,2.4991105,-0.71479243,-5.706089,363
1747532735020,0.5549862,-0.97281224,0.13911264,2.2647521,-0.99708754,-5.070126,364
1747532735030,0.46932206,-0.9432813,0.15473229,2.1571605,-1.0476876,-4.7825046,365
1747532735040,0.37157717,-0.914604545,0.17462296,2.0106866,-1.02558335,-4.43789175,366
1747532735050,0.3380193,-0.90374404,0.17742962,1.9606192,-1.0082728,-4.3361588,367
1747532735060,0.20793677,-0.959999165,0.0484453626999999,1.4705976,-0.62291339,-4.00805745,368
1747532735070,0.18401916,-1.001855,0.0065895454,1.3347764,-0.51292485,-3.9894154,369
1747532735080,0.0453946515,-1.09606105,-0.11543908,0.806138875,-0.141147547,-4.012585,370
1747532735090,-0.1716942765,-1.1862402,-0.21611269,0.15286544,0.188285488,-3.93242375,371
1747532735100,-0.32679266,-1.2461562,-0.27310005,-0.30360037,0.396811,-3.8472025,372
1747532735110,-0.60135707,-1.359765,-0.301044615,-0.9390306,0.64235445,-3.4360105,373
1747532735120,-0.69287854,-1.3945432,-0.298482,-1.1323761,0.6945524,-3.2565134,374
1747532735130,-0.953531635,-1.46422145,-0.230878145,-1.51933345,0.558997545,-2.4517060500000003,375
1747532735140,-1.15670925,-1.50815175,-0.1319129415,-1.5954999,0.142745445,-1.2157330000000002,376
1747532735150,-1.30826885,-1.5245036,-0.0340459865,-1.5121429,-0.316117235,0.2050634,377
1747532735160,-1.3340169,-1.517548,-0.00707766,-1.4418354,-0.44794372,0.700944,378
1747532735170,-1.2310248,-1.47825465,0.051252022,-1.1771172,-0.641022885,2.21575005,379
1747532735180,-1.1622007,-1.462635,0.06638357,-1.0897655,-0.6609966,2.7057717,380
1747532735190,-0.6743302,-1.3867333,0.0516181099999999,-0.89508847,-0.5502091,3.9872848,381
1747532735200,-0.29018406,-1.33706765,0.0300190415,-0.7808388500000001,-0.42770368,4.94389225,382
1747532735210,-0.0136672099999999,-1.3039979000000002,0.00878606085,-0.70520508,-0.33529198,5.7404437,383
1747532735220,0.1300825,-1.2852055,-0.0061014313,-0.69135666,-0.314253,5.9670787,384
1747532735230,0.432225375,-1.22309285,-0.08419975,-0.7504788,-0.243679245,6.2698802,385
1747532735240,0.62234598,-1.1715968499999998,-0.17559919,-0.8793758,-0.19973709,6.393450850000001,386
1747532735250,0.7870846300000001,-1.1404796,-0.23697959,-1.2247878,-0.149137025,6.573214350000001,387
1747532735260,0.8402891,-1.1404796,-0.24356914,-1.6101472,-0.104395918,6.824883,388
1747532735270,0.9730562,-1.1421878,-0.21086545,-1.7379789,-0.092145376,6.947122,389
1747532735280,1.1685461,-1.11705,-0.16351835,-1.9323897,-0.101200126,7.2475266,390
1747532735290,1.3745304,-1.0618931,-0.102259986,-2.0562267,-0.197340245,7.8605865,391
1747532735300,2.0312885,-0.927783635,0.14118712,-2.0516994,-0.2790993,8.142349,392
1747532735310,2.20774185,-0.89996108,0.2161127,-1.79257375,-0.29161614,8.394283999999999,393
1747532735320,2.2831554,-0.89105296,0.24576566,-1.6884441,-0.27803403,8.481103,394
1747532735330,2.4361794,-0.9061846,0.25821257,-1.4716629,-0.19707392,8.666991,395
1747532735340,2.9551672,-0.912285975,0.2323425,-1.064465515,-0.0484695359999999,8.7602025,396
1747532735350,3.3175922,-0.8557867299999999,0.23380684,-0.745152515,-0.068975871,8.6520785,397
1747532735360,3.49624205,-0.8116123799999999,0.229413815,-0.501739575,-0.1669802,8.508001,398
1747532735370,3.5800757,-0.7941623,0.22282428,-0.37284255,-0.22050974,8.426774,399
1747532735380,3.6869729,-0.76341105,0.19841854,-0.18961707,-0.24074976,8.289888,400
1747532735390,3.649266,-0.770244685,0.12385905,-0.0167779149999999,-0.0308926699999999,8.17270875,401
1747532735400,3.56213745,-0.800019665,0.062722713,-0.022370555,0.24341293,8.23076575,402
1747532735410,3.52455255,-0.8349198250000001,0.03014106975,-0.127565415,0.47750479,8.368984000000001,403
1747532735420,3.5207698,-0.85590875,0.0156196635,-0.19600865,0.59601545,8.444884,404
1747532735430,3.62705685,-0.91167585,0.0782203455,-0.376571,0.82344943,8.580706,405
1747532735440,3.8037542,-0.88287708,0.170718035,-0.62717445,0.92172007,8.3053345,406
1747532735450,3.81937385,-0.7599943,0.2379558,-0.5507417299999999,0.77018617,7.9165127,407
1747532735460,3.68441025,-0.59049654,0.2873774,-0.39547944,0.5952165,7.5085163,408
1747532735470,3.6020408,-0.50568664,0.3031191,-0.30253512,0.5118596,7.3087792,409
1747532735480,3.4263198,-0.36901456,0.31825066,-0.11664646,0.3222425,6.9306107,410
1747532735490,3.1378439,-0.05491289,0.222702235,0.0921453764999999,0.020240028,6.0807957,411
1747532735500,2.97896265,0.20012694,0.1092156099999999,0.1086569749999999,-0.1190433019999999,5.25228645,412
1747532735510,2.9225855,0.29652956,0.06858008,0.06711166,-0.15020229,4.9103365,413
1747532735520,2.7561386,0.4834774,-0.007321717,-0.18588865,-0.19920446,3.9713058,414
1747532735530,2.2360525,0.67274385,-0.0990872375,-1.0743192,0.1496696549999999,2.29165015,415
1747532735540,2.0476403,0.67738093,-0.0688241434999999,-1.44023755,0.4663195,1.7515611,416
1747532735550,1.8510522,0.66676441,-0.012324892,-1.74303895,0.84928208,1.28337735,417
1747532735560,1.6599553500000002,0.64760593,0.0495436214999999,-1.9600865,1.2492889,0.87511473,418
1747532735570,1.5712405,0.6367454,0.07809832,-2.044775,1.4476944,0.68389976,419
1747532735580,1.2053988,0.60916686,0.15790504,-2.1438446,2.0889835,0.07989483,420
1747532735590,1.0557917,0.59684198,0.17071805,-2.06687935,2.2178806,-0.1233043599999999,421
1747532735600,0.86945395,0.5848831999999999,0.188412195,-1.92173715,2.3225429,-0.3922836349999999,422
1747532735610,0.8327233,0.5852493,0.19329333,-1.8535602,2.2983081,-0.45806372,423
1747532735620,0.76072645,0.63625723,0.1867038,-1.6788567,1.887116,-0.66365975,424
1747532735630,0.76341105,0.66115105,0.17132819,-1.2772521,1.5638082,-0.74089146,425
1747532735640,0.8053889,0.6804316,0.17376876,-1.0679276,1.202151,-0.8229168,426
1747532735650,0.87543335,0.7159419300000001,0.15936938,-0.78563255,0.65140922,-0.955542215,427
1747532735660,0.8956901,0.7307074,0.15204766,-0.7041398,0.47990164,-1.0018812,428
1747532735670,1.15219425,0.7576757000000001,0.07797629,-0.64821345,0.0191747606999999,-1.38724065,429
1747532735680,1.2673893,0.74413055,0.08041686,-0.7416904,0.0167779147,-1.60322305,430
1747532735690,1.39112635,0.709596465,0.11153416,-0.846618925,0.1067927625,-1.85595705,431
1747532735700,1.5055892,0.663713695,0.171694275,-0.914529525,0.281496135,-2.12973005,432
1747532735710,1.5573293,0.64138246,0.20940112,-0.9337043,0.386691,-2.2690134,433
1747532735720,1.88387785,0.525943365,0.38024119,-0.62770708,0.94648742,-2.98673525,434
1747532735730,2.0223802500000003,0.478108155,0.396471,-0.4026699649999999,1.03490435,-3.3366746000000003,435
1747532735740,2.1912679500000003,0.4235613649999999,0.390003475,-0.1518001835,0.996288565,-3.78328685,436
1747532735750,2.45314145,0.320691225,0.38268176,-0.018109497,0.94542223,-4.0432115,437
1747532735760,2.6929277000000003,0.2057402549999999,0.394884635,0.3358246,0.6748450500000001,-4.830708,438
1747532735770,2.766633,0.16034561,0.4087959,0.5049353,0.5432849,-5.1931643,439
1747532735780,2.97871875,-0.023429496,0.5165471500000001,0.87271788,0.307861425,-5.64270595,440
1747532735790,3.1023338000000003,-0.139600745,0.58256463,1.1912319500000002,0.19414445,-5.89703765,441
1747532735800,3.2257048,-0.23929813,0.58439505,1.51640395,0.15446335,-6.131662,442
1747532735810,3.3633529,-0.39000349,0.485551875,1.86234865,0.183758125,-6.5335333,443
1747532735820,3.437058,-0.4927516,0.40293851,2.05383,0.2130529,-6.8192906,444
1747532735830,3.50881085,-0.599770695,0.30568171,2.06874365,0.160588615,-7.153783349999999,445
1747532735840,3.51649885,-0.65895459,0.269805285,2.02426885,0.117445405,-7.3191657,446
1747532735850,3.5196717,-0.7211891699999999,0.2826182849999999,1.93425395,0.002396845,-7.3894732,447
1747532735860,3.53016615,-0.7743936499999999,0.33289407,1.8655444,-0.12942963,-7.3679016,448
1747532735870,3.5288239,-0.7902574,0.35925224,1.8572886,-0.17044231,-7.3391395,449
1747532735880,3.47891405,-0.8214966800000001,0.4466247399999999,1.93452025,-0.2974751,-7.23793925,450
1747532735890,3.40911355,-0.838824765,0.48323335,2.04850355,-0.4066647,-7.1644361,451
1747532735900,3.3679898,-0.84761083,0.4978768,2.1209416,-0.47137952,-7.1260867,452
1747532735910,2.9894573,-0.90240167,0.466149345,2.3726102,-0.65061027,-7.03953375,453
1747532735920,2.8881736,-0.90740484,0.44516042,2.4868598,-0.7275756,-6.9971895,454
1747532735930,2.6726708,-0.921072,0.41099238,2.5656893,-0.777643,-6.9311433,455
1747532735940,2.294016,-0.9448676,0.359984435,2.6525085,-0.83383577,-6.7907945000000005,456
1747532735950,1.92670985,-0.96073135,0.273344115,2.6535737,-0.82957472,-6.57667625,457
1747532735960,1.6788697,-0.9693954,0.20866893,2.6322684,-0.8127968,-6.4176855,458
1747532735970,1.4677603,-0.9684192,0.15766099,2.509763,-0.78083885,-6.1780014,459
1747532735980,1.2400548,-0.9452337,0.123004854,2.376605,-0.7728494,-5.9670787,460
1747532735990,1.0723876,-0.9405966,0.11275445,2.2407837,-0.77125144,-5.732188,461
1747532736000,0.803070325,-0.94682015,0.1489969525,2.0535636,-0.8178567999999999,-5.2317800000000005,462
1747532736010,0.6631035,-0.9498709,0.17840585,1.9835224,-0.8591358,-4.973187,463
1747532736020,0.5400987,-0.9359596,0.19597797,1.9558256,-0.9331717,-4.6972837,464
1747532736030,0.4949481,-0.9326648,0.193659425,1.93478655,-0.96592855,-4.564125499999999,465
1747532736040,0.31056286,-0.9448676,0.1023820164999999,1.6314525,-1.0271813,-3.9971385,466
1747532736050,0.206472445,-0.9825745,0.02428369512,1.29482895,-0.98536965,-3.7444045,467
1747532736060,0.124957317,-1.0179628,-0.01610777788,1.00214757,-0.91506217,-3.62695915,468
1747532736070,0.079562664,-1.0335824,-0.032459613,0.84368944,-0.87511474,-3.5681033,469
1747532736080,-0.1104358965,-1.1171721,-0.11775762,0.077497985,-0.640223925,-3.2735576,470
1747532736090,-0.25430765,-1.1895351,-0.169741815,-0.553937515,-0.468183725,-2.9838056,471
1747532736100,-0.3465613,-1.23590595,-0.17669745,-0.99628855,-0.40719735,-2.70177695,472
1747532736110,-0.438448865,-1.2845953,-0.166935165,-1.42798695,-0.373108885,-2.3510387,473
1747532736120,-0.53131265,-1.3365795,-0.133621352,-1.85648965,-0.357396235,-1.8807244,474
1747532736130,-0.627837275,-1.37514055,-0.0658954605,-2.1963091,-0.38322889,-1.3347763499999998,475
1747532736140,-0.75401485,-1.38063185,0.0673598065,-2.38832295,-0.49241849,-0.4066647,476
1747532736150,-0.8398009550000001,-1.37123565,0.19451363,-2.42640615,-0.60480388,0.6199839,477
1747532736160,-0.8149071299999999,-1.36720865,0.25528387,-2.3337282,-0.62930498,1.345429,478
1747532736170,-0.735710585,-1.3736762,0.28554697,-2.1915153,-0.58935755,2.0506341,479
1747532736180,-0.638209735,-1.37477445,0.25723634,-2.0237361,-0.499875325,2.7217507000000003,480
1747532736190,-0.467735725,-1.37318805,0.19744232,-1.78751375,-0.3688478149999999,3.7012613,481
1747532736200,-0.282740315,-1.39271265,0.15082738,-1.58218405,-0.294279305,4.6299055,482
1747532736210,-0.15705084,-1.4256604,0.1167813875,-1.47006495,-0.303334055,5.17691885,483
1747532736220,-0.0976229,-1.4431105,0.102992155,-1.4130733,-0.31052458,5.4488277,484
1747532736230,0.017084008,-1.4687365,0.08444381,-1.2873721,-0.35952675,5.980395,485
1747532736240,0.336921039,-1.479353,0.08883684,-1.0327739,-0.613858625,6.729542,486
1747532736250,0.830038735,-1.4367649999999998,0.105066645,-0.6580671300000001,-1.0279802,7.629424,487
1747532736260,1.21992015,-1.30424195,0.1215405099999999,-0.39308259,-1.3451627,7.839281,488
1747532736270,1.4365209,-1.2249234,0.1261776,-0.24820662,-1.5025555,7.898403,489
1747532736280,2.35881325,-0.800141685,-0.0857861215,0.35393412,-1.6559536,7.20172015,490
1747532736290,2.50732225,-0.69544112,-0.218797325,0.26897928,-1.40082275,6.845123,491
1747532736300,2.5287992,-0.63320652,-0.307390105,0.0167779199999999,-0.9584717,6.6845345,492
1747532736310,2.48438085,-0.5997707,-0.33265002,-0.32330775,-0.356330978,6.8166272,493
1747532736320,2.56247915,-0.60636025,-0.22197006,-0.50333744,-0.020772656,6.9609704,494
1747532736330,2.7884761,-0.64992445,-0.0480792779999999,-1.1624699,1.43118285,8.123706649999999,495
1747532736340,2.9035492,-0.6740861,0.019036464,-1.2234563,1.635181,8.304269,496
1747532736350,3.2237521,-0.698125725,0.141309152,-1.0887003,1.75182745,8.3577985,497
1747532736360,3.65793,-0.702030675,0.29335682,-0.9539443,1.8684739,8.411328,498
1747532736370,3.771905,-0.681896,0.3231318,-0.60507023,1.7603495,8.135425,499
1747532736380,3.7548208,-0.571338,0.27724904,0.21891184,1.2250541,7.483483,500
1747532736390,3.60545765,-0.54302735,0.0770000585,0.4554005599999999,0.7440872249999999,7.31756775,501
1747532736400,3.55920875,-0.537902165,-0.0279445565,0.4146541849999999,0.572046995,7.31996475,502
1747532736410,3.57958745,-0.501903725,-0.08639627,0.135821215,0.6684534550000001,7.345530999999999,503
1747532736420,3.6125352,-0.47127452,-0.10958171,-0.08575379,0.81545997,7.352455,504
1747532736430,3.5675067,-0.37340757,-0.002196516,-0.527838525,1.181112,7.1370055,505
1747532736440,3.5290678,-0.32581642,0.03807293,-0.738494575,1.31773215,6.9716235,506
1747532736450,3.47330085,-0.19463566,0.127885998,-0.8958874,1.4442323,6.70344315,507
1747532736460,3.4513356,-0.0835896115,0.1915849399999999,-0.99389175,1.5334482,6.28479415,508
1747532736470,3.415093,-0.016595893,0.22697324,-1.0274476,1.5648735,6.039517,509
1747532736480,3.009958,0.31776255,0.2638259,-1.091896,1.5446335,4.9944925,510
1747532736490,2.77273435,0.4744472799999999,0.2289257049999999,-1.2189288,1.3883059,4.132160799999999,511
1747532736500,2.5457611,0.579269885,0.215868645,-1.3209279,1.26367,3.47489275,512
1747532736510,2.4110415,0.63357264,0.21501444,-1.3747238,1.1968247,3.1169639,513
1747532736520,1.9714943,0.72558224,0.22477673,-1.5350461,0.98110855,2.1694112,514
1747532736530,1.6836289,0.750842135,0.255649975,-1.56940085,0.9523464,1.63225155,515
1747532736540,1.50863985,0.765973665,0.280421795,-1.53504605,0.9882991,1.33291215,516
1747532736550,1.3748965000000002,0.777810415,0.3058037449999999,-1.44316705,1.052215,1.06792758,517
1747532736560,1.2249233,0.80514485,0.290428125,-1.2239889,1.1747204,0.67644294,518
1747532736570,1.1231514,0.8283303,0.2630937,-1.0657971,1.2591426,0.41172472,519
1747532736580,0.97488668,0.866159205,0.18792408,-0.8372978799999999,1.2444951999999998,-0.009853695,520
1747532736590,0.893859715,0.86920989,0.135817855,-0.73343458,1.16886145,-0.2149171,521
1747532736600,0.85956967,0.86518294,0.10909359,-0.68869346,1.1222562,-0.30786142,522
1747532736610,0.718504545,0.86554907,0.011958805,-0.6045375850000001,0.8101336050000001,-0.58056915,523
1747532736620,0.69287854,0.869576,0.006345488,-0.5699165,0.62584287,-0.6982809,524
1747532736630,0.725460175,0.858593385,0.0219651515,-0.50280481,0.3025351,-0.843689435,525
1747532736640,0.77219713,0.8572511199999999,0.0361204725,-0.44767739,0.137951745,-0.962200135,526
1747532736650,0.85114965,0.8512716899999999,0.01854835105,-0.442084745,0.053795859,-1.17338885,527
1747532736660,0.94352532,0.83089289,-0.0097622897,-0.5289038149999999,0.065247449,-1.39389855,528
1747532736670,0.9796458,0.82027644,-0.0156196635,-0.5928197,0.09534117,-1.4668691,529
1747532736680,1.09789155,0.80136195,0.0429540765,-0.768588305,0.23089608,-1.70122735,530
1747532736690,1.22419115,0.78598637,0.11141213,-0.8314389,0.2966761599999999,-1.8887139,531
1747532736700,1.46910265,0.769878595,0.22404455,-0.779507275,0.308660375,-2.2921827500000003,532
1747532736710,1.7059602,0.7512082250000001,0.3324059849999999,-0.6253102500000001,0.282295085,-2.7619643,533
1747532736720,1.8539809,0.72021295,0.3912237699999999,-0.4079963,0.2364887199999999,-3.1369375,534
1747532736730,2.02152625,0.661395135,0.42490367,-0.173904425,0.18109496,-3.4919369,535
1747532736740,2.2980431,0.53741406,0.446136655,-0.07190535,0.15499598,-3.643737,536
1747532736750,2.55796405,0.412334725,0.501903735,0.24847294,-0.060986385,-4.3281696,537
1747532736760,2.7074492,0.336188865,0.59964865,0.5430185399999999,-0.28469193,-4.85973645,538
1747532736770,2.8981799,0.24991462,0.6886075,0.8218515,-0.395745755,-5.1750545500000005,539
1747532736780,3.1336951,0.153878095,0.72423988,1.12491925,-0.43089947,-5.4805193,540
1747532736790,3.38055905,0.0549128835,0.69922398,1.4098775,-0.40400155,-5.8083545,541
1747532736800,3.75811565,-0.1193439965,0.56926349,1.66767155,-0.3888215299999999,-6.4645573,542
1747532736810,4.0429303,-0.289695955,0.42441554,1.77020325,-0.41705103,-7.15404965,543
1747532736820,4.076732,-0.33777523,0.3829258,1.7470337,-0.4362258,-7.3588467,544
1747532736830,4.0999175,-0.44394015,0.34521896,1.51773555,-0.51052798,-7.6954705,545
1747532736840,4.221580250000001,-0.5363158100000001,0.452482135,1.3464943,-0.529702755,-7.7870833,546
1747532736850,4.3285995,-0.5947675,0.54961693,1.2634037,-0.52624065,-7.8099866,547
1747532736860,4.4951685,-0.66127313,0.67750293,1.3728596,-0.44874265,-7.786550500000001,548
1747532736870,4.536048,-0.68458056,0.71728426,1.433846,-0.4181163,-7.78442,549
1747532736880,4.5513015,-0.781959415,0.7557232300000001,1.6096146,-0.36005938,-7.858989,550
1747532736890,4.29626175,-0.926075215,0.68738723,2.00056665,-0.29880668,-8.3407545,551
1747532736900,3.88063225,-1.07470605,0.58646955,2.19737435,-0.2921487849999999,-8.651278999999999,552
1747532736910,3.47928005,-1.1559771,0.51068977,2.27167655,-0.2876214099999999,-8.699748499999998,553
1747532736920,3.2703671,-1.1922196,0.46956614,2.2983081,-0.28708878,-8.686167,554
1747532736930,2.6513159,-1.2670232,0.32459613,2.2772692,-0.203199195,-8.4366275,555
1747532736940,2.19126795,-1.2522578,0.195489853,2.0996363,-0.0625842849999999,-7.9774988,556
1747532736950,1.83360215,-1.21406285,0.095548413,1.8114822,0.062850603,-7.4126428,557
1747532736960,1.6677652,-1.1862403499999998,0.0928637824999999,1.5954998,0.093743273,-7.0563117,558
1747532736970,1.581979,-1.1656175,0.105676785,1.5142734,0.09534117,-6.9146314,559
1747532736980,1.3755067,-1.14438435,0.2022014349999999,1.4298511500000002,-0.0186421285,-6.598248,560
1747532736990,1.14633688,-1.18087095,0.346317235,1.592304,-0.19760656,-6.361492849999999,561
1747532737000,0.90496428,-1.22345905,0.49421592,1.9188076,-0.3901531099999999,-6.1598916500000005,562
1747532737010,0.7408357999999999,-1.2522578,0.5358277,2.2687470000000003,-0.525175375,-6.0499032,563
1747532737020,0.6574902,-1.2708061,0.53814626,2.4538367,-0.5917544,-5.9953084,564
1747532737030,0.42136485,-1.37623885,0.3881730599999999,2.82747815,-0.7922904150000001,-5.746036500000001,565
1747532737040,0.1563186735,-1.453727,0.16656908,2.78167175,-0.87910947,-5.4275225,566
1747532737050,-0.0955484114999999,-1.51644965,-0.054546795,2.4772725,-0.92038849,-5.0687945,567
1747532737060,-0.2325865549999999,-1.55476665,-0.180358315,2.052232,-0.93849799,-4.731904650000001,568
1747532737070,-0.424659595,-1.57978255,-0.29213654,1.2298478,-0.925981135,-4.101001950000001,569
1747532737080,-0.54986095,-1.5880805,-0.34680536,0.6530071,-0.90920323,-3.6575856,570
1747532737090,-0.61368194,-1.61053375,-0.322277605,0.1326254199999999,-0.921986415,-3.19765755,571
1747532737100,-0.711792965,-1.6505591,-0.2826183,-0.64927868,-0.92757903,-2.43839025,572
1747532737110,-0.746083,-1.6681312,-0.26748675,-0.9108011,-0.92038846,-2.139051,573
1747532737120,-0.9131402,-1.6909506,-0.21635675,-1.45648285,-0.7752462,-1.2620721,574
1747532737130,-0.9725681,-1.6915607,-0.19719826,-1.6207999,-0.7052051,-0.9395633,575
1747532737140,-1.1609803,-1.6135844499999998,0.0145214029999999,-2.03332355,-0.369380465,1.1249193,576
1747532737150,-1.12608015,-1.568922,0.124347168,-2.0034962,-0.26152243,2.0506342,577
1747532737160,-1.016986575,-1.51291085,0.222824265,-1.86261495,-0.18375812,2.97049,578
1747532737170,-0.95011485,-1.4811834,0.26236153,-1.7672738,-0.15393071,3.422162,579
1747532737180,-0.5950116,-1.3745304,0.25796852,-1.2948289,-0.14594123,5.0173955,580
1747532737190,-0.35632357,-1.3474401,0.20940112,-0.99229378,-0.099868543,6.1130201500000005,581
1747532737200,-0.102992155,-1.3323085,0.15839316,-0.92518216,-0.08575379,6.378271,582
1747532737210,0.2072046,-1.325719,0.1210524,-0.8341021,-0.10546118,6.7553744,583
1747532737220,0.74437463,-1.2647047,0.006833603,-0.74941355,-0.12250541,6.984939,584
1747532737230,1.11705005,-1.1586617499999998,-0.1054327375,-0.80747048,-0.501206935,6.88294,585
1747532737240,1.1973449,-1.125592,-0.1342315,-0.8586032,-0.60507023,6.795322,586
1747532737250,1.2449360500000002,-1.08007535,-0.17913803,-1.07325395,-0.676975565,6.710101,587
1747532737260,1.38319445,-1.02064745,-0.1930492899999999,-1.64716515,-0.62078285,6.8557760000000005,588
1747532737270,1.4738617,-1.0067362,-0.16205402,-2.0064256,-0.4926848,7.086672,589
1747532737280,1.6522676,-0.9894081,-0.06662763,-2.2775354,-0.35313517,7.3604445,590
1747532737290,1.85300465,-0.993068915,0.087372496,-2.5435852,0.09214538,7.8595215,591
1747532737300,1.9406212,-1.03358245,0.1824327949999999,-2.6658243,0.5510080350000001,8.2898885,592
1747532737310,2.30536475,-1.1499978,0.29811593,-2.7917919,1.137702385,8.970592,593
1747532737320,2.6353302,-1.2349297,0.36755022,-2.8639636,1.4674017,9.410013,594
1747532737330,3.1673748,-1.1949043,0.48201308,-2.7425234,1.4146712,9.3945675,595
1747532737340,3.73468605,-1.02735897,0.65114475,-2.05968875,0.7105313799999999,8.74635375,596
1747532737350,3.8316987,-0.91997379,0.7277787,-1.5022892,0.14514228,8.4158555,597
1747532737360,3.74151955,-0.94608792,0.70398312,-0.6162555025,-0.40373522,8.464058999999999,598
1747532737370,3.6606147,-1.0089327,0.65968674,-0.029827405,-0.664725,8.635567,599
1747532737380,3.7287066,-1.1642751,0.532899,0.6415555,-0.52517536,9.375659,600
1747532737390,3.88112055,-1.26360635,0.454556615,0.9715212,-0.320910915,9.826532,601
1747532737400,3.9786215,-1.3125398,0.41587353,1.1110709,-0.20186761,10.023606,602
1747532737410,4.67479445,-1.33035605,0.205374175,1.28337735,0.3142530085,10.148508,603
1747532737420,4.7984095,-1.3071706,0.174745,1.2852416,0.5885586,10.028399,604
1747532737430,4.865159,-1.058964425,0.1391126349999999,1.16593195,0.7978831,9.3160035,605
1747532737440,4.6757705000000005,-0.79965356,0.112754448,1.06819395,0.8684568500000001,8.7657945,606
1747532737450,4.3220096,-0.413799075,-0.032947727,0.70413982,0.97684745,7.8893485,607
1747532737460,4.00790795,-0.0517401375,-0.221359925,0.12303804,1.1315771,6.87548315,608
1747532737470,3.9085767,0.067359805,-0.28335047,-0.15126756,1.2037488,6.4629593,609
1747532737480,3.74518035,0.2014692525,-0.329355255,-0.48309743,1.29189945,6.0032978,610
1747532737490,3.0324113500000003,0.633816675,-0.402572415,-2.0897825,1.61627255,4.12470415,611
1747532737500,2.58529845,0.68262815,-0.268096895,-3.2802156,1.8772623,2.9095036,612
1747532737510,2.19297635,0.6417485300000001,-0.0505198565,-3.9579902,2.0602214,2.2077606,613
1747532737520,2.0683851,0.61722076,0.047103047,-4.3542686,2.2365227,1.6266588,614
1747532737530,1.6475084999999998,0.5544981,0.339361605,-4.4954158500000005,2.35210385,0.9552759,615
1747532737540,1.36562235,0.5358277,0.502513865,-4.36598635,2.3361249,0.630636575,616
1747532737550,1.04639545,0.5448578,0.66615423,-3.87037205,2.09244565,0.339819365,617
1747532737560,0.79477245,0.5624299150000001,0.7951385049999999,-3.14039955,1.69563465,0.139549645,618
1747532737570,0.6556598,0.596231815,0.838580725,-2.799515,1.5142734,0.09427591,619
1747532737580,0.532532915,0.63942995,0.82698798,-1.9523635,1.0492855,0.112918035,620
1747532737590,0.471518605,0.683360275,0.72753465,-1.2825784,0.59734705,0.18535602,621
1747532737600,0.48750434,0.729365075,0.61368197,-0.7486146,0.20240025,0.255663475,622
1747532737610,0.5577928350000001,0.763044975,0.55303375,-0.52304485,0.0330231999999999,0.27031087,623
1747532737620,0.59794027,0.77781045,0.5293602,-0.3597930649999999,-0.044208474,0.24927189,624
1747532737630,0.71826045,0.8079515100000001,0.49043305,-0.2495382,-0.02556634675,0.207460255,625
1747532737640,0.9016695,0.825889675,0.464562985,-0.166447575,0.20479708725,0.025300035,626
1747532737650,1.1263242,0.84114328,0.433689725,-0.12277173,0.50866376,-0.28069719,627
1747532737660,1.2124764,0.84517026,0.41904628,-0.12037488,0.6135923,-0.42983422,628
1747532737670,1.334505,0.84883106,0.39781332,-0.10918961,0.8165252,-0.8032094,629
1747532737680,1.41418975,0.811002225,0.3324059649999999,-0.110787505,1.045557075,-1.33770585,630
1747532737690,1.5379268,0.742178125,0.28701133,-0.10759171,1.1925636000000002,-1.8642129,631
1747532737700,1.6673991,0.68262815,0.255527945,-0.072171666,1.2953616,-2.4045682,632
1747532737710,1.6932691,0.6662763,0.24064046,-0.048469532,1.3156016,-2.5885925,633
1747532737720,1.7101091,0.63979605,0.2312442499999999,-0.0189084435,1.30361735,-2.77607915,634
1747532737730,2.0236006,0.44247579,0.266388495,0.170974945,1.23410885,-3.2866072,635
1747532737740,2.3174455,0.32374194,0.3125153,0.47510796,1.0708571,-3.6248287,636
1747532737750,2.54380865,0.2424708749999999,0.33338219,0.8562063,0.8388957699999999,-4.004595500000001,637
1747532737760,2.74027485,0.1588812675,0.3048275,1.144094,0.65886607,-4.2991411500000005,638
1747532737770,2.8247187,0.117635585,0.272856,1.2793826,0.5704491,-4.4517403,639
1747532737780,3.1163671,0.00268463,0.150583328,1.4942997,0.24447819,-5.027782,640
1747532737790,3.44938325,-0.161199815,0.076756006,1.5323829,-0.13289174,-5.842176650000001,641
1747532737800,3.6728177,-0.2877435,0.034168016,1.5281218,-0.3850931,-6.4400563,642
1747532737810,3.82474315,-0.5025138849999999,-0.018792407,1.31347105,-0.4972121899999999,-7.0959928,643
1747532737820,3.8556163,-0.57451075,-0.03441207,1.2149341,-0.49215218,-7.2810826,644
1747532737830,3.94006025,-0.7994095000000001,-0.0397813315,0.7962851799999999,-0.28495824,-7.610781899999999,645
1747532737840,3.9630015,-0.9913605,0.0750475985,0.4511395099999999,0.04021373,-7.74926615,646
1747532737850,3.92993165,-1.138405,0.259920965,0.25699506,0.34754253,-7.788681,647
1747532737860,3.8476845,-1.1880707,0.423683375,0.3552657,0.44181843,-7.7370157,648
1747532737870,3.71516155,-1.2139408,0.588055915,0.4495416,0.4596616,-7.7039924,649
1747532737880,3.457193,-1.223581,0.71142685,1.144094,0.24394556,-7.5322187,650
1747532737890,3.18250645,-1.219554,0.7347343,1.8540927,-0.07563377,-7.3378079,651
1747532737900,2.9792068,-1.2023480000000002,0.672743785,2.5201493,-0.417849965,-7.13647295,652
1747532737910,2.76272805,-1.1735493,0.5764632350000001,2.85144665,-0.65407237,-6.9945266,653
1747532737920,2.5674822,-1.1401135,0.47847424,3.08713635,-0.90014847,-6.84698735,654
1747532737930,2.3960321,-1.11131475,0.3948846299999999,3.241067,-1.15581195,-6.707704,655
1747532737940,2.131108,-1.0810516,0.27749309,3.29965665,-1.4950987,-6.4901238,656
1747532737950,1.8472693,-1.0496902,0.159613443,3.3001893,-1.7049558,-6.3383236,657
1747532737960,1.64860665,-1.0249184,0.079562666,3.09725645,-1.8213359,-6.09810635,658
1747532737970,1.5558649,-1.0143019,0.040269446,3.0029805,-1.8386464,-6.0139503,659
1747532737980,1.19319585,-0.94450155,-0.0102504045,2.38858915,-1.84210855,-5.5505605,660
1747532737990,1.07592635,-0.926807375,0.0096402605,2.1571605500000004,-1.82905905,-5.3755908,661
1747532738000,1.0216236,-0.92229235,0.022209208,2.0469058,-1.8178738,-5.2927666,662
1747532738010,0.863596555,-0.89581215,0.0424659605,1.7488978999999998,-1.75475685,-5.044027,663
1747532738020,0.81295466,-0.8854397,0.047347106,1.6522251,-1.7337179,-4.958806,664
1747532738030,0.64187056,-0.88324314,0.093717985,1.2703278,-1.6772588,-4.632835,665
1747532738040,0.56767714,-0.882511,0.12690976,1.1456919,-1.6543556,-4.5060687,666
1747532738050,0.519475845,-0.8943478149999999,0.134963665,0.976581165,-1.66420945,-4.3380232,667
1747532738060,0.50593066,-0.90130347,0.13374338,0.91985583,-1.6698021,-4.2919507,668
1747532738070,0.324962225,-0.96671075,0.10982576,0.57311229,-1.4940334000000002,-4.07250595,669
1747532738080,0.29506522,-0.9896521,0.105676785,0.49215218,-1.4370418,-4.0309606,670
1747532738090,0.23405088,-1.0455412,0.09811102,0.32011196,-1.2911005,-3.9585228,671
1747532738100,0.13740423,-1.1138773,0.08005078,0.108124346,-1.077515,-3.8258972,672
1747532738110,-0.0102504045,-1.1992973,0.048567392,-0.07243799,-0.928378,-3.6618466,673
1747532738120,-0.27310005,-1.3489044,0.010738519,-0.46019423,-0.8042747,-3.1313448,674
1747532738130,-0.4535804,-1.4446968999999998,0.020134723,-0.704139795,-0.794953625,-2.4983115,675
1747532738140,-0.60245533,-1.479353,0.029286869,-0.83117257,-0.75607145,-1.95529295,676
1747532738150,-0.74352041,-1.4939964,0.043930305,-0.9273127,-0.69428611,-1.30974268,677
1747532738160,-0.80294836,-1.4987555,0.054668825,-0.9683254,-0.66206187,-0.96140116,678
1747532738170,-0.92546505,-1.4772785,0.13276714,-0.9502159,-0.59867865,0.61412495,679
1747532738180,-0.8761655500000001,-1.4533609,0.169497755,-0.75926724,-0.55500277,2.06208565,680
1747532738190,-0.8432178,-1.4462832,0.17523311,-0.69668293,-0.525708,2.4719462,681
1747532738200,-0.63454884,-1.3960074,0.138746545,-0.5222459,-0.28842035,4.023237399999999,682
1747532738210,-0.4172158499999999,-1.3764829,0.0850539479999999,-0.483097435,-0.118776988,5.129781,683
1747532738220,-0.32606047,-1.3750186,0.064919226,-0.49321744,-0.070307456,5.480786,684
1747532738230,0.1354517675,-1.3999124,0.031483386,-0.568318615,-0.121706465,6.343916,685
1747532738240,0.45602096,-1.3900280500000002,0.0010982584999999,-0.5848302000000001,-0.200536035,6.731139799999999,686
1747532738250,0.8765316,-1.3127839,-0.0987211545,-0.711064,-0.405865765,6.9947928,687
1747532738260,1.2372482,-1.22431315,-0.190486675,-0.94915065,-0.613326015,7.1322118,688
1747532738270,1.3276714,-1.2002735,-0.20842488,-1.0599382,-0.6578008,7.1591096,689
1747532738280,1.5884466000000002,-1.09459675,-0.21379414,-1.42692175,-0.68363345,7.37722275,690
1747532738290,1.74647365,-1.0576221,-0.21586863,-1.6745957,-0.69295453,7.635549299999999,691
1747532738300,2.007859,-1.0987457,-0.233196705,-2.1102889,-0.65247448,8.18655715,692
1747532738310,2.3325771,-1.1733052000000002,-0.2391761,-2.4197483,-0.6002765,8.579107,693
1747532738320,2.4708354,-1.1992973,-0.23185438,-2.7537086,-0.4910869,8.9285145,694
1747532738330,2.8942748,-1.2288282,-0.152535787,-3.21869655,-0.34674358,9.287774,695
1747532738340,3.202153,-1.31522445,-0.069434289,-3.44346735,-0.263120325,9.425193,696
1747532738350,3.364329,-1.3877095,-0.016351834,-3.5515916,-0.21145499,9.490973,697
1747532738360,3.4975843,-1.5551327499999998,0.1040904139999999,-3.9984702,0.511859575,9.9743375,698
1747532738370,3.5410266,-1.619808,0.14960709,-4.0671797,0.6823019,10.090185,699
1747532738380,3.7368826,-1.833358,0.33130771,-4.11724715,0.944623265,10.436928,700
1747532738390,4.0082741,-1.9740571,0.41318892,-3.9952745,0.845021035,10.745322000000002,701
1747532738400,4.38253595,-2.06399215,0.43783872,-3.81631,0.596281795,10.9301455,702
1747532738410,4.66039515,-2.02457685,0.42356135,-3.67702665,0.398408905,10.806841,703
1747532738420,4.8237913500000005,-1.9230491,0.43491,-3.52176425,0.2322276449999999,10.4867295,704
1747532738430,4.8961545,-1.77844515,0.49189739,-3.3025861,0.0527305899999999,10.020943,705
1747532738440,4.7491102,-1.39661755,0.54705432,-2.80723825,-0.169643365,9.18257975,706
1747532738450,4.46697995,-0.954629875,0.54510185,-2.28659025,-0.37310888,8.322378749999999,707
1747532738460,4.236223750000001,-0.65504965,0.48237915,-2.03518775,-0.524376425,7.725564,708
1747532738470,4.126032,-0.50446635,0.44223174,-1.9398465,-0.60293967,7.411577,709
1747532738480,3.72040855,-0.0485673899999999,0.24845028,-2.12360475,-0.6141249550000001,6.2235414,710
1747532738490,3.30111835,0.228193525,0.24247088,-2.74092545,-0.029827385,4.97744825,711
1747532738500,2.877313,0.377556565,0.38133945,-3.3446641,0.85434209,3.85971935,712
1747532738510,2.55906225,0.394762605,0.55462008,-3.5084486,1.226652,3.503122,713
1747532738520,2.19968795,0.38085134,0.7496218299999999,-3.6226982,2.30656385,2.5571674,714
1747532738530,1.8277448,0.347293465,0.92290248,-3.5851476,2.62854,2.2732744,715
1747532738540,1.32706135,0.2911603,1.0395618,-2.769155,3.1499870000000003,1.6767263,716
1747532738550,0.86847775,0.2340509049999999,1.06738435,-1.8607507,3.08660375,1.5978967000000002,717
1747532738560,0.59269304,0.19890666,1.00319735,-1.4705976,2.9379995,1.6841831,718
1747532738570,0.45223808,0.18279888,0.9581688,-0.86179894,2.5310683,2.0181434,719
1747532738580,0.29994637,0.17889395,0.8561529,-0.31638354,2.027731,2.438923,720
1747532738590,0.26187342,0.17596528,0.7668279,0.15978967,1.4855113,2.855974,721
1747532738600,0.6699371199999999,0.356201545,0.45943779,0.938498,0.3153182799999999,3.0562438,722
1747532738610,0.7479134000000001,0.45272618,0.313369515,1.38271325,-0.54435015,2.8863340500000003,723
1747532738620,0.7734174,0.4971446,0.23819989,1.4748586,-0.809601,2.7814054,724
1747532738630,0.82125262,0.5404648000000001,0.018182265,1.38005015,-1.3243900000000002,2.4296019,725
1747532738640,0.856640905,0.5663348500000001,-0.07565775,0.940095925,-1.4357101,2.1393173,726
1747532738650,0.936935785,0.57841565,-0.095792475,0.421844715,-1.33451,1.89004545,727
1747532738660,1.0460294,0.5477865,-0.07089863,0.0436758399999999,-1.0777813,1.7089504999999998,728
1747532738670,1.1065556,0.5266756,-0.05662128,-0.1470065,-0.9177253,1.6122777,729
1747532738680,1.3032657,0.442597805,0.0112266325,-0.70973245,-0.2404834405,1.27139315,730
1747532738690,1.5086399,0.37255338,0.154366218,-1.13450665,0.4298342094999999,0.8245146999999999,731
1747532738700,1.6461661,0.33460248,0.26699865,-1.3768543,0.8527442,0.5022722,732
1747532738710,1.9566069,0.27822526,0.466759485,-1.2887036,1.1992214,-0.2772350585,733
1747532738720,2.3018258,0.20183534,0.6169766999999999,-0.8008125150000001,1.2173309,-1.22052675,734
1747532738730,2.6232492,0.1216625349999999,0.71142688,-0.1725728399999999,1.050617015,-2.13452365,735
1747532738740,2.7468643000000004,0.069434287,0.71643008,0.304931975,0.85274419,-2.71402755,736
1747532738750,2.8202036,-0.0036608595,0.6959292699999999,0.73236935,0.623179705,-3.24879025,737
1747532738760,2.907088,-0.1104359065,0.69080407,0.928378,0.49694586,-3.5079157,738
1747532738770,2.957974,-0.17132819,0.6977597,1.28897,0.2396845,-4.0458746,739
1747532738780,3.2815938,-0.58183247,0.7385172,2.047971,0.007989483,-5.268798,740
1747532738790,3.5385859,-0.99953648,0.692634435,2.73320235,-0.0548611205,-6.460296250000001,741
1747532738800,3.6296194,-1.1463369,0.66847277,2.924151,-0.09267801,-6.805442,742
1747532738810,3.7875245,-1.3842927,0.592571,3.246926,-0.18695392,-7.4547205,743
1747532738820,4.0645294,-1.8768003,0.38853914,3.4578483,-0.25406557,-8.015582,744
1747532738830,4.216089,-2.14343275,0.224288615,3.3366746,-0.2857572,-8.9221225,745
1747532738840,4.2740526,-2.2433741,0.174012815,3.0621027,-0.327835145,-9.1082775,746
1747532738850,4.31066125,-2.3092697,0.21538052,2.7694212,-0.43409528,-9.2084125,747
1747532738860,4.3292095,-2.3318451,0.3924440449999999,2.5236114,-0.7360977550000001,-9.318135,748
1747532738870,4.3000445,-2.3131746,0.581344375,2.4469124,-1.037833935,-9.4315855,749
1747532738880,4.219139500000001,-2.27778625,0.67359803,2.5481126,-1.1230551,-9.4960335,750
1747532738890,4.0995515000000005,-2.2279986000000003,0.699346065,2.6780748,-1.08470555,-9.542905,751
1747532738900,3.9547037,-2.17223155,0.625640735,2.7521107,-0.936367475,-9.5911085,752
1747532738910,3.78471795,-2.1200032,0.5003173350000001,2.72601175,-0.7366303750000001,-9.6659435,753
1747532738920,3.6930745,-2.094011,0.43930307,2.6871295,-0.6332997,-9.710951,754
1747532738930,3.05962375,-2.0453218,0.254307645,2.2660838,-0.16245283,-10.04437825,755
1747532738940,2.71501485,-2.0542298,0.27627281,2.1289310500000003,-0.0852211575,-10.140252,756
1747532738950,2.19529495,-2.0559382,0.2866452499999999,2.05329725,-0.0873516875,-10.099506,757
1747532738960,1.7081566,-2.05898895,0.26272763,1.9707392,-0.0162452835,-9.722136,758
1747532738970,1.5458585,-2.0617955,0.25479576,1.9110844,0.036218993,-9.398295,759
1747532738980,1.08324805,-1.93561805,0.243569135,1.8293254,-0.0759000967499999,-8.530104999999999,760
1747532738990,0.89288345,-1.85800785,0.242226825,1.7797906,-0.20453078,-7.865646499999999,761
1747532739000,0.678235125,-1.75416145,0.264436035,1.7409084,-0.28149614,-6.8184915,762
1747532739010,0.53765815,-1.6786258,0.2860351,1.7267936,-0.29294774,-6.111422,763
1747532739020,0.4699322449999999,-1.5905211,0.284692795,1.6591494,-0.224770795,-5.3990265,764
1747532739030,0.541074925,-1.6209062,0.27810325,1.63731145,-0.193611815,-5.12232415,765
1747532739040,0.5850052299999999,-1.662762,0.236247415,1.60961455,-0.23196134,-5.03923365,766
1747532739050,0.44259782,-1.7433009,0.130448595,1.478587,-0.47111322,-5.0416305,767
1747532739060,0.231000185,-1.8530047,0.006223461,1.2436962,-0.7696536,-4.988633650000001,768
1747532739070,0.15766099,-1.8963249,-0.041001618,1.1211908,-0.871919,-4.9369683,769
1747532739080,-0.1122663295,-1.95575275,-0.12825208,0.56831859,-1.0325076000000002,-4.569452,770
1747532739090,-0.31068486,-1.97845015,-0.1675452949999999,0.1549959749999999,-1.0247844000000002,-4.208327199999999,771
1747532739100,-0.41465324,-1.990531,-0.18523945,-0.03195793,-0.9965549,-4.0240364,772
1747532739110,-1.00502772,-1.94538035,-0.115072995,-0.8452873249999999,-0.32703619,-2.60084315,773
1747532739120,-1.21467285,-1.87850855,-0.0506418785,-1.031974925,0.0543284899999999,-1.85728855,774
1747532739130,-1.3100992,-1.842388,-0.018060237,-1.1009508,0.24341293,-1.4668691,775
1747532739140,-1.3934449,-1.67679535,0.11397473,-0.9829728,0.78749675,0.1432780599999999,776
1747532739150,-1.3038758499999998,-1.5486653,0.13630597,-0.7291735500000001,1.04928545,1.26473518,777
1747532739160,-1.163909,-1.4444528,0.0552789651,-0.5251754,1.09216235,1.97047285,778
1747532739170,-1.0775127,-1.3938109,-0.0026846298,-0.43303,1.0924287,2.3366575,779
1747532739180,-0.74974385,-1.2485969,-0.1105579375,-0.3043993299999999,0.90494215,2.91243305,780
1747532739190,-0.6604189,-1.1971008,-0.14228538,-0.1866875999999999,0.5890912500000001,3.300722,781
1747532739200,-0.401596205,-1.0566458,-0.26797486,-0.080427465,0.248206615,3.68927715,782
1747532739210,-0.37194324,-1.0470055,-0.29067218,-0.038882153,0.079628518,4.00512805,783
1747532739220,-0.25040275,-1.0687267,-0.33753118,-0.027696876,0.013315806,4.171043,784
1747532739230,0.0201347249999999,-1.1004542000000002,-0.39476259,-0.0719053524999999,0.063915866,4.6506784,785
1747532739240,0.170351955,-1.13535435,-0.408185735,-0.169643365,0.3129214349999999,5.3028865,786
1747532739250,0.265656315,-1.17598985,-0.41050426,-0.285224555,0.594417575,6.09544335,787
1747532739260,0.32386398,-1.1902672,-0.4085518,-0.32863408,0.680704,6.395848,788
1747532739270,0.6452873699999999,-1.24347165,-0.352174615,-0.388555215,0.84741787,7.349792199999999,789
1747532739280,0.89373762,-1.31925145,-0.30836635,-0.378967825,0.95500957,8.0094572,790
1747532739290,1.32791545,-1.4947286,-0.270049365,-0.369913075,1.2580773,9.098956,791
1747532739300,1.86459735,-1.68545935,-0.257480415,-0.4103931349999999,1.654622,10.21295625,792
1747532739310,2.4521651,-1.7609951499999998,-0.293112775,-0.537692235,1.948635,10.88966575,793
1747532739320,3.14418945,-1.7591647,-0.3458291249999999,-0.723847175,2.15130155,11.322962,794
1747532739330,3.68916945,-1.6765512,-0.3475375149999999,-0.91879055,2.22587005,11.464376,795
1747532739340,4.0382935,-1.5917413,-0.16803341,-1.01146855,2.17127525,11.2963305,796
1747532739350,4.13969935,-1.6093135,0.0776101999999999,-0.8607336700000001,2.0732709,10.965033,797
1747532739360,3.98569895,-1.7184071,0.12446919,-0.71585774,2.040514,10.825217,798
1747532739370,3.8727002,-1.7845466,0.08395569,-0.4660532,2.0053604,10.744257,799
1747532739380,3.6681805,-1.944404,-0.08664032,-0.4788364,1.9627497,10.857708,800
1747532739390,3.84085095,-2.2691222,-0.325084255,-1.547563,1.76354525,11.055847,801
1747532739400,4.0018067,-2.392249,-0.37682438,-2.2700787,1.6634104,11.023356,802
1747532739410,4.19314775,-2.3611319,-0.00903012,-2.9265478,1.32572165,10.399378,803
1747532739420,4.2351255,-2.3287942,0.15619664,-3.03121,1.1914983,10.133861,804
1747532739430,4.1601996,-2.1755261,0.5269196,-2.8346686,0.77924097,9.517073,805
1747532739440,3.871357900000001,-1.8528825,0.7909895,-1.74064205,-0.0972053649999999,8.7239835,806
1747532739450,3.4641484,-1.41858275,1.0163764,-0.246875025,-1.2516857,7.692807249999999,807
1747532739460,3.22338605,-1.1890469,0.8854397350000001,0.452204755,-1.76248,7.22355825,808
1747532739470,3.1009915,-1.0711672,0.79318607,0.75154406,-1.9952403,6.992396,809
1747532739480,2.7970182,-0.709474385,0.600136775,0.92278533,-2.16834575,6.198774,810
1747532739490,2.4205598000000004,-0.249304475,0.42990684,1.039964425,-2.21841325,5.1343085,811
1747532739500,2.2774202,-0.065285314,0.492629565,0.956341175,-1.92226975,4.5926215,812
1747532739510,2.1470937,0.095548416,0.5660907900000001,0.9299759,-1.5528892,4.05359765,813
1747532739520,2.0874217,0.17084008,0.59964865,0.9331717,-1.3566142,3.7854173,814
1747532739530,2.0066388,0.29726174,0.59232694,1.07032448,-0.59148809,2.6671558500000003,815
1747532739540,1.70791255,0.54558999,0.40489096,1.18537305,-0.08415589,1.778459,816
1747532739550,1.5546447,0.6146582,0.308610395,1.24129945,0.11105382,1.219727815,817
1747532739560,1.3847809,0.64126045,0.221848045,1.26100685,0.15552861,0.823183115,818
1747532739570,1.15195025,0.617464875,0.0964026135,1.20188465,0.0146473849999999,0.4681837399999999,819
1747532739580,1.0108851,0.58964235,0.015375607,1.1414309,-0.12410331,0.28229508,820
1747532739590,1.0108851,0.58964235,0.015375607,1.1414309,-0.12410331,0.28229508,821
1747532739600,0.8983747,0.5720702,0.084687866,1.1259845,-0.7451525,0.024501082,822
1747532739610,0.94804037,0.5605995,0.18475134,1.3819143,-1.5566176500000002,-0.308660385,823
1747532739620,0.99355704,0.5435155,0.22258021,1.5531555,-1.9723371,-0.5070659,824
1747532739630,1.09557305,0.457241275,0.186947855,1.67832415,-2.3529029,-0.8178567999999999,825
1747532739640,1.1560992,0.411480525,0.182188735,1.69163995,-2.511361,-1.010936,826
1747532739650,1.185142,0.3909797,0.18987654,1.65595355,-2.5995116,-1.16593195,827
1747532739660,1.2363939,0.3392396,0.19304928,1.57179765,-2.6280074,-1.27432255,828
1747532739670,1.5030266,0.1040904199999999,0.22794947,1.3856427,-2.6189526,-1.3976269,829
1747532739680,1.71560035,0.0046370864999999,0.24149465,1.1949604,-2.63759475,-1.5867114,830
1747532739690,1.9717384,-0.0735832635,0.286157135,1.10121715,-2.7502465000000003,-1.9313244,831
1747532739700,2.229951,-0.16974182,0.348025635,1.04023075,-2.9281456500000003,-2.4032365,832
1747532739710,2.51891485,-0.3476595449999999,0.460169925,0.92172008,-3.2743566,-3.12628485,833
1747532739720,2.6799927,-0.46614933,0.54083085,0.82877576,-3.5244274,-3.6139097,834
1747532739730,2.97737635,-0.71313525,0.71533179,0.660197645,-3.72682775,-4.303402,835
1747532739740,3.16176165,-0.8988628000000001,0.8213746550000001,0.520381665,-3.7111151,-4.74255725,836
1747532739750,3.4850155000000003,-1.1784304,1.01735263,0.37550571,-3.6045886,-5.19715905,837
1747532739760,3.83157685,-1.4782548,1.19746695,0.274039275,-3.12495325,-6.0658823,838
1747532739770,4.040856,-1.7282914,1.2598235,0.2687129649999999,-2.5174862,-6.99399385,839
1747532739780,4.2354915,-1.9968764,1.29045265,0.3470099,-2.13106145,-7.57988935,840
1747532739790,4.400840199999999,-2.25069605,1.28898835,0.456998435,-1.8184064,-8.1572625,841
1747532739800,4.4788165,-2.57382775,1.24493605,0.586694385,-1.64103995,-8.700547,842
1747532739810,4.465393300000001,-2.8403381000000003,1.19636865,0.7755125,-1.727859,-9.2643385,843
1747532739820,4.446723,-2.9069657,1.1858741,0.8948221,-1.8604844,-9.571934,844
1747532739830,4.3898578,-2.93539845,1.2590913,1.07884655,-2.0221382,-9.793242500000002,845
1747532739840,4.2512333,-2.9789628,1.3745303999999998,1.449026,-2.2991069,-10.2499745,846
1747532739850,4.169474,-2.9940944,1.4167523,1.635181,-2.4144218,-10.485398,847
1747532739860,3.4049646,-2.6797485,1.2390786,2.0154804,-2.5723473,-10.5447865,848
1747532739870,3.4037444,-2.6370386,0.95926697,2.1017668,-2.4405208,-10.317086,849
1747532739880,3.18531325,-2.561381,0.7885489450000001,1.8077538,-2.0005667,-10.401242,850
1747532739890,2.79945865,-2.3502714,0.74425259,1.2892363,-1.30921,-10.347446,851
1747532739900,2.51623025,-2.2017625,0.7163080150000001,0.99096228,-0.8599347350000001,-10.124806,852
1747532739910,2.1512427,-2.09071635,0.6655441,0.669252395,-0.230097125,-9.7162775,853
1747532739920,1.8992535,-2.0200617,0.6343048,0.48309743,0.18375812,-9.432917,854
1747532739930,1.49985385,-1.84482875,0.7187486000000001,0.462058455,0.33928673,-8.9306445,855
1747532739940,1.26140995,-1.7301218500000002,0.78623045,0.64608288,0.36831517,-8.441954500000001,856
1747532739950,1.0345587,-1.6390885000000002,0.852736035,0.93476955,0.39814257,-7.97084125,857
1747532739960,0.9418169,-1.6093135,0.87982637,1.0610034,0.40746364,-7.8115845,858
1747532739970,0.8117344,-1.5714846,0.9061846,1.5134745,0.36245623,-7.328753199999999,859
1747532739980,0.655171665,-1.54390615,0.8640847,1.8074875,0.34168358,-7.0179622,860
1747532739990,0.54022073,-1.51986655,0.789769275,2.06341725,0.36831519,-6.64938065,861
1747532740000,0.41489735,-1.52242915,0.59025246,2.16728055,0.57044913,-6.16202235,862
1747532740010,0.30543765,-1.543296,0.365719795,2.05489515,0.84901578,-5.7894462,863
1747532740020,0.2613853,-1.547567,0.29506522,1.9568908,0.9571401,-5.690643,864
1747532740030,0.14106509,-1.5487872,0.16400647,1.6431705,1.1659319,-5.465872,865
1747532740040,0.024161667,-1.5429299,0.05662128,0.853010515,1.4639397,-4.9284461,866
1747532740050,-0.1932933299999999,-1.55830555,-0.0324596145,0.295877205,1.57898825,-4.5036718,867
1747532740060,-0.28249625,-1.56977625,-0.0314833855,-0.0263652949999999,1.62479465,-4.15453125,868
1747532740070,-0.33094162,-1.5785623,-0.028798755,-0.18961707,1.6564863,-3.9457395,869
1747532740080,-0.49092117,-1.6001613,0.0361204726999999,-0.411991025,1.7294568,-3.3611757,870
1747532740090,-0.6419926,-1.5557429,0.096402615,-0.40400155,1.67832415,-2.6671559,871
1747532740100,-0.78086113,-1.5074195499999998,0.1247132575,-0.31318775,1.59043985,-1.87273495,872
1747532740110,-0.8542003499999999,-1.47276345,0.1093376475,-0.23196133,1.56087875,-1.24342995,873
1747532740120,-0.8917852,-1.4497001,0.09640261,-0.19441076,1.5611451,-0.9155948,874
1747532740130,-0.93888825,-1.4101628,0.06711575,-0.12783173,1.6437031,-0.21038973,875
1747532740140,-0.971957975,-1.3723338,-0.0701664602499999,-0.1073253925,1.86181595,1.382713225,876
1747532740150,-0.96341595,-1.3520771,-0.19085277,-0.195742345,1.9869845,2.62108315,877
1747532740160,-0.927905625,-1.34597575,-0.25455171,-0.333427775,2.04184555,3.37875255,878
1747532740170,-0.9132622,-1.342559,-0.28115395,-0.40906155,2.0698087,3.7571878,879
1747532740180,-0.8479768750000001,-1.3567142,-0.3385074,-0.675644,2.07966255,4.8882323,880
1747532740190,-0.683482275,-1.3697713,-0.36083865,-0.95474325,2.05303095,5.94337685,881
1747532740200,-0.45992586,-1.4006444999999998,-0.401352165,-1.2719257,2.0056267,6.9455242,882
1747532740210,-0.36755022,-1.4213893,-0.42685616,-1.4045511,1.9824572,7.2603097,883
1747532740220,-0.19671014,-1.4728855,-0.4656612,-1.7172064,2.0176108,7.861652,884
1747532740230,0.154610268,-1.69473345,-0.38841711,-2.50736615,2.19551005,9.5279915,885
1747532740240,0.500195335,-1.8998636,-0.269927315,-2.994192,2.1829932,10.751714,886
1747532740250,0.9105776,-2.0904724,-0.181456555,-3.2128376000000003,1.9837887,11.471566500000002,887
1747532740260,1.4167523,-2.28169135,-0.08920292,-3.3017872500000003,1.72173365,12.0265695,888
1747532740270,1.90450075,-2.4531416,-0.0129350334999999,-3.2647693,1.50575135,12.4436205,889
1747532740280,2.3151271,-2.62446965,0.0505198515,-3.13027965,1.38484385,12.784505,890
1747532740290,2.9760341,-2.82276605,0.24051843,-2.5872611,1.167263535,13.178653,891
1747532740300,3.7255338,-2.94394055,0.4506517049999999,-1.78405165,0.782969385,13.3704005,892
1747532740310,4.2243868,-2.92685655,0.53741403,-1.01732755,0.378168885,13.139238,893
1747532740320,4.61975965,-2.86974715,0.5764632000000001,-0.1131843499999999,-0.01384844,12.618057,894
1747532740330,4.789623499999999,-2.74442375,0.40635531,0.86872315,-0.397343655,11.8332235,895
1747532740340,4.62220035,-2.66071215,0.04588276,2.01334975,-0.94915063,10.59299,896
1747532740350,4.2988245,-2.7101337,-0.31556602,2.6892601,-1.4183996,9.63425175,897
1747532740360,4.130913,-2.7478404,-0.49470404,2.55610215,-1.5723303,9.48085375,898
1747532740370,3.8424375,-2.8669405,-0.8947139,2.3947146,-1.6138756,9.495768,899
1747532740380,4.07099685,-2.72489915,-0.778664645,0.534762755,-1.0378339,9.8313255,900
1747532740390,4.183995250000001,-2.48328245,-0.562063855,-0.0506000649999999,-0.680970315,9.5977665,901
1747532740400,4.222678200000001,-2.17589235,-0.32032514,-0.4671184699999999,-0.336889885,9.126919999999998,902
1747532740410,4.1675212,-1.81249115,-0.0904232075,-0.7201188000000001,-0.034354778,8.464058999999999,903
1747532740420,4.111144,-1.61151,0.020012695,-0.8090684,0.103863284,8.094412,904
1747532740430,3.51906135,-0.70093244,0.16473864,-1.11053815,0.46019424,5.9204735500000005,905
1747532740440,3.2548695,-0.376458325,0.172914555,-1.30335105,0.4769721649999999,4.8879659,906
1747532740450,2.97481385,-0.0924977,0.22489875,-1.46314075,0.454601605,3.87703,907
1747532740460,2.826427,0.0388051,0.27041543,-1.5121429,0.43729106,3.4445326,908
1747532740470,2.28474185,0.3470494,0.515692965,-1.4897723,0.38722363,2.716957,909
1747532740480,1.93647225,0.401352155,0.59818432,-0.98323905,0.29507826,1.5462314,910
1747532740490,1.75940875,0.457607365,0.67408612,-0.61492391,0.27936561,1.2394352,911
1747532740500,1.6800901,0.4893348,0.7065457,-0.40852892,0.26844665,1.103614,912
1747532740510,1.568556,0.56596875,0.7192367,0.4735100375,0.243679245,0.58429755,913
1747532740520,1.4631232,0.6919023,0.5183776,0.89535475,0.24820662,0.3073288,914
1747532740530,1.4558015000000002,0.717650335,0.43112713,0.982440125,0.27004454,0.1621865155,915
1747532740540,1.4484798,0.77756643,0.18938842,1.1084076,0.3334278,-0.29667616,916
1747532740550,1.3974718,0.8308929,-0.006833604,0.910801135,0.306529835,-0.735565085,917
1747532740560,1.3716017,0.8429737,-0.0622346,0.80800307,0.27696875,-0.8633968,918
1747532740570,1.3286476,0.79538256,-0.102259986,0.25672874,-0.041012682,-1.222391,919
1747532740580,1.41065085,0.75901803,0.055767087,0.1318264795,-0.248472931,-1.4269218,920
1747532740590,1.5068094,0.720456985,0.314467765,0.006924219,-0.45593318,-1.6314526,921
1747532740600,1.5553768,0.653341265,0.536681885,0.326769865,-0.7297061499999999,-2.07087415,922
1747532740610,1.6265195,0.54705435,0.6704252749999999,0.7547399,-0.87618,-2.4538367,923
1747532740620,1.6632501,0.50568664,0.68262815,1.0498182,-0.9491506,-2.711098,924
1747532740630,1.90840565,0.3929321799999999,0.6842145,1.42851965,-0.8322378500000001,-3.2051144000000003,925
1747532740640,2.1170746,0.30922053,0.6784791299999999,1.66500835,-0.7443535299999999,-3.6320192,926
1747532740650,2.39078485,0.122272683,0.627715225,1.87166965,-0.69055768,-4.10606195,927
1747532740660,2.6148294,-0.098355067,0.554376025,1.9648803,-0.6743124,-4.3473444,928
1747532740670,2.6751115,-0.1803583,0.5261874,2.102832,-0.6194513,-5.400891,929
1747532740680,2.9039151,-0.44918737,0.563284125,1.9840551,-0.7384946050000001,-6.05522945,930
1747532740690,3.11868545,-0.6236882850000001,0.6620052750000001,1.94117815,-0.871918985,-6.48825935,931
1747532740700,3.59423085,-0.953043535,0.82271698,1.9933761,-1.1057445,-7.20784545,932
1747532740710,3.940304,-1.1873385,0.92863786,2.0506341,-1.2650015,-7.7093186,933
1747532740720,4.40608765,-1.51254475,1.11741615,2.1502364,-1.3789848,-8.228103,934
1747532740730,4.663323849999999,-1.6813104,1.2604337,2.325206,-1.4463628,-9.0310455,935
1747532740740,4.787671,-1.7638018,1.3391421,2.394182,-1.454086,-9.301889,936
1747532740750,4.97047,-1.9282963,1.513643,2.6636937,-1.3784522,-10.008692,937
1747532740760,5.14716715,-2.3458782,1.83592055,3.58168545,-1.1334414000000002,-11.3019235,938
1747532740770,4.98962835,-2.44411135,1.77612655,3.9239016,-1.0162623,-11.520569,939
1747532740780,4.767780200000001,-2.4912144,1.6537319,4.1974082500000005,-0.9406285,-11.52163425,940
1747532740790,4.2794217,-2.2659496,1.3417047,4.3071305,-1.0889666,-10.95198375,941
1747532740800,3.86440255,-2.04544385,1.08690895,4.19953885,-1.34010275,-10.159693,942
1747532740810,3.6584182,-1.9711284,0.99477735,3.97716485,-1.4935008,-9.5887115,943
1747532740820,3.5031977,-1.8748478,0.912286,3.849333,-1.567004,-9.289106,944
1747532740830,3.1382101,-1.7041297,0.7717090200000001,3.6069853,-1.6325178,-8.848619,945
1747532740840,2.7632161,-1.6426273,0.648094,3.2218924,-1.38297955,-8.4419545,946
1747532740850,2.3735788,-1.58014865,0.531678715,2.7968519,-1.1566109,-8.133028,947
1747532740860,2.127203,-1.568678,0.456509065,2.345446,-1.01493072,-7.849933699999999,948
1747532740870,1.87960685,-1.5507398,0.414775265,2.04291085,-0.99176122,-7.6499302,949
1747532740880,1.5429299,-1.51278885,0.42905264,1.76381165,-0.99389175,-7.406251149999999,950
1747532740890,1.22028625,-1.4734956499999998,0.49555825,1.45701545,-0.91985585,-6.92208865,951
1747532740900,1.1160738,-1.457998,0.54034275,1.2825783,-0.8410263,-6.572682,952
1747532740910,0.881290735,-1.4185827999999998,0.642846765,1.32305845,-0.6250439299999999,-6.1223410000000005,953
1747532740920,0.8078295,-1.4113832,0.6660322,1.3646038,-0.53316486,-5.984123,954
1747532740930,0.63540307,-1.4554353999999998,0.6175869,1.5552861,-0.239151865,-5.733786,955
1747532740940,0.409406055,-1.54720095,0.439303075,1.59230405,-0.019441075,-5.605687850000001,956
1747532740950,0.122272681,-1.6139506,0.236613505,1.48790815,0.1821602199999999,-5.4275222,957
1747532740960,-0.066505599,-1.62773985,0.12032022,1.2711268,0.269778215,-5.148955600000001,958
1747532740970,-0.15326795,-1.6346955,0.06858008,1.1393003,0.2977414,-4.9710565,959
1747532740980,-0.3537609699999999,-1.63994265,-0.00768780288,0.6335660000000001,0.32810145,-4.123106,960
1747532740990,-0.4683458499999999,-1.6326209,-0.00536925905,0.320644585,0.259391885,-3.3611756,961
1747532741000,-0.547298375,-1.63823425,0.002440572435,0.080960094,0.14993597,-2.6341326,962
1747532741010,-0.603919655,-1.64592205,-0.011348662015,-0.026098981,0.09241169,-2.1816615,963
1747532741020,-0.64187056,-1.6461661,-0.023673553,-0.07563378,0.07456851,-1.952097,964
1747532741030,-0.75169635,-1.6367699,-0.079562664,-0.2412823949999999,0.078296935,-1.196291985,965
1747532741040,-0.7897693,-1.6315227,-0.099575356,-0.30146983,0.08468852,-0.92997587,966
1747532741050,-0.931566525,-1.5546446,-0.158515175,-0.6799050200000001,0.219178155,0.846618925,967
1747532741060,-0.94193891,-1.51010415,-0.16425053,-0.75793564,0.27377295,1.206412,968
1747532741070,-0.922902465,-1.46885845,-0.15277985,-0.9166601,0.4149205,1.9526298,969
1747532741080,-0.83064888,-1.415654,-0.1358178649999999,-1.196292,0.5834986,3.4567833,970
1747532741090,-0.6811638,-1.3745304,-0.12581151,-1.4357102,0.66525765,4.5321677000000005,971
1747532741100,-0.5388784,-1.3720898,-0.1156831399999999,-1.634382,0.7137272,5.1771852,972
1747532741110,-0.391101735,-1.38453675,-0.090545242,-1.8253306,0.7600662,5.7585535,973
1747532741120,-0.31751847,-1.3918585,-0.073949344,-1.9148128,0.7781757,6.032593,974
1747532741130,0.03673062,-1.4234639,-0.008542004,-2.1033647,0.7888283,6.6174226,975
1747532741140,0.303851285,-1.4394496,0.0131790915,-2.3148197,0.82424838,7.471498499999999,976
1747532741150,0.487748415,-1.4655637,0.0125689485,-2.39604605,0.8277104799999999,7.73009135,977
1747532741160,0.5879339,-1.4855764,0.017572122,-2.44904295,0.81039995,7.9692437,978
1747532741170,0.7812273,-1.5277983,0.06760386,-2.4612935,0.8026768,8.085358,979
1747532741180,1.090935835,-1.62615345,0.113486615,-2.3395871,0.5406217,8.929846,980
1747532741190,1.34133855,-1.66471455,0.109459675,-2.24637635,0.204530771,9.327722,981
1747532741200,1.7207256,-1.6996147,0.1032362169999999,-2.11641415,-0.113450669,9.6491655,982
1747532741210,2.19236625,-1.79821385,0.0558891095,-1.9789951,-0.272707705,9.86408225,983
1747532741220,2.4361794,-1.8755801,0.011958805,-1.9089539,-0.32277513,9.9655485,984
1747532741230,2.4361794,-1.8755801,0.011958805,-1.8253306,-0.267914,10.203635,985
1747532741240,2.8208137,-2.06277195,0.0527163655,-1.75608845,-0.1302285745,10.8105695,986
1747532741250,3.3960567,-2.2932839,0.101893903,-1.65222515,0.0348874105,11.5171065,987
1747532741260,3.9183392,-2.3679654,0.137892345,-1.5659387,0.06737798,11.59061,988
1747532741270,4.250013,-2.3993268,0.16547081,-1.5142734,0.07243799,11.564511,989
1747532741280,4.5082254,-2.3951778,0.20134723,-1.2857742,0.29614353,10.778346,990
1747532741290,4.5995027,-2.3677214,0.231000185,-1.2466257,0.349939375,10.500312,991
1747532741300,4.797677,-2.221409,0.30214286,-1.1286477,0.46179214,9.56927,992
1747532741310,4.7600927,-2.118417,0.32581642,-1.0748519,0.4990764,8.938634,993
1747532741320,4.3937626,-1.9241474,0.38585448,-1.0301107,0.68656296,8.090684,994
1747532741330,4.2170653,-1.8077321,0.3968371,-1.07085715,0.85301052,7.75965265,995
1747532741340,3.94067035,-1.5618443,0.32996539,-1.1867046,0.96539592,7.559915549999999,996
1747532741350,3.850003,-1.4748379,0.3053156,-1.2681973,1.0242518,7.4557858,997
1747532741360,3.4842832,-1.019061,0.343266515,-1.8016285,1.1853731,6.64725015,998
1747532741370,3.299898,-0.6605409499999999,0.44027929,-2.1102889,1.17365515,5.813414549999999,999
1747532741380,3.17567285,-0.391345815,0.529726285,-2.1904501,1.1054782,4.9942262,1000
