timestamp,acc_x,acc_y,acc_z,gyro_x,gyro_y,gyro_z,id
1747533628760,0.14594623,0.016107777,0.9266854,0.22104238,0.12250541,0.072970614,1
1747533628770,0.17254847,-0.40342662,0.9715919,0.9731191,0.36591834,-0.08468852,2
1747533628780,-2.0818083,-2.2541127,1.7711234,0.588026,5.0988884,-4.221643,3
1747533628790,-2.2553332,-2.3998148,1.8877828,0.624245,4.7329698,-4.188087,4
1747533628800,-2.289989,-2.7410069,1.9463564,0.5320996100000001,4.5422876,-4.241883,5
1747533628810,-2.29755485,-2.92722265,1.9620982,0.165382305,4.0192429,-4.4738445,6
1747533628820,-2.4103093,-3.4634163,2.3170795,-0.5368933,3.2719598,-5.073322,7
1747533628830,-2.7358818,-3.7377367,2.54088,-0.7392935,2.781938,-6.160424,8
1747533628840,-2.8635237,-3.6640313,2.707571,-0.70840085,2.487925,-6.7207537,9
1747533628850,-3.095134,-3.4424274,2.7307565,-0.88683265,2.1081583,-7.139935,10
1747533628860,-3.334066,-3.1966617,2.6736472,-1.3305153,1.6671388,-7.318367,11
1747533628870,-3.7013721,-2.7166011,2.596769,-2.7297401,1.0375676,-7.1623054,12
1747533628880,-3.6803832,-2.6565633,2.6077516,-3.5441349,0.78776306,-6.9844065,13
1747533628890,-3.5114956,-2.669742,2.6455805,-3.991546,0.65034395,-7.1250215,14
1747533628900,-3.461952,-2.6421638,2.6792605,-4.153466,0.56618804,-7.3631077,15
1747533628910,-3.4143608,-2.5811496,2.7175775,-4.0533314,0.5550028,-7.522365,16
1747533628920,-3.150535,-2.3256216,2.6358182,-3.7795582,0.5581986,-7.5335503,17
1747533628930,-2.9216092,-2.1877291,2.5164742,-3.099387,0.25992453,-7.3375416,18
1747533628940,-2.8287455,-2.11890495,2.43825385,-2.9523805000000003,0.1541970309999999,-7.294131999999999,19
1747533628950,-2.6481433,-1.9585594,2.289623,-2.68180325,-0.0575242839999999,-7.1849425,20
1747533628960,-2.2355645,-1.4999758,1.8150537,-2.43279765,-0.314253015,-6.930877000000001,21
1747533628970,-2.1203694,-1.3679409,1.4907017,-2.5459821,-0.42663842,-6.648848,22
1747533628980,-2.0749748,-1.244936,1.2866699,-2.9534457,-0.42557314,-6.5934544,23
1747533628990,-2.046176,-1.2173575,1.147069,-3.5494611,-0.48842376,-6.6706862,24
1747533629000,-2.0454438,-1.2100358,1.0853225,-4.206197,-0.73769563,-6.9013157,25
1747533629010,-2.08913,-1.1687901,1.0418804,-5.012335500000001,-0.91319797,-7.3367425,26
1747533629020,-2.242398,-0.9410847,1.0152781,-5.25708,-0.86179894,-7.484548,27
1747533629030,-2.293406,-0.80514485,0.97744924,-5.10528,-0.4612595,-7.4419374,28
1747533629040,-2.30207,-0.759628175,0.9546299,-4.8900965,-0.11717909,-7.409446949999999,29
1747533629050,-2.32464525,-0.697515635,0.91985175,-4.2908854,0.6679208,-7.3322153,30
1747533629060,-2.4620495,-0.5357057,1.0762925,-3.4072483,0.8314389,-7.0451264,31
1747533629070,-2.4395962,-0.44101146,1.1824573,-2.8565066,0.6045376,-6.8757496,32
1747533629080,-2.4054282,-0.32996538,1.1534146,-2.3233418,0.32650355,-6.679741,33
1747533629090,-2.3896866,-0.2923805699999999,1.1053353,-2.1084247,0.18002969,-6.5630945,34
1747533629100,-2.3092697,-0.17328064,0.9405966,-1.5952336,-0.28016454,-6.2019696,35
1747533629110,-2.3034123500000003,-0.1165373335,0.8660371499999999,-1.52412715,-0.381630985,-6.0791978,36
1747533629120,-2.4969497,0.119588055,0.40318257,-1.8700718,-0.33449304,-5.293832,37
1747533629130,-2.4283698,0.14130914,0.34290043,-2.3446472,-0.35952675,-5.1739893,38
1747533629140,-2.271685,0.12202863,0.38805103,-2.8421257,-0.6279734,-5.245895,39
1747533629150,-2.246059,0.15741692,0.46078008,-3.2458608,-0.83250415,-5.3348446,40
1747533629160,-2.2542348,0.200126945,0.521672365,-3.3550504,-0.8681905249999999,-5.3292518,41
1747533629170,-1.9846735,0.33582276,0.7492558,-3.4956653,-0.81918836,-5.232579,42
1747533629180,-1.8743596,0.36730617,0.7919658,-3.4013894,-1.0167949,-5.289038,43
1747533629190,-1.8550792,0.46761367,0.737541,-3.2698293,-1.1883025,-5.2395034,44
1747533629200,-1.79016,0.60721445,0.60819066,-3.123888,-1.1062771,-5.0072756,45
1747533629210,-1.6598334,0.80294836,0.45736328,-3.0652986,-0.87138635,-4.7207193,46
1747533629220,-1.223703,1.1863623,0.36632994,-3.0887344,-0.6114618,-4.397412,47
1747533629230,-1.0262607,1.462147,0.3829258,-3.3145704,-0.19228023,-3.9446743,48
1747533629240,-0.77659017,1.8389714,0.3333822,-3.4064494,-0.160854935,-3.8663774,49
1747533629250,-0.61136341,1.9833312,0.37108905,-3.5718317,-0.184823385,-3.74600245,50
1747533629260,-0.0622346,2.4244647,0.5789038,-3.6096487,-0.5699165,-3.746535,51
1747533629270,0.13374338,3.2689025,0.7494998,-2.0516994,-0.69029135,-2.9358687,52
1747533629280,0.31898284,3.6047254,0.88007045,-0.79735047,-0.360592,-2.283927,53
1747533629290,0.7065457,3.6862407,0.88226694,0.40959418,-0.23595607,-1.7827201,54
1747533629300,1.0047837,3.888564,0.4249037,1.7694043,-0.45060685,-0.99762017,55
1747533629310,0.93778998,4.025602,0.293112775,1.9686087,-0.5704491,-0.34674358,56
1747533629320,0.78464407,4.3098073,-0.17645338,1.8130801,-0.6423545,0.49375007,57
1747533629330,0.73632073,4.296384,-0.44833317,1.355549,-0.7366304,1.4375744,58
1747533629340,0.753648785,4.24293525,-0.462000385,1.1161308,-0.7763115,1.8927087,59
1747533629350,0.85786122,3.9133357,-0.297505798,0.78962725,-0.79708415,2.9571742,60
1747533629360,1.0374874,3.3189347,0.05662128,1.0652645,-0.7526093,3.647998,61
1747533629370,1.0313859,3.0760975,0.25772443,1.7433053,-0.6428871,3.594735,62
1747533629380,0.96622264,2.928931,0.42954078,2.6045716,-0.5363607,3.5233622,63
1747533629390,0.35095432,2.8974476,0.46639338,4.0922136,-0.773382,3.9111185,64
1747533629400,0.03465613,2.8962274,0.44003522,4.570517,-1.0945592,4.535363,65
1747533629410,-0.31825066,2.8254507,0.37291947,4.850682,-1.5052186,5.3854446,66
1747533629420,-0.6550496,2.6277645,0.26480213,5.0019493,-1.995773,6.55617,67
1747533629430,-0.9813542,2.298043,0.191829,5.096758,-2.2349248,7.415306,68
1747533629440,-1.5400012,1.6259093,0.23307467,5.5478973,-1.8700718,8.608402,69
1747533629450,-1.7628256,1.2600676,0.33509058,5.7039585,-1.6455673000000002,8.7037435,70
1747533629460,-1.909748,1.1006982,0.378288715,6.1503043,-0.94329166,8.851282,71
1747533629470,-2.4273934,0.67506236,0.5095915,6.3138223,-0.49215218,8.866196,72
1747533629480,-3.12076,0.4217309,0.7197248,6.3122244,-0.120907515,8.930645,73
1747533629490,-3.401914,0.3277689,0.9618296,6.0560284,0.4282363,9.320531,74
1747533629500,-3.6078982,0.20866893,1.261776,5.936719,0.535828,9.652894,75
1747533629510,-3.7211409,0.099819414,1.4894813,5.92100625,0.52624062,9.735452,76
1747533629520,-3.8097336,-0.020744866,1.6918048,5.969742,0.43782368,9.819608,77
1747533629530,-3.8924692,-0.16742326,1.6647146,5.9271317,0.30839407,9.23105,78
1747533629540,-3.6654959,-0.21940747,1.32157,5.347095,0.63649553,8.747419,79
1747533629550,-3.4204624,-0.12983845,1.1456047,4.8879660000000005,0.8519452650000001,8.5245125,80
1747533629560,-3.3355303,0.064919226,1.061405,3.89753635,1.2279836,8.13915315,81
1747533629570,-3.3953242,0.191829,1.0653099,2.278068,1.5403724,7.8009315,82
1747533629580,-3.3013625,0.208913,1.2244352,1.117995,1.470065,7.7513967,83
1747533629590,-3.25584575,0.186947845,1.28850025,0.5744438350000001,1.32945005,7.7252977,84
1747533629600,-3.2343686500000004,0.1458242,1.4518966,-0.09960223,0.8410263,7.7316895,85
1747533629610,-3.3182025,0.10860548,1.7340268,0.058589544,0.350472,7.808921,86
1747533629620,-3.2566998,0.07980672,1.8253042,0.44421527,-0.15393071,7.823835,87
1747533629630,-3.1175873,0.055645052,1.6817985,1.3997575,-0.98856544,7.7103844,88
1747533629640,-3.13015625,0.064065031,1.58881265,1.5568840000000002,-1.12545192,7.67975785,89
1747533629650,-3.1768932,0.06272271,1.2900866,1.8168086,-1.423726,7.5995965,90
1747533629660,-3.15395185,0.043076103,1.1757458,1.71587475,-1.40987755,7.59719975,91
1747533629670,-3.0543764,-0.04783522,0.8529801,1.1771172,-1.2852416,7.5841503,92
1747533629680,-2.9862845,-0.23697957,0.6794554,0.020240024,-1.0471549,7.4387417,93
1747533629690,-2.9660277500000003,-0.313369495,0.7042272,-0.2463424129999999,-1.0998855,7.3726952,94
1747533629700,-2.8198376,-0.45052966,0.76243484,-0.91186637,-1.3747238,7.0552464,95
1747533629710,-2.7768834,-0.45370242,0.7953825699999999,-1.091896,-1.5696672,6.8182254,96
1747533629720,-2.9569976,-0.44052333,1.2266316,-0.32650355,-1.722,6.696785,97
1747533629730,-3.1046524,-0.69385475,1.3537855,0.45912898,-2.0772657,6.768158,98
1747533629740,-3.1839707,-1.0218678,1.2600676,1.3486248,-2.5688853,6.8001156,99
1747533629750,-3.1698155,-1.3698933,1.0985017,2.2892532,-2.9555762,6.6669574,100
1747533629760,-3.2039835,-1.7916242,0.87982637,3.2506545,-3.0333405,6.372412,101
1747533629770,-3.4421835,-2.8608391,0.08127106,4.681837,-1.6921726,5.3646717,102
1747533629780,-3.6942947,-3.261093,-0.12495731,4.9129996,-0.28336033,4.8608017,103
1747533629790,-4.10968,-3.6000884,-0.07248501,4.786766,1.0460896,4.5641255,104
1747533629800,-4.651975,-4.066482,0.14789869,4.3191147,1.7640779,4.415521,105
1747533629810,-5.133988,-4.873091,0.43100512,3.3491914,1.448227,4.4091296,106
1747533629820,-5.205009,-6.4126043,0.6645679,1.6990968,-0.022903185,3.3417346,107
1747533629830,-5.343145,-7.0371466,0.4595598,0.81918836,-0.50120693,1.834918,108
1747533629840,-5.4385715,-7.2145762,0.49934113,0.12836437,-0.66365975,-0.007456851,109
1747533629850,-5.23576,-6.65837,0.5025139,-0.4362258,-0.7355651,-2.0570257,110
1747533629860,-5.166204,-5.7402263,0.34900185,-1.1989552,-0.6870956,-3.9201732,111
1747533629870,-5.2242894,-3.8914926,0.38194957,-2.674879,-0.22370553,-5.899967,112
1747533629880,-5.048324,-3.1271055,0.55815893,-3.089267,0.05912218,-6.182795,113
1747533629890,-4.94130485,-2.8799975,0.684336515,-3.04026485,0.086020107,-6.21049185,114
1747533629900,-4.7039592,-2.45680225,0.94254905,-2.75424135,0.072171667,-6.2919845500000005,115
1747533629910,-4.3339686,-2.0449557,1.2859375,-1.6868463,0.0,-6.5774755,116
1747533629920,-4.1462884,-1.5468348,1.3401184,0.20453078,-0.14114754,-7.0925307,117
1747533629930,-4.0740476,-1.2976524,1.1775762,0.72437984,-0.330232,-7.218765,118
1747533629940,-4.0090064000000005,-1.20613095,1.082881965,0.78563255,-0.4197142,-7.258179500000001,119
1747533629950,-3.815347,-1.0426126,0.7895252,0.6045376,-0.6295713,-7.3604445,120
1747533629960,-3.6532931,-0.95938903,0.6445552,-0.05219796,-0.59867865,-7.435546,121
1747533629970,-3.269391,-0.8066092,0.59183884,-1.4817829,-0.02130529,-7.75406,122
1747533629980,-3.1739645,-0.78488815,0.61746484,-2.3845944,0.21837921,-7.9516664,123
1747533629990,-3.1970279,-0.752794595,0.67103537,-2.8498487,0.244744505,-8.0262347,124
1747533630000,-3.2375414,-0.67603857,0.79635875,-4.167847,0.24074976,-8.187623,125
1747533630010,-3.19495345,-0.6083126999999999,0.886293885,-4.167847,0.24074976,-8.187623,126
1747533630020,-3.0874462,-0.52801786,0.923146535,-5.3534863,0.49348377,-8.4992125,127
1747533630030,-3.039977,-0.47078642,0.9418169,-6.0347233,1.1483551,-8.929047,128
1747533630040,-3.0902529,-0.38975942,1.0262607,-5.9926453,1.506284,-9.110142,129
1747533630050,-3.1685953,-0.3145898,1.189047,-5.7289925,1.8370485,-9.2097435,130
1747533630060,-3.2732959,-0.20476402,1.3323085,-5.324724,2.2066953,-9.242234,131
1747533630070,-3.589838,0.009030119,1.50022,-4.485296,2.5987127,-9.08351,132
1747533630080,-3.7711725,0.060770255,1.5038807,-4.192881,2.6152241,-8.947689,133
1747533630090,-3.82205855,0.074193405,1.5382928,-4.0772998000000005,2.5555694,-8.8520815,134
1747533630100,-3.7953343,0.16303024,1.7154784,-3.739611,2.2280006,-8.514126,135
1747533630110,-3.7333438,0.22916976,1.6681312,-3.1782165,1.3997575,-7.933557,136
1747533630120,-3.7074738,0.28042176,1.6232247,-2.9236183,1.1648667,-7.7636476,137
1747533630130,-3.5952075,0.32557237,1.5761217,-2.6876621,0.9582054,-7.6603165,138
1747533630140,-3.1737204,0.4373506,1.4050376,-2.305765,0.5832323,-7.481885,139
1747533630150,-2.9489436,0.49006698,1.2559186,-2.251969,0.4926848,-7.3503246,140
1747533630160,-2.7659009,0.5344854,1.1092402,-2.3355923,0.4016047,-7.1958613,141
1747533630170,-2.5604048,0.5374141,1.002099,-2.5454495,0.2977414,-7.0648336,142
1747533630180,-2.3505154,0.54815257,0.8973985,-2.7989824,0.18322548,-6.9620357,143
1747533630190,-2.1416023,0.58207655,0.84761083,-3.278884,0.26684874,-6.712231,144
1747533630200,-2.119149,0.6134378899999999,0.839678945,-3.3590452,0.29534456,-6.60863415,145
1747533630210,-2.0581348,0.7314396,0.8305268,-3.571299,0.39254996,-6.208361,146
1747533630220,-2.0923028,0.7905014,0.8849516,-3.6943371,0.34621096,-5.8461714,147
1747533630230,-1.86593975,0.793796175,0.88177887,-3.81338045,0.197872879,-5.54044055,148
1747533630240,-1.4904576500000002,0.780128975,0.8251575550000001,-4.0197754,0.02530003125,-5.162005349999999,149
1747533630250,-1.2498172,0.7720751,0.7122810500000001,-4.3223104,0.040480047,-4.9651976,150
1747533630260,-1.1221753,0.852614,0.623078165,-4.46931695,0.0870853685,-4.8352353,151
1747533630270,-0.9615856,1.1087521,0.5771954,-4.8608017,0.14807177,-4.404336,152
1747533630280,-0.4419877,1.3508569,0.53302103,-5.1564126,0.050600063,-3.882889,153
1747533630290,-0.25845662,1.5839316,0.6365013,-4.9161954,0.019707393,-3.6826193,154
1747533630300,-0.07907455,2.0637481,0.8073414,-4.1934137,0.099069595,-3.583017,155
1747533630310,0.26870704,2.5464933,0.9056965,-2.9726205,0.4213121,-3.5819516,156
1747533630320,0.47139657,2.73368525,0.9684192,-2.206429,0.575509135,-3.6016590500000003,157
1747533630330,0.9776934,3.7223613,0.87201655,0.043675844,0.799481,-3.6618466,158
1747533630340,1.26580295,3.99997615,0.784155925,1.197357272,0.25859296,-3.520699,159
1747533630350,1.7501346,4.8418517,0.5086153,3.0999196,-0.85966843,-2.9300098,160
1747533630360,1.8013865999999998,5.03941605,0.3479036,3.3739588,-1.051682315,-2.52787255,161
1747533630370,2.0432472,5.450774,-0.19915071,3.9121838,-1.4183996,-1.1845741,162
1747533630380,1.862889,5.562797,-0.7907455,3.7705035,-1.2085425,0.8511463,163
1747533630390,1.83225985,5.4589505,-0.8007518499999999,3.67569495,-1.11559815,1.35235325,164
1747533630400,1.7020552,4.958267,-0.7380291,3.5015242,-0.922519,2.26688275,165
1747533630410,1.4570218,4.5201845,-0.5854933,3.338539,-0.700944,3.3619747,166
1747533630420,1.1138773,4.0184026,-0.35949633,3.430684,-0.5209143,4.048005,167
1747533630430,0.23600335,3.2735398,-0.018304294,3.7193708,-0.35313517,4.974252,168
1747533630440,-0.0307512249999999,3.12356665,0.072607028,3.7760962,-0.411991035,5.266401,169
1747533630450,-0.8188121,2.7046423,0.35119838,3.973969,-0.7137272,6.1630874,170
1747533630460,-1.3014353,2.32196055,0.505930665,4.18888615,-0.89695265,6.6717512,171
1747533630470,-1.7840585,1.6061407,0.75194037,4.4038033,-1.0801781,7.180415,172
1747533630480,-2.4588768,1.3271832,0.77854264,4.701545,-1.1744541,7.9037294,173
1747533630490,-2.791771,1.0945967,0.84053314,4.598747,-1.1952267,8.345282,174
1747533630500,-3.0577934,0.9654905,0.91863143,4.4293694,-1.2681973,8.69096,175
1747533630510,-3.24889,0.86298645,1.0396838,4.28982,-1.3401027,9.03291,176
1747533630520,-3.2501104,0.6872652,1.334505,4.3265715,-1.3369069,9.512812,177
1747533630530,-3.2689025,0.6389419,1.4331042,4.432565,-1.23837,9.633719,178
1747533630540,-3.3543227,0.5696296,1.5265781,4.579039,-1.0961571,9.67846,179
1747533630550,-3.4397428,0.4046469,1.645434,4.8160605,-0.8452873,9.552759,180
1747533630560,-3.5722659,0.20476402,1.7476939,5.093562,-0.42344263,9.313074,181
1747533630570,-3.8866117,-0.065163285,2.0732663,5.464274,0.10226539,8.67072,182
1747533630580,-3.9293215,-0.059549972,2.1774788,5.514874,-0.09534117,8.4161215,183
1747533630590,-3.9293215,-0.059549972,2.1774788,5.514874,-0.09534117,8.4161215,184
1747533630600,-3.8342616,-0.0128130054999999,2.07863565,5.401422999999999,-0.55926383,8.1836275,185
1747533630610,-3.5529857,0.082491346,1.8082201,5.0392337,-0.8452873,8.049138,186
1747533630620,-3.197638,0.2550398,1.6178555,4.359062,-0.9193232,7.9063926,187
1747533630630,-3.205692,0.28725538,1.5522041,4.081028,-0.8346347,7.816378,188
1747533630640,-3.20459375,0.25296534,1.58563995,4.01311745,-0.72517877,7.7250315,189
1747533630650,-3.1796999,0.18267685,1.7027874,3.9702406,-0.548078555,7.53994175,190
1747533630660,-3.2113054,0.1461903,1.8599603,4.111921,-0.6359629,7.177752,191
1747533630670,-3.2798855,0.17816179,1.7550157,3.995807,-0.8495484,7.1702952,192
1747533630680,-3.31600595,0.212817915,1.6628841,3.86957315,-0.9137306,7.221694100000001,193
1747533630690,-3.3483434,0.27615077,1.44359865,3.55505385,-0.95128117,7.3457975,194
1747533630700,-3.265974,0.2550398,1.1277885,2.867692,-0.7318367,7.513843,195
1747533630710,-3.1947093,0.122272685,0.99184865,2.2770028,-0.47564057,7.486146,196
1747533630720,-3.1173432,-0.37218732,0.9608534,1.1531488,-0.016511599,6.8826737,197
1747533630730,-3.039977,-0.5876899,0.94816244,0.7643272,-0.0037284256,6.605172,198
1747533630740,-3.0041006,-0.72094506,0.9650024,0.42876893,-0.15499598,6.3681507,199
1747533630750,-2.99848735,-0.76487538,1.02296595,0.33049829,-0.3222425,6.29784335,200
1747533630760,-2.8461957,-0.82076454,1.3162007,0.40533313,-0.8671253,6.0954432,201
1747533630770,-2.9228296,-0.52911615,1.9390348,2.020274,-1.5084145,5.807289,202
1747533630780,-3.051936,-0.6291796,1.9246354,3.0866039,-1.9904467,6.074671,203
1747533630790,-2.9264903,-0.9825745,1.4433545,3.8727689,-2.1662152,6.302637,204
1747533630800,-2.8476598,-1.4479916,0.8236932,4.0240364,-1.5851135,6.267483,205
1747533630810,-3.2423005,-1.8809491,0.2562601,3.4413369,-0.7275756,6.0938454,206
1747533630820,-3.7029586,-2.30743915,0.138258426,1.3891048,0.9938917,5.81155,207
1747533630830,-4.6314745,-3.5647004,0.26162934,0.5075985,1.2128036,5.550028,208
1747533630840,-4.744473,-4.6368437,0.46956614,-0.027164243,0.7717841,4.9694586,209
1747533630850,-4.5687513,-5.4678583,0.40293851,-0.29028457,0.21731395,4.075169,210
1747533630860,-4.8923717,-6.603213,-0.35925224,-0.52464277,0.060720075,1.856756,211
1747533630870,-4.9426475,-6.847514,-0.09664667,-0.9901633,0.26631612,0.1571265,212
1747533630880,-4.663202,-6.664227,0.2806658,-0.6673882,0.21997711,-1.6437031,213
1747533630890,-4.735443,-5.9415736,0.366574,-0.34567833,-0.018109497,-3.4120421,214
1747533630900,-5.027335,-4.897985,0.3436326,-0.23888556,-0.0798948335,-4.0296292000000005,215
1747533630910,-5.2320995,-2.9321036,0.3392396,-0.09374327,-0.054328486,-5.264537,216
1747533630920,-4.95057945,-2.1757704,0.612217605,-0.2082592,0.25246766,-5.6405754,217
1747533630930,-4.8142734,-2.0015135,0.71874857,-0.21571605,0.28549087,-5.8253984,218
1747533630940,-4.4948025,-1.4521407,1.1888028,0.38083205,0.20772657,-6.4214144,219
1747533630950,-4.439157,-1.1529264,1.3435352,0.7866978,0.007989483,-6.563094,220
1747533630960,-4.360571,-0.9589009,1.2927712,0.9933591,-0.28336033,-6.6328692,221
1747533630970,-4.2404947,-0.8305268,1.1404796,0.9171927,-0.5832323,-6.651511,222
1747533630980,-4.0606246,-0.74486274,0.95060295,0.5949502,-0.7840346,-6.694122,223
1747533630990,-3.6315718,-0.6218578,0.72485006,-0.3834952,-0.9044095,-6.9156966,224
1747533631000,-3.4990489,-0.5868356,0.66468993,-0.3834952,-0.9044095,-6.9156966,225
1747533631010,-3.29379685,-0.498853,0.5780495999999999,-1.327585835,-0.60134178,-7.11969515,226
1747533631020,-3.1061165,-0.345341,0.5706058,-2.3425164,-0.082558,-7.2203627,227
1747533631030,-2.9650514,-0.3031191,0.6045298,-3.235741,0.2790993,-7.265104,228
1747533631040,-2.83057595,-0.35461517,0.6993460499999999,-3.889547,0.50040797,-7.408647999999999,229
1747533631050,-2.68072485,-0.42356135,0.8725046999999999,-4.758536299999999,0.78110517,-7.643006,230
1747533631060,-2.7161131000000003,-0.421120795,1.0246744,-5.087702999999999,0.863663175,-7.806524299999999,231
1747533631070,-2.7607756,-0.358032,1.1744035,-5.2874403,0.9054748,-8.021974,232
1747533631080,-2.7678533,-0.3180066,1.1670818,-5.3060822,0.98590225,-8.160459,233
1747533631090,-2.8087329,-0.27981164,1.20820545,-5.2267201,1.123055075,-8.241685,234
1747533631100,-2.953825,-0.14179726,1.3737983,-4.8245826,1.4183996,-8.285094,235
1747533631110,-3.013619,-0.04807928,1.5536685,-4.47198,1.4226607,-8.193481,236
1747533631120,-3.0619423,-0.006833603,1.6510473,-4.0900826,1.3582122,-8.069911,237
1747533631130,-3.0451021,0.033923957,1.6944895,-3.7300234,1.2090752,-7.9021316,238
1747533631140,-2.9787188,-0.016351834,1.6256653,-3.3502567,1.081776,-7.942079,239
1747533631150,-3.0856156,0.0019524579,1.6049205,-3.3310819,1.0849719,-8.000669,240
1747533631160,-3.2379074,0.084687866,1.6298143,-3.3838124,1.071656,-7.9889507,241
1747533631170,-3.2947729,0.26065314,1.7179189,-3.5345476,0.6945524,-7.8142476,242
1747533631180,-3.2125256,0.37316352,1.6632501,-3.5856802,0.4463458,-7.6448703,243
1747533631190,-3.0848835,0.4566311,1.5373166,-3.6405413,0.27483824,-7.417969,244
1747533631200,-2.8630354,0.5100796,1.4140676,-3.67116765,0.22290659,-7.309312,245
1747533631210,-2.523064,0.4790844,1.2947236,-3.781689,0.092145376,-7.131413,246
1747533631220,-2.2306833,0.41148052,1.1931958,-3.8317564,0.026631612,-7.1521854,247
1747533631230,-2.062528,0.48445365,0.99136055,-3.8290931,0.138218061,-7.1143687,248
1747533631240,-2.02958015,0.528261925,0.934373175,-3.8400119,0.339553055,-7.003315000000001,249
1747533631250,-1.9256116,0.64943635,0.8092938,-3.9318912,0.70147663,-6.6914587,250
1747533631260,-1.9146291,0.7577977,0.81466305,-3.9771647,0.91133374,-6.4033046,251
1747533631270,-1.8611807,0.98477095,0.7934301,-4.019243,1.0365024,-5.970807,252
1747533631280,-1.6461661,0.9298581,0.7082541,-4.395814,0.94968325,-5.0205913,253
1747533631290,-1.4294434,0.82149667,0.6142921,-4.6386943,0.8612663,-4.650412,254
1747533631300,-1.1238836,0.80685323,0.5954997,-4.728176,0.968858,-4.386759,255
1747533631310,-0.8161274,0.85273606,0.5342413,-4.728176,1.1297129,-4.2306976,256
1747533631320,-0.50934744,0.95426387,0.26284966,-4.938566,1.0402308,-3.981426,257
1747533631330,-0.4834774,1.1841658,0.3619369,-4.6727824,1.170193,-3.820571,258
1747533631340,-0.6377216,1.5141312,0.53814626,-4.0298953,1.2303804,-3.5718317,259
1747533631350,-0.5710939,1.8389714,0.72216535,-3.1329427,1.1653993,-3.273025,260
1747533631360,-0.20647243,2.0491047,0.7582859,-2.1715417,1.037035,-3.0029805,261
1747533631370,0.8681116,2.5342906,0.4756676,-0.608266,0.81013364,-2.863431,262
1747533631380,1.1673259,2.851565,0.34704942,-0.09054748,0.80800307,-2.7483823,263
1747533631390,1.30778075,3.0377807,0.32020311,0.09933591,0.768588305,-2.65570425,264
1747533631400,1.5846636,3.5642118,0.21550256,0.4777711,0.5454154,-2.2706113,265
1747533631410,1.671304,3.9327385,0.25479576,0.757403,0.26844665,-1.7997643,266
1747533631420,2.0561824,4.373262,0.45297024,1.8684739,-0.04580637,-0.928378,267
1747533631430,2.2033489,4.3832684,0.4978768,2.5587652,-0.30839407,-0.49534798,268
1747533631440,2.2272666,4.396447,0.532777,3.286341,-0.6593987,-0.036751624,269
1747533631450,2.0554502,4.4127994,0.5264315,3.969708,-1.077515,0.4777711,270
1747533631460,1.4016209,4.238298,-0.03465613,4.3079295,-2.0437098,2.102832,271
1747533631470,1.1526824,4.0467134,-0.30092257,4.011786,-2.2050974,3.1164312,272
1747533631480,0.79440635,3.4934354,-0.401230125,3.4418695,-2.2104237,4.1705103,273
1747533631490,0.6274712,3.2830582,-0.36706212,3.0535805,-2.18539,4.833637,274
1747533631500,0.27090356,2.9352765,-0.16620298,2.9012477,-2.1630194,5.3321815,275
1747533631510,-0.41977844,2.2790065,0.22672918,3.389139,-2.1209416,5.8733354,276
1747533631520,-1.04029395,1.99882885,0.284692775,3.7587857,-2.0628846,6.0895844,277
1747533631530,-1.2266316,1.9314691,0.2801777,4.0197754,-1.9568908,6.379869,278
1747533631540,-1.5978427,1.8431203,0.2523552,4.066647,-1.8072212,6.7761474,279
1747533631550,-2.0134723,1.7916242,0.2936009,3.9201732,-1.722,7.297594,280
1747533631560,-2.5394156,1.4199251,0.5017817,3.406183,-1.7390442,8.502408,281
1747533631570,-2.659492,1.2307807,0.59135073,3.2117724,-1.653823,8.80015,282
1747533631580,-2.8491244,1.1243718,0.6740861,3.0328078,-1.5078819,9.045693,283
1747533631590,-3.0577934,1.0592085,0.8251576,2.8996499,-1.3443637,9.242234,284
1747533631600,-3.309416,0.9725681,1.0179628,2.8597023,-1.2314457,9.345033,285
1747533631610,-3.7623863,0.76511943,1.488017,3.125486,-1.0024139,9.421199,286
1747533631620,-3.9334707,0.65968674,1.6817985,3.3428,-1.0428939,9.4744625,287
1747533631630,-4.016938,0.507395,1.8565434,3.6639771,-1.4189322,9.545835,288
1747533631640,-4.088935,0.37536004,2.0832727,4.065049,-1.9750003,9.557552,289
1747533631650,-4.19851665,0.339483635,2.1579542,4.3401535,-2.2660838,9.565808,290
1747533631660,-4.3593507,0.0065895454,2.0286038,5.584649,-3.095126,9.393502,291
1747533631670,-4.2037642,-0.0461268223,1.84653705,5.6267266,-2.936934,9.081912,292
1747533631680,-3.6828237,-0.11153416,1.2385906,5.252819,-2.4304008,8.659002,293
1747533631690,-3.57507255,-0.078220345,1.1375509,4.9220545,-2.10682675,8.441422,294
1747533631700,-3.4673214,-0.04490653,1.0365112,4.59129,-1.7832527,8.223842,295
1747533631710,-3.2814719,0.148630865,1.1576856,3.8152447,-1.1547467,7.826498,296
1747533631720,-3.1598094,0.26797485,1.5253577,2.018676,-0.22530343,6.89812,297
1747533631730,-3.167619,0.34192422,1.709377,1.9339876,-0.3355583,6.780941,298
1747533631740,-3.1920247,0.3746279,1.7728319,1.9542277,-0.52624065,6.775082,299
1747533631750,-3.2249725,0.31873876,1.8311615,2.0591562,-1.4354439,7.0003853,300
1747533631760,-3.162982,0.19256116,1.8353105,2.1603563,-2.0554278,7.040333,301
1747533631770,-3.1122181,0.041977845,1.7191393,2.2951124,-2.5891252,6.959905,302
1747533631780,-3.0931816,-0.02757847,1.2539662,2.4053671,-2.718555,6.8555093,303
1747533631790,-2.937473,-0.19353738,0.8346757,1.814678,-2.2503712,6.488526,304
1747533631800,-2.8144681,-0.24503349,0.5789038,1.1041466,-1.7949706,6.1875887,305
1747533631810,-2.8234982,-0.23136626,0.53253293,0.676975555,-1.53957345,6.13246135,306
1747533631820,-3.009958,-0.20329969,0.65968674,-0.6215818,-0.9720538,6.2371235,307
1747533631830,-3.2781768,-0.37828872,0.9081371,-1.3230585,-1.1201255,6.572682,308
1747533631840,-3.4368139,-0.76841426,1.18392175,-1.14702355,-1.7893779,6.73114,309
1747533631850,-3.60387115,-1.4014988000000002,1.4426224,-0.28682248,-2.7334685,6.81103475,310
1747533631860,-3.6130238,-2.1386735,1.0067362,2.4218788,-3.0157638,6.086921,311
1747533631870,-3.9878953,-2.5628452,0.5359497,3.7619815,-2.4405208,5.4392405,312
1747533631880,-4.25465,-2.8112955,0.3482697,4.5976815,-1.784318,4.8176584,313
1747533631890,-4.944844,-3.4848933,0.06028214,4.186489,-1.1638014,4.10766,314
1747533631900,-5.1925616,-3.9378636,-0.14106509,3.137204,-1.2378373,3.7950046,315
1747533631910,-5.3054383000000005,-4.1597118,-0.27163571,2.4495757,-1.2732573500000002,3.5910065,316
1747533631920,-5.6904387,-4.7815695,-0.6118515,0.35792887,-1.3331785,2.7846012,317
1747533631930,-5.8131995,-5.4112372,-1.0492021,-0.7882957,-1.149953,1.7752632,318
1747533631940,-5.840778,-5.3565683,-0.8505395,-2.412824,-0.082025364,-1.5494272,319
1747533631950,-5.616001,-4.9167776,-0.5593792,-2.4948494,0.18695392,-3.0850058,320
1747533631960,-5.338264,-4.2187734,-0.31532198,-2.2466428,0.3174488,-4.4496098,321
1747533631970,-5.2128186,-3.3265002,-0.051007964,-1.6676716,0.43303,-5.3790526,322
1747533631980,-4.8711386,-1.8067559,0.4288086,-0.025566347,0.2428803,-5.9020977,323
1747533631990,-4.523601,-1.4887493,0.72118914,0.94116116,-0.23702134,-5.919142,324
1747533632000,-4.2265835,-1.300093,0.71899265,1.8413097,-0.7861652,-6.012885,325
1747533632010,-4.011813,-1.1429201,0.51349646,2.438923,-1.1217234,-6.1540327,326
1747533632020,-3.61460995,-0.737541,0.01256895,1.9781961,-1.3763217,-6.4144897,327
1747533632030,-3.508079,-0.6728658,-0.04490653,1.1313108,-1.2239889,-6.5465827,328
1747533632040,-3.4075273,-0.6347929,-0.07407137,0.609064925,-1.02638233,-6.64245655,329
1747533632050,-3.23583305,-0.593547235,-0.0779762864999999,-0.4575310749999999,-0.574177545,-6.86775995,330
1747533632060,-3.1435795,-0.576219135,0.035022216,-1.5195997,-0.1211738275,-7.12741805,331
1747533632070,-3.0843954,-0.5047104,0.2860351,-2.9364014,0.33182988,-7.4563184,332
1747533632080,-2.945283,-0.4275883,0.46736962,-4.176369,0.9912286,-7.6736326,333
1747533632090,-2.8576665,-0.42075467,0.5208182,-4.5907574,1.4865766,-7.8605866,334
1747533632100,-2.775907,-0.38268176,0.5774395,-4.7798414,1.8935076,-8.080564,335
1747533632110,-2.7209942,-0.36584184,0.6355251,-4.859204,2.3451798,-8.414524,336
1747533632120,-2.8681607,-0.18304294,0.80416864,-4.699947,3.2559807,-8.958874,337
1747533632130,-3.0424178,-0.04075756,0.8690878,-4.5923553,3.632552,-8.967929,338
1747533632140,-3.1138045,-0.0071996889999999,0.9357155,-4.5345645,3.7191047,-8.9066765,339
1747533632150,-3.1851912,0.026358182,1.0023432,-4.4767737,3.8056574,-8.845424,340
1747533632160,-3.2829361,0.0328257,1.3443893,-4.152401,3.6682382,-8.690693750000001,341
1747533632170,-3.4663453,0.16473864,1.9270761,-2.8879318,2.7968519,-8.347412,342
1747533632180,-3.4412072,0.2072046,2.0090792,-2.360626,2.4144218,-8.258995,343
1747533632190,-3.429248,0.26455808,1.9710064,-1.9494339,2.0586236,-8.19508,344
1747533632200,-3.4219267,0.34192422,1.8409238,-1.7470337,1.7512947,-8.109325,345
1747533632210,-3.38202335,0.37401773,1.74696185,-1.7518274,1.6253272,-8.0526,346
1747533632220,-3.1092894,0.45687518,1.2878901,-2.3052323,1.3001553,-7.6443377,347
1747533632230,-2.877191,0.40781966,1.1687901,-2.7622306,1.2618058,-7.4866786,348
1747533632240,-2.7134285,0.37828872,1.1160738,-3.3081787,1.2538162,-7.3460636,349
1747533632250,-2.5467372,0.34241232,1.0599406,-3.7678404,1.6788568,-7.19000245,350
1747533632260,-2.3614979,0.3270367,0.9396204,-3.9143143,1.9606192,-7.1308804,351
1747533632270,-2.3380685,0.328257,0.9225364,-4.0256343,2.1294637,-7.015299,352
1747533632280,-2.2809591,0.32069123,0.92131615,-4.1774344,2.1124194,-6.8608356,353
1747533632290,-2.2314155,0.35949633,0.9193637,-4.3739758,1.8817897,-6.637663,354
1747533632300,-2.1516087,0.40489095,0.8847075,-4.569452,1.623463,-6.294115,355
1747533632310,-1.9663693,0.42148685,0.8053889,-4.713795,1.5345135,-5.9020977,356
1747533632320,-1.4433545,0.33826336,0.5623079,-4.786766,1.9259981,-5.2480254,357
1747533632330,-1.35122295,0.325084255,0.5083712499999999,-4.79155965,2.08845095,-5.1633367,358
1747533632340,-1.108508,0.31703037,0.41099238,-4.81606065,2.3411849,-4.996090150000001,359
1747533632350,-1.04566325,0.37145515,0.40147416,-4.845089,2.45010825,-4.81872365,360
1747533632360,-0.8717725,0.54912883,0.30043447,-4.8522797,2.6429212,-4.530037,361
1747533632370,-0.5054425499999999,0.7919658,0.419046295,-4.385161,3.3646379,-4.159325,362
1747533632380,-0.4651731,0.852492,0.50617474,-3.914847,3.6298885,-3.9414785,363
1747533632390,-0.30555966,0.9825745,0.7106947,-3.353985,3.5329497,-3.7401435,364
1747533632400,0.0353883,1.2251674,0.9000831,-2.44638,3.2133703,-3.635215,365
1747533632410,0.39342028,1.4416462,0.9872115,-1.6516925,2.7963192,-3.6336172,366
1747533632420,1.1141213,2.1591744,1.2439598,0.47191215,2.0772657,-3.834952,367
1747533632430,1.4738617,2.647045,1.3135161,1.6682042,1.7145431,-3.921771,368
1747533632440,2.012008,3.1854353,1.2805684,2.727077,1.4759239,-3.9718385,369
1747533632450,2.4393523,3.6464593,1.2132086,3.4967306,1.4689997,-4.0293627,370
1747533632460,2.489872,4.8669896,0.8463905,3.2783513,1.1446266,-3.3710294,371
1747533632470,2.2855961,5.4036717,0.9620737,2.420281,0.7089335,-1.788579,372
1747533632480,2.1545374,5.572315,1.189779,1.6261262,0.10546118,-0.21784659,373
1747533632490,2.0747306,5.3592534,1.3572023,1.2503541500000002,-0.37284256,0.499609005,374
1747533632500,2.0445896,5.17486785,1.4206572,0.68150293,-1.30707945,1.78991055,375
1747533632510,1.8714309,4.6063366,1.4575099,0.52624065,-2.3904533,3.171825,376
1747533632520,0.94938266,3.7145514,0.83077085,1.0519487,-3.1872714,4.072506,377
1747533632530,0.4271002,3.3955684,0.47884035,1.3102753,-3.336941,4.3729105,378
1747533632540,0.18182266,3.26695025,0.329599325,1.41733435,-3.3675673,4.53349925,379
1747533632550,-0.323253815,3.0224049,0.040635527,1.5603460999999998,-3.41284095,4.9604040000000005,380
1747533632560,-1.094962825,2.64789905,-0.244789423,1.52492605,-3.5113779,5.76494485,381
1747533632570,-2.0100555,2.1054819,-0.34802565,1.4769892,-3.6804886,6.876815,382
1747533632580,-2.3800464,1.7928444,-0.26797485,1.8860507,-3.9542618,7.8584557,383
1747533632590,-2.56589595,1.37623875,-0.1932933299999999,2.0746025,-3.95000065,7.9945431,384
1747533632600,-2.8635237,0.6357691,-0.00707766,2.705239,-3.7795582,8.270181,385
1747533632610,-2.96419725,0.51178804,0.096036525,2.9606362500000003,-3.6786244,8.293350499999999,386
1747533632620,-3.2415683,0.15375607,0.51740134,4.011786,-3.365703,8.244615,387
1747533632630,-3.325768,-0.11153416,0.916435,4.740427,-3.2144356,8.026768,388
1747533632640,-3.171524,-0.41514137,1.4182167,5.4485615,-3.15877545,7.6094505,389
1747533632650,-3.0548646,-0.3900035,1.3899059,6.502374,-3.0381343,6.8059745,390
1747533632660,-2.9062338,-0.21525851,1.1773322,6.40437,-2.8522456,6.532202,391
1747533632670,-2.7634604,0.05296042,0.9545079,5.908489,-2.5933864,6.400109,392
1747533632680,-2.4417927,0.35754386,1.1111927,5.57479515,-2.46715245,6.3862605,393
1747533632690,-2.3561287,0.401230115,1.22004225,4.698349,-2.0735372,6.3380572,394
1747533632700,-2.1047497,0.51642513,1.4897255,3.9896817,-1.63997465,6.2469772,395
1747533632710,-2.0264072,0.60184515,1.4887493,3.581419,-1.0743192,6.0698767,396
1747533632720,-2.097672,0.71996886,1.5273103,3.3161683,-0.7344999,5.9809275,397
1747533632730,-2.327574,0.899595,1.743545,3.090865,-0.54275227,6.005961,398
1747533632740,-2.38004625,0.9086251,1.77966545,2.93240685,-0.562459635,6.19025185,399
1747533632750,-2.4613173,0.9008153,1.81603005,2.6620958,-0.78296936,6.60677,400
1747533632760,-2.5233078,0.8166155,1.7486702,2.5710158,-1.0450244,6.8650966,401
1747533632770,-2.5516186,0.7541369,1.683263,2.5225463,-1.2650015,7.1031833,402
1747533632780,-2.6701083,0.664323825,1.632621,2.4517062,-1.5654061,7.548464,403
1747533632790,-2.945283,0.43442193,1.6808223,2.4767399,-1.6716662,7.6264945,404
1747533632800,-3.02094055,0.372919485,1.7553818,2.582201,-1.9060244,7.7593863,405
1747533632810,-3.2430327,0.16522676,1.8816814,2.8772793,-2.3036344,7.8387485,406
1747533632820,-3.3694544,0.038561042,1.854591,3.1127028,-2.5614283,7.81478,407
1747533632830,-3.5183294,-0.13569583,1.5580615,3.2655683,-2.8362665,7.7806916,408
1747533632840,-3.52357665,-0.157172865,1.45104235,3.20804395,-2.75637175,7.8187748,409
1747533632850,-3.5413927000000003,-0.23758973,1.2825208,2.9973879,-2.4889905,7.902398,410
1747533632860,-3.6525607,-0.50666285,1.312784,2.5976474,-2.2546322,7.968711,411
1747533632870,-3.594963,-1.1648853,1.7633137,3.246926,-2.7047064,7.518104,412
1747533632880,-3.684776,-1.4514085,2.1308637,4.59129,-2.9273467,7.1916003,413
1747533632890,-3.76897595,-1.6217605000000002,2.1857766,5.3971625,-3.0940606500000003,7.05498015,414
1747533632900,-3.86977175,-1.98113475,2.1152441,6.873352499999999,-3.4365432,6.7774788,415
1747533632910,-3.951775,-2.4671748,1.5104704,8.608402,-3.419499,6.227536,416
1747533632920,-4.5497155,-2.7568707,0.5017817,8.285094,-0.5075985,5.617672,417
1747533632930,-4.65685655,-2.89817985,0.4335677,7.497331000000001,0.30786145,5.4983623,418
1747533632940,-5.0508868,-3.286719,0.34509695,5.49756335,1.609881,5.2711947,419
1747533632950,-5.5953783,-3.8734325,0.40611126,2.9915288,2.29031865,5.00860715,420
1747533632960,-6.0679953,-4.6411145000000005,0.57902581,0.5699164800000001,2.50816515,4.5809035,421
1747533632970,-6.471666,-6.569777,1.2808125,-2.6056368,1.8056233,1.8998991,422
1747533632980,-6.1138783,-6.6224933,1.5949141,-2.036253,1.3592775,-0.06018744,423
1747533632990,-5.9861143,-6.355494650000001,1.7140140499999998,-1.342233225,1.19522675,-1.13077822,424
1747533633000,-5.811735,-5.0761466,1.8792408,0.902279,0.7185209,-3.9265647,425
1747533633010,-5.761215,-3.845366,2.0017576,2.5672874,-0.06870956,-5.1707935,426
1747533633020,-5.3011675,-2.2060335,2.0317764,4.0251017,-2.1140172,-5.503156,427
1747533633030,-4.8323336,-1.7677068,1.7196274,3.9824913,-2.7696877,-5.560148,428
1747533633040,-4.629766,-1.6348175500000002,1.5750235,3.552657,-2.9150963,-5.791843,429
1747533633050,-4.306756200000001,-1.3480501500000002,1.29643215,3.18274385,-2.8234835,-5.95882325,430
1747533633060,-3.994485,-0.6213697,0.81295466,0.32011196,-2.1134846,-6.352172,431
1747533633070,-3.8026562,-0.520086,0.8439499,-1.1163971,-1.8977686,-6.343117,432
1747533633080,-3.65622175,-0.50312402,0.93901025,-1.8192054,-1.7776600500000002,-6.3966466,433
1747533633090,-3.3906873500000003,-0.48372148,1.1304732,-2.86449615,-1.5686019,-6.52873945,434
1747533633100,-3.133451,-0.44394013,1.3572023,-3.5707664,-1.3502227,-6.7649617,435
1747533633110,-3.0748773,-0.37121108,1.4418901,-3.7486656,-1.3225259,-6.857107,436
1747533633120,-2.8242304,-0.3077562,1.5190123,-3.781689,-1.3827133,-7.106379,437
1747533633130,-2.7705379,-0.2489384,1.4855764,-3.7167077,-1.3651364,-7.3449984,438
1747533633140,-2.78505935,-0.1892664,1.4406699,-3.70925085,-1.3406353,-7.4635092,439
1747533633150,-2.8230102,0.0036608586,1.2715383,-3.8258972,-1.2362394,-7.8051925,440
1747533633160,-2.9123352,0.17547716,1.0714114,-4.1715755,-0.9534117,-8.060856,441
1747533633170,-3.1776254,0.53936654,0.87250465,-5.0003514,-0.14327806,-8.270181,442
1747533633180,-3.2840343,0.6557818,0.8851956,-5.4706655,0.19441076,-8.240886,443
1747533633190,-3.2896478,0.6628595,0.89813066,-5.905826,0.48363006,-8.217982,444
1747533633200,-3.2496223,0.6067263,1.0252845,-6.1614895,0.83889574,-8.285627,445
1747533633210,-3.2981894,0.571338,1.2363939,-6.114618,1.2090752,-8.38949,446
1747533633220,-3.4765956,0.6723777,1.6869236,-5.235775,1.653823,-8.483767,447
1747533633230,-3.5651884,0.77854264,1.8780205,-4.508732,1.5281218,-8.474178,448
1747533633240,-3.6440187,0.8983747,2.0276275,-3.9627838,1.1749867,-8.407067,449
1747533633250,-3.7130868,1.0091767,2.042027,-3.74200775,0.89508845,-8.3149215,450
1747533633260,-3.5329726,1.1077759,1.7640458,-3.0882018,-0.30466563,-7.7412767,451
1747533633270,-3.3147855,1.108264,1.5434179,-3.1664987,-0.5496765,-7.590009,452
1747533633280,-3.1683512,1.1204668,1.274955,-3.4850128,-0.6823019,-7.4616446,453
1747533633290,-3.035828,1.1514622,0.97378844,-3.75106255,-0.64235447,-7.3884079,454
1747533633300,-2.848148,1.1260802,0.76219076,-4.676511,-0.38029942,-7.1410003,455
1747533633310,-2.5955489,1.0206474,0.6257628,-5.4829164,0.06551377,-6.944459,456
1747533633320,-2.1628354,0.81783587,0.55669457,-6.3228774,1.0578076,-6.8453894,457
1747533633330,-2.0942552,0.7390053,0.6233222,-6.5268755,1.520665,-6.806507,458
1747533633340,-2.0754628,0.7010544,0.6793333500000001,-6.5380607,1.8253306,-6.768158,459
1747533633350,-2.0266514,0.6294237,0.8573731,-6.35377,1.959554,-6.7239494,460
1747533633360,-2.0769272,0.6718896,0.946454,-5.9995694,2.0559604,-6.5977154,461
1747533633370,-1.9314691,0.9127741,1.056768,-4.9449577,1.9425098,-5.945241,462
1747533633380,-1.75696815,0.899717,0.995753615,-4.3404202,1.8642128,-5.5633435,463
1747533633390,-1.38966195,0.8627423249999999,0.832601315,-4.3404202,1.8642128,-5.5633435,464
1747533633400,-0.69434285,1.0284572,0.5008055,-3.4722295,1.6106799,-5.1319118,465
1747533633410,-0.42807645,1.1407236,0.47932845,-3.1521175,1.5733956,-4.952947,466
1747533633420,-0.0370967,1.3935668,0.52252656,-2.6093652,1.6389093,-4.851747,467
1747533633430,0.33020946,1.7169427,0.5723142,-1.8295918,1.8098843,-4.754808,468
1747533633440,0.7824476,2.3895645,0.6274712,-0.18056233,2.1454427,-4.4730453,469
1747533633450,0.92595315,2.7673652,0.70923036,0.5230448,1.8184065,-4.1241713,470
1747533633460,1.070313025,2.9739597,0.71191498,0.72038505,1.5683356000000002,-3.94973425,471
1747533633470,1.5956463,3.5922785,0.6020892,1.3001553,0.9464875,-3.4775558,472
1747533633480,2.0010254,3.9864311,0.45370242,1.6698021,0.92038846,-3.1260185,473
1747533633490,2.1660081,4.26990355,0.4330795699999999,1.8338528,0.94196008,-2.48472935,474
1747533633500,2.40689265,4.5870560000000005,0.54022069,2.0578245500000003,0.864728435,-1.4900387,475
1747533633510,2.47888955,4.5924253,0.80648713,2.1177456,0.76592517,-1.1366372,476
1747533633520,2.3866358,4.5248213,1.1919756,2.7435887,-0.103863284,0.13156016,477
1747533633530,1.7828381,4.441842,1.2151611,3.2495892,-0.63915867,0.7637946,478
1747533633540,1.5053451,4.276371,0.9449896,3.717773,-2.0122845,2.6322684,479
1747533633550,1.351467,4.1769178,0.76682785,3.5851475,-2.21548375,3.0575752,480
1747533633560,1.04407688,3.9396943,0.43759465,3.2405344,-2.51322515,3.87010575,481
1747533633570,0.5276518,3.4634163,0.13838045,2.6312032,-2.644519,4.9204564,482
1747533633580,-0.32630453,2.6502175,0.21916342,2.3888555,-2.5577,5.845106,483
1747533633590,-0.56011139,2.48242825,0.23014599,2.45703245,-2.4578314,6.0214073,484
1747533633600,-1.050910525,2.15795415,0.22087181,2.5960495,-2.1475732,6.5583005,485
1747533633610,-1.854591,1.6564165,0.1867038,2.4873924,-2.0596888,7.0232887,486
1747533633620,-2.2692444,1.3840486,0.22843759,2.2951124,-2.1081583,7.3881416,487
1747533633630,-2.8327725,0.856641,0.38658667,1.8077538,-2.1459754,8.015582,488
1747533633640,-2.90940655,0.7466932,0.444184185,1.67832415,-2.20509745,8.1042655,489
1747533633650,-3.0470548,0.53070249,0.6150242699999999,1.45914595,-2.37127865,8.240886,490
1747533633660,-3.1961737,0.31703037,1.0003906,1.3592775,-2.7712855,8.339423,491
1747533633670,-3.3086839,0.27187976,1.2505494,1.536644,-3.0913975,8.367652,492
1747533633680,-3.5014894,0.0370967,1.6422611,2.420281,-3.9302933,8.616391,493
1747533633690,-3.4579251,-0.0641870549999999,1.74183645,2.7459855,-4.1148504,8.5878955,494
1747533633700,-3.3499298,-0.2779812,1.9036466,3.8035266,-4.505536,8.277104,495
1747533633710,-3.3013625,-0.30360723,1.7540395,4.363856,-4.416054,7.887218,496
1747533633720,-3.0997713,-0.064919226,1.2476206,4.57318,-4.117247,7.512778,497
1747533633730,-3.0143511,0.12813005,1.1507299,4.126302,-3.3827472,7.0632358,498
1747533633740,-2.9555333,0.268463,1.1704986,3.7401435,-3.0541131,6.970558,499
1747533633750,-2.87231,0.33020946,1.2224828,3.3939326,-2.8293424,6.9449916,500
1747533633760,-2.7763953,0.340948,1.3030217,3.1308122,-2.6828685,6.940198,501
1747533633770,-2.6099484,0.3436326,1.3232784,3.0407975,-2.5017736,6.951383,502
1747533633780,-2.5296533,0.32606047,1.2983845,3.0679617,-2.427205,6.9247518,503
1747533633790,-2.5169624,0.325450335,1.30314365,3.0991206,-2.3957797,6.89732125,504
1747533633800,-2.6790166,0.33313814,1.3969837,3.2501218,-2.3206787,6.8640313,505
1747533633810,-3.036072,0.32239962,1.7030314,3.802994,-2.5331988,7.0888023,506
1747533633820,-3.1529756,0.27846932,1.7489142,4.182228,-2.672216,7.223026,507
1747533633830,-3.2518187,0.21306199,1.607117,4.433098,-2.6935213,7.3668365,508
1747533633840,-3.2558457,0.158393155,1.46214695,4.3524042000000005,-2.60004425,7.39693025,509
1747533633850,-3.21411195,0.0524723031,1.22516735,4.0322922,-2.3718112500000004,7.38894065,510
1747533633860,-3.2469375,-0.21721096,1.347684,3.2613072,-2.0064256,7.12875,511
1747533633870,-3.3921516,-0.2933568,1.5587937,2.6668897,-1.6831179,6.772419,512
1747533633880,-3.448041,-0.473227,1.7720996,2.6434538,-2.014415,6.7148943,513
1747533633890,-3.49697425,-0.563284115,1.8211551,2.77741075,-2.25889325,6.6834691500000005,514
1747533633900,-3.6259587,-0.8305268,1.8438525,3.16649855,-2.69698335,6.6059712,515
1747533633910,-3.4463322,-1.5421977,1.4516525,5.025385,-2.8330708,5.917544,516
1747533633920,-3.470006,-1.7642899,1.1202227,5.480786,-2.2812638,5.5777245,517
1747533633930,-3.6838002,-1.7967494,0.7136234,5.439773,-1.5648735,5.4200654,518
1747533633940,-4.1548305,-1.7882075,0.38487828,4.9044776,-0.83996105,5.4967647,519
1747533633950,-4.3070004,-1.92182885,0.27078152,4.44002225,-0.485760605,5.56760485,520
1747533633960,-4.542149500000001,-2.3324551,0.058207657,3.38940515,0.2178465949999999,5.636847,521
1747533633970,-4.8588135,-3.3185683,-0.202689548,1.46393967,1.136637225,5.273059,522
1747533633980,-5.1832876500000005,-4.39827755,-0.42795439,-0.4881574299999999,1.82213485,4.475442,523
1747533633990,-5.274077,-4.7688785,-0.49079913,-1.1009508,1.9382486,4.040015,524
1747533634000,-5.516914,-5.5620646,-0.48445365,-2.5065672,1.9765981,1.474326,525
1747533634010,-5.6721344,-5.337288,-0.029042812,-1.4471618,1.6724652,-0.88896316,526
1747533634020,-5.7748823,-4.863085,0.2633378,-0.1454086,1.351288,-2.044775,527
1747533634030,-5.4807935,-4.234393,0.5256993,1.257012,0.8511463,-3.171825,528
1747533634040,-5.33667755,-3.87282235,0.63601317,1.93558545,0.61332601,-3.67542865,529
1747533634050,-5.051497,-2.7546742,0.82711005,3.7561226,0.072970614,-4.8176584,530
1747533634060,-4.916045,-2.0981603,0.81197846,4.4181843,-0.15925704,-5.064267,531
1747533634070,-4.2832046,-1.3093672,0.7824476,3.9052596,-0.99282646,-5.2959623,532
1747533634080,-4.0340223,-1.1294969,0.7314396,3.1009848,-1.2804478,-5.5212655,533
1747533634090,-3.96178125,-1.052252785,0.7113048799999999,2.6453179,-1.29962255,-5.64776575,534
1747533634100,-3.8425591,-0.933762985,0.67738088,1.71986945,-1.29749205,-5.88984715,535
1747533634110,-3.5173528,-0.6919023,0.64235866,-0.56672066,-1.0407634,-6.470949,536
1747533634120,-3.3706746,-0.6033095,0.75169635,-1.2692626,-0.9166601,-6.6227493,537
1747533634130,-3.2547474,-0.5130083,0.83077085,-1.7662084,-0.74941355,-6.7468524,538
1747533634140,-3.20556985,-0.4529702399999999,0.879094175,-1.7662084,-0.74941355,-6.7468524,539
1747533634150,-3.02118465,-0.37816672,0.93620355,-2.3928503,-0.66978503,-6.8139641,540
1747533634160,-2.779202,-0.369746745,0.96902925,-2.834136,-0.65247446,-7.037137,541
1747533634170,-2.5684586,-0.25259924,1.0628693,-3.0423954,-0.43036684,-7.6416745,542
1747533634180,-2.6226392,-0.114462845,0.9261973,-3.1206923,-0.14647387,-7.913317,543
1747533634190,-2.695368,-0.014643434,0.7873287,-3.3017871,0.2514024,-8.145012,544
1747533634200,-2.7605317,0.048323333,0.71777236,-3.44506525,0.440753175,-8.261125499999999,545
1747533634210,-2.8447313,0.10592084,0.6570021,-4.010188,0.9539443,-8.594554,546
1747533634220,-3.0470545,0.20354374,0.6113634,-4.5622613,1.3057479,-8.730109,547
1747533634230,-3.1275935,0.22404456,0.64479923,-5.4855795,2.1230721,-8.8949585,548
1747533634240,-3.21655235,0.23917611,0.812954695,-5.6216669,2.46289145,-8.86779425,549
1747533634250,-3.3579838,0.2545517,1.2376143,-5.567072,2.9550436,-8.80015,550
1747533634260,-3.3810471,0.2494265,1.39332285,-5.134575,2.9726205,-8.778845,551
1747533634270,-3.4590235,0.27554062,1.7711234,-4.5151234,2.873551,-8.789497,552
1747533634280,-3.5556703,0.31947094,1.7955291,-3.9025962,2.8378644,-8.805476,553
1747533634290,-3.6493882,0.33801928,1.64457975,-3.6527917,2.75317595,-8.761001,554
1747533634300,-3.731147,0.42587993,1.4016209,-3.503122,2.5294704,-8.692025,555
1747533634310,-3.7865481,0.49909708,1.3464638,-3.707653,2.4650218,-8.64036,556
1747533634320,-3.8338954,0.5222825,1.329868,-3.9675775,2.3691483,-8.501343,557
1747533634330,-3.7762978,0.53643787,1.3349931,-4.2163167,2.1497037,-8.275507,558
1747533634340,-3.6238841,0.533387155,1.34097255,-4.33562635,1.94064555,-8.04088235,559
1747533634350,-3.3587159,0.52655352,1.3423149,-4.40247175,1.6322515,-7.68428515,560
1747533634360,-2.9523606,0.5195979,1.334261,-4.0671797,1.4460965,-7.3561835,561
1747533634370,-2.64314,0.51618105,1.3349931,-3.5015242,1.459945,-7.215569,562
1747533634380,-2.33867855,0.5216723750000001,1.29460165,-2.9774141,1.5414376,-7.2336783,563
1747533634390,-1.9419635,0.58622555,1.2000295,-2.6237464,1.5614113500000002,-7.31304045,564
1747533634400,-1.74305685,0.7047152999999999,1.05152067,-2.31029235,1.47832075,-7.32955215,565
1747533634410,-1.3969837,0.9442575,0.6672525,-2.7643614,1.0988203,-6.9609704,566
1747533634420,-1.1690342,1.2268758,0.18157859,-4.0208406,1.0066749,-5.9937105,567
1747533634430,-0.049543623,1.6183436,0.06199054,-4.4602623,1.5808525,-5.605954,568
1747533634440,0.0926197235,1.65788085,0.1189779099999999,-4.519917,2.0386499,-5.4674695,569
1747533634450,0.3943965,1.9075515,0.40733153,-4.4453487,2.9097698,-5.2618737,570
1747533634460,0.40293851,2.28462,0.545468,-4.1657166,2.7846012,-5.2070127,571
1747533634470,0.2328306,2.8669405,0.6787232,-3.486078,2.3185482,-4.9449577,572
1747533634480,0.9723241,4.138723,1.5446383,0.13848437,1.9265307,-3.5521243,573
1747533634490,1.28618175,4.2437895,1.4477476,1.8860507,1.2634037,-2.7622306,574
1747533634500,2.0478845,4.5511794,1.1858741,3.170227,0.46552056,-2.150769,575
1747533634510,2.3319669,4.7381277,0.8812907,4.0575924,-0.19387813,-1.5339808,576
1747533634520,2.2416658,5.2284384,-0.18133454,4.5236454,-0.64075655,0.20240025,577
1747533634530,2.268512,5.287988,-0.4378387,4.3532033,-0.340352,1.0381002,578
1747533634540,2.26363085,5.2555285000000005,-0.483477425,4.19447865,-0.1499359764999999,1.40801325,579
1747533634550,2.1289113,5.026115,-0.5357057,3.8163097,0.1613875635,2.11561515,580
1747533634560,1.8968128,4.860156,-0.43124917,3.196326,0.43409526,3.1356058,581
1747533634570,1.2097918,4.3686247,0.053936653,2.8538435,0.49055427,4.5710497,582
1747533634580,0.71045065,4.0594044,0.2545517,2.854376,0.1949434,5.3156695,583
1747533634590,0.4754235249999999,3.87550715,0.32117934,2.897253,-0.07057376,5.782788,584
1747533634600,-0.07272904,3.45780315,0.364743575,2.9667616,-0.76113147,7.013701,585
1747533634610,-0.9098454,2.7163572,0.2020794,2.9561088,-1.0082728,7.5825524,586
1747533634620,-1.7760046,1.744277,0.13764828,3.009372,-0.8793758,8.073107,587
1747533634630,-2.267536,1.457998,0.032703668,2.8378644,-0.62104917,8.292019,588
1747533634640,-2.7314887,1.2168695,-0.06199054,2.3579628,-0.40959418,8.563128,589
1747533634650,-3.0648708,1.0538392,-0.0078098318,1.6618125,-0.35792887,8.837967,590
1747533634660,-3.454142,0.91472656,0.191829,0.96566224,-0.55287224,9.143698,591
1747533634670,-4.0288973,0.571338,0.9003272,0.42663842,-1.3427658,9.720006,592
1747533634680,-4.1213946,0.37755656,1.2783719,0.7957525,-1.8050907,9.88086,593
1747533634690,-4.04793345,0.28200815,1.4162642,1.4040185,-2.2972429,9.896839,594
1747533634700,-3.7626305,0.0370967,1.6410409,2.040514,-2.694054,9.733854,595
1747533634710,-3.3433402,-0.23112221,1.3359693,2.7766118,-2.6658244,8.894425,596
1747533634720,-3.0629184,-0.26455808,1.168058,2.7387948,-2.2615564,8.266985,597
1747533634730,-2.8725538,-0.17767367,1.1009423,2.58912515,-2.05995515,7.95006875,598
1747533634740,-2.83631135,-0.084565833,1.1597601000000002,2.24930585,-1.73078845,7.37642375,599
1747533634750,-2.8315523,0.17328064,1.4145558,1.7342505,-1.4322481,6.7857347,600
1747533634760,-2.873286,0.47542354,1.7359792,1.6974989,-1.4839134,6.585465,601
1747533634770,-2.8566902,0.56718904,1.8497099,1.8524948,-1.6058862,6.5790734,602
1747533634780,-2.7800562,0.6074585,1.8521506,1.963815,-1.8775285,6.6280756,603
1747533634790,-2.7230687,0.6244204799999999,1.79540725,1.9829898,-2.245045,6.723417,604
1747533634800,-2.6310591,0.663103555,1.6547082,1.95262975,-2.3981767,6.7833380000000005,605
1747533634810,-2.5250163,0.7106947,1.1924638,1.6548884,-2.7920582,7.0845413,606
1747533634820,-2.4837706,0.7082541,0.97134787,1.3736585,-2.5827336,7.166034,607
1747533634830,-2.4615614,0.71728426,0.7575537,1.0349044,-2.278068,7.1825457,608
1747533634840,-2.52574845,0.7380291299999999,0.70703385,0.8402273250000001,-2.08418985,7.21263935,609
1747533634850,-2.71281835,0.77561395,0.6804316,0.4655205599999999,-1.70841785,7.33461215,610
1747533634860,-3.2120373,0.60062486,0.99770606,-0.15925704,-1.4050838,7.7274284,611
1747533634870,-3.3408997,0.39415246,0.98818773,-0.29454562,-1.5978967,7.7215695,612
1747533634880,-3.4497492,0.19329333,0.942305,-0.40906155,-1.845038,7.7157106,613
1747533634890,-3.4936798,-0.031239327,0.9117979,-0.49321744,-2.0602214,7.6315546,614
1747533634900,-3.5651884,-0.26651052,0.87201655,-0.49960902,-2.350506,7.476026,615
1747533634910,-3.5236988,-0.7614586,0.7580418,0.19867182,-3.1952608,6.921556,616
1747533634920,-3.49538795,-1.10618953,0.66517805,0.99548966,-3.2607746,6.4847975,617
1747533634930,-3.4922152,-1.2312689,0.6303999,2.0314593,-3.0546458,5.984656,618
1747533634940,-3.4537761,-1.3797777,0.594035365,2.58699475,-2.8354677,5.715676500000001,619
1747533634950,-3.3867826,-1.666911,0.5005614,4.1555967,-2.0991037,4.8874335,620
1747533634960,-3.7661695,-1.6180995500000002,0.357421835,4.5974152,-1.7859159,4.90847225,621
1747533634970,-4.4830875,-1.9082836,-0.24576566,4.453871,-1.5393071,5.429653,622
1747533634980,-4.7303176,-2.4923124,-0.60892284,3.2783513,-1.690042,5.6592174,623
1747533634990,-5.0698013,-3.1041641,-0.94157284,2.4564998,-1.3475596,5.5335164,624
1747533635000,-5.2118425,-3.5251628000000004,-1.12742247,2.0285298000000003,-1.03810025,5.3707972,625
1747533635010,-5.444917,-5.6267395,-1.4704449,-0.07137272,-0.04261058,3.4274883,626
1747533635020,-5.153757,-6.179529,-1.3720899,-0.5800365,0.36804888,1.8738002,627
1747533635030,-5.3094654,-6.0936213,-1.0657979,-0.72171664,0.8452873,0.25246766,628
1747533635040,-5.5608444,-5.86274315,-0.81771375,-0.558464885,1.0074738,-0.41944787,629
1747533635050,-5.84724545,-5.1005525,-0.12910628,0.3552656849999999,0.8753810500000001,-2.1728731000000003,630
1747533635060,-5.77134375,-4.1968085,0.451139835,1.4349112,0.344346755,-3.6871465,631
1747533635070,-5.4324703,-3.1410167,0.7663397,2.26635,-0.35260254,-4.715393,632
1747533635080,-4.7332463,-1.965393,0.92278045,2.45383665,-0.81918837,-5.077583,633
1747533635090,-4.5771718,-1.7141361,0.919607725,2.64372015,-1.4362428,-5.551093,634
1747533635100,-4.4210973,-1.4628792,0.916435,2.646117,-1.5867114,-5.662413,635
1747533635110,-3.991312,-0.8334555,0.71118283,2.1337247,-1.6863136,-5.873868,636
1747533635120,-3.768488,-0.68604493,0.5637722,1.5456988,-1.5691346,-5.937784,637
1747533635130,-3.2703671,-0.58232063,0.46688148,0.5651228,-1.2596753,-6.040582,638
1747533635140,-3.057305,-0.57377857,0.5859815,-0.9816412,-0.7206514,-6.460829,639
1747533635150,-2.9428422,-0.5845171,0.68140787,-1.5717977,-0.44847634,-6.722884,640
1747533635160,-2.9772544,-0.5298483,0.82247293,-2.0176108,-0.21411815,-6.8842716,641
1747533635170,-2.9604144,-0.4888467,1.0733638,-2.3643544,-0.15765914,-6.997722,642
1747533635180,-2.723923,-0.4837215,1.2808125,-2.9321404,-0.48469532,-7.3492594,643
1747533635190,-2.6580274,-0.4249037,1.1761118,-3.0791469,-0.52437641,-7.486146,644
1747533635200,-2.6802368,-0.33484653,1.0928884,-3.5750275,-0.38562572,-7.983092,645
1747533635210,-2.703422,-0.21794313,1.0267489,-3.8386805,-0.10865697,-8.251006,646
1747533635220,-2.7297804,-0.08127106,0.9610975,-4.1587925,0.1571265,-8.475244,647
1747533635230,-2.890126,0.20256752,0.9076489,-4.8650627,0.68869346,-8.59988,648
1747533635240,-2.877313,0.23734568,0.941206775,-5.1074104,1.0002834,-8.565791,649
1747533635250,-2.8796315,0.2633378,1.0509106,-5.227785,1.365669,-8.5594,650
1747533635260,-2.9784746,0.22892569,1.1460928,-5.2288504,1.7166736,-8.6094675,651
1747533635270,-3.1017237,0.22160399,1.3108315,-5.0962253,1.9100192,-8.658469,652
1747533635280,-3.298678,0.19280522,1.6949776,-4.3207126,1.748099,-8.657404,653
1747533635290,-3.2941629,0.19512377,1.7634357,-4.0538639,1.6516925,-8.6645945,654
1747533635300,-3.3130772,0.2438132,1.892908,-3.2346754,1.3012205,-8.622783,655
1747533635310,-3.3582275,0.32288775,1.9070634,-2.789395,0.8580705,-8.467255,656
1747533635320,-3.090009,0.5027579,1.4062579,-2.5033715,0.37284255,-7.988418,657
1747533635330,-2.9435744,0.5405868,1.1238836,-2.7654266,0.43196473,-7.798801,658
1747533635340,-2.8889055,0.5601114,1.04175835,-3.2415998,0.5800365,-7.702927,659
1747533635350,-2.881096,0.65285313,0.92400074,-3.7721014,0.84422207,-7.6097164,660
1747533635360,-2.9260023,0.6855568,1.0162543,-4.29994,1.1297129,-7.4264913,661
1747533635370,-2.7158692,0.605262,1.1416998,-4.680239,1.315069,-7.121293,662
1747533635380,-2.5606487,0.55913514,1.1875826,-4.684234,1.30548165,-7.0501865,663
1747533635390,-2.3815105,0.52423495,1.1653733,-4.657868799999999,1.27458895,-6.906375799999999,664
1747533635400,-2.186997,0.5051985,1.0616491,-4.576109649999999,1.2436962500000002,-6.7617663,665
1747533635410,-2.08327275,0.49043305,0.975252815,-4.391819,1.2740563,-6.5676218,666
1747533635420,-1.7091328,0.5615757,0.7922098,-4.1529336,1.383246,-6.273875,667
1747533635430,-1.6259093,0.6616392,0.647972,-4.183826,1.5339808,-5.9212723,668
1747533635440,-1.5254798,0.69946807,0.598672425,-4.24534515,1.56087875,-5.757488,669
1747533635450,-1.1185144,0.8429737,0.48835856,-4.475176,1.5851135,-5.3087454,670
1747533635460,-0.4651731,1.0006347,0.5183776,-4.6339,1.5398397,-4.8352356,671
1747533635470,-0.08346757,1.2146729,0.43466598,-4.5833,1.6575515,-4.691425,672
1747533635480,0.0137892379999999,1.3596429,0.38597654,-4.5036715,1.72120105,-4.6283080000000005,673
1747533635490,0.108849533,1.7086448,0.37157715,-3.961186,1.9963056,-4.4277716,674
1747533635500,0.1956118849999999,2.12390825,0.54327145,-2.994991,2.3877902,-4.2759714,675
1747533635510,0.65919864,2.6497297,0.989164,-1.361408,2.7031085,-4.0900826,676
1747533635520,1.2498171,3.483185,1.159516,0.9470201,1.814678,-3.5936697,677
1747533635530,1.3393861,4.003759,1.21931,1.9947077,1.1771172,-3.0493195,678
1747533635540,1.43273805,4.22035985,1.2211404,2.4841967,1.00081595,-2.70630425,679
1747533635550,1.5402453,4.55972145,1.08642085,3.2418661,0.68150295,-1.9584886,680
1747533635560,1.6063848,4.8889546,0.635281,3.2804818,-0.2972088,0.14807177,681
1747533635570,1.7584325,4.8108563,0.74486274,3.1393344,-0.52837116,0.79894835,682
1747533635580,1.769415,4.695905,0.81685966,3.12095855,-0.6045375799999999,1.149420375,683
1747533635590,1.71023115,4.61329185,0.79233188,3.04772165,-0.7712514699999999,1.7963022,684
1747533635600,1.5436621,4.45648535,0.7159419499999999,2.846653,-1.00534337,2.43199875,685
1747533635610,0.6557818,4.0779524,0.57451075,1.8706044,-2.0527647,4.469317,686
1747533635620,0.2809099,3.8263295,0.5859815,1.5515577,-2.5832663,5.4131413,687
1747533635630,0.093717987,3.64194425,0.60074695,1.4104102,-3.029612,6.2312646,688
1747533635640,-0.292746668,3.2715873,0.610997335,1.428786,-3.2024512,6.5569691500000005,689
1747533635650,-0.731561605,2.90123045,0.60306546,1.6437031,-3.5856802,7.3982615,690
1747533635660,-1.9971205,1.965637,0.6460195,2.4335966,-3.5617118,8.342086,691
1747533635670,-2.425441,1.628594,0.63162017,2.6402578,-3.4408042,8.692025,692
1747533635680,-2.6579055,1.4786208,0.6216138,2.64372,-3.3971283000000003,8.8566085,693
1747533635690,-3.1014795,1.18965705,0.614780185,2.5702169,-3.3334788,9.1942975,694
1747533635700,-3.6139996,0.8053889,0.6745742,2.3694146,-3.3193641,9.524795999999998,695
1747533635710,-3.9830143,0.38853914,0.8751893,1.7869811,-3.5803537,10.174341,696
1747533635720,-4.00900635,0.294699125,0.94230505,1.76274635,-3.69247285,10.2313325,697
1747533635730,-4.070387,0.030751213,1.0975254,1.824798,-3.942011,10.264889,698
1747533635740,-4.05488925,-0.0485673935,1.12156505,2.0458405,-3.8701057,10.041716,699
1747533635750,-3.9198034,-0.30458343,1.1951483,2.3510387,-3.567038,9.465407,700
1747533635760,-3.9283454,-0.31434575,1.2478647,2.4080303,-3.4573157,9.191102,701
1747533635770,-3.9691029,-0.30580372,1.3515891,2.420281,-3.4775558,8.955678,702
1747533635780,-3.98874945,-0.29433303,1.41565405,2.4365262000000003,-3.5340149,8.8576735,703
1747533635790,-3.9802076,-0.2779811949999999,1.53536405,2.4921862,-3.66131405,8.6739155,704
1747533635800,-3.8763615,-0.26065314,1.6237127999999998,2.59178845,-3.80752155,8.4848315,705
1747533635810,-3.6286434,-0.20769272,1.63298705,2.7563717,-4.104464,7.7743,706
1747533635820,-3.363841,-0.05344854,1.4953387,2.6391926,-4.1278996,7.535148,707
1747533635830,-3.3374829,-0.000854202,1.4432325,2.5353293,-4.11298605,7.426757500000001,708
1747533635840,-3.2852547000000003,0.103602298,1.3409725,2.2951122,-4.04960295,7.2387383,709
1747533635850,-3.2299757,0.20195737,1.23419745,1.99550665,-3.9188417,7.09279705,710
1747533635860,-3.0804906,0.34656128,0.8891005,1.0263823,-3.2591765,6.8800106,711
1747533635870,-3.01386295,0.33423639,0.8476108,0.53263223,-2.9566414,6.808105,712
1747533635880,-2.8047059,0.26065314,0.82076454,0.05006743,-2.795254,6.6914587,713
1747533635890,-2.7729783,0.15741692,0.85908157,-0.7685883,-2.5502431,6.3164854,714
1747533635900,-2.783717,0.044174362,0.950359,-1.0247844,-2.54758,6.1503043,715
1747533635910,-2.8037298,-0.03465613,1.0650659,-1.1989552,-2.7079022,6.0219398,716
1747533635920,-2.7854254,-0.16620298,1.1119248,-1.3070794,-2.9875343,5.866944,717
1747533635930,-2.7868898,-0.2975058,0.9183875,-1.3731259,-3.3177662,5.652826,718
1747533635940,-2.8680388,-0.39220001,0.636623365,-1.37365855,-3.47675695,5.360943499999999,719
1747533635950,-2.9101386,-0.69117016,0.15253578,-1.1190603,-3.6623793,4.723915,720
1747533635960,-2.8283794,-0.8834872,0.0043930304,-0.37763625,-3.5084486,4.0485377,721
1747533635970,-2.818617,-1.053107,0.018304294,0.54275227,-3.43388,3.5286884,722
1747533635980,-3.2066681,-1.330112,0.17669745,3.1244206,-3.7140446,3.139867,723
1747533635990,-3.25218475,-1.4722754,0.169985875,3.871171,-3.8959383,3.10631115,724
1747533636000,-3.3690882,-1.8228636000000005,0.087128438,6.017146,-4.524178,3.0216227,725
1747533636010,-3.8604975,-2.2748578,-0.3824377,7.139935,-4.5827675,2.979012,726
1747533636020,-4.1460445,-2.3170797,-0.6291795499999999,7.36603735,-4.33163145,2.9960563,727
1747533636030,-5.65383,-3.2425447,-2.178211,4.9806437,-2.684999,3.6085835,728
1747533636040,-5.83540865,-3.76592535,-2.4846249,3.61497485,-2.54917775,3.53055275,729
1747533636050,-6.000757650000001,-4.685533,-2.91440965,0.95128121,-2.20296685,3.010171,730
1747533636060,-5.78855,-5.5876904,-3.19715,-2.4469125,-1.2325109,1.109473,731
1747533636070,-5.402695,-4.9975605,-2.3929813,-3.7646446,1.303351,-2.352104,732
1747533636080,-5.486895,-4.094304,-1.3889297,-2.8005803,2.450641,-3.6810212,733
1747533636090,-5.454679499999999,-3.7119885,-0.921804175,-1.9515645,2.6634275,-4.1683798,734
1747533636100,-5.419047,-2.6480212,0.4356422,1.1323761,2.6818032,-5.3737264,735
1747533636110,-5.5483975,-2.0742426,1.0596966,3.468501,1.991512,-5.7827883,736
1747533636120,-5.337776,-1.7215798,1.2481087,5.743906,0.67963874,-6.0794644,737
1747533636130,-4.6610055,-1.3972276,0.8002637,7.011038,-0.8676579,-6.9955916,738
1747533636140,-4.58803225,-1.2523797,0.69690545,6.8379325,-0.99016335,-7.239004599999999,739
1747533636150,-4.4614885,-0.93095637,0.5407088250000001,6.23738965,-1.067395,-7.626760949999999,740
1747533636160,-4.296628,-0.39927766,0.36730617,4.4975467,-0.78083885,-7.8035946,741
1747533636170,-3.7492075,-0.077122085,0.38951537,1.3491575,-0.16990969,-7.6571207,742
1747533636180,-3.4963639,-0.064919226,0.5051985,-0.05912218,0.28815404,-7.674698,743
1747533636190,-3.3277204,-0.076633975,0.66993713,-1.4631407,0.8021441,-7.7141128,744
1747533636200,-3.1825066,-0.10665302,0.86249834,-2.305765,1.0620687,-7.7189064,745
1747533636210,-3.1361356,-0.12373702,1.0279691,-2.915629,1.1899004,-7.7189064,746
1747533636220,-3.0429058,-0.19939478,1.4194369,-3.3896716,1.0221212,-7.7402115,747
1747533636230,-3.0426617,-0.14863087,1.5080298,-3.391802,0.8564726,-7.731157,748
1747533636240,-3.0324113500000003,-0.105432735,1.49167795,-3.396862,0.74808195,-7.71358,749
1747533636250,-2.8503447,-0.028554698,1.3269392,-3.4946,0.4788364,-7.704525,750
1747533636260,-2.6580274,-0.017572122,1.103871,-3.7071204,0.5209143,-7.781757,751
1747533636270,-2.5562556,0.046858992,0.8529801,-4.3292346,1.3171995,-8.092281,752
1747533636280,-2.5721195,0.102504045,0.8539563,-4.568919,1.80296,-8.198276,753
1747533636290,-2.58029535,0.1227607974999999,0.88141275,-4.7622647,2.2280006,-8.230765,754
1747533636300,-2.6353302,0.16449459,1.0540832,-4.79741835,2.3667513,-8.2105255,755
1747533636310,-2.8159325,0.21477039,1.4980234,-4.437892,2.6029737,-7.9527316,756
1747533636320,-2.8513207,0.22819352,1.6654466,-4.0458746,2.3792682,-7.7764306,757
1747533636330,-2.8703573,0.23014598,1.7869871,-3.5723643,2.0181434,-7.6390114,758
1747533636340,-2.8708453,0.1986626,1.8602043,-2.9694247,1.5286545,-7.6145105,759
1747533636350,-2.8745062,0.17572121,1.8414118,-2.5459821,1.1771172,-7.704525,760
1747533636360,-2.9699326,0.25650415,1.5404893,-2.2674153,0.7946873,-7.8877506,761
1747533636370,-3.0321672,0.32850105,1.3613514,-2.489523,0.7717841,-7.943677,762
1747533636380,-3.1107538,0.41123646,1.2329772,-2.8682246,0.7861652,-7.929296,763
1747533636390,-3.1529756,0.5264315,1.1165619,-3.10205015,0.826378925,-7.86138535,764
1747533636400,-3.1576126,0.63503695,1.0243083,-3.59766445,0.952612775,-7.69014405,765
1747533636410,-2.9611466,0.6653,1.0318741,-4.8581386,1.2506205,-7.0392675,766
1747533636420,-2.7500372,0.6465077,1.104115,-5.0131345,1.2761868,-6.8480525,767
1747533636430,-2.5926201,0.6406503,1.1531705,-4.96573,1.3587449,-6.684002,768
1747533636440,-2.51549805,0.647972,1.1676919,-4.85947,1.3909691,-6.597182800000001,769
1747533636450,-2.2079859,0.64187056,1.1866064,-4.466121,1.4269217,-6.3745427,770
1747533636460,-1.9578272,0.6257628,1.180993,-4.1428137,1.3257216,-6.310094,771
1747533636470,-1.6066289,0.788793,1.0509106,-3.5515916,1.0402308,-6.1369886,772
1747533636480,-1.51889025,0.85871543,0.9848931,-3.46051155,0.992826515,-6.02966305,773
1747533636490,-1.2815446,1.155611,0.72558224,-3.3510556,0.898816915,-5.752428050000001,774
1747533636500,-0.9938011,1.3506129,0.48713827,-3.4908717,0.7414241,-5.071724,775
1747533636510,-0.38829508,1.692781,0.3243521,-3.482882,0.7765778,-4.592888,776
1747533636520,-0.018792408,2.0686293,0.44467232,-2.918292,1.1313108,-4.5540056,777
1747533636530,0.36266908,2.4666865,0.61746484,-1.9387813,1.5952336,-4.50021,778
1747533636540,0.537047965,2.672915,0.70520342,-1.3667343,1.66234525,-4.4165865,779
1747533636550,0.945599775,3.06169825,0.7678041,-0.281229825,1.61946835,-4.2027345,780
1747533636560,1.8455609,3.9373755,0.49543622,1.6676716,0.5800365,-3.2133703,781
1747533636570,1.9558747,4.370089,0.34607318,2.245045,0.055926383,-2.3542345,782
1747533636580,1.943672,4.6668625,0.21257387,2.5630262,-0.23435818,-1.419465,783
1747533636590,1.86142465,4.7470355,0.17437891,2.644519,-0.35446674,-0.878576915,784
1747533636600,1.7475719,4.79706725,0.104700563,2.7345338,-0.793622,0.7030745,785
1747533636610,1.7315861,4.217553,-0.082247294,2.5800705,-1.2831111,2.218413,786
1747533636620,1.7054721,3.913702,-0.13740423,2.5699506,-1.2985574,2.7004454,787
1747533636630,1.6652026,3.764217,-0.1425294349999999,2.5744779,-1.28337735,2.9004488,788
1747533636640,1.52694415,3.5095433,-0.107873305,2.61549055,-1.2828447,3.2975261,789
1747533636650,1.2936255,3.31088065,-0.0400253875,2.7526433,-1.4343786,4.068245,790
1747533636660,0.5008055,2.7649245,-0.034168016,2.6887274,-1.9425098,5.2197957,791
1747533636670,0.12861817,2.5479577,-0.02391761,2.5992453,-2.3094933,5.8429756,792
1747533636680,-0.0538146149999999,2.42922385,-0.01000634705,2.58513055,-2.4959146,6.13698865,793
1747533636690,-0.41831412,2.1553916500000003,0.02391760945,2.6136264,-2.80191185,6.6879966500000005,794
1747533636700,-1.1817253,1.504857,0.12983845,2.999252,-3.00085,7.6299567,795
1747533636710,-1.5224291,1.3474401,0.15961345,3.1409323,-2.9087045,7.929296,796
1747533636720,-1.8472692,1.2293164,0.1952458,3.2069786,-2.6684875,8.294682,797
1747533636730,-2.2188464,1.1346222,0.2549177999999999,3.0690268,-2.41388925,8.5090665,798
1747533636740,-2.7532098,0.99892633,0.3714551499999999,2.80324335,-2.0692762,8.8504835,799
1747533636750,-3.0491292,0.92949198,0.5152048499999999,2.4234767,-1.8913771,9.268866,800
1747533636760,-3.4165576,0.8668914,0.7241178,2.1544974,-1.7773937,9.587913,801
1747533636770,-3.567385,0.76072645,0.8288184,1.8524948,-1.7603495,9.943711,802
1747533636780,-3.640358,0.50690687,1.1958805,1.6511599,-1.9414445,10.26329,803
1747533636790,-3.63645315,0.44821112,1.27971415,1.7025589,-2.1121531,10.3402555,804
1747533636800,-3.7626305,0.20671648,1.5236495,2.1060278,-2.3574302,10.171145,805
1747533636810,-3.8668429,0.081881202,1.6322549,2.330266,-2.4375914,10.0078935,806
1747533636820,-4.15361,-0.2806658,2.0054183,3.1590416,-2.8783445,9.448895,807
1747533636830,-4.032802,-0.52960426,1.8746037,4.1832933,-3.113768,8.340488,808
1747533636840,-3.7467668,-0.49250755,1.3869773,3.9382827,-2.764894,7.740744,809
1747533636850,-3.507835,-0.38316986,1.0762925,3.1169639,-2.3414512,7.2102423,810
1747533636860,-3.3267446,-0.22526483,0.9432813,1.9627497,-2.0074909,6.796387,811
1747533636870,-2.8698692,-0.08346757,1.3532975,0.7914915,-1.839179,6.437926,812
1747533636880,-2.690243,-0.079318605,1.6002834,-0.7073356,-1.9526298,5.7444386,813
1747533636890,-2.61202265,-0.0809049755,1.6576368499999998,-0.77950725,-2.09857105,5.607019299999999,814
1747533636900,-2.4027436,-0.077122085,1.6920489,-0.8042747,-2.538525,5.185175,815
1747533636910,-2.2926738,-0.042221904,1.5578175,-0.7238472,-2.8133633,4.9114017,816
1747533636920,-2.305853,0.030751213,1.3362135,-0.72011876,-3.0945933,4.7164583,817
1747533636930,-2.425197,0.12983845,1.023088,-1.0530139,-3.5920718,4.6839676,818
1747533636940,-2.4705915,0.07272906,0.8283303,-1.3864417,-3.7571878,4.7990165,819
1747533636950,-2.413238,-0.03636453,0.58232063,-1.9542277,-3.7790256,4.862932,820
1747533636960,-2.3436816,-0.18255483,0.30970863,-2.466087,-3.643737,4.777711,821
1747533636970,-2.4693713,-0.4229512,0.2779812,-3.1521175,-3.3704967,4.381965,822
1747533636980,-2.5979893,-0.460536,0.45126185,-3.1388018,-3.3305492,4.1790323,823
1747533636990,-2.631181,-0.605262,0.5430274,-3.0272154,-3.3718283,4.09940385,824
1747533637000,-2.7124522,-0.758774,0.5108118,-2.5454495,-3.8456047,3.8738341,825
1747533637010,-2.7124522,-0.758774,0.5108118,-2.5454495,-3.8456047,3.8738341,826
1747533637020,-2.7124522,-0.758774,0.5108118,-2.5454495,-3.8456047,3.8738341,827
1747533637030,-2.6489973,-1.2354177,-0.6321083,1.063134,-4.654673,2.9220204,828
1747533637040,-2.71086585,-1.21089,-0.9000831499999999,1.2775184,-4.4528055,2.9004488,829
1747533637050,-2.9118469,-1.1316935,-1.6681312,1.4982945,-3.9025962,2.908172,830
1747533637060,-3.935179,-1.1578076,-2.7170894,0.7233146,-2.4037693,3.1212249,831
1747533637070,-4.5262856,-1.2988727,-2.9477234,0.053263225,-1.7603495,3.483415,832
1747533637080,-4.7988977,-1.598575,-3.0504715,-0.6061355,-1.4780544,3.7300234,833
1747533637090,-5.0183053,-1.978084,-3.2205794,-1.1233214,-1.3827133,3.6842172,834
1747533637100,-5.0277014,-2.153317,-3.3289409,-1.3129385,-1.0620687,3.141465,835
1747533637110,-5.086031,-2.2763219,-3.406673,-0.000266325,0.72145033,1.04662232,836
1747533637120,-4.9380102,-2.1518527,-3.04485825,0.44421527,1.128115,0.61572284,837
1747533637130,-4.8228154,-2.0927908,-2.82179,1.5441009,1.965413,-0.3355583,838
1747533637140,-4.6610055,-1.8372629,-2.2492316,2.6865969,2.644519,-1.3124058,839
1747533637150,-4.692733,-1.4909457,-1.7169427,3.19286385,2.824016,-1.7118799,840
1747533637160,-4.6356233,-1.2180897,-1.149143535,4.4155213,2.8309402,-2.540123,841
1747533637170,-4.3674045,-0.8366282,-0.2169669,5.5894427,2.0820594,-3.345463,842
1747533637180,-4.1004057,-0.8075854,0.017084008,5.7300577,1.6671388,-3.7028592,843
1747533637190,-3.9366434,-0.7739055,0.12520137,5.6869144,1.2820457,-4.0970073,844
1747533637200,-3.6540253,-0.6962953,0.11275445,5.4813185,0.96939063,-4.470382,845
1747533637210,-3.5732424,-0.6711574,0.019768637,4.5321674,0.7637946,-5.1383033,846
1747533637220,-3.3948362,-0.643823,0.0056133163,3.8908784,0.80533993,-5.438175,847
1747533637230,-3.2137458,-0.614048,0.059549972,3.274623,0.93157375,-5.724731,848
1747533637240,-3.0470545,-0.5950116,0.13081467,2.721218,1.0711234,-5.987319,849
1747533637250,-2.8425348,-0.5657247,0.2877435,1.7235979,1.4269217,-6.615292,850
1747533637260,-2.5242841,-0.532777,0.336799,1.3278521,1.572863,-6.833139,851
1747533637270,-2.4393523,-0.48665017,0.40562314,0.9464875,1.7427727,-7.002516,852
1747533637280,-2.3815105,-0.46663743,0.47786412,0.56672066,1.8956381,-7.1825457,853
1747533637290,-2.50707805,-0.387928975,0.60660431,0.378435185,1.9302592,-7.279218350000001,854
1747533637300,-2.6326456,-0.30922052,0.7353445,-0.3920173,1.9664782,-7.7130475,855
1747533637310,-2.7373462,-0.17816179,0.7397375,-0.6844324,2.1145499,-7.8201065,856
1747533637320,-2.8466837,-0.0707766,0.7336361,-1.0652645,2.2658174,-7.8621845,857
1747533637330,-2.9316158,-0.0024405725,0.7082541,-1.675661,2.3883228,-7.8440747,858
1747533637340,-2.979451,0.035144243,0.7541369,-2.1523669,2.5145566,-7.866978,859
1747533637350,-3.00947,0.0061014313,0.8973985,-2.4943168,2.7377295,-7.971374,860
1747533637360,-3.2540154,-0.094206095,1.2161373,-2.7015107,3.1835427,-8.36126,861
1747533637370,-3.385562,-0.08151512,1.4362769,-2.6221485,3.197924,-8.524778,862
1747533637380,-3.5327287,-0.028554698,1.5783182,-2.4916537,3.0216227,-8.646751,863
1747533637390,-3.6813595,0.027334413,1.6749649,-2.330266,2.7148266,-8.704276,864
1747533637400,-3.7401773,0.145946235,1.70718035,-1.83092335,2.0232035,-8.685101,865
1747533637410,-3.7313912,0.21769907,1.6791137,-1.5616777,1.6889768,-8.657937,866
1747533637420,-3.6509744,0.238077845,1.61492675,-1.53344815,1.57579245,-8.664861,867
1747533637430,-3.423635,0.277005,1.4233419,-1.5632756,1.3044163,-8.726646,868
1747533637440,-3.358716,0.32728076,1.3157127,-1.6847157,1.2687299,-8.760202,869
1747533637450,-3.1268616,0.4886026,1.0460293,-2.1321268,1.5638082,-8.744756,870
1747533637460,-2.9994636,0.5037342,0.87982637,-2.538525,1.8365159,-8.751147,871
1747533637470,-2.9574857,0.5554743,0.7890371,-2.9939258,2.1022995,-8.720255,872
1747533637480,-2.9648075,0.6616392,0.7844,-3.5350802,2.3861923,-8.54928,873
1747533637490,-2.7803001,0.8090498,0.85956967,-4.185424,2.6796727,-7.922372,874
1747533637500,-2.6836534,0.85127175,0.9022797,-4.405934,2.7036412,-7.498929,875
1747533637510,-2.4679067,0.8607899,0.942305,-4.5524077,2.666357,-7.0770845,876
1747533637520,-2.0517893,0.8588374,0.97427654,-4.570517,2.556102,-6.757505,877
1747533637530,-1.7127937,0.8642067,0.9969738,-4.4315,2.4383903,-6.5471153,878
1747533637540,-1.41675225,1.0211355,0.945233665,-4.1113881,2.23785425,-6.33805715,879
1747533637550,-0.84907514,1.462635,0.8190561,-3.1015174,1.8881812,-5.882923,880
1747533637560,-0.38194957,1.9531902,0.8402891,-2.1997712,2.0197413,-5.8136806,881
1747533637570,-0.0017084008,2.413238,0.9034999,-1.1041466,2.227468,-5.6965017,882
1747533637580,0.32117933,2.9999516,0.8515157,0.4527374,1.7704695,-4.7500143,883
1747533637590,0.810026,3.2413242,0.694831,0.61545655,1.41014385,-4.449343450000001,884
1747533637600,1.0431007,3.3665256,0.651022725,0.93237275,0.752343065,-3.8567901,885
1747533637610,1.5966225,3.8246212,0.4458926,1.4274544,0.21518342,-2.9779468,886
1747533637620,1.7376877,4.065017,0.19085276,1.5792545,0.22370553,-2.2690134,887
1747533637630,1.8921759,4.2641683,0.042954076,1.2618058,0.30360037,-0.7036072,888
1747533637640,1.9063312,4.294431449999999,0.102259988,1.18217725,0.25300031,-0.48975535,889
1747533637650,1.86276695,4.36166905,0.23722365,1.06526445,0.087884319,-0.018908445,890
1747533637660,1.7586764,4.3891253,0.43173727,1.0689929,-0.33076462,0.9257148,891
1747533637670,1.7332945,4.2568464,0.4966565,1.1574098,-0.69721556,1.6703347,892
1747533637680,1.5949141,4.0418321,0.42526975,1.20880885,-1.15607823,2.3808661,893
1747533637690,1.3802658,3.69478275,0.29823796,1.28364365,-1.74783265,3.4194989,894
1747533637700,1.2013718,3.4109441,0.19890666,1.3089437,-1.9888488,4.04267845,895
1747533637710,0.8815348,2.8881736,0.12520137,1.2921658,-2.3148196,4.90501,896
1747533637720,0.635281,2.5767562,0.18109047,1.3566142,-2.4000409,5.2565475,897
1747533637730,-0.00073217176,2.0747306,0.38975942,1.5941683,-2.4623587,5.9095545,898
1747533637740,-0.36047253,1.8440965,0.44003522,1.5584819,-2.5859294,6.2328625,899
1747533637750,-0.7890371,1.6176114,0.5042223,1.4386396,-2.769155,6.5396585,900
1747533637760,-1.205887,1.4350566,0.62014943,1.3326459,-3.0173616,6.8267474,901
1747533637770,-1.9136529,1.087031,0.7912336,1.412008,-3.6474655,7.4264913,902
1747533637780,-2.2768102,0.9589009,0.8581053,1.690042,-3.9143143,7.7854853,903
1747533637790,-2.38687995,0.90057125,0.8760434699999999,1.83411905,-3.9787629,7.908257150000001,904
1747533637800,-2.6760879,0.77561396,0.8471227,2.12307205,-4.03202605,8.13649,905
1747533637810,-2.8252068,0.7648754,0.77829856,2.4570324,-3.823234,8.427307,906
1747533637820,-3.1100214,0.77195305,0.53082454,2.457565,-3.4477284,8.599347,907
1747533637830,-3.2947729,0.74461865,0.5339973,1.726261,-2.6759443,8.930112,908
1747533637840,-3.4130186,0.7069118000000001,0.609533,1.2101405,-2.4016387,9.033976,909
1747533637850,-3.7653153,0.50324607,0.93205464,0.7366304,-2.347843,9.057411,910
1747533637860,-4.0320697,0.023429496,1.6312786,0.41598576,-2.751578,8.991898,911
1747533637870,-4.003759,-0.14911897,1.9644167,1.1297129,-3.7939394,8.613729,912
1747533637880,-3.95348315,-0.2156245749999999,2.04471155,1.53131765,-4.02563445,8.4651245,913
1747533637890,-3.7245574,-0.37609223,2.0322647,2.7047064,-4.6275086,7.97457,914
1747533637900,-3.4968524,-0.36413342,1.7420806,3.2080438,-4.8203216,7.6027923,915
1747533637910,-3.2027633,-0.028554698,1.1229074,3.3593116,-4.761732,7.2714953,916
1747533637920,-3.0465667,0.09640261,0.8964222,2.6519759,-4.01871,6.8650966,917
1747533637930,-2.94882175,0.14643435,0.83382153,2.2394522,-3.7273603,6.7758808,918
1747533637940,-2.7743208,0.24344711,0.77964085,1.1968247,-3.02109,6.5508437,919
1747533637950,-2.6458244,0.3746279,0.9020356,0.7520767,-2.6716833,6.4443173,920
1747533637960,-2.6694982,0.40635532,1.091424,0.5587312,-2.4351945,6.407033,921
1747533637970,-2.73405135,0.36047256,1.26165395,0.57577545,-2.45916295,6.44245315,922
1747533637980,-2.8427787,0.23575929,1.424074,0.53103435,-2.7739487,6.5694857,923
1747533637990,-2.859619,0.1415532,1.3201057,0.3174488,-3.129747,6.6541743,924
1747533638000,-2.856934,0.0134231495,1.1463369,-0.027696876,-3.4168358,6.6584353,925
1747533638010,-2.9979992,-0.30873242,0.8537123,-0.65460503,-3.742274,6.2413845,926
1747533638020,-3.0368044,-0.46663743,0.79831123,-0.6013418,-3.6906087,5.894641,927
1747533638030,-2.9782307,-0.5769514,0.716064,-0.37603834,-3.516438,5.500493,928
1747533638040,-2.93381225,-0.6072144500000001,0.674452225,-0.241282395,-3.3790189,5.302620149999999,929
1747533638050,-2.911603,-0.70068836,0.5747548,0.11984225,-3.134008,4.7904944,930
1747533638060,-3.1332068,-0.93327487,0.5349735,0.7163904,-3.8663774,4.656271,931
1747533638070,-3.2130136,-1.078489,0.58964235,1.351288,-4.4192495,4.698349,932
1747533638080,-3.1498028,-1.18074895,0.570727875,1.83545075,-4.58569725,4.68849515,933
1747533638090,-3.0804906,-1.41650825,0.363767305,2.9097699,-4.66798885,4.54734765,934
1747533638100,-3.2586522,-1.8357986,-0.4249037,3.9036615,-4.066647,4.0804954,935
1747533638110,-3.812174,-2.281203,-1.1866064,3.3694315,-2.7361317,3.3172336,936
1747533638120,-4.2263393,-2.5611367,-1.3547617,2.4991105,-1.7635453,2.8320055,937
1747533638130,-4.6219563,-2.9181926,-1.4479916,1.6330504,-1.2804478,2.4778051,938
1747533638140,-4.78974565,-3.04168555,-1.51913435,1.15954035,-1.1326424,2.2985743,939
1747533638150,-5.068947,-3.4347397500000003,-2.3535661,-2.4319987,-0.053263225,1.2820457,940
1747533638160,-4.7813253,-3.48587,-1.9466007,-3.1989892,0.44474792,0.36218992,941
1747533638170,-5.112023,-3.5891058,-1.3445114,-2.6594326,0.9038769,-0.5448828,942
1747533638180,-5.353152,-3.231562,-1.534876,-1.969674,0.964597,-1.3012205,943
1747533638190,-5.3310645,-3.0433939,-1.3681849499999998,-1.43837333,1.005077,-1.69350415,944
1747533638200,-5.038806,-2.464002,-0.79831123,0.46392268,1.3390374,-2.9561088,945
1747533638210,-4.888467,-1.4953387,-0.22355644,3.055711,1.1121361,-4.5193844,946
1747533638220,-4.748622,-1.0538392,0.033679903,3.6794233,0.664725,-4.836301,947
1747533638230,-4.5638704,-0.7321718,0.17157225,3.9468048,0.18269286,-4.9635997,948
1747533638240,-4.2441554,-0.55840296,0.07492557,3.7896783,-0.18162759,-5.0440273,949
1747533638250,-3.8983264,-0.42954078,-0.09640261,3.2682314,-0.3291667,-5.187838,950
1747533638260,-3.5937428,-0.31141704,-0.27920148,1.722,0.27004454,-5.5052867,951
1747533638270,-3.4590235,-0.2997023,-0.23405088,0.8511463,0.67537767,-5.6730657,952
1747533638280,-3.200811,-0.40684342,0.033679903,-0.7254451,1.5169365,-6.0853233,953
1747533638290,-3.1451657,-0.46712556,0.21525851,-1.0998856,1.7773937,-6.2877235,954
1747533638300,-3.0834193,-0.4886026,0.4249037,-1.2096078,1.9760655,-6.474145,955
1747533638310,-2.9818914,-0.48787045,0.57280236,-1.1382351,2.1299963,-6.669621,956
1747533638320,-2.8747504,-0.47493544,0.63064396,-1.0471549,2.198706,-6.879478,957
1747533638330,-2.7031782,-0.3807293,0.6643238,-1.077515,2.211489,-7.251255,958
1747533638340,-2.6809689,-0.33399234,0.6544395000000001,-1.1584751,2.2250711,-7.318366749999999,959
1747533638350,-2.6221511,-0.21525851,0.59794027,-1.506284,2.3137543,-7.4685693,960
1747533638360,-2.5523508,-0.1615659,0.5610876,-1.9302592,2.5566347,-7.586281,961
1747533638370,-2.5086644,-0.16717921,0.5874458,-2.2599585,2.8314729,-7.736483,962
1747533638380,-2.5950607,-0.14435986,0.6732319,-2.530802,3.0874027,-7.8733695,963
1747533638390,-2.8237424,-0.10518867,0.844194,-2.9446573,3.4157705,-8.034756999999999,964
1747533638400,-2.932592,-0.11861181,0.94157284,-3.3523872,3.538276,-8.046475,965
1747533638410,-3.0468106,-0.12471326,1.0387076,-3.529221,3.5377433,-8.028365,966
1747533638420,-3.153952,-0.122272685,1.2212625,-3.5835497,3.482882,-7.994277,967
1747533638430,-3.15285365,-0.12251674,1.22870625,-3.41390635,3.48714315,-8.002266500000001,968
1747533638440,-3.1063607,-0.1300825,1.2583592,-3.09699015,3.48740965,-8.038219,969
1747533638450,-3.0970864,-0.12032023,1.2944796,-2.606702,3.470099,-8.145545,970
1747533638460,-3.2474258,-0.061502427,1.3079028,-1.9989687,3.2980587,-8.16685,971
1747533638470,-3.3018506,-0.05051985,1.3071706,-1.8120148,3.1361384,-8.13862,972
1747533638480,-3.3114908,-0.0545467939999999,1.29692025,-1.7520937,3.03946575,-8.114385500000001,973
1747533638490,-3.321131,-0.058573738,1.2866699,-1.6921726,2.9427931,-8.090151,974
1747533638500,-3.4329093,-0.05222825,1.2588474,-1.65062725,2.7601001,-7.92636655,975
1747533638510,-3.4255874,-0.0026846298,1.2283401,-1.8082864,2.5630262,-7.753527,976
1747533638520,-3.0673115,0.041245673,1.0860548,-2.330266,2.3856597,-7.7561903,977
1747533638530,-2.9811594,0.099575356,1.0387076,-2.6045716,2.373942,-7.722102,978
1747533638540,-2.93478845,0.134719603,1.0359009499999998,-2.7076359,2.40483455,-7.6837525,979
1747533638550,-2.7512574,0.24088451,1.0472497,-2.9342709,2.4650218,-7.525561,980
1747533638560,-2.3251333,0.656514,1.0155222,-3.0929954,2.433064,-7.132478,981
1747533638570,-2.003466,0.96768695,0.9835507,-3.1739554,2.2269354,-6.784137,982
1747533638580,-1.3442672,1.3276714,0.9376679,-3.1654334,2.0847225,-6.4240775,983
1747533638590,-0.5213063,1.7596527,0.7487676,-3.0290794,2.240251,-6.045376,984
1747533638600,-0.08615221,2.1623473,0.4502856,-3.0344057,2.4517062,-5.652826,985
1747533638610,0.25552794,2.8530293,0.6548056,-2.7254791,2.5363946,-4.6935554,986
1747533638620,0.630888,2.9347885,0.92497694,-1.8865833,2.674879,-4.271178,987
1747533638630,0.74632705,2.93844925,0.94462357,-1.3952301,2.642921,-4.00486185,988
1747533638640,1.1358424,3.0731688,0.916435,0.029827405,2.3957798,-3.2053807,989
1747533638650,1.3122959,3.1983702,0.7743936,0.7392935,2.241849,-2.7036412,990
1747533638660,1.3166889,3.3906875,0.5688974,1.3070794,1.7859159,-1.3401027,991
1747533638670,1.308391,3.315762,0.4275883,1.1163971,1.5259913,-0.74675035,992
1747533638680,1.2944796,3.2361991,0.49616838,0.88843054,1.2159994,-0.2130529,993
1747533638690,1.3869773,3.120272,0.72338563,0.83889574,0.8447547,0.17896444,994
1747533638700,1.7515988,2.928931,1.2927712,1.1046792,0.43995422,0.45327002,995
1747533638710,1.7818619,2.911603,1.4550693,2.44638,-0.2727077,0.94116116,996
1747533638720,1.6820425,2.903793,1.4948506,3.1217575,-0.71159667,1.2921658,997
1747533638730,1.5866162,2.869625,1.5099822,3.617638,-1.2495552,1.7496969,998
1747533638740,1.4853324,2.7990925,1.4101628,3.8546593,-1.9829898,2.3734093,999
1747533638750,1.3964956,2.6719387,1.0814177,3.6165729,-2.3584955,2.8069718,1000
1747533638760,1.0484699,2.5352666,0.31995904,1.7299895,-2.3009713,3.5824845,1001
