id,timestamp,acc_x,acc_y,acc_z,gyro_x,gyro_y,gyro_z
1,1747533660940,-0.262971698,-0.203299695,0.6790893,0.8964200649999999,-1.479119647,-0.5592638600000001
2,1747533660950,-3.7977748,0.5789038,2.9945824,2.8639636,2.247708,-4.36066
3,1747533660960,-3.921268,0.6660322,3.07805,3.5025895,1.1201255,-4.781972
4,1747533660970,-4.0174265,0.7497439,2.9345443,3.720436,-0.05219796,-5.2043495
5,1747533660980,-3.7762978,0.8573731,2.4874313,3.4706316,-0.9912286,-5.6288576
6,1747533660990,-3.37421345,1.003563425,2.2444725,2.223207,-1.7651432,-6.4065003
7,1747533661000,-3.2303417,1.0389518,2.1994438,1.8192054,-1.69962945,-6.56469215
8,1747533661010,-3.05620695,1.04371085,2.1752821,1.177117225,-1.4538197,-6.8200895
9,1747533661020,-2.579929,1.0265048,2.2053013,0.66365975,-0.8905611,-7.0547137
10,1747533661030,-2.3129306,1.0313859,2.2641191,0.47137952,-0.44101948,-6.883739
11,1747533661040,-2.0453217,0.97208002,2.1258607,0.27803403,-0.3834952,-6.723417
12,1747533661050,-1.9363501,0.94157284,2.0681412,-0.041012682,-0.3153183,-6.621684
13,1747533661060,-1.7730759,0.9066727,1.8270127,-0.49960902,0.08362326,-6.5412564
14,1747533661070,-1.6449459,0.775858,1.956363,-1.0114686,0.22370553,-6.5236797
15,1747533661080,-1.4763023,0.79318607,1.897057,-1.9968382,0.25086978,-6.460829
16,1747533661090,-1.3240106,0.7455949,1.7401282,-2.363289,0.41065946,-6.3963804
17,1747533661100,-1.2583592,0.7138674,1.6932691,-2.6477149,0.66365975,-6.3207464
18,1747533661110,-1.2417633,0.704227165,1.67081595,-2.7704866,0.756870375,-6.2839949
19,1747533661120,-1.138283,0.6958072,1.4060138,-3.1894019,1.2687299,-6.246711
20,1747533661130,-1.1665937,0.66066295,1.134134,-3.7390783,2.696717,-6.472547
21,1747533661140,-1.2388345,0.6884855,1.0848345,-3.8908784,3.496198,-6.727678
22,1747533661150,-1.4126034,0.7582859,1.044565,-3.943609,4.3164515,-6.9801455
23,1747533661160,-1.5524482,0.81149036,0.99770606,-3.9265647,5.1691957,-7.3039856
24,1747533661170,-1.5524482,0.81149036,0.99770606,-3.9265647,5.1691957,-7.3039856
25,1747533661180,-1.5524482,0.81149036,0.99770606,-3.9265647,5.1691957,-7.3039856
26,1747533661190,-2.0071268,1.0575,1.1104605,-3.9920785,5.0653324,-7.6603165
27,1747533661200,-1.9756435,1.1153417,1.1275444,-3.9755669,4.485296,-7.5213
28,1747533661210,-1.9834533,1.1636649,1.0089327,-3.8690405,4.08955,-7.325291
29,1747533661220,-1.9878463,1.1263242,0.7241178,-3.755057,3.9910133,-7.141533
30,1747533661230,-2.0017576,1.1160738,0.69385475,-3.192065,4.0208406,-7.1266193
31,1747533661240,-1.99529005,1.1105825500000002,0.722775545,-2.6743464,4.138552,-7.311975
32,1747533661250,-2.0061505,1.1163179,0.72777873,-1.7310546,3.956126,-7.688280000000001
33,1747533661260,-2.0746087,1.39612945,0.90569645,-1.3928332,3.8168426,-7.786018
34,1747533661270,-2.0620399,1.560502,0.98062205,-0.30519825,2.3616912,-7.7098513
35,1747533661280,-2.0620399,1.560502,0.98062205,-0.30519825,2.3616912,-7.7098513
36,1747533661290,-1.7821059,1.7393959,0.81734776,-0.27483824,0.29880667,-7.175089
37,1747533661300,-1.6254213,1.8211553,0.72704655,-0.4612595,-0.28868666,-6.821421
38,1747533661310,-1.4806952,1.8602043,0.63235235,-0.61385865,-0.45087318,-6.57907335
39,1747533661320,-1.308391,1.8392154,0.47859627,-1.1105382,-0.6428871,-5.9686766
40,1747533661330,-0.96671075,1.7130377,0.27651685,-1.8413097,0.11345066,-5.553756
41,1747533661340,-0.87226063,1.6603215,0.17157225,-2.2572954,0.80587256,-5.43711
42,1747533661350,-0.7382732,1.5827112,0.2111095,-2.6557043,1.4221281,-5.3944993
43,1747533661360,-0.49616838,1.4301754,0.5320448,-3.1473238,1.7102821,-5.6720004
44,1747533661370,-0.12495731,1.4052817,0.64187056,-3.2405345,1.4439659,-6.0613546
45,1747533661380,0.1454581125,1.6843610999999998,0.686899125,-3.1755533,1.2873721,-6.287191
46,1747533661390,0.234539,1.8226196,0.73558855,-2.7814054,1.2330436,-6.0714746
47,1747533661400,0.5254553,1.9700302,0.7197248,-2.404302,0.95607483,-5.6432385
48,1747533661410,1.2083274,2.0393424,0.7402256,-1.6602147,-0.08149273,-4.7335024
49,1747533661420,1.2083274,2.0393424,0.7402256,-1.6602147,-0.08149273,-4.7335024
50,1747533661430,1.8921759,2.0766833,0.4685899,-1.0471549,-1.0519487,-3.9995353
51,1747533661440,2.3051207,2.041783,0.26797485,-0.96299905,-1.3752564,-3.5856802
52,1747533661450,2.9850643,2.0466642,-0.26797485,-1.267132,-1.7433053,-2.7308054
53,1747533661460,3.19568575,2.02408885,-0.43747261,-1.4269216999999998,-1.6524915,-2.52201355
54,1747533661470,3.640358,2.0800998,-0.8263778,-1.700162,-1.1771172,-1.9318571
55,1747533661480,3.8160791,2.1628354,-0.89813066,-1.5733956,-0.7680557,-1.4727281
56,1747533661490,3.9315183,2.2319036,-0.8712844,-1.2239889,-0.5800365,-0.93796533
57,1747533661500,4.006932,2.2711968,-1.0143019,-0.7850999,-0.551807,-0.34461305
58,1747533661510,3.960317,2.2971889,-1.04322265,-0.55686699,-0.67324715,0.412789975
59,1747533661520,3.7372487,2.340509,-1.1246158,-0.283893,-1.0354371,2.2178805
60,1747533661530,3.64218845,2.2833996,-1.1657395,-0.3030677499999999,-1.1416972,2.7619643500000004
61,1747533661540,2.835457,2.0129843,-1.2212625,-0.25992453,-1.9009644,5.464274
62,1747533661550,2.3710163,1.956119,-1.1968567,0.030360037,-2.1326594,6.267483
63,1747533661560,2.12659285,1.9226831,-1.16159045,0.2740392935,-2.24824055,6.610232
64,1747533661570,1.4104068,1.8580079,-0.9664667,1.7001621,-2.52627465,7.77403365
65,1747533661580,0.90642864,1.8389714,-0.767316,2.150769,-2.5486453,8.014517
66,1747533661590,0.45004156,1.811393,-0.6213697,3.042928,-2.5710158,8.444884
67,1747533661600,-0.23502712,1.8133454,-0.49592432,4.286624,-2.2338595,8.975386
68,1747533661610,-0.4803047,1.8599603,-0.29945824,4.7121973,-1.8109496,9.037171
69,1747533661620,-0.733148,1.9085277,-0.17206036,4.7782435,-1.2607405,8.989234
70,1747533661630,-0.9413288,1.9351299,-0.21769907,4.4133906,-0.64075655,8.905611
71,1747533661640,-1.2612879,2.0539858,-0.13374338,2.860235,0.63436496,8.666991
72,1747533661650,-1.4182167,2.160395,0.06028214,2.1315942,1.2389026,8.536497
73,1747533661660,-1.4797191,2.2084742,0.1259335349999999,1.8293254,1.48364705,8.486163000000001
74,1747533661670,-1.7740521,2.3856597,0.36779428,1.1174624,2.0181434,8.4246435
75,1747533661680,-1.978328,2.4227564,0.60038084,0.9571401,1.9382486,8.443819
76,1747533661690,-2.0879097,2.3307467,1.3032657,1.8833876,0.5448828,8.205199
77,1747533661700,-2.1589303,2.2819352,1.4182167,2.5374599,-0.42663842,8.071508
78,1747533661710,-2.3661351,2.3588133,1.2688537,2.893791,-1.5286545,8.062986
79,1747533661720,-2.4066484,2.352712,1.1778203,3.053048,-2.3643544,8.098141
80,1747533661730,-2.3715043,2.3478308,1.0182068,3.0423954,-2.8597023,8.125304
81,1747533661740,-2.3048765,2.2870605,0.673598015,2.5624936,-2.83893,8.19508
82,1747533661750,-2.277542,2.2687562,0.6360132,2.1539648,-2.4319987,8.184959
83,1747533661760,-2.3067071500000003,2.173818,0.5669449799999999,1.5696672,-1.8716697,8.099738
84,1747533661770,-2.309758,2.1154883,0.53106856,1.0626013,-1.4556838,7.9287634
85,1747533661780,-2.31049,1.854835,0.53350914,0.175236,-0.8149273,7.3924026
86,1747533661790,-2.3639383,1.7572123,0.63235235,-0.036218993,-0.8032094,7.1830783
87,1747533661800,-2.3639383,1.7572123,0.63235235,-0.036218993,-0.8032094,7.1830783
88,1747533661810,-2.23776085,1.4717872,0.59281505,-0.18295917,-1.06313395,6.701046
89,1747533661820,-2.204081,1.4406699,0.5645044,-0.19387813,-1.1153319,6.604107
90,1747533661830,-2.131352,1.3742863,0.5020258,-0.09134642725,-1.1366372,6.417419450000001
91,1747533661840,-2.136477,1.329868,0.46322066,-0.0010652645,-1.1723236,6.3819995
92,1747533661850,-2.2758338,1.2781278,0.4300289,0.12676647,-1.3049489,6.50557
93,1747533661860,-2.5010989,1.168058,0.46883395,0.32277513,-1.6149409,6.660566
94,1747533661870,-2.6824331,1.0426126,0.6406503,0.7163904,-2.201369,6.7159595
95,1747533661880,-2.70818125,0.60965499,0.84931925,2.1108215,-2.9337382,6.2344604
96,1747533661890,-2.7043984,0.56596875,0.82247293,2.731338,-3.1350732,5.855226
97,1747533661900,-2.6499736,0.45370242,0.77024466,3.103648,-3.252785,5.5292554
98,1747533661910,-2.62263915,0.406843425,0.739981565,3.1920649,-3.2972598,5.428854
99,1747533661920,-2.4625378,0.2277054,0.7153318,3.4706316,-3.0381343,5.209676
100,1747533661930,-2.788354,0.14985114,0.63503695,3.6160402,-1.6325178,5.7534933
101,1747533661940,-3.2501104,0.14814276,0.7004443,3.5782232,-0.54914385,6.2989087
102,1747533661950,-3.8072932,0.04490653,0.856885,3.401922,0.68869346,6.815029
103,1747533661960,-4.1605661000000005,-0.06540734,0.9016695,3.1403996,1.11772873,6.9902653
104,1747533661970,-5.132524,-0.55059314,1.0677505,2.1007016,2.0889835,7.1995897
105,1747533661980,-6.219555,-1.3384099,0.8258897,-0.14114754,3.1973913,6.1359234
106,1747533661990,-6.578563,-1.6825306,0.80587703,-1.4492923,3.9052596,4.4938183
107,1747533662000,-7.20579,-1.9041346,1.1531705,-1.7305222,4.1832933,3.220827
108,1747533662010,-7.184801,-1.7699032,1.2898425,-1.3720607,4.0772996,1.917476
109,1747533662020,-6.9392796,-1.1251038,1.6483628,-0.49641323,2.6375947,0.31265512
110,1747533662030,-6.329136650000001,-0.7607264,2.502197,2.3097597,-2.77101915,-2.1379859
111,1747533662040,-5.870309000000001,-0.360106455,2.48181825,2.748915,-3.7167077,-2.442119
112,1747533662050,-5.648461,-0.21745501,2.4186075,3.0200248,-5.099421,-2.876214
113,1747533662060,-5.2086697,-0.0056133163,2.335384,2.7174897,-5.583584,-3.1494544
114,1747533662070,-4.478695,0.52252656,1.9475769,1.6836505,-5.172924,-3.2682314
115,1747533662080,-4.152634,0.60062486,1.479475,-1.598962,-3.5622444,-3.428021
116,1747533662090,-3.9859428,0.5544981,1.3676969,-3.3348105,-2.2104237,-3.7390783
117,1747533662100,-3.8680632,0.39537275,1.3686731,-4.647749,-0.90973586,-4.1571946
118,1747533662110,-3.731147,0.28994003,1.2859375,-5.53831,0.028229509,-4.7031426
119,1747533662120,-3.6369412,0.24942651,1.4975352,-5.6472333500000005,0.170442305,-5.53724485
120,1747533662130,-3.393372,0.251378975,1.4144338,-5.06985985,-0.340884645,-5.93964835
121,1747533662140,-3.2014209,0.254673735,1.34438935,-4.4173855,-0.74861462,-6.13405915
122,1747533662150,-3.0990388,0.28359452,1.3193735,-4.063984,-0.99708754,-6.2301993
123,1747533662160,-2.8460736,0.373285565,1.1006982,-3.60698545,-1.005875975,-6.453372
124,1747533662170,-2.7776155,0.40781966,1.0516427,-3.67995605,-0.53662698,-6.6413913
125,1747533662180,-2.51940295,0.74632703,0.91838742,-3.8312237,-0.15233281,-6.768158
126,1747533662190,-2.4945092,0.8171036,0.88983274,-4.1992726,0.51292485,-6.9322085
127,1747533662200,-2.489872,0.9620737,0.9479183,-4.556136,1.3049489,-7.129815
128,1747533662210,-2.5804172,1.2366381,1.146825,-5.18916945,2.8226845000000003,-7.838216
129,1747533662220,-2.605555,1.3694052,1.1912434,-5.3002234,3.04133,-8.01505
130,1747533662230,-2.5992098,1.4787428,1.205887,-5.3689327,3.3641052,-8.307998
131,1747533662240,-2.56199085,1.61931985,1.16403105,-5.2698635,3.7404099,-8.682970749999999
132,1747533662250,-2.5533268,1.6717921,1.1578076,-5.195295,3.8397458,-8.7815075
133,1747533662260,-2.6975648,1.973691,1.1104605,-4.56093,3.9862196,-8.761268
134,1747533662270,-2.77151405,2.0907164,1.1918536,-3.83015825,3.95399535,-8.5530085
135,1747533662280,-2.8213017,2.1306198,1.2053988,-3.5750275,3.8967373,-8.475244
136,1747533662290,-2.8666964,2.1874852,1.2471325,-3.0770164,3.6171055,-8.383632
137,1747533662300,-2.9855523,2.3839512,1.2742229,-1.9808593,2.880475,-8.303737
138,1747533662310,-2.92527,2.4291017,1.2866699,-1.6128104,2.3121564,-8.175904
139,1747533662320,-2.68365345,2.40677045,1.2267537,-1.3108079,1.43517755,-7.8190413
140,1747533662330,-2.6016502,2.3651588,1.1963686,-1.2703278,1.1249193,-7.6778936
141,1747533662340,-2.3590572,2.2875485,1.0308977,-1.3523532,0.5992113,-7.490407
142,1747533662350,-1.9160933,2.0881538,0.64016217,-1.7267936,0.47564057,-7.4014573
143,1747533662360,-1.66105365,1.94342775,0.447356915,-2.02480135,0.99202757,-7.433415
144,1747533662370,-1.50827375,1.81871455,0.320203115,-2.30177005,1.4551513,-7.471232
145,1747533662380,-1.4428664,1.7506226,0.264314,-2.4650218,1.7230653,-7.487211
146,1747533662390,-1.3576905,1.6825306,0.2518671,-2.6402578,2.156628,-7.4531226
147,1747533662400,-1.1931958,1.5341438,0.31873876,-2.7425234,2.8767467,-7.1985245
148,1747533662410,-1.1048472,1.441158,0.3414361,-2.76755705,3.0913975,-6.9338063000000005
149,1747533662420,-0.99795,1.3367015,0.41148052,-2.7723508,3.118029,-6.8421936
150,1747533662430,-0.87555537,1.29643205,0.44528243,-2.81549395,2.8258802000000003,-6.504771
151,1747533662440,-0.77951884,1.2910628,0.42270714,-2.8469193,2.664759,-6.3937173
152,1747533662450,-0.25796852,1.1658615,0.08712844,-3.1915324,2.9427931,-6.045376
153,1747533662460,0.099575355,1.07092315,-0.218431235,-3.596333,4.0139165000000006,-5.9223379000000005
154,1747533662470,0.284082635,1.05518145,-0.1786499074999999,-3.7201698,4.759335350000001,-5.8879832
155,1747533662480,0.4539465,1.12839865,-0.0913994375,-3.68581495,5.3060823,-5.8472367
156,1747533662490,0.52911615,1.189535,-0.07150877,-3.6405413,5.5111456,-5.810485
157,1747533662500,0.8681116,1.4853324,0.3392396,-2.9049761,5.168663,-5.2666674
158,1747533662510,1.120955,1.6991266,0.55059314,-2.53373145,4.8690575,-5.0283147
159,1747533662520,1.6130964,1.7491583,0.65944268,-0.814927315,3.4607779,-4.08981655
160,1747533662530,1.794797,1.7667305,0.67018116,-0.30466563,3.0242858,-3.8717036
161,1747533662540,2.464002,2.0198178,0.77829856,1.3049489,1.8359833,-3.3300166
162,1747533662550,2.7737105,2.1672285,0.89105296,2.1406488,1.2793826,-3.0402648
163,1747533662560,2.9772544,2.2270224,0.8917852,2.8304076,0.9438243,-2.6887274
164,1747533662570,3.06426085,2.26948835,0.8837313,3.0229542,0.8045409649999999,-2.4959146
165,1747533662580,3.1631040500000003,2.39993695,0.8798264,3.273025,0.28495824,-1.911617
166,1747533662590,3.2674387,2.6282525,0.8886124,2.7292075,-0.20080236,-0.8362326
167,1747533662600,3.2464496,2.66864405,0.92302448,2.54358515,-0.2953445799999999,-0.492152185
168,1747533662610,3.1860452500000003,2.69719875,0.97915768,2.12387095,-0.544882775,0.335291965
169,1747533662620,3.0172799,2.6284966,1.0069802,1.5792545,-0.98750013,1.5739282
170,1747533662630,2.4284917,2.3920052,0.722409455,0.98723385,-1.10814135,3.12655115
171,1747533662640,2.2738814,2.3585694,0.65944266,0.8644621,-1.0274476,3.3955305
172,1747533662650,1.9278082,2.2653394,0.5723142,0.6034723,-0.91452956,3.8775625
173,1747533662660,1.5878365,2.2189684,0.49616838,0.35313517,-0.8490158,4.2855587
174,1747533662670,0.825523615,2.1647878,0.560233385,0.324106695,-1.3640712000000002,5.12045975
175,1747533662680,0.471152495,2.1945628,0.5265535,0.4383563,-1.5563514,5.3257895
176,1747533662690,0.28042176,2.229219,0.4807928,0.5917544,-1.9046929,5.8387146
177,1747533662700,-0.110557936,2.2641191,0.28871974,0.6125271,-2.2221417,6.486928
178,1747533662710,-0.45736328,2.2528925,0.14545812,0.60560286,-2.2988408,7.1191626
179,1747533662720,-1.1888028,2.0100555,-0.019280521,0.5406217,-2.05383,8.097608
180,1747533662730,-1.4755701,1.8416561,-0.032459613,0.47750479,-2.20057,8.365522
181,1747533662740,-1.65751485,1.6054086,0.0683360314999999,0.48629323,-2.31695,8.372446
182,1747533662750,-1.704984,1.5400012,0.12178457,0.6982809,-2.5268073,8.200938
183,1747533662760,-1.7411044,1.4802072,0.2523552,1.1914983,-2.6029737,7.881359
184,1747533662770,-1.7152344,1.4889933,0.29213652,1.5696672,-2.599778,7.608651
185,1747533662780,-1.5980868,1.692537,0.3607166,1.9446403,-2.4666197,7.104781
186,1747533662790,-1.6761852,1.8787526,0.35241865,1.953695,-2.231729,6.9844065
187,1747533662800,-1.7271931,1.9395229,0.3355787,1.7795243,-1.9984361,7.015299
188,1747533662810,-1.7786892,1.97125045,0.43491,1.27006155,-1.62612625,7.23527625
189,1747533662820,-1.7080346999999998,1.9617321,0.5255772750000001,0.994158025,-1.5193335,7.306915050000001
190,1747533662830,-1.7054721,2.01493665,0.526065425,0.97471699,-1.4466292,7.35671615
191,1747533662840,-1.67813765,2.0514232,0.4937278499999999,1.040230765,-1.2684637,7.40651735
192,1747533662850,-1.6305465,2.0444674,0.4751795,1.0855045,-1.1627362,7.41211
193,1747533662860,-1.496071,2.0183535,0.53765815,1.2442288,-1.0013486,7.299192
194,1747533662870,-1.496071,2.0183535,0.53765815,1.2442288,-1.0013486,7.299192
195,1747533662880,-1.496071,2.0183535,0.53765815,1.2442288,-1.0013486,7.299192
196,1747533662890,-1.496071,2.0183535,0.53765815,1.2442288,-1.0013486,7.299192
197,1747533662900,-1.7457415,2.0615516,0.73632073,1.4700649,-0.94808535,7.35245515
198,1747533662910,-1.88448805,2.01603485,0.751330215,1.6753947,-1.021056,7.56417665
199,1747533662920,-2.0232346,1.9705181,0.7663397,1.6548884,-1.1472899,7.722635
200,1747533662930,-2.0232346,1.9705181,0.7663397,1.6548884,-1.1472899,7.722635
201,1747533662940,-2.28047095,1.88790475,0.82625575,1.45941235,-1.4343786500000002,7.6675075
202,1747533662950,-2.5319719000000003,1.7232882,0.8692098749999999,1.24848995,-1.84477175,7.4155725
203,1747533662960,-2.5262365,1.641285,0.85224795,1.2330436,-1.9680761,7.218765
204,1747533662970,-2.71245215,1.6127303,0.82869638,1.27592045,-2.19923845,7.1207605
205,1747533662980,-2.9128233000000003,1.4955828,0.82942855,1.37552275,-2.257828,7.06243715
206,1747533662990,-3.0429058,1.2913069,1.006004,1.7449032,-2.582201,6.8869348
207,1747533663000,-2.99665695,1.26860965,1.1567093000000002,2.3281355,-3.2240229,6.727678
208,1747533663010,-3.000928,1.2734908,1.1475571,2.5459821,-3.3997915,6.8512483
209,1747533663020,-3.0355842,1.1790406,0.9654905,2.6093652,-3.2842102,6.9567094
210,1747533663030,-3.1063607,0.93205464,0.7412019,2.505502,-2.855974,6.9577746
211,1747533663040,-3.3843417,0.77292925,0.61966133,2.360626,-2.1742048,6.986537
212,1747533663050,-4.23,0.29897013,0.9193637,2.6194854,-0.34834146,7.1505876
213,1747533663060,-4.23,0.29897013,0.9193637,2.6194854,-0.34834146,7.1505876
214,1747533663070,-4.23,0.29897013,0.9193637,2.9531795,0.16564864,7.3697658
215,1747533663080,-5.3438773,-0.33899552,1.3618395,3.2868736,0.67963874,7.588944
216,1747533663090,-5.8262565,-0.71325726,1.51425325,3.2868736,0.67963874,7.588944
217,1747533663100,-7.093524,-1.9324453,1.5697763,3.0621028,0.7707188,7.655523
218,1747533663110,-7.3571057,-2.2604582,1.6346955,1.1254519,0.753142,5.174522
219,1747533663120,-7.4845033,-2.3671112,1.581491,0.53103435,0.82557994,3.8919437
220,1747533663130,-7.63289,-2.4037197,1.4677603,0.029294772,0.93423694,2.6727486
221,1747533663140,-7.3546653,-2.4193394,1.6320108,-0.2492718639999999,1.30521527,1.267132115
222,1747533663150,-7.1852894,-2.1708894,1.5902771,-0.8878979,1.5941683,-1.2479573
223,1747533663160,-7.004199,-1.9075515,1.6166352,-1.4354437999999998,0.90094745,-2.4639566
224,1747533663170,-6.696443,-1.7342708,1.667399,-1.5760587,0.6428871,-2.8107002
225,1747533663180,-6.3537865,-1.4980234,1.6356717,-1.7592843,0.10333065,-3.47436
226,1747533663190,-5.76316785,-1.05969655,1.5247477,-1.8642128,-0.5320996,-4.1555967
227,1747533663200,-5.1725492,-0.6213697,1.4138237,-1.9212044,-1.2554141,-5.230981
228,1747533663210,-4.829405,-0.34656128,1.2566508,-2.0229373,-1.1211908,-5.542571
229,1747533663220,-4.478206,-0.12032023,1.1143653,-2.1928468,-0.6045376,-5.790245
230,1747533663230,-4.178016,0.024161667,1.0772687,-2.3979104,0.21518342,-6.0645504
231,1747533663240,-3.9576323,0.191829,1.1104605,-2.7350664,1.1691277,-6.4065003
232,1747533663250,-3.850247,0.31105097,1.1806269,-2.7350664,1.1691277,-6.4065003
233,1747533663260,-3.7038126,0.46749167,1.29094075,-3.412042,1.9720708,-7.0336748
234,1747533663270,-3.5974035,0.6101431,1.351345,-3.5984633,2.2008364,-7.397729
235,1747533663280,-3.414605,0.70288485,1.2183337,-3.7513287,2.5007083,-7.706123
236,1747533663290,-3.2125256,0.84883106,0.8266219,-4.4922204,3.752394,-8.471516
237,1747533663300,-3.1234446,0.9176552,0.6716455,-5.0626693,4.5412226,-8.867261
238,1747533663310,-3.0621862,0.95572823,0.55962324,-5.6139436,5.5798554,-9.333315
239,1747533663320,-3.0250895,1.0035634,0.5781716,-5.7108827,6.326606,-9.657687
240,1747533663330,-2.9899454,1.0792211,0.7141115,-5.4307184,6.806507,-9.903231
241,1747533663340,-2.9057455,1.372578,1.0601847,-5.4307184,6.806507,-9.903231
242,1747533663350,-2.9057455,1.372578,1.0601847,-5.4307184,6.806507,-9.903231
243,1747533663360,-2.8036076000000003,1.54219775,1.19563645,-4.6605321,6.7108995,-10.006828
244,1747533663370,-2.5518626,1.832992,1.32364445,-2.42853665,5.4221959,-9.7948405
245,1747533663380,-2.4022555,1.9541665,1.3162007,-0.9667275,4.2290998,-9.479256
246,1747533663390,-2.4022555,1.9541665,1.3162007,-0.9667275,4.2290998,-9.479256
247,1747533663400,-2.4022555,1.9541665,1.3162007,-0.9667275,4.2290998,-9.479256
248,1747533663410,-2.4022555,1.9541665,1.3162007,-0.9667275,4.2290998,-9.479256
249,1747533663420,-2.4022555,1.9541665,1.3162007,-0.9667275,4.2290998,-9.479256
250,1747533663430,-2.4022555,1.9541665,1.3162007,-0.9667275,4.2290998,-9.479256
251,1747533663440,-2.4022555,1.9541665,1.3162007,-0.9667275,4.2290998,-9.479256
252,1747533663450,-2.4022555,1.9541665,1.3162007,-0.9667275,4.2290998,-9.479256
253,1747533663460,-2.4022555,1.9541665,1.3162007,-0.9667275,4.2290998,-9.479256
254,1747533663470,-2.4022555,1.9541665,1.3162007,-0.9667275,4.2290998,-9.479256
255,1747533663480,-2.4022555,1.9541665,1.3162007,-0.9667275,4.2290998,-9.479256
256,1747533663490,-1.8591061,1.79662745,1.11985665,-1.05674235,3.422961,-8.021175
257,1747533663500,-1.3159567,1.6390884,0.9235126,-0.9102685,2.390986,-6.362292
258,1747533663510,-1.0503003,1.5369505,0.79733505,-0.7068030000000001,2.1481058500000003,-5.93139265
259,1747533663520,-0.8390688,1.40894245,0.7069118,-0.6849651,2.047971,-5.7305903
260,1747533663530,-0.746083,1.3490264,0.66786265,-0.93476955,1.8868497,-5.4315172
261,1747533663540,-0.6855568,1.3213259,0.6628595,-1.0375676,1.8311896,-5.33591
262,1747533663550,-0.6855568,1.3213259,0.6628595,-1.0375676,1.8311896,-5.33591
263,1747533663560,-0.6855568,1.3213259,0.6628595,-1.0375676,1.8311896,-5.33591
264,1747533663570,-0.6855568,1.3213259,0.6628595,-1.0375676,1.8311896,-5.33591
265,1747533663580,-0.6855568,1.3213259,0.6628595,-1.0375676,1.8311896,-5.33591
266,1747533663590,0.729853225,1.5703863500000002,0.189632485,-2.16861215,2.9063077,-4.4858285
267,1747533663600,0.89617825,1.6307905,0.16058967,-2.202967,3.1569111,-4.444816
268,1747533663610,1.69204885,2.1152443,0.45858356,-1.6330504,3.5020568,-4.1998053
269,1747533663620,1.8499539,2.2062776,0.54986095,-1.0013486,3.1739554,-3.840811
270,1747533663630,1.9509935,2.4071367,0.72631437,-0.070307456,2.20563,-2.9640985
271,1747533663640,2.242398,2.570899,0.9091133,0.7281082,1.1504856,-2.0937772
272,1747533663650,2.544541,2.6360621,0.9025237,1.412008,0.05539375,-1.2665994
273,1747533663660,2.6957343,2.68157885,0.771464975,2.0112193,-1.3145363,0.3898868
274,1747533663670,2.9408898,2.699029,0.48640612,2.010154,-1.6048208,1.0780476
275,1747533663680,2.9745698,2.6116564,0.38487828,1.9425098,-1.6927053,1.6271914
276,1747533663690,2.9745698,2.6116564,0.38487828,1.9425098,-1.6927053,1.6271914
277,1747533663700,2.9745698,2.6116564,0.38487828,1.9425098,-1.6927053,1.6271914
278,1747533663710,2.9745698,2.6116564,0.38487828,1.9425098,-1.6927053,1.6271914
279,1747533663720,2.9745698,2.6116564,0.38487828,1.9425098,-1.6927053,1.6271914
280,1747533663730,2.9745698,2.6116564,0.38487828,1.9425098,-1.6927053,1.6271914
281,1747533663740,2.9745698,2.6116564,0.38487828,1.9425098,-1.6927053,1.6271914
282,1747533663750,2.9745698,2.6116564,0.38487828,1.9425098,-1.6927053,1.6271914
283,1747533663760,2.9745698,2.6116564,0.38487828,1.9425098,-1.6927053,1.6271914
284,1747533663770,2.9745698,2.6116564,0.38487828,1.9425098,-1.6927053,1.6271914
285,1747533663780,2.9745698,2.6116564,0.38487828,1.9425098,-1.6927053,1.6271914
286,1747533663790,2.9745698,2.6116564,0.38487828,1.9425098,-1.6927053,1.6271914
287,1747533663800,1.14963159,1.85434695,-0.16839951,1.5299861,-1.51959975,5.9790627
288,1747533663810,-0.48957884,1.6315227,-0.31727442,1.4892397,-1.4966966,8.487494
289,1747533663820,-0.7753699,1.5944259,-0.1871919,1.7188042,-1.6314526,8.804411
290,1747533663830,-0.92900395,1.586128,-0.1509494,1.8684738,-1.68258525,8.911736000000001
291,1747533663840,-1.082638,1.5778301,-0.1147069,2.16781305,-1.7715348,9.0422305
292,1747533663850,-1.4505543,1.53756065,-0.048079277,2.53905775,-1.62186515,8.9673955
293,1747533663860,-1.69497755,1.5834434000000002,0.0086640319999999,2.74651805,-1.2969595,8.8235855
294,1747533663870,-1.86679385,1.66251795,0.0475911615,2.7324033,-1.1595404,8.77778
295,1747533663880,-1.9507496,1.701079,0.06980037,2.4165523,-0.8181231,8.737832
296,1747533663890,-1.9507496,1.701079,0.06980037,2.4165523,-0.8181231,8.737832
297,1747533663900,-1.9507496,1.701079,0.06980037,2.4165523,-0.8181231,8.737832
298,1747533663910,-1.9507496,1.701079,0.06980037,2.4165523,-0.8181231,8.737832
299,1747533663920,-1.9507496,1.701079,0.06980037,2.4165523,-0.8181231,8.737832
300,1747533663930,-1.9507496,1.701079,0.06980037,2.4165523,-0.8181231,8.737832
301,1747533663940,-1.9507496,1.701079,0.06980037,2.4165523,-0.8181231,8.737832
302,1747533663950,-1.9507496,1.701079,0.06980037,2.4165523,-0.8181231,8.737832
303,1747533663960,-1.9507496,1.701079,0.06980037,2.4165523,-0.8181231,8.737832
304,1747533663970,-1.9507496,1.701079,0.06980037,2.4165523,-0.8181231,8.737832
305,1747533663980,-1.9507496,1.701079,0.06980037,2.4165523,-0.8181231,8.737832
306,1747533663990,-1.9507496,1.701079,0.06980037,2.4165523,-0.8181231,8.737832
307,1747533664000,-1.9507496,1.701079,0.06980037,2.4165523,-0.8181231,8.737832
308,1747533664010,-1.9143851,1.6429933,0.51544887,1.5904398,-0.4777711,6.526343
309,1747533664020,-1.9828431,1.4659299,0.67677075,1.4418355,-0.327568825,6.1923821
310,1747533664030,-1.9846736,1.313272,0.72741265,1.4141386,-0.43729106,5.9180765
311,1747533664040,-1.8021187,1.0845904,0.656514,1.3539511,-0.6801714,5.344432
312,1747533664050,-1.8021187,1.0845904,0.656514,1.3539511,-0.6801714,5.344432
313,1747533664060,-1.8021187,1.0845904,0.656514,1.3539511,-0.6801714,5.344432
314,1747533664070,-1.8021187,1.0845904,0.656514,1.3539511,-0.6801714,5.344432
315,1747533664080,-1.8021187,1.0845904,0.656514,1.3539511,-0.6801714,5.344432
316,1747533664090,-1.8021187,1.0845904,0.656514,1.3539511,-0.6801714,5.344432
317,1747533664100,-1.8021187,1.0845904,0.656514,1.3539511,-0.6801714,5.344432
318,1747533664110,-1.8021187,1.0845904,0.656514,1.3539511,-0.6801714,5.344432
319,1747533664120,-1.8021187,1.0845904,0.656514,1.3539511,-0.6801714,5.344432
320,1747533664130,-1.8021187,1.0845904,0.656514,1.3539511,-0.6801714,5.344432
321,1747533664140,-2.17442795,0.69422084,0.75108618,1.92440025,-0.94249275,5.60222585
322,1747533664150,-2.7515013,0.08639627,0.76267886,2.3270702,-0.93849797,6.01368405
323,1747533664160,-3.02594375,-0.067725885,0.7473032799999999,2.0346551,-0.3070624635,6.2975772
324,1747533664170,-4.0341443,-0.49702257,0.7707328,1.82373275,0.5030711415,6.5580345
325,1747533664180,-5.1099487,-0.9457218,0.93547145,1.5600798,2.3638217,6.3819995
326,1747533664190,-5.451995,-1.1192465,1.061405,1.5600798,2.3638217,6.3819995
327,1747533664200,-5.451995,-1.1192465,1.061405,1.5600798,2.3638217,6.3819995
328,1747533664210,-5.451995,-1.1192465,1.061405,1.5600798,2.3638217,6.3819995
329,1747533664220,-5.451995,-1.1192465,1.061405,1.5600798,2.3638217,6.3819995
330,1747533664230,-5.451995,-1.1192465,1.061405,1.5600798,2.3638217,6.3819995
331,1747533664240,-5.451995,-1.1192465,1.061405,1.5600798,2.3638217,6.3819995
332,1747533664250,-5.451995,-1.1192465,1.061405,1.5600798,2.3638217,6.3819995
333,1747533664260,-5.451995,-1.1192465,1.061405,1.5600798,2.3638217,6.3819995
334,1747533664270,-5.451995,-1.1192465,1.061405,1.5600798,2.3638217,6.3819995
335,1747533664280,-5.6674974,-0.32618252,1.982599,-0.8551410150000001,-1.6415725,-4.08289225
336,1747533664290,-5.3338712,-0.089446977,1.5971107,-1.96354865,-1.3046826500000002,-4.620850750000001
337,1747533664300,-5.028067500000001,0.202689543,1.31339415,-2.5859294,-1.0279802,-4.8810415
338,1747533664310,-4.80316865,0.40379272,1.22870625,-4.8410943500000005,0.522512215,-5.7694725
339,1747533664320,-4.7339783,0.43368974,1.2395668,-5.073322,0.69348717,-5.909022
340,1747533664330,-4.7339783,0.43368974,1.2395668,-5.073322,0.69348717,-5.909022
341,1747533664340,-4.7339783,0.43368974,1.2395668,-5.073322,0.69348717,-5.909022
342,1747533664350,-4.7339783,0.43368974,1.2395668,-5.073322,0.69348717,-5.909022
343,1747533664360,-4.7339783,0.43368974,1.2395668,-5.073322,0.69348717,-5.909022
344,1747533664370,-4.7339783,0.43368974,1.2395668,-5.073322,0.69348717,-5.909022
345,1747533664380,-4.7339783,0.43368974,1.2395668,-5.073322,0.69348717,-5.909022
346,1747533664390,-4.7339783,0.43368974,1.2395668,-5.073322,0.69348717,-5.909022
347,1747533664400,-4.7339783,0.43368974,1.2395668,-5.073322,0.69348717,-5.909022
348,1747533664410,-3.4944115,1.2651927,0.19158493,-4.4767737,3.7183056,-9.879795
349,1747533664420,-3.431811,1.29618795,0.171938325,-4.301804049999999,4.2288338,-10.192184
350,1747533664430,-3.33003925,1.3825842499999998,0.1961,-3.83415305,5.01899375,-10.6518455
351,1747533664440,-3.2043496,1.5921074000000002,0.394518555,-2.8642298,5.20062125,-10.843859
352,1747533664450,-3.1178312,1.7462295,0.54912883,-2.1869879,5.102617,-10.8886
353,1747533664460,-3.1178312,1.7462295,0.54912883,-2.1869879,5.102617,-10.8886
354,1747533664470,-3.1178312,1.7462295,0.54912883,-2.1869879,5.102617,-10.8886
355,1747533664480,-3.1178312,1.7462295,0.54912883,-2.1869879,5.102617,-10.8886
356,1747533664490,-3.1178312,1.7462295,0.54912883,-2.1869879,5.102617,-10.8886
357,1747533664500,-2.9345443,2.02689535,0.5253332150000001,-0.807736765,3.6935383,-10.0507695
358,1747533664510,-2.70854735,2.2531364,0.4827452,0.40586575,2.13319205,-8.963934
359,1747533664520,-2.630571,2.1595405000000003,0.4455265,0.080960095,2.0932446,-8.667524
360,1747533664530,-2.57333955,2.0942553,0.3879289999999999,-0.0074568525,2.20323315,-8.668323000000001
361,1747533664540,-2.4987801,2.03165465,0.31324747,-0.181627585,2.4887240000000004,-8.6989495
362,1747533664550,-2.37162625,1.95941365,0.3998878,-0.296409835,2.8628981500000004,-8.7434245
363,1747533664560,-2.28449785,1.97161645,0.57499888,-0.303600375,2.95770675,-8.6829705
364,1747533664570,-2.1894376,2.1088986,0.6721336,-0.271109805,2.676477,-8.4773745
365,1747533664580,-2.1053599,2.1084106,0.67188955,-0.26045716,2.4991105,-8.34688
366,1747533664590,-1.7098651,2.0056624,0.6543175,-0.263652965,1.91800865,-7.717574649999999
367,1747533664600,-1.7098651,2.0056624,0.6543175,-0.26525086,1.7129452,-7.439807
368,1747533664610,-1.7098651,2.0056624,0.6543175,-0.26525086,1.7129452,-7.439807
369,1747533664620,-1.7098651,2.0056624,0.6543175,-0.26525086,1.7129452,-7.439807
370,1747533664630,-1.7098651,2.0056624,0.6543175,-0.26525086,1.7129452,-7.439807
371,1747533664640,-1.7098651,2.0056624,0.6543175,-0.26525086,1.7129452,-7.439807
372,1747533664650,-1.7098651,2.0056624,0.6543175,-0.26525086,1.7129452,-7.439807
373,1747533664660,-1.7098651,2.0056624,0.6543175,-0.26525086,1.7129452,-7.439807
374,1747533664670,-1.7098651,2.0056624,0.6543175,-0.26525086,1.7129452,-7.439807
375,1747533664680,-0.905818485,1.80114245,0.54729839,-1.23038048,2.17180785,-6.48932485
376,1747533664690,0.5862255000000001,2.0736324,0.735954625,-2.1893848,2.48712625,-5.28823935
377,1747533664700,0.8898327500000001,2.336238,0.83406565,-2.11588155,2.11055525,-4.74868285
378,1747533664710,1.4479916,2.6036026,0.8402891,-1.7869811,1.4897723,-3.7800908
379,1747533664720,1.6998588,2.6782842,0.96671075,-1.2799152,1.1920309,-2.9289446
380,1747533664730,2.058867,2.7031782,1.154879,-0.617853363,0.584031225,-2.0370519
381,1747533664740,2.058867,2.7031782,1.154879,0.044208474,-0.02396845,-1.1451592
382,1747533664750,2.058867,2.7031782,1.154879,0.044208474,-0.02396845,-1.1451592
383,1747533664760,2.058867,2.7031782,1.154879,0.044208474,-0.02396845,-1.1451592
384,1747533664770,2.058867,2.7031782,1.154879,0.044208474,-0.02396845,-1.1451592
385,1747533664780,2.058867,2.7031782,1.154879,0.044208474,-0.02396845,-1.1451592
386,1747533664790,2.058867,2.7031782,1.154879,0.044208474,-0.02396845,-1.1451592
387,1747533664800,2.058867,2.7031782,1.154879,0.044208474,-0.02396845,-1.1451592
388,1747533664810,2.058867,2.7031782,1.154879,0.044208474,-0.02396845,-1.1451592
389,1747533664820,2.3132967,2.6380148,0.795626625,1.11692985,-1.59976095,1.8812570475
390,1747533664830,2.01310625,2.3361161,0.6111193500000001,2.0106866,-2.5118935,4.0629187
391,1747533664840,1.9541665,2.3283062,0.4846977,2.0106866,-2.5118935,4.0629187
392,1747533664850,1.9541665,2.3283062,0.4846977,2.6106969,-3.15531325,4.60939935
393,1747533664860,1.9541665,2.3283062,0.4846977,3.2107072,-3.798733,5.15588
394,1747533664870,1.0472497,2.247523,-0.32215557,2.57288,-3.5862128,6.6669576500000005
395,1747533664880,0.65065664,2.2267783,-0.31068486,1.7688716,-3.0676953,7.92343715
396,1747533664890,-0.12129646,2.1669843,-0.23258655,1.536644,-2.4293356,9.248094
397,1747533664900,-0.55108124,2.1933424,-0.174745,1.7566211,-2.2205439,9.697635
398,1747533664910,-0.9545079,2.1984677,-0.10592084,2.112952,-2.1156151,10.191385
399,1747533664920,-1.6283499,2.1662521,0.029774986,2.612561,-2.0703416,10.641459
400,1747533664930,-1.8868065,2.1835802,-0.030507157,2.6051042,-1.9648803,10.691526
401,1747533664940,-2.0957196,2.182604,-0.08712844,2.3989756,-1.7273263,10.637198
402,1747533664950,-2.2997513,2.1774788,-0.08517598,2.098571,-1.3486248,10.515225
403,1747533664960,-2.5233078,2.221043,-0.030263099,1.75608845,-0.9853696,10.440923
404,1747533664970,-2.7468643,2.2646072,0.024649782,1.4136059,-0.6221144,10.366621
405,1747533664980,-2.7468643,2.2646072,0.024649782,1.4136059,-0.6221144,10.366621
406,1747533664990,-2.979939,2.2965786,0.1398448,1.1568772,-0.4362258,10.438526
407,1747533665000,-3.3578616500000003,2.24593685,0.70825413,1.72226635,-1.4042848499999998,10.5844675
408,1747533665010,-3.36762395,2.17699075,0.8084396,2.5254757000000003,-2.1113542,10.2020375
409,1747533665020,-3.27915325,2.1560018000000003,0.8179578350000001,3.28287865,-2.5302695,9.664345
410,1747533665030,-3.1661546,2.217016,0.67750293,3.5388085,-2.41681875,9.301889
411,1747533665040,-3.1334509500000003,2.217016,0.647117795,3.4573157,-1.7044232,8.816661
412,1747533665050,-3.1007473,2.217016,0.61673266,3.4573157,-1.7044232,8.816661
413,1747533665060,-2.954679,2.06594455,0.524357005,2.267948,-0.54275227,8.1269025
414,1747533665070,-2.8086107,1.9148731,0.43198135,1.0785803,0.61891866,7.437144
415,1747533665080,-2.72929215,1.8477574,0.5878118999999999,0.495081675,0.92118748,7.1109067
416,1747533665090,-2.732953,1.833114,0.63332856,-0.08841695,1.2234563,6.7846694
417,1747533665100,-2.4535074,1.56038005,0.9352274,-0.280963505,1.04688867,6.6342007
418,1747533665110,-2.425929,1.4660518,0.9701275,-0.23808661,0.004261058,6.217416
419,1747533665120,-2.4411827,1.4132135,0.92998012,-0.164849675,-0.254864521,6.171077
420,1747533665130,-2.4289799,1.2997269,0.845536355,-0.0418116284999999,-0.6844324150000001,6.0182115
421,1747533665140,-2.4334948,1.1504859,0.60599416,-0.0348874084999999,-0.937432715,5.7990335
422,1747533665150,-2.3905408,0.8778739,0.50934744,-0.26551716,-1.20215095,5.5311195
423,1747533665160,-2.3295264,0.71215904,0.5125202,-0.4229099899999999,-1.4444986,5.2869075
424,1747533665170,-2.33440755,0.6268610349999999,0.538634335,-0.250869785,-1.71347785,5.083175649999999
425,1747533665180,-2.3215946,0.4958022949999999,0.5835408849999999,-0.10918961,-1.9222697,4.9683933
426,1747533665190,-2.3039005,0.45004156,0.6023333,-0.10918961,-1.9222697,4.9683933
427,1747533665200,-2.5029291,0.410992385,0.366085855,1.8213359,-3.1105722,4.7351005
428,1747533665210,-2.5522287,0.230512065,0.43124914,2.7209518,-3.33081565,5.1372377
429,1747533665220,-2.6109245,-0.17498904,0.44223174,3.3289514,-3.3182988,5.7210026
430,1747533665230,-2.9928741,-0.35363895,0.30604777,3.2751555,-2.705239,6.155098
431,1747533665240,-3.27537035,-0.399155635,0.2699273,3.0674289,-2.2298648,6.350574
432,1747533665250,-4.2812523,-0.72619236,0.216844855,2.30203645,-0.3597931,6.673349
433,1747533665260,-5.4496762,-1.22358095,0.157905035,1.332645875,1.6506272000000002,6.637929
434,1747533665270,-6.32437755,-1.70779055,0.225996995,0.592020735,2.67487895,6.11408535
435,1747533665280,-7.0257983500000005,-2.16783855,0.4865281,0.29108351,2.62294735,4.29807585
436,1747533665290,-7.6472898,-2.23995745,0.9344952,0.3190467,2.1624868,2.843191
437,1747533665300,-7.9908003,-2.01213,1.2837411,1.3169332,-0.24740767,0.235956125
438,1747533665310,-7.77078285,-1.6844831,1.4599504,1.93798235,-2.01441515,-1.381914325
439,1747533665320,-7.40372085,-1.18636225,1.6371359,2.3206786,-3.04372695,-2.50257255
440,1747533665330,-7.250453,-0.9076489,1.6898522,2.4485104,-3.4184337,-2.954511
441,1747533665340,-6.3957643,-0.1748670279999999,1.8366528,2.2272017,-3.71564235,-3.37129575
442,1747533665350,-5.704716149999999,0.1743789069999999,1.7979698,1.238636245,-3.8386804,-4.0107207
443,1747533665360,-5.1781626,0.54107493,1.565139,-1.1313108,-3.400324,-5.0141997
444,1747533665370,-4.8996935,0.58232063,1.1375508,-2.4144218,-2.412824,-5.502091
445,1747533665380,-4.7120132,0.66017485,0.8922733,-3.5920718,-1.0327739,-6.0762687
446,1747533665390,-4.6456296,0.713867425,0.9628058,-4.7116647,1.623463,-7.2565813
447,1747533665400,-4.4838197,0.8448041500000001,1.25616265,-4.7116647,1.623463,-7.2565813
448,1747533665410,-4.4879684,0.8402891,1.3059504,-4.546016,1.8221349,-7.5473986
449,1747533665420,-4.250501,1.0135698,1.5243815,-3.8397458,0.7781757,-7.777496
450,1747533665430,-3.8039982,1.21638135,1.2561627,-3.3332125,0.047404265,-8.194547
451,1747533665440,-3.6049694,1.28191065,1.040171965,-3.49406745,0.411458385,-8.538360999999998
452,1747533665450,-3.526383,1.3271832,0.91863143,-3.6586509,0.67058396,-8.728777
453,1747533665460,-3.3645732,1.3930788,0.72338563,-4.230165,1.4072144,-9.137838
454,1747533665470,-3.2581644,1.4050376,0.59086263,-5.3481603,3.6240296,-10.124806
455,1747533665480,-3.1725001500000003,1.4243181,0.5712160150000001,-5.39876035,4.0277648,-10.33066825
456,1747533665490,-3.0746331,1.5080298,0.5786598,-5.34150245,4.7311055,-10.679276
457,1747533665500,-3.09794065,1.55269225,0.640162185,-4.679174,5.35828,-10.912569
458,1747533665510,-3.1107536,1.6517794499999998,0.794406335,-4.27650405,5.33830635,-10.8968565
459,1747533665520,-3.100259,1.7062042,0.8871481,-3.41869995,5.10021985,-10.8095045
460,1747533665530,-2.9740815,1.9466007,1.1172941,-2.1150826,4.00033435,-10.470484
461,1747533665540,-2.7702937,2.105726,1.12229725,-0.6396913,2.2327943,-9.890448
462,1747533665550,-2.5242841,2.1909018,1.001855,-0.376837298,1.84051065,-9.6920425
463,1747533665560,-2.4049401,2.2199447,0.9354714,-0.113983296,1.448227,-9.493637
464,1747533665570,-2.4049401,2.2199447,0.9354714,0.17150758,0.663393435,-8.82624875
465,1747533665580,-2.1857767,2.2182362,0.7812273,-0.02396845,0.7488809,-8.574313
466,1747533665590,-2.13903975,2.2862061,0.7042272,-0.143544385,0.8924253,-8.472847
467,1747533665600,-2.0769272,2.3812665,0.626739,-0.55127436,1.3012205,-8.102402
468,1747533665610,-2.050447,2.4395962,0.63418277,-0.69588403,1.4136059,-7.9330248
469,1747533665620,-1.98381935,2.4364235,0.65285312,-1.1270498,1.6269251,-7.3769565
470,1747533665630,-1.83945945,2.3429496,0.70203065,-1.5744609,1.6181368,-6.661631
471,1747533665640,-1.6508032,2.1738179,0.76243484,-1.5052186,1.5451661,-6.4501762
472,1747533665650,-1.5969886,2.12671485,0.7713429199999999,-1.4317154,1.4924355,-6.3449814
473,1747533665660,-1.41174915,1.9605118,0.762190775,-1.2287826000000002,1.3134711,-6.066947450000001
474,1747533665670,-1.22650965,1.7960172,0.7030068899999999,-1.09242875,1.17205725,-5.82459965
475,1747533665680,-1.172695,1.7506226,0.66188323,-1.0855045,1.1568772,-5.755091
476,1747533665690,-0.94145085,1.60431025,0.62856943,-1.18084565,1.1755193,-5.6275257
477,1747533665700,-0.745472875,1.4909457499999998,0.58293072,-1.222391,1.2053467,-5.6320534
478,1747533665710,-0.4903109949999999,1.4970472,0.49031101,-1.97020655,1.7038905,-5.6600165
479,1747533665720,-0.31141704,1.5419537,0.43808278,-2.1640847,1.8056233,-5.610748
480,1747533665730,0.049543623,1.641285,0.45589894,-2.77820965,1.96594555,-5.1960937000000005
481,1747533665740,0.1542441715,1.65422,0.435886235,-3.1675638,1.9947077,-4.758536250000001
482,1747533665750,0.47835221,1.6759411,0.250646785,-3.4951326500000004,2.0194751,-4.3212452500000005
483,1747533665760,0.9235126,1.7105973,0.06321083,-3.6717002,1.93425395,-3.9076564
484,1747533665770,1.3210819,1.7206036,0.071264714,-3.1073763,1.6532904,-3.6346824
485,1747533665780,1.49985385,1.72511865,0.0708986295,-2.637861,1.60961455,-3.58408235
486,1747533665790,1.6786258,1.7296337,0.070532545,-2.1683457,1.5659387,-3.5334823
487,1747533665800,2.1940746,2.1660082,0.10714114,-0.47643952,1.16113828,-2.98114265
488,1747533665810,2.4571683,2.31195435,0.0672377765,0.1672465199999999,0.59628179,-2.20296695
489,1747533665820,2.7977502000000003,2.506834,0.0253819544999999,0.43036684,0.23329292,-1.6314526
490,1747533665830,2.8752384,2.5557675,0.023429496,0.39627838,0.04527374,-0.9139969
491,1747533665840,2.9410119000000003,2.5705329,0.000610144,0.08468852,-0.13262543,0.6295713
492,1747533665850,2.932714,2.3874899,0.174256871,0.08468852,-0.13262543,0.6295713
493,1747533665860,2.81995955,2.08778765,0.470908425,0.76752305,-1.3960291,2.1704764
494,1747533665870,2.7102559,1.8152978,0.6406503,1.114799275,-1.86687595,2.2924491
495,1747533665880,2.6021385,1.7152344,0.5725583,1.9691414,-2.845854,2.5811357
496,1747533665890,2.56040465,1.70229935,0.5070289299999999,2.1153489,-2.94385835,2.6855317
497,1747533665900,2.2409337,1.7484262,0.20964517,2.0399814,-2.8708878,3.4370759
498,1747533665910,2.1298876,1.7589206,0.173890785,1.8285264,-2.8194888,3.69034245
499,1747533665920,1.8916877,1.75782225,0.136916115,1.4125405999999998,-2.73266975,4.223241
500,1747533665930,1.6335972,1.7287795,0.167179215,0.9667275,-2.7206855,5.064267
501,1747533665940,1.351223,1.69888255,0.18780205,0.91825795,-2.7880634,5.3375075
502,1747533665950,0.86530502,1.6897304,0.13179091,0.8910937,-2.9481194,6.147375
503,1747533665960,0.37121108,1.709377,0.06284474,0.92624745,-3.0064427,6.89199475
504,1747533665970,-0.10982577,1.7513548,-0.014643434,0.95873803,-2.88739935,7.2861426
505,1747533665980,-0.394274485,1.7791773000000002,-0.004148973,0.97738016,-2.8027108,7.4722977
506,1747533665990,-0.6787232,1.8069998,0.006345488,1.0354371,-2.5901904,7.8067904
507,1747533666000,-0.9818423,1.8702106,0.025137896,1.0578076,-2.3467777,8.102934
508,1747533666010,-1.3689171,1.9627084,0.110801995,0.73343456,-1.8333201,8.673916
509,1747533666020,-1.5199885,2.0010254,0.06199054,0.47031426,-1.6037556,8.743158
510,1747533666030,-1.594304,2.0275056,0.07187486,0.33981936,-1.4599449,8.7484845
511,1747533666040,-1.83421235,2.0912045,0.10860548,-0.007989485,-1.11639715,8.7559415
512,1747533666050,-2.06692085,2.1528289,0.1524137549999999,-0.3206446,-0.86179894,8.811335
513,1747533666060,-2.1959050500000004,2.2040809,0.154488235,-0.357662535,-0.91319797,8.857674
514,1747533666070,-2.2577736,2.2309272,0.13960074,-0.39468047,-0.964597,8.904013
515,1747533666080,-2.2577736,2.2309272,0.13960074,-0.32170987,-1.2735237,9.046759
516,1747533666090,-2.685118,2.2907214,0.25259924,0.104928546,-1.9632823,9.248626
517,1747533666100,-2.8134918,2.3207405,0.32947728,0.5581986,-2.4501083,9.343434
518,1747533666110,-2.877435,2.3007276,0.4097721,1.099353,-2.9699574,9.423329
519,1747533666120,-2.860595,2.2854740500000004,0.441865625,1.099353,-2.9699574,9.423329
520,1747533666130,-2.843755,2.2702205,0.47395915,1.7465011,-3.5148401,9.441439
521,1747533666140,-2.65448855,2.097428,0.242104785,2.1518342,-3.5052526,9.046759
522,1747533666150,-2.5333142,2.0698495,0.12056428,1.6058862,-2.227468,8.3783045
523,1747533666160,-2.5189148,2.05520605,0.15570852,1.3893712,-1.9342539,8.23476025
524,1747533666170,-2.57712255,1.9955341,0.33155176,1.1728562,-1.6410398,8.091216
525,1747533666180,-2.7578468,1.8575197,0.69312257,0.8186557,-1.4476944,7.4909396
526,1747533666190,-2.7578468,1.8575197,0.69312257,0.9470201,-1.62399565,7.3676353
527,1747533666200,-2.7130624,1.6270077,0.7296091250000001,1.1603393,-2.03572045,7.04965385
528,1747533666210,-2.66120015,1.51693785,0.654195425,1.1936288,-2.32414085,6.71462835
529,1747533666220,-2.54319855,1.39649555,0.51349645,0.81998732,-2.45863035,6.3740102
530,1747533666230,-2.43569145,1.27202635,0.43686249,0.46365637,-2.63040425,6.0677464
531,1747533666240,-2.4137263,1.2154051,0.44369608,0.56272595,-2.7872645,5.8128817
532,1747533666250,-2.3776058,1.02626075,0.34961201,0.6961503,-2.8538435,5.664011
533,1747533666260,-2.4813302000000004,0.98586925,0.32447411,1.1787151,-2.8272119,5.3827815
534,1747533666270,-2.5818818,0.9784255,0.33509058,2.202967,-2.7595675,5.2996907
535,1747533666280,-2.8932986,0.65090066,0.52301466,2.7467844,-2.9395974,5.7167416
536,1747533666290,-3.0807345,0.4751795,0.55815893,2.8107002,-3.1329427,5.904761
537,1747533666300,-3.3570073,0.30873242,0.4041588,2.8442562,-2.9475868,6.0933127
538,1747533666310,-3.59923415,0.24039639,0.311783135,2.8415931,-2.59818005,6.21262235
539,1747533666320,-4.4744235,0.017328065,0.16046764,2.80137925,-1.1584751125,6.41688675
540,1747533666330,-5.107386,-0.13740423,0.10152781,2.53932405,0.3083940874999999,6.36628675
541,1747533666340,-6.178553,-0.70459324,0.208913,2.15023625,0.9651296,5.970807349999999
542,1747533666350,-6.4820382,-0.85834937,0.20622837,1.77233375,1.41413855,5.41500535
543,1747533666360,-7.210793199999999,-1.16683775,0.30470547,1.3651364,1.4905713,4.64535175
544,1747533666370,-7.7014705,-1.36916115,0.5421731999999999,1.1712582,1.3981596,4.1715755
545,1747533666380,-7.7512584,-1.2956998,1.0377314,2.1470406,0.29614353,0.386691
546,1747533666390,-7.5179396,-1.0179628,1.5026605,2.7553065,-0.62744075,-1.0338391
547,1747533666400,-7.5179396,-1.0179628,1.5026605,2.9688920000000003,-1.170991925,-1.57579235
548,1747533666410,-6.67716215,-0.229535825,2.03726785,2.65517165,-2.5710157,-2.7864654
549,1747533666420,-5.708255,0.45809543,1.6918048,0.58962387,-3.361442,-3.87703
550,1747533666430,-5.225754,0.47932845,1.1687901,-1.2602079,-2.621616,-4.362258
551,1747533666440,-5.0721198,0.532654975,1.08703095,-3.086071,-1.1158645,-5.002482
552,1747533666450,-4.8128088,0.5826867,0.90874715,-3.5167042,-0.44288369,-5.25202015
553,1747533666460,-4.535804,0.5132524,0.82003236,-4.0408142,1.06819396,-5.97826415
554,1747533666470,-4.5270176,0.55401,0.95743656,-3.645335,1.8823223,-6.7761474
555,1747533666480,-4.4179244,0.6577343,1.0411482,-3.0029805,1.230913,-7.055779
556,1747533666490,-4.3581302,0.714843675,1.05884235,-3.0029805,1.230913,-7.055779
557,1747533666500,-4.1338415,0.960365275,0.99367905,-2.01627925,-0.569117585,-7.3441994
558,1747533666510,-3.8574468,1.21308655,0.8241813,-1.71161365,-1.6317189,-7.410778499999999
559,1747533666520,-3.7455466,1.2773956,0.737541,-1.748099,-1.8056233,-7.4200997
560,1747533666530,-3.3073417000000003,1.4152879500000002,0.353638965,-2.482865,-1.07991182,-7.68401885
561,1747533666540,-3.11099755,1.4813054,0.08456584,-2.781938,-0.60720074,-7.822237
562,1747533666550,-3.0880562,1.6012596,-0.09737884,-3.98408915,1.73105477,-8.44887875
563,1747533666560,-3.1789677,1.69778425,-0.099575357,-4.7271111,4.12683465,-9.29736175
564,1747533666570,-3.3831215,1.8419001,0.01952458,-4.9513493,6.26908135,-10.293384
565,1747533666580,-3.534437,2.0356815,0.17279254,-4.3601274,7.5149083,-11.3637085
566,1747533666590,-3.577025,2.13916175,0.31385762,-3.590474,7.5995965,-11.88196
567,1747533666600,-3.619613,2.242642,0.4549227,-3.590474,7.5995965,-11.88196
568,1747533666610,-3.5288239,2.7734666,0.7480355,-1.427987,5.5758605,-11.76584575
569,1747533666620,-3.3624988,2.94113385,0.7870846499999999,-0.824248385,4.5244445,-11.28035175
570,1747533666630,-3.014107,3.14589785,0.8086837,-0.54275227,3.9963396,-10.982877
571,1747533666640,-2.70073745,3.11319425,0.7432763499999999,0.33182988,2.0932446,-9.501094
572,1747533666650,-2.5082983,3.0012940500000003,0.6345488349999999,0.57657439,1.64103985,-9.0347745
573,1747533666660,-2.3938355,2.9264906,0.53655985,0.8511462999999999,1.13956665,-8.461396
574,1747533666670,-2.2438624,2.8120277,0.4612682,0.8708537000000001,1.1648667,-8.315188
575,1747533666680,-2.11500005,2.6973207,0.4268561349999999,0.6644587150000001,1.6042883,-8.3293025
576,1747533666690,-1.91719155,2.524284,0.379753095,0.46818373,1.9691414,-8.4917555
577,1747533666700,-1.8482454,2.4659543,0.36706212,0.46818373,1.9691414,-8.4917555
578,1747533666710,-1.700835,2.362718,0.3968371,-0.329699335,2.9917952,-8.528507000000001
579,1747533666720,-1.700835,2.362718,0.3968371,-0.5028048,3.1840754,-8.499212
580,1747533666730,-1.5727049,2.3034122,0.562796,-0.8748484249999999,3.49273585,-8.141017
581,1747533666740,-1.50925,2.2565534,0.66066295,-0.90174633,3.5089812,-7.535148
582,1747533666750,-1.3783133,2.11853905,0.6903159050000001,-0.7089334650000001,3.3406694000000003,-7.10344975
583,1747533666760,-1.1766,1.89949765,0.77646813,-0.304132988,2.9036446,-6.48666175
584,1747533666770,-1.01064107,1.7425688,0.8395569300000001,0.049268482,2.3339944,-6.21635085
585,1747533666780,-0.91545874,1.666667,0.84614646,0.19068234,2.0330572,-6.1311297
586,1747533666790,-0.703983145,1.5755116,0.79281998,0.319845665,1.19016667,-5.9569588
587,1747533666800,-0.107629254,1.5524482,0.4893348,0.0924116925,0.922519,-5.75748805
588,1747533666810,-0.107629254,1.5524482,0.4893348,-0.3193130225,1.21653198,-5.51034675
589,1747533666820,0.37536004,1.5927176,0.21574661,-1.1899004,2.1885858,-5.0349727
590,1747533666830,0.528994095,1.590155,0.3616928299999999,-1.4940334,2.50683355,-4.9148641
591,1747533666840,0.916557025,1.6538539499999998,0.654317475,-1.83305385,2.835734,-4.4634581
592,1747533666850,1.3642801,1.9275641,0.96768695,-1.4413028,1.9989687,-3.671434
593,1747533666860,1.51559555,2.0138384,0.960853375,-1.180579315,1.4154701,-3.44240215
594,1747533666870,1.8021187,2.20176245,0.9476743,-0.22743396,-0.17949706,-2.790993
595,1747533666880,2.502563,2.3607657,0.4429639,0.09134642,-0.54248593,-2.6067022
596,1747533666890,2.8171527,2.396154,0.16425052,0.82877576,-1.2314457,-1.8184065
597,1747533666900,2.9977553,2.488896,0.0302631,0.7765778,-0.80374205,-1.3576796
598,1747533666910,3.0343637,2.5694346,-0.025626011,0.60080916,-0.32330775,-0.67005134
599,1747533666920,3.1091672,2.4670527,0.1993947595,0.60080916,-0.32330775,-0.67005134
600,1747533666930,3.1839707,2.3646708,0.42441553,0.7672567149999999,-0.5358280400000001,0.56405748
601,1747533666940,3.1786015,2.2653394,0.80465674,1.6197346,-1.8642128,1.5792545
602,1747533666950,3.125641,2.2731493,0.6877533,2.0953753,-2.4921863,2.1065605
603,1747533666960,3.0553527,2.2580175,0.5430274,2.23013115,-2.63919265,2.38779035
604,1747533666970,2.85571385,2.2265341,0.372675425,2.3382554,-2.8077707,2.97208785
605,1747533666980,2.523918,2.15893035,0.15741692,2.3116238,-2.8293424,3.2751555
606,1747533666990,2.25155,2.0750968,0.1132425625,1.14835508,-2.41309035,4.7521446
607,1747533667000,1.944648,1.98870045,0.1475326025,0.5944176,-2.279666,5.496232
608,1747533667010,1.3633038,1.892664,0.19329333,0.4788364,-2.363289,6.1284666
609,1747533667020,0.971958,1.8643533,0.178161785,0.54248595,-2.4991103,6.624613500000001
610,1747533667030,0.389393345,1.8107827,0.148508835,0.6681871500000001,-2.6991138,7.315170999999999
611,1747533667040,-0.1513155,1.7494024,0.11543907,0.815193625,-2.78247075,7.663778799999999
612,1747533667050,-0.1513155,1.7494024,0.11543907,0.969656975,-2.80457495,7.9484705
613,1747533667060,-0.79465042,1.75843245,0.051007966,1.0796455,-2.6474484,8.2904205
614,1747533667070,-1.17281715,1.77270975,0.035266272,1.0580739,-2.3651533,8.562861999999999
615,1747533667080,-1.2742229,1.7750283,0.044174362,0.9105348,-2.12307205,8.6486155
616,1747533667090,-1.6168793,1.7821059,0.16693515,0.5858955,-1.8232001,8.656339
617,1747533667100,-1.6858254499999998,1.7918683,0.2223361449999999,0.53742595,-1.7960359,8.634501
618,1747533667110,-1.7547716,1.8016307,0.27773714,0.48869008,-1.78804645,8.5828355
619,1747533667120,-2.0361695,1.8311615,0.43246946,0.69987875,-1.99763715,8.484298500000001
620,1747533667130,-2.09108245,1.8440966,0.48469773,0.91133374,-2.1880531,8.415589
621,1747533667140,-2.1900477,1.8792408,0.57914785,1.07778127,-2.3196133,8.3900225
622,1747533667150,-2.2392252,1.923049,0.6305218850000001,1.56114505,-2.91829205,8.380968
623,1747533667160,-2.34539,2.1369653,0.5205741,1.5414376,-3.1931303,8.535964
624,1747533667170,-2.425685,2.145019,0.4888467,1.4865766,-3.1116376,8.566856
625,1747533667180,-2.4288577,2.1073122,0.51178805,1.52892085,-3.0546459,8.509864499999999
626,1747533667190,-2.4312983,1.9602679,0.5525456,1.65329045,-2.92015625,8.3213135
627,1747533667200,-2.36064365,1.8982773,0.5332650800000001,1.7912422,-2.7518444,8.011588
628,1747533667210,-2.183092,1.8184706,0.4756676,1.5558188,-2.0309267,7.1782846
629,1747533667220,-2.101089,1.846049,0.4949481,1.1616709,-1.7694043,6.9481874
630,1747533667230,-2.0595992,1.8614246,0.5806122,0.8069378,-1.613343,6.800648
631,1747533667240,-2.0521554,1.8510522,0.59879445,0.68043765,-1.6314525,6.761499799999999
632,1747533667250,-2.0879098,1.7956512,0.6190512,0.5539375,-1.649562,6.7223516
633,1747533667260,-2.1934646,1.7108413,0.615756425,0.4745753,-1.8104169,6.6664248
634,1747533667270,-2.28510795,1.6088254,0.625884805,1.0628676499999998,-2.51136085,6.8270135
635,1747533667280,-2.3517356,1.49997585,0.65675803,1.4924355,-2.8091023,6.8057085
636,1747533667290,-2.374311,1.4032072,0.66566612,1.8461033,-3.0913974,6.6421903
637,1747533667300,-2.3313569,1.34829435,0.5160590549999999,1.8434402,-3.20165225,6.1891863
638,1747533667310,-2.29962945,1.3263291,0.3610827049999999,1.62000095,-3.04985215,5.706621500000001
639,1747533667320,-2.4093332,1.2837411,0.4458926,1.627724,-2.8522456,5.3518887
640,1747533667330,-2.5628452,1.155611,0.61746484,1.9222696,-2.97741415,5.38437915
641,1747533667340,-2.8226441,0.9277836,0.794406355,4.0602555,-4.462393,5.791843
642,1747533667350,-3.13186465,0.53094655,0.96768701,4.0602555,-4.462393,5.791843
643,1747533667360,-3.23510095,0.245155505,0.941572875,5.087703,-4.908206,5.641108
644,1747533667370,-3.2889156,0.12837411,0.9191196,5.8472366,-4.946023,5.3870425
645,1747533667380,-3.5682389,-0.0673597988999999,0.927173495,6.2437813,-4.4956825,5.290635999999999
646,1747533667390,-4.5011477,-0.46712556,1.1126571,5.983058,-3.167564,5.537245
647,1747533667400,-4.88858865,-0.62503063,1.20881565,5.1244545,-0.08841695,5.923403
648,1747533667410,-5.61941815,-0.96182965,1.5722168,5.1244545,-0.08841695,5.923403
649,1747533667420,-6.8126144,-1.3603752,2.4105535,4.3481431,2.13745305,5.18810435
650,1747533667430,-7.404819,-1.54329605,2.7031782,3.6522591,2.6727484,4.3838297
651,1747533667440,-7.9970236,-1.84202205,3.2132578,2.25250175,2.097772,2.6959181
652,1747533667450,-7.9970236,-1.9578272,3.4307127,1.2863069,1.4146712,1.4620755
653,1747533667460,-7.977255,-1.6720362,3.461952,0.06231797,-0.7089335,-2.0756679
654,1747533667470,-7.74735315,-1.50388075,3.4485288,0.06231797,-0.7089335,-2.0756679
655,1747533667480,-6.9037695,-0.90264572,3.2437648,-1.07884655,-1.7006947,-4.7654604
656,1747533667490,-5.9270525,-0.311661105,2.83692135,-2.21468475,-2.04397615,-5.956426
657,1747533667500,-5.26102015,-0.0896910405,2.35820305,-3.09193,-1.73132105,-6.1689465000000006
658,1747533667510,-4.958023,-0.025626011,2.0949874,-3.5452,-1.4471618,-6.245113
659,1747533667520,-4.378265000000001,0.017084008,1.4938743,-4.6147255000000005,0.12357067,-6.51622265
660,1747533667530,-4.12786215,0.112388359,1.4670281,-5.1042147,1.1041466,-6.758304000000001
661,1747533667540,-3.9944849,0.216600805,1.4174845,-5.414472849999999,1.9656792,-7.0123695
662,1747533667550,-3.8936894,0.22892569,1.3674527,-5.4317837,2.7425234,-7.428089
663,1747533667560,-3.88783205,0.2578464649999999,1.34914845,-5.3407035,2.8352013,-7.7796264
664,1747533667570,-3.8646467,0.44271985,1.3013133,-5.2709284,2.7020433,-8.11625
665,1747533667580,-3.65561165,0.520818175,1.125714075,-5.320996,2.9470541,-8.661665
666,1747533667590,-3.3908094,0.64821605,0.9067947,-5.281049,3.2586439,-8.915198
667,1747533667600,-3.18812,0.7844,0.7739055,-5.232313,3.40644935,-9.036372
668,1747533667610,-3.0321672,0.88007045,0.6962953,-5.0349727,3.9036615,-9.421199
669,1747533667620,-2.8674288,1.1497537,0.6186851,-4.542288,4.5923553,-9.763681
670,1747533667630,-2.8454635,1.2878901,0.7167961,-4.114584,4.7175236,-9.815347
671,1747533667640,-2.8403382500000003,1.33596935,0.77598,-3.8171089,4.6831688,-9.8209395
672,1747533667650,-2.8330165000000003,1.4555574,0.905574415,-3.06130375,4.438158,-9.8249345
673,1747533667660,-2.8299658,1.62834995,1.022355815,-2.6029737,4.227502,-9.823337
674,1747533667670,-2.753942,1.9971205,1.0772687,-1.2785837,3.0138994500000003,-9.4310525
675,1747533667680,-2.6782842,2.042271,0.9884319,-0.7036072,2.3819313,-9.153285
676,1747533667690,-2.6660812,2.0608194,0.8927614,-0.5091964,1.72439685,-8.680307500000001
677,1747533667700,-2.65485465,2.09547555,0.882755065,-0.545681725,1.4639397,-8.4166545
678,1747533667710,-2.6385028,2.2221413,0.8561529,-0.6013418,1.3283848,-8.09601
679,1747533667720,-2.558208,2.4271493,0.7822035,-0.70200926,1.4977618,-7.645403
680,1747533667730,-2.4249527,2.4449656,0.74535084,-0.8133294,1.7028252,-7.4248934
681,1747533667740,-2.264851,2.4129941,0.6877533,-0.9763149,1.881257,-7.241135
682,1747533667750,-2.204447,2.39139495,0.67555045,-1.0857708,1.9419771,-7.1151675
683,1747533667760,-1.965637,2.3046324,0.70288485,-1.3108079,2.0042951,-6.836601
684,1747533667770,-1.5595258,2.1040175,0.70020026,-1.75236,2.1869879,-6.1881213
685,1747533667780,-1.3947871,2.0234787,0.733148,-1.6943032,2.2913837,-5.9729376
686,1747533667790,-1.3022895,2.012008,0.72826684,-1.5387745,2.385127,-5.7529607
687,1747533667800,-1.2614099,2.020916,0.70386112,-1.5387745,2.385127,-5.7529607
688,1747533667810,-1.12656825,1.9555086,0.6928785500000001,-1.120125585,2.3798008,-5.2996908000000005
689,1747533667820,-0.97439853,1.816152,0.73265985,-0.61412495,2.0032299,-4.9635997
690,1747533667830,-0.7302193,1.6522676,0.81417495,-0.3552657,1.5259913,-4.9406967
691,1747533667840,-0.41977844,1.5927176,0.78684056,-0.21784659,1.0104034,-4.963067
692,1747533667850,-0.23942018,1.6190758,0.6023333,-0.32437304,0.6870956,-4.881574
693,1747533667860,0.05967198,1.57294895,0.4659052899999999,-0.63889237,0.77205042,-4.704473999999999
694,1747533667870,0.45663112,1.49338625,0.270415425,-1.1305119,1.04209497,-4.475175999999999
695,1747533667880,0.5544981,1.4599504,0.21135357,-1.3076121,1.2271847,-4.422978
696,1747533667890,0.68409246,1.4516525,0.0776102,-1.6325178,1.80802005,-4.103665
697,1747533667900,1.02552855,1.4106508999999998,-0.0093962044999999,-1.5893746,2.2136195,-3.8442732
698,1747533667910,1.49411845,1.428345,-0.0002440569999999,-0.9331717,2.0948424,-3.6256275
699,1747533667920,2.0566704,1.5924735,0.044662476,-0.40719732,1.3933659,-3.14545955
700,1747533667930,2.211891,1.7825942,0.00073217176,-0.2977414,1.0508834,-2.9097698
701,1747533667940,2.5460052,1.8865626,-0.05515694,-0.2263687,0.19867182,-2.3094933
702,1747533667950,2.5460052,1.8865626,-0.05515694,-0.2263687,0.19867182,-2.3094933
703,1747533667960,2.5460052,1.8865626,-0.05515694,-0.2263687,0.19867182,-2.3094933
704,1747533667970,2.5460052,1.8865626,-0.05515694,-0.2263687,0.19867182,-2.3094933
705,1747533667980,3.30722,1.9370824,-0.38194957,-0.17310548,-0.5299691,-1.7491642
706,1747533667990,3.30722,1.9370824,-0.38194957,-0.17310548,-0.5299691,-1.7491642
707,1747533668000,3.58068585,1.9278082,-0.7494997999999999,-0.18695391,-0.5419532779999999,0.3012034999999999
708,1747533668010,3.6069221,1.9373264,-0.6325964,-0.36218992,0.0974717,0.9864349
709,1747533668020,3.48342915,1.95990175,-0.5714600750000001,0.305464588,-0.60453755,2.15529625
710,1747533668030,3.41741155,1.9407432,-0.579391895,0.7419567,-0.90707265,2.72468015
711,1747533668040,2.818373,1.8728954,-0.58305275,1.5377092,-1.2138689,4.120443
712,1747533668050,2.497926,1.8816814,-0.5349735,1.6010925,-1.1488878,4.828311
713,1747533668060,2.1518528,1.8645973,-0.4685899,1.5824504,-1.0668623,5.390771
714,1747533668070,1.8379952,1.836775,-0.34168017,1.5888419,-0.97045594,5.894641
715,1747533668080,1.13535435,1.76892695,-0.1283741165,1.54703035,-1.02238755,6.67734415
716,1747533668090,0.58000205,1.7934547,0.0386830735,1.5249261,-1.1142666,7.021691
717,1747533668100,0.199394763,1.8576417,0.1276419449999999,1.6455673000000002,-1.2287826000000002,7.4925375
718,1747533668110,-0.114096752,1.9267099,0.20207941,1.7827201,-1.20534675,7.740477849999999
719,1747533668120,-0.25772443,1.9666133,0.24283697,1.8604844,-1.1744541,7.8440747
720,1747533668130,-0.5947675,2.1042616,0.30726805,1.9702066,-1.1025487,8.034758
721,1747533668140,-1.150974,2.314883,0.54717636,2.0639498,-1.0721886,8.5088
722,1747533668150,-1.3620834,2.404208,0.67677075,2.0485036,-1.1504856,8.661665
723,1747533668160,-1.530727,2.4764488,0.8139309,1.9995013,-1.1952267,8.734636
724,1747533668170,-1.6932691,2.515498,0.7819594,1.6996294,-1.222391,8.74955
725,1747533668180,-1.9168257,2.5650415,0.6125837,1.1249193,-1.2053467,8.773518
726,1747533668190,-1.977962,2.56052645,0.61026515,0.47004796,-1.15634455,8.8566085
727,1747533668200,-2.1469717,2.4957294,0.7145996,-0.46818373,-1.3741912,9.025187
728,1747533668210,-2.2553332,2.422024,0.79538256,-0.44741106,-1.5632756,9.042498
729,1747533668220,-2.2914536,2.3341637,0.8463905,-0.1736381,-1.9952403,8.986038
730,1747533668230,-2.31061195,2.31793365,0.7200909,0.608266,-2.7031085,8.740495
731,1747533668240,-2.3131745,2.3392887,0.6667644,0.85327685,-2.6253443,8.592423
732,1747533668250,-2.289013,2.438376,0.48201308,0.7392935,-2.2626216,8.386294
733,1747533668260,-2.3131745500000003,2.5046376,0.399399685,0.34514567,-1.7086842,8.1684475
734,1747533668270,-2.3197641,2.4925568,0.42026657,-0.12836437,-1.1382351,7.9649825
735,1747533668280,-2.3463664,2.268268,0.58939826,-0.77231675,-0.5113269,7.6177063
736,1747533668290,-2.3651588,2.1352568,0.681896,-0.73716302,-0.618386,7.3210299
737,1747533668300,-2.395666,1.9951681,0.74291027,-0.6801714,-0.7078682,7.2395372
738,1747533668310,-2.3283062,1.8616686,0.77048874,-0.6058692,-0.8426241800000001,7.1378046
739,1747533668320,-2.2804708,1.7696592,0.6621273,-0.40533313,-1.2452941,6.8395305
740,1747533668330,-2.2963347,1.769171,0.5469323,-0.38402784,-1.3752564,6.6451197
741,1747533668340,-2.2992635,1.7064483,0.47786412,-0.46658584,-1.2101405,6.604107
742,1747533668350,-2.361742,1.615903,0.49812084,-0.57577544,-1.0881677,6.550311
743,1747533668360,-2.3885884,1.3442672,0.61111933,-0.63383234,-1.1195929,6.4022393
744,1747533668370,-2.4059165,1.2798362,0.5947675,-0.66579026,-1.7507621,5.6096826
745,1747533668380,-2.5003664,1.2700739,0.5632841,-0.6263755,-2.0708742,5.3524213
746,1747533668390,-2.73636975,1.3280375,0.4895788199999999,-0.49215218,-2.424542,5.30768
747,1747533668400,-2.822522,1.3154685,0.47054234,0.146473865,-3.33853875,5.4978298500000005
748,1747533668410,-3.07292485,0.99172665,0.6361352,0.47723848,-3.7193708,5.559615
749,1747533668420,-3.159199,0.5954997,0.6838484,1.4322481,-4.474643,5.54843
750,1747533668430,-3.1283257,0.4334457,0.6804316,3.3300166,-5.7716026,5.0189934
751,1747533668440,-3.0721927,0.22843759,0.5950116,3.8717036,-5.93086,4.710067
752,1747533668450,-3.061454,0.11006982,0.49982923,3.9883502,-5.6986322,4.7553406
753,1747533668460,-3.1131942,0.056377225,0.42197496,3.8658447,-5.2363076,5.0285807
754,1747533668470,-4.082346,0.09469421,0.3756041,3.7316215,-3.1478565,6.043778
755,1747533668480,-4.8037786,-0.0993313,0.42587993,3.526558,-1.6644757,6.506635
756,1747533668490,-5.4588284,-0.61502427,0.65138876,3.2517197,-0.43995422,6.5119615
757,1747533668500,-6.4004016,-1.0584763,0.8393129,2.7276096,0.31691617,6.260559
758,1747533668510,-7.678773,-2.148192,1.2219946,1.9776635,0.5608617,5.80143
759,1747533668520,-7.9970236,-2.421536,1.2434716,0.60080916,0.021837922,3.387541
760,1747533668530,-7.9970236,-2.3236692,1.2769076,0.221575,0.027164243,1.2117383
761,1747533668540,-7.9970236,-2.0088353,1.4650756,0.15765914,0.2231729,-0.57790595
762,1747533668550,-7.5428331,-1.157319465,2.0503249500000003,0.20719394,0.19281286,-2.2540996
763,1747533668560,-7.0886426,-0.68604493,2.340265,0.25726137,-0.9667275,-4.80381
764,1747533668570,-6.488506,-0.08322352,2.5010989,0.14434333,-1.9244002,-5.423794
765,1747533668580,-5.785621,0.4837215,2.369552,-0.23009712,-2.6802053,-5.646967
766,1747533668590,-5.2306347,0.83125895,2.0991364,-0.8223842,-2.8969867,-5.6720004
767,1747533668600,-4.4127994,1.1888028,1.4084544,-1.572863,-2.5321336,-5.705024
768,1747533668610,-4.170206,1.1827015,1.2215066,-3.5052526,-0.40266997,-5.8605523
769,1747533668620,-3.985211,1.1138773,1.0963051,-4.221643,0.6130597,-6.0656157
770,1747533668630,-3.9412805,1.0512766,1.0777568,-4.4967475,1.04395915,-6.21182335
771,1747533668640,-3.8971062,0.9056965,1.172695,-5.1622715,2.0543625,-6.7031765
772,1747533668650,-3.7682438,0.72216535,1.2820327,-5.2778525,2.227468,-7.1031833
773,1747533668660,-3.6635432,0.7324158,1.2224828,-4.520183299999999,1.8170748,-8.147142350000001
774,1747533668670,-3.49965865,0.865671085,0.9740324,-4.337224,1.7646105,-8.318117
775,1747533668680,-3.407771,0.9130182,0.9000831,-4.134824,1.7038904,-8.598815
776,1747533668690,-3.2210677,0.94816244,0.71045065,-4.106062,1.9259981,-8.880045
777,1747533668700,-2.9394255,1.1334019,0.35534734,-4.595551,3.2895367,-9.664612
778,1747533668710,-2.8558358,1.3058283,0.35071028,-4.802745,4.023504,-9.970343
779,1747533668720,-2.8391178,1.3703815,0.37706846,-4.81499535,4.3292347,-10.073141
780,1747533668730,-2.8234982,1.5299948,0.49299565,-4.7100668500000005,4.827512,-10.227338
781,1747533668740,-2.852297,1.98442955,0.83223523,-3.4104441,5.02192305,-10.051303
782,1747533668750,-2.882316,2.075707,0.9022797,-2.7036412,4.8512144,-9.848903
783,1747533668760,-2.9738375,2.35173555,1.06567605,-1.9616845,4.2626557,-9.513877
784,1747533668770,-2.9979992,2.4454536,1.10802,-1.171791,3.3182988,-9.096293
785,1747533668780,-2.9806712,2.5435646,1.1116807,-0.9624665,2.99286055,-8.97884775
786,1747533668790,-2.9512623500000004,2.5636994,1.07629245,-0.6838998000000001,2.3691482500000003,-8.791627250000001
787,1747533668800,-2.84131455,2.6580276,0.9258312,-0.78376835,1.90442655,-8.5804385
788,1747533668810,-2.6226392,2.6982968,0.7089863,-1.2884374,2.0410466,-8.30853
789,1747533668820,-2.3744329,2.55540125,0.6754283999999999,-1.6346483,2.4346619,-8.223842
790,1747533668830,-2.298043,2.4967055,0.6855568,-1.9132149,2.819755,-8.159925
791,1747533668840,-2.0395863,2.2887688,0.8251576,-2.08419,3.0961912,-8.074704
792,1747533668850,-1.9251237,2.1769907,0.8747012,-2.0682108,3.4754252,-7.6443377
793,1747533668860,-1.8045594,2.0666766,0.9596331,-1.9180087,3.4674358,-7.3971963
794,1747533668870,-1.7301219,2.0046864,0.993313,-1.7326527,3.349724,-7.127152
795,1747533668880,-1.5634308,2.021526,0.95426387,-1.6386431,3.2501218,-7.0150328
796,1747533668890,-1.4831358,1.9458685,0.91375035,-1.2996227,2.8250813,-6.4299364
797,1747533668900,-1.2540882,1.74415515,0.83430973,-1.1366372,2.67461275,-6.1361895
798,1747533668910,-1.1880707,1.6857034,0.7992875,-1.0823087,2.646117,-6.049104
799,1747533668920,-1.027481,1.5914973,0.7124031,-1.026915,2.721218,-5.891445
800,1747533668930,-0.73729694,1.4233419,0.5020258,-1.109473,2.9390647,-5.755091
801,1747533668940,-0.63015586,1.3974718,0.4807928,-1.4716629,3.480219,-5.388108
802,1747533668950,-0.5039782,1.4033291,0.53302103,-1.5425029,3.6346824,-5.1319118
803,1747533668960,-0.3746279,1.4060138,0.62503064,-1.5158713,3.665575,-4.8384314
804,1747533668970,-0.17620933,1.4331042,0.7568215,-1.4588797,3.459979,-4.5566688
805,1747533668980,0.56865335,1.6046765,0.7311955,-1.5227956,2.6205506,-4.0416136
806,1747533668990,1.0130817,1.6664228,0.8956901,-1.3502227,2.3233418,-3.8056574
807,1747533669000,1.5353642,1.7811297,0.99453324,-0.94968325,1.8359833,-3.7113814
808,1747533669010,1.803461,1.8467812,1.03162997,-0.63329971,1.5286545500000002,-3.66983605
809,1747533669020,2.0715578,1.9124327,1.0687267,-0.31691617,1.2213258,-3.6282907
810,1747533669030,2.61604955,2.1339146,1.03699925,2.0879184,-0.453270025,-1.9987024
811,1747533669040,3.3838537,2.434715,0.6999562,2.1955101,-0.7275756,-1.1648667
812,1747533669050,3.665984,2.5010989,0.28701133,1.532383,-0.43675843,-0.813862
813,1747533669060,3.7666575,2.52904335,0.17681948,1.10920665,-0.12543489,-0.61092915
814,1747533669070,3.88270665,2.5826139,0.133011205,-0.47510794,1.1350393,1.0088054
815,1747533669080,3.815591,2.4500906,0.40318257,-0.5273059,1.2074772,1.814678
816,1747533669090,3.74615675,2.35649465,0.47591162,-0.26205507,0.7323693,2.6551716
817,1747533669100,3.5229664,2.0354373,0.6496804,0.061252706,-0.105993815,3.1473238
818,1747533669110,3.5229664,2.0354373,0.6496804,0.061252706,-0.105993815,3.1473238
819,1747533669120,3.3279648,1.8382392,0.4271002,0.497478503,-1.2524847075,3.9377499
820,1747533669130,3.09916105,1.8179824,0.310196765,0.9337043,-2.3989756,4.728176
821,1747533669140,2.5871289,1.7074243999999998,-0.0442963849999999,0.98776645,-2.3590282,5.253618
822,1747533669150,2.14465315,1.58637205,-0.3089764499999999,1.005609615,-2.2434469000000004,5.988917000000001
823,1747533669160,1.81395555,1.52779835,-0.336554925,0.939563245,-2.1126856500000004,6.38226565
824,1747533669170,1.2921611,1.47557015,-0.3175184749999999,0.96859173,-2.07806465,6.90770715
825,1747533669180,0.753526735,1.4455511,-0.2788353999999999,1.14622455,-2.1209415,7.37455935
826,1747533669190,0.27090356,1.4697127,-0.19353738,1.4045512,-2.1808625,7.623032350000001
827,1747533669200,0.27090356,1.4697127,-0.19353738,1.5441009,-2.218413,7.746603
828,1747533669210,-0.5588911,1.6573927,-0.018060237,1.9702066,-2.2743397,8.309063
829,1747533669220,-0.84248555,1.7279254,0.07272906,2.0991037,-2.0266657,8.737832
830,1747533669230,-0.965612475,1.773076,0.11946602,2.05675935,-1.98006035,8.8318415
831,1747533669240,-1.18807065,1.8534928,0.23722364,1.9656792,-1.9153455,8.995892
832,1747533669250,-1.2874019,1.888759,0.3082443,1.9169434,-1.91188335,9.1362405
833,1747533669260,-1.90986995,2.15807625,0.73973752,2.01255085,-2.04450875,9.299226
834,1747533669270,-2.0110316,2.195295,0.82076454,2.45330405,-2.4636904,9.4984305
835,1747533669280,-2.23373385,2.24483845,1.02345405,3.1212249,-3.1446607,9.643307
836,1747533669290,-2.3588133,2.3156152,1.1692783,3.3486588,-3.5153728,9.594837
837,1747533669300,-2.3136628,2.3641827,1.1729392,3.439739,-3.6735644,9.407351
838,1747533669310,-2.2502079,2.45985315,1.12534805,3.273025,-3.3694315,9.0986905
839,1747533669320,-2.14636155,2.56650615,1.06653025,2.93826565,-2.8240161,8.6078695
840,1747533669330,-2.054718,2.6326456,0.9642702,2.3702135,-2.0240026,8.0720415
841,1747533669340,-2.046176,2.6402113,0.91594685,2.09777205,-1.5803199,7.88695175
842,1747533669350,-2.0416610000000004,2.58834905,0.79147765,1.8253306,-1.1366372,7.701862
843,1747533669360,-2.0484946,2.4692491,0.69092605,0.7374293350000001,0.0444747949999999,7.31996465
844,1747533669370,-2.0308003,2.2502077,0.60648227,-0.12463594,0.657268175,7.02994655
845,1747533669380,-1.9993169,2.0820522,0.63381666,-0.629038675,0.8479505,6.8009147500000005
846,1747533669390,-1.9993169,2.0820522,0.63381666,-0.8490158,0.8942895,6.682404
847,1747533669400,-1.94293975,1.94220745,0.66273746,-0.93263905,0.69375347,6.3859942
848,1747533669410,-1.93378765,1.8787527,0.68397045,-1.0887003,0.82398206,6.4730797
849,1747533669420,-1.8914437,1.8043152,0.6667644,-0.71505873,0.0940095915,5.89410805
850,1747533669430,-1.9431838,1.7999222,0.50568664,-0.6876282,-0.16831179,5.8685417
851,1747533669440,-2.020794,1.7476939,0.35412705,-0.81918836,-0.25566345,5.904228
852,1747533669450,-2.1284232,1.4335922,0.36047253,-0.81226414,-0.7978831,5.751363
853,1747533669460,-2.0815644,1.2930154,0.5000733,-0.39734364,-1.2942963,5.4520235
854,1747533669470,-2.1303756,1.2671453,0.54034275,0.19600865,-1.8375812,5.174522
855,1747533669480,-2.1896815,1.257627,0.545468,0.48842375,-2.0961741,5.1135357
856,1747533669490,-2.2829115,1.2176017,0.5444917,1.017593875,-2.53399775,5.0799799
857,1747533669500,-2.26509535,1.1157077,0.5516913999999999,1.2759205,-3.0389332,5.3340454
858,1747533669510,-2.2611904,0.88104665,0.8019721,1.3747237499999998,-3.64986245,5.5795889
859,1747533669520,-2.2611904,0.88104665,0.8019721,1.6863136,-4.25306835,5.62006905
860,1747533669530,-2.4327626,0.7397375,0.9261973,3.2586439,-5.0157976,5.8562913
861,1747533669540,-2.738078,-0.3214234,0.18109047,3.4312167,-3.9031289,6.110357
862,1747533669550,-3.2320502,-0.28969595,-0.2020794,2.892193,-2.2487733,6.4613614
863,1747533669560,-3.5202818,-0.37438381,-0.1558305549999999,2.4892567,-1.401089085,6.6030417
864,1747533669570,-4.2137702,-0.537292035,0.10628693,1.8397117,0.126766465,6.809703150000001
865,1747533669580,-4.619027,-0.6155124,0.32215557,1.4753913,1.33823845,6.76283145
866,1747533669590,-6.83494535,-1.3648902,1.1714748,1.3576796,1.8695391,6.6509786
867,1747533669600,-7.369919100000001,-1.71608855,1.3748965,0.92571483,1.48018495,4.4679855
868,1747533669610,-7.745645,-2.1159763,1.6466542,0.664725,0.8026768,2.1997712
869,1747533669620,-7.7263645,-2.07790335,1.7114514,0.59068912,0.57737335,1.30761217
870,1747533669630,-7.57151025,-1.8192027,1.84202205,0.425839455,0.0934769499999999,-0.4753742299999999
871,1747533669640,-6.978817,-0.33020946,2.114512,0.096939065,-0.8740495,-3.57556
872,1747533669650,-6.6390896,0.19256116,2.1808956,-0.09853696,-1.220793,-4.0384173
873,1747533669660,-6.237371,0.53765815,2.1894376,-0.48309743,-1.4737934,-4.2674494
874,1747533669670,-5.7311964,0.74291027,2.1850445,-0.8452873,-1.454086,-4.4810348
875,1747533669680,-5.0419784,1.0201592,1.9756435,-1.08284135,-1.40401855,-4.6639941
876,1747533669690,-4.79182,1.1585398,1.8267684,-2.6514432,-1.0295781,-5.594769
877,1747533669700,-4.5670433,1.2939916,1.7237762,-3.31244,-0.8655274,-5.904761
878,1747533669710,-4.394251,1.3713577,1.6756971,-3.7912762,-0.7440872,-6.177469
879,1747533669720,-4.29833635,1.3942991,1.63811225,-3.9361521,-0.65407235,-6.300507
880,1747533669730,-4.0354866000000005,1.436521,1.5216969,-4.204598649999999,-0.25113608,-6.613694499999999
881,1747533669740,-3.7837416,1.4381073,1.39905815,-4.39341685,0.2974751,-6.9236863
882,1747533669750,-3.6100948,1.3999124,1.2891104,-4.5614624,0.65806711,-7.14845705
883,1747533669760,-3.54383315,1.38087595,1.25567455,-4.7990165000000005,0.864195795,-7.36204275
884,1747533669770,-3.28452225,1.2893545,1.0899597,-5.14948845,1.335575315,-7.760718000000001
885,1747533669780,-3.00275835,1.1985652,0.8776299000000001,-5.433115,2.077532,-8.198808
886,1747533669790,-2.84704995,1.16012615,0.74107983,-5.55402255,2.8554413,-8.500544000000001
887,1747533669800,-2.7457661,1.12717835,0.66676438,-5.6416404,3.7108485,-8.8097365
888,1747533669810,-2.6670576,1.0897156,0.648338085,-5.6762614,4.14015,-8.965265
889,1747533669820,-2.5713872,1.1152196,0.7321717350000001,-5.30794635,5.08796935,-9.67153575
890,1747533669830,-2.4876756,1.21699145,0.85371222,-4.5971488,5.35508445,-9.99990375
891,1747533669840,-2.4048182,1.330112,0.941206755,-3.4866107,5.0104713,-9.870208
892,1747533669850,-2.3046324,1.5126668,1.0936205,-3.10977335,4.70766995,-9.753029
893,1747533669860,-2.26497325,1.55354635,1.12449375,-2.3944482,4.0104544,-9.50935
894,1747533669870,-2.10011265,1.6360377000000002,1.09325445,-1.63384935,2.9558426,-9.191635
895,1747533669880,-1.9163376,1.7740521,0.94206095,-1.0535465,1.8769959,-8.783638
896,1747533669890,-1.8550792,1.8213992,0.8515157,-1.0226538,1.6884441,-8.511995
897,1747533669900,-1.8138335,1.8582519,0.7924539,-1.0807108,1.6793894,-8.111989
898,1747533669910,-1.77429625,1.90120595,0.76243485,-1.1126687,1.7137442,-7.9447425
899,1747533669920,-1.713648,1.97125035,0.708620225,-1.19336245,1.9094866,-7.4256925
900,1747533669930,-1.6366479,2.0154247,0.66237134,-1.2948289,2.3664849,-6.665892
901,1747533669940,-1.5358523,1.9629525,0.66969305,-1.33983635,2.49112095,-6.47201415
902,1747533669950,-1.4842341499999998,1.91243265,0.666032195,-1.4594123,2.6911245,-6.1191454
903,1747533669960,-1.432616,1.8619128,0.66237134,-1.5339808,2.766492,-5.9601545
904,1747533669970,-1.22236075,1.6087033000000002,0.7255822,-1.6522252000000002,2.9728867,-5.594768999999999
905,1747533669980,-1.1667157,1.5762437500000002,0.7724412,-1.56114505,3.03520465,-5.4320498
906,1747533669990,-1.13779485,1.63152265,0.80843962,-1.3608753,2.95504355,-5.39769505
907,1747533670000,-1.10643345,1.7236542,0.78891504,-1.15634455,2.8101677,-5.37106345
908,1747533670010,-0.9898962,1.7040077,0.6884855,-0.86392945,2.197108,-5.0584083
909,1747533670020,-0.856885,1.6146828,0.6289356,-0.8825716,1.845038,-4.850149
910,1747533670030,-0.70264083,1.4982674,0.5749989,-0.90520848,1.6932378,-4.7292415000000005
911,1747533670040,-0.639552015,1.46056055,0.539122485,-0.97152118,1.44396595,-4.47171375
912,1747533670050,-0.38768493,1.3246207,0.41868022,-1.20241725,1.3848438,-4.11644805
913,1747533670060,-0.19890666,1.2263877,0.33411437,-1.5843146,1.54090505,-3.8269626
914,1747533670070,-0.013057065,1.0815397,0.207082575,-1.7789917,1.6586168,-3.7561226
915,1747533670080,0.15961344,0.98086613,0.182188735,-2.0519656,2.02746455,-3.72070245
916,1747533670090,0.43979117,0.9359596,0.15473229,-2.0426445,2.4192157,-3.6980655
917,1747533670100,0.7202129349999999,0.9540198,0.147532595,-2.0426445,2.4192157,-3.6980655
918,1747533670110,1.4050376,1.125592,0.19475769,-1.4823155,2.696717,-3.564375
919,1747533670120,1.6993706,1.3293798,0.2545517,-1.2255868,2.4596956,-3.430684
920,1747533670130,2.047152,1.5087619,0.3397277,-0.9060074,2.12467,-3.1244206
921,1747533670140,2.19492875,1.5160836,0.38988146,-0.7004113750000001,1.97579925,-2.8628982
922,1747533670150,2.6200765500000003,1.55549885,0.55913516,-0.023435815,1.30042157,-1.9651466
923,1747533670160,2.99958565,1.5697762,0.678113065,0.560329125,0.55154067,-1.100950815
924,1747533670170,3.1796999,1.56587125,0.6426027400000001,0.689492435,0.1898833815,-0.6820355650000001
925,1747533670180,3.3224734,1.61870965,0.556816605,0.64714817,-0.0506000635,-0.31691617
926,1747533670190,3.48770025,1.7633136,0.5181335300000001,0.588026,-0.15180019,-0.14274544
927,1747533670200,3.623762,1.9409873,0.5559624,0.7174556,-0.74728304,1.3177321
928,1747533670210,3.649388,1.9365941,0.59842837,0.96406436,-0.9518138,1.917476
929,1747533670220,3.645605,1.92805215,0.604041685,1.1297129,-1.1808456,2.4799356
930,1747533670230,3.641822,1.9195102,0.609655,1.1297129,-1.1808456,2.4799356
931,1747533670240,3.3067315,1.94049915,0.5597453,1.1297129,-1.1808456,2.4799356
932,1747533670250,2.80360765,1.9719826,0.45882763,1.1020161,-1.6676716,3.6687708
933,1747533670260,2.45155515,1.9747893,0.3203251299999999,0.15339808,-2.7292075,5.681588
934,1747533670270,2.0516673,1.9387909,0.149729115,0.0151800169999999,-2.86902345,6.0139505
935,1747533670280,1.8357986,1.9104803,0.06662763,-0.169909683,-3.0860712,6.6472502
936,1747533670290,1.11680596,1.86813625,-0.097256805,-0.072171665,-3.1318776,7.372961549999999
937,1747533670300,0.39781332,1.8257922,-0.26114124,0.3209109249999999,-3.0352048,7.934089349999999
938,1747533670310,-0.300434475,1.85507915,-0.1798702,0.7978830800000001,-2.90817205,8.131962
939,1747533670320,-0.53180075,1.8682582,-0.13691612,1.0263823,-2.8463867,8.193481
940,1747533670330,-1.1492656,1.96819965,-0.0247718119999999,1.3603427,-2.7542412,8.326639
941,1747533670340,-1.47679045,2.0316546,0.097744925,1.40588275,-2.5443841000000003,8.519452000000001
942,1747533670350,-1.5580615,2.0498369,0.15400012,1.4514228,-2.334527,8.712265
943,1747533670360,-1.9929714,2.1291554,0.32069123,1.01386545,-2.39817665,8.885104
944,1747533670370,-2.11024095,2.15514755,0.431615235,0.798948325,-2.73799595,9.0560795
945,1747533670380,-2.38602575,2.15148675,0.69019389,0.880441075,-3.3198967,9.276323
946,1747533670390,-2.583102,2.0876658,0.8861718,2.5917885,-5.123922,9.493104
947,1747533670400,-2.5533268,2.045688,0.8336995,3.353985,-5.363074,9.253952
948,1747533670410,-2.47181175,2.0123741,0.77146493,3.6306875,-5.2719937,9.029714
949,1747533670420,-2.3124424,1.99870685,0.6344268,4.0264335,-4.932973199999999,8.5599325
950,1747533670430,-2.1121934,2.0582569,0.492019385,3.776895,-2.5550368,7.4589815
951,1747533670440,-1.9897987,2.0981603,0.42441553,3.776895,-2.5550368,7.4589815
952,1747533670450,-1.9199983,2.0742426,0.35656762,2.1662152,-0.3270362,6.665892
953,1747533670460,-1.9199983,2.0742426,0.35656762,2.1662152,-0.3270362,6.665892
954,1747533670470,-1.92195075,2.0473963,0.43881491,0.861266335,0.7949536,6.07014315
955,1747533670480,-1.9239032,2.02055,0.5210622,0.33129725,0.814927325,5.825665
956,1747533670490,-1.9934595,1.79052595,1.14255405,0.35020569,0.19547604,5.836850200000001
957,1747533670500,-1.9605118,1.7479379,1.1778203,0.39574575,-0.18961707,5.8514977
958,1747533670510,-1.8753359,1.6037002500000002,0.99660782,0.5459480299999999,-1.07698235,5.85256285
959,1747533670520,-1.79992215,1.50778575,0.70739997,0.53076801,-1.2985574,5.66614185
960,1747533670530,-1.7503786,1.4606826,0.35241866,0.38456047,-1.14409407,5.402222500000001
961,1747533670540,-1.7783231,1.46653995,0.2997023,0.1635181,-0.76539252,5.244297
962,1747533670550,-1.84519475,1.4637333,0.2272172949999999,-0.093476955,-0.2575276785,5.14389585
963,1747533670560,-2.0533756,1.33133225,0.328745105,-0.300138265,0.1347559515,5.10022
964,1747533670570,-2.30963575,1.1218091,0.55242358,-0.37071204,0.24234766,5.0962253
965,1747533670580,-2.4986582,0.79269797,0.8073414,0.11824436,-1.7012273,5.3257895
966,1747533670590,-2.5633333,0.48909074,0.86884385,0.84368944,-2.896454,5.1766524
967,1747533670600,-2.5633333,0.48909074,0.86884385,0.84368944,-2.896454,5.1766524
968,1747533670610,-2.5616250000000003,0.21110952,0.73583258,2.3166838,-4.1723745,4.52524325
969,1747533670620,-2.52025725,0.12544543,0.64077228,2.94305925,-4.5785065,4.1177796
970,1747533670630,-2.3962760000000003,0.075779778,0.57036175,2.973153,-4.6237803,4.046407
971,1747533670640,-2.30268,0.027090356,0.5186216,2.6178875,-4.210458,4.0378847
972,1747533670650,-2.51842675,-0.392322045,0.420266585,1.98991405,-3.03627,4.4767738
973,1747533670660,-3.16481245,-0.5823206,0.305681705,1.39629542,-1.0740529,5.136438999999999
974,1747533670670,-4.13140135,-0.5902524499999999,0.31690833,0.82211787,0.8732505,5.81767565
975,1747533670680,-5.1614447000000006,-0.71630803,0.5021477950000001,0.63809342,1.7757958,6.10716105
976,1747533670690,-5.6130724,-0.82857436,0.63113207,0.62051654,2.1587584,6.1668158
977,1747533670700,-6.7996792,-1.5979648000000002,1.128886775,1.11719615,1.59177142,4.8328385
978,1747533670710,-7.3462452,-1.91609335,1.4418902500000002,1.61281045,0.24527714,3.0290794
979,1747533670720,-7.3460009,-1.88021695,1.51852425,1.7678064,-0.41598576,2.1928468
980,1747533670730,-7.2890134,-1.824816,1.513399,1.7678064,-0.41598576,2.1928468
981,1747533670740,-7.2890134,-1.824816,1.513399,1.7678064,-0.41598576,2.1928468
982,1747533670750,-7.2890134,-1.824816,1.513399,1.7678064,-0.41598576,2.1928468
983,1747533670760,-7.2890134,-1.824816,1.513399,1.7678064,-0.41598576,2.1928468
984,1747533670770,-7.2890134,-1.824816,1.513399,1.7678064,-0.41598576,2.1928468
985,1747533670780,-7.2890134,-1.824816,1.513399,1.71241265,-0.74222298,1.49749545
986,1747533670790,-7.2890134,-1.824816,1.513399,1.6570189,-1.0684602,0.8021441
987,1747533670800,-7.2890134,-1.824816,1.513399,1.6570189,-1.0684602,0.8021441
988,1747533670810,-7.2890134,-1.824816,1.513399,1.6570189,-1.0684602,0.8021441
989,1747533670820,-7.2890134,-1.824816,1.513399,1.6570189,-1.0684602,0.8021441
990,1747533670830,-7.2890134,-1.824816,1.513399,1.6570189,-1.0684602,0.8021441
991,1747533670840,-7.2890134,-1.824816,1.513399,1.6570189,-1.0684602,0.8021441
992,1747533670850,-7.2890134,-1.824816,1.513399,1.6570189,-1.0684602,0.8021441
993,1747533670860,-5.8062439,-0.75547918,1.23541778,1.6570189,-1.0684602,0.8021441
994,1747533670870,-5.21599125,-0.526187425,1.2529899,-0.91160005,0.4684500999999998,-3.1766184500000003
995,1747533670880,-7.2890134,-1.824816,1.513399,-2.9827404,0.9805759,-6.789463
996,1747533670890,-2.8603508,0.954996,0.74461865,-3.8541267,2.86795825,-8.0086585
997,1747533670900,-2.792747,1.0479817,0.6760386,-4.725513,4.7553406,-9.227854
998,1747533670910,-2.792747,1.0479817,0.6760386,-4.725513,4.7553406,-9.227854
999,1747533670920,-2.8265489,1.00148885,0.710328625,-4.725513,4.7553406,-9.227854
1000,1747533670930,-2.8603508,0.954996,0.74461865,-4.725513,4.7553406,-9.227854
