id,timestamp,acc_x,acc_y,acc_z,gyro_x,gyro_y,gyro_z
1,1747532597700,-0.45528882,1.172451,0.6383317,-1.66101357,0.5709817225,-2.48579473
2,1747532597710,-0.677869,1.8931521,0.63039985,-2.478604,1.09882025,-4.491687799999999
3,1747532597720,-0.64492127,2.08241845,0.81844595,-1.10680975,0.95128115,-3.7883468
4,1747532597730,-0.62503064,2.1645436,0.8861718,-0.5496765,0.7717841,-3.4796863
5,1747532597740,-0.48384349,2.319154,0.80868372,1.16087195,0.058323235,-2.4066987
6,1747532597750,-0.274686425,2.45960905,0.45150592,2.0410467,-0.322242495,-1.7726
7,1747532597760,-0.10213796,2.6186123,0.050641875,2.4788704,-0.48602691,-1.1257182
8,1747532597770,-0.11104605,2.7528437,-0.176331375,2.5100294,-0.42717105,-0.42770368
9,1747532597780,-0.30458343,2.9489436,-0.4702983,1.9622171,-0.11984225,0.7121293
10,1747532597790,-0.4634647,2.9818914,-0.56474847,1.3800501,0.07403588,1.8040254
11,1747532597800,-0.5186216,2.8461957,-0.5615757,0.74941355,0.21784659,3.018427
12,1747532597810,-0.566822935,2.58700685,-0.40745356,0.296942475,0.18588865,4.2573295
13,1747532597820,-0.61502427,2.327818,-0.25333142,-0.1555286,0.15393071,5.496232
14,1747532597830,-0.7797629,1.6813104,0.053936653,-0.007456851,-0.26045716,6.8640313
15,1747532597840,-0.81746975,1.39893615,0.0755357185,0.1661812595,-0.33316146,7.002515799999999
16,1747532597850,-0.85273605,1.00002455,0.0446624761,0.782969385,-0.44101949,6.9532473
17,1747532597860,-0.87494525,0.7902573500000001,-0.0838336659,1.40082275,-0.40613207,6.52581
18,1747532597870,-0.9628058,0.6535853,-0.21452632,1.68977575,-0.20985709,6.07147485
19,1747532597880,-1.244692,0.5937913,-0.3577879,1.8833876,0.221575,5.626194
20,1747532597890,-1.49777935,0.58305275,-0.37157714,1.86980545,0.3512709499999999,5.6323195
21,1747532597900,-1.91170035,0.5256993,-0.3741397549999999,1.7670074,0.68629663,6.0797308
22,1747532597910,-2.24825535,0.38780698,-0.3225216549999999,1.6290556500000002,0.8950884649999999,6.7875988
23,1747532597920,-2.58334605,0.1666911035,-0.2313662699999999,1.546764,0.83889577,7.25658125
24,1747532597930,-2.87047935,-0.1023820165,-0.123492965,1.5153387,0.655670285,7.59719975
25,1747532597940,-3.4679315,-0.5812223599999999,-0.00719969,1.55262295,0.37950046,7.8856205
26,1747532597950,-4.237322,-1.2754432,0.02391761,1.6652747,-0.0181095,8.48429925
27,1747532597960,-4.2102315,-1.42480625,-0.024405725,1.72759265,-0.34727621,8.986038749999999
28,1747532597970,-4.13994275,-1.6493389,-0.1398448,1.60109245,-0.57790597,8.854744499999999
29,1747532597980,-4.2370777,-1.6444578,-0.25040275,1.3632722,-0.809867295,8.531969
30,1747532597990,-4.747401,-1.2954559,-0.3956168,0.42184472,-0.8697884,8.554606
31,1747532598000,-4.889687,-1.3901501,-0.46614933,-0.24394555,-0.7089335,8.730375
32,1747532598010,-4.88260935,-1.4711771,-0.430150895,-0.582167005,-0.61226075,8.795622
33,1747532598020,-4.847343,-1.64433565,-0.2999463599999999,-1.17951403,-0.43809,8.873919
34,1747532598030,-4.77498015,-1.85276055,-0.07260703,-1.5459649999999998,-0.34035198,8.8462225
35,1747532598040,-4.730806,-1.9690539,0.0605262,-1.6532904,-0.32011196,8.805476
36,1747532598050,-4.399620049999999,-2.29926345,0.368648485,-1.2689962499999998,-0.61891865,8.153268
37,1747532598060,-3.8628162,-2.41531265,0.3840241,-0.029294772,-1.2287825,6.156163
38,1747532598070,-3.2635336,-2.43508115,0.28627915,0.140348594,-1.2149341,5.72393215
39,1747532598080,-3.0453465,-2.4281254,0.23258655,0.30999196,-1.2010857,5.2917013
40,1747532598090,-2.3777278,-2.3010937,0.04417435,0.33688988,-0.98563595,4.1742388
41,1747532598100,-1.3428029,-2.110363,-0.23307467,-0.008522116,-0.59761333,2.4873924
42,1747532598110,-0.9725681,-2.025675,-0.23258655,-0.42290998,-0.42717105,1.991512
43,1747532598120,-0.7786646500000001,-1.9946798,-0.19085276,-0.6098639100000001,-0.362722545,1.7193369
44,1747532598130,-0.10030753,-1.7716117,0.08371163,-0.8042747,-0.2545982,0.7526093
45,1747532598140,0.03807293,-1.69693,0.12739788,-0.62531024,-0.40266997,0.505468
46,1747532598150,0.17596528,-1.6466542,0.10958171,-0.41864893,-0.6087986,0.28815404
47,1747532598160,0.28213018,-1.6127303,0.028798755,-0.23169503,-0.81439465,0.09267801
48,1747532598170,0.31715239,-1.5927175999999998,-0.0385610425,-0.171241265,-0.87617999,0.00692422
49,1747532598180,0.38487828,-1.5421977,-0.24918245,-0.0777643,-0.94275904,-0.25246766
50,1747532598190,0.38853914,-1.5051011,-0.4127008,-0.1603223,-0.755006195,-0.427703665
51,1747532598200,0.31581008,-1.488017,-0.39366436,-0.29454562,-0.31638354,-0.73982614
52,1747532598210,0.2876214649999999,-1.5124227499999998,-0.38561046,-0.31079091,-0.20266656,-0.8511462700000001
53,1747532598220,0.22794947,-1.5739252,-0.36388935,-0.33289515,0.0111852799999999,-1.1124024
54,1747532598230,0.13179092,-1.6356717,-0.32117933,-0.32330776,0.18908444,-1.42026385
55,1747532598240,-0.0929858099999999,-1.70193325,-0.230390035,-0.19973708,0.2934803499999999,-1.89350755
56,1747532598250,-0.37926495,-1.7843026,-0.13447554,0.10173275,0.29134983,-2.5742116
57,1747532598260,-0.53912246,-1.8213992,-0.114218794,0.30519825,0.21731395,-2.973153
58,1747532598270,-0.9596331,-1.8645973,-0.15082738,0.7238472,0.23169503,-4.066647
59,1747532598280,-1.09911185,-1.8738715,-0.186215685,0.74115775,0.2764361349999999,-4.3287022
60,1747532598290,-1.4373752,-1.87204115,-0.223556445,0.7454187999999999,0.37310887,-4.784369
61,1747532598300,-1.8663058,-1.83884935,-0.215746605,0.7257114,0.50040797,-5.1090083
62,1747532598310,-2.5003664,-1.8514184,-0.23844394,0.68336713,0.77391464,-5.4898405
63,1747532598320,-2.8493683,-1.98870045,-0.2262410799999999,0.547545925,1.04316022,-5.91434825
64,1747532598330,-3.1983702,-2.1259825,-0.21403822,0.41172472,1.3124058,-6.338856
65,1747532598340,-3.7904532,-2.26668155,0.183409012,0.365385715,1.5041533500000002,-7.0861393
66,1747532598350,-4.373018,-2.242398,0.6218578,0.512125885,1.33690685,-7.549795599999999
67,1747532598360,-4.5554508,-2.1783329,0.72521608,0.72784195,0.92731268,-7.9386168
68,1747532598370,-4.9049406,-1.9771077,0.8112463050000001,0.8450210499999999,0.2159823649999999,-8.3849625
69,1747532598380,-5.1264223,-1.7524531,0.734124225,0.69774822,-0.366717275,-8.755675
70,1747532598390,-5.20744935,-1.54988555,0.62893555,0.302268785,-0.506266935,-8.850750000000001
71,1747532598400,-5.2220931,-1.3437792000000002,0.5852493000000001,-0.201334985,-0.500674305,-8.793492
72,1747532598410,-4.8931036,-1.0123495,0.75291663,-0.9355685,-0.42850263,-8.451275500000001
73,1747532598420,-4.73532055,-0.95719255,0.796114765,-1.61573985,-0.42823632,-8.02650115
74,1747532598430,-4.5775375,-0.9020356,0.8393129,-1.8279938,-0.46978164,-7.8739023
75,1747532598440,-4.266121,-0.6794554,0.9313224,-2.0628846,-0.6924219,-7.623565
76,1747532598450,-3.6320598,-0.2716357,0.8717725,-2.4602282,-1.1984226,-7.0398
77,1747532598460,-2.8022654,0.14057697,0.6645679,-2.8703551,-1.4775218,-6.4901237
78,1747532598470,-2.6265441000000003,0.2220921,0.6288134999999999,-2.94305945,-1.46979865,-6.3452477
79,1747532598480,-2.2875485500000003,0.3785328,0.550593125,-3.0711575,-1.40987755,-6.06002305
80,1747532598490,-1.8152978,0.5784157,0.41172457,-3.2538502,-1.2191951,-5.657087
81,1747532598500,-1.2764194,0.72118914,0.33533466,-3.5398738,-0.79415464,-5.1564126
82,1747532598510,-1.0474937,0.75950617,0.33875147,-3.5665054,-0.6508766,-4.9641323
83,1747532598520,-0.9596331,0.791965755,0.350344185,-3.5348137,-0.5949502,-4.86186695
84,1747532598530,-0.7399816,0.9261973,0.375116,-3.3768883,-0.44048685,-4.5486794
85,1747532598540,-0.6282034,1.0306537,0.37536004,-3.2107072,-0.350472,-4.340953
86,1747532598550,-0.39805737,1.2586032,0.3773125,-2.9651637,-0.2793656,-4.146542
87,1747532598560,-0.32898918,1.3952752,0.40293851,-2.3574302,-0.1123854,-3.7502635
88,1747532598570,-0.30470547,1.47325155,0.421852955,-2.14304575,-0.0841558915,-3.63734545
89,1747532598580,-0.26187342,1.6377462,0.4552888,-1.6168051,-0.0410126815,-3.3537187
90,1747532598590,-0.23734567,1.7941869,0.459437765,-1.05301388,-0.0018642125,-3.015231
91,1747532598600,-0.221359915,1.97918225,0.4207547,-0.364586755,0.0876180025,-2.4383904000000003
92,1747532598610,-0.21196372,2.1583203,0.379631055,0.247407665,0.15233282,-1.8173412
93,1747532598620,-0.182798875,2.27144085,0.348269685,0.56086174,0.116912777,-1.39895855
94,1747532598630,-0.1010397,2.4012792,0.26455808,0.89375687,-0.002130529,-0.773382
95,1747532598640,-0.13154686,2.43154225,0.23441699,0.962200085,-0.0229031865,-0.508397465
96,1747532598650,-0.24259291,2.48328245,0.16498269,1.1049455,-0.0276968765,0.647414485
97,1747532598660,-0.44394013,2.4403284,0.114218794,1.2117383,0.036751624,2.5023062
98,1747532598670,-0.4883585649999999,2.3771177,0.120564277,1.2295815,0.0572579619999999,2.9766152000000003
99,1747532598680,-0.56682297,2.21933465,0.12544542,1.2604742,0.07803062,3.8591868
100,1747532598690,-0.788793,1.7298778,0.061014313,1.27192575,0.051132695,4.5950182
101,1747532598700,-0.83162505,1.6571487,0.0617464835,1.2580773,-0.1555286,5.7460365
102,1747532598710,-0.8912971000000001,1.4960709,0.037096701,1.27405625,-0.172040205,5.84137775
103,1747532598720,-0.93254278,1.3111975500000002,-0.009274176,1.3145363,-0.155794928,5.9774652
104,1747532598730,-1.0328503,1.057256,-0.02757847,1.4556838,0.09267801,6.0182114
105,1747532598740,-1.1342561,0.94267113,-0.030873243,1.7113473,0.35633096,5.8935757
106,1747532598750,-1.4008886,0.7597502,-0.10421244,1.7752632,0.42344263,5.895706
107,1747532598760,-1.4927761,0.72912105,-0.14643435,1.77206745,0.491086915,5.9574913
108,1747532598770,-1.7375655,0.6290575700000001,-0.196832175,1.75715375,0.6311692,6.1708108
109,1747532598780,-2.2558212,0.32850105,-0.10128376,1.7853832,0.7142598,6.8592377
110,1747532598790,-2.5622351,-0.010616495,0.13374337,2.479403,0.19973709,8.112521
111,1747532598800,-3.00824965,-0.5375361,0.4404013,2.90737305,-0.110787505,8.3242425
112,1747532598810,-3.5422468,-1.1199788,0.5188657,4.0714407,-0.932639,8.69096
113,1747532598820,-3.6451169,-1.2482308,0.432591465,4.35879585,-1.0932276,8.6733835
114,1747532598830,-3.9066243,-1.4755701,-0.0605262,4.697017499999999,-1.27245835,8.5495465
115,1747532598840,-4.0276768,-1.46422145,-0.55937925,3.7838195,-0.888963175,8.10852675
116,1747532598850,-4.454777,-1.2332213,-1.325719,0.9901633,0.16138756,7.8201065
117,1747532598860,-4.9560704,-1.142676,-1.3049742,-0.9598033,0.6354303,8.329303
118,1747532598870,-4.9560704,-1.142676,-1.3049742,-0.9598033,0.6354303,8.329303
119,1747532598880,-5.542296,-1.52206305,-0.724483925,-3.1696944,0.97418437,9.5442365
120,1747532598890,-5.46676035,-2.0777814,0.0507639249999999,-3.6325519,0.55180701,10.134393
121,1747532598900,-5.14008955,-2.4360574,0.679455375,-3.06316805,-0.22743396,10.028666
122,1747532598910,-4.7017627,-2.3773615,0.8502955,-1.3800501,-1.2729911,8.868859
123,1747532598920,-4.54532185,-2.31646925,0.8090497999999999,-0.83623259,-1.61174515,8.383631000000001
124,1747532598930,-4.2148685,-2.200054,0.63027785,0.08415591,-2.1497037,7.407849000000001
125,1747532598940,-3.6535368,-2.0620399,0.21379416,0.78989357,-2.4650218,6.046441
126,1747532598950,-2.8169088,-1.8631331,-0.17254847,0.52624065,-2.030394,4.854943
127,1747532598960,-2.41275,-1.7916242,-0.2518671,0.084155895,-1.4892397,4.343616
128,1747532598970,-2.1993219,-1.7801536,-0.27700498,-0.1241033025,-1.29456265,4.1350903500000005
129,1747532598980,-1.8365308,-1.77502845,-0.311661095,-0.55313857,-0.97711385,3.711115
130,1747532598990,-1.3784353500000002,-1.7681947999999998,-0.226729185,-0.95793907,-0.7685883,3.0320090000000004
131,1747532599000,-0.6643238,-1.7784452,-0.00976229,-0.9241169,-0.70147663,1.9963056
132,1747532599010,-0.44723489,-1.80126455,0.030751212,-0.69481873,-0.731836665,1.66474205
133,1747532599020,-0.0981110115,-1.80529145,0.094572179,-0.14141385,-0.76592513,1.025583375
134,1747532599030,0.0944501535,-1.7402502000000002,0.134353512,0.55340488,-0.7376956299999999,0.492951125
135,1747532599040,0.383658,-1.564407,0.11202228,1.7917749,-0.6828345,-0.075101145
136,1747532599050,0.4502856,-1.5163277,-0.004881145,2.6876621,-0.7797736,-0.45380265
137,1747532599060,0.46358674,-1.49826745,-0.0966466675,2.6967169,-0.773382,-0.551806975
138,1747532599070,0.3734076,-1.3825843,-0.4497975,1.9457055,-0.41918156,-0.94275904
139,1747532599080,0.32630453,-1.3223021,-0.43173727,1.3954965,-0.13582122,-1.0641992
140,1747532599090,0.2865232,-1.3035098,-0.3431445,0.8708537,0.14594123,-1.1840415
141,1747532599100,0.247107955,-1.31095355,-0.269073125,0.665523965,0.24767399,-1.2444952
142,1747532599110,0.154488235,-1.34975865,-0.138502493,0.304931945,0.390952065,-1.4061491
143,1747532599120,-0.0126909749999999,-1.5076636,-0.0219651529999999,0.107858027,0.399474175,-1.7534253
144,1747532599130,-0.2689511,-1.7491581,0.060038086,0.15659387,0.32011196,-2.3185482
145,1747532599140,-0.35107637,-1.7928444,0.086274238,0.25060346,0.29401298,-2.4884578
146,1747532599150,-0.52325872,-1.8750918,0.124469195,0.454335275,0.2364887,-2.85224555
147,1747532599160,-0.8516376999999999,-2.04312525,0.13325525,0.63383235,0.16777915,-3.2727587
148,1747532599170,-1.23004855,-2.2074978,0.135573795,0.66525765,-0.0292947699999999,-4.06771235
149,1747532599180,-1.53304565,-2.242154,0.12215065,0.54115433,-0.27989824,-4.9742525
150,1747532599190,-1.6959538,-2.24191,0.10323621,0.45540056,-0.37071204,-5.312474
151,1747532599200,-2.39713025,-2.10340735,-0.0718748595,-0.101732753,-0.32011196,-6.3071645
152,1747532599210,-2.8618152,-2.02713945,-0.13435351,-0.49135322,-0.1009338035,-6.6600335
153,1747532599220,-3.355909,-2.0249430000000004,-0.0491775315,-0.8713863,0.3549993815,-7.00944025
154,1747532599230,-3.77825025,-2.0979161,0.1402108835,-1.0170612,0.772316725,-7.360977399999999
155,1747532599240,-4.1636167,-2.2079859,0.40635532,-0.7126619,0.96299905,-7.833955
156,1747532599250,-4.407674,-2.2062776,0.54790854,-0.37124467,0.9369001,-8.192416
157,1747532599260,-4.69151265,-2.15307305,0.6562699350000001,-0.0428768999999999,0.695884015,-8.5194525
158,1747532599270,-5.10763015,-2.02860385,0.779396815,0.300404585,0.299072995,-8.9037465
159,1747532599280,-5.3802423,-1.8497099,0.76853627,0.092145376,-0.12410331,-9.003615
160,1747532599290,-5.369991649999999,-1.80004425,0.751452265,-0.360592,-0.3717773,-9.0291815
161,1747532599300,-5.2677317,-1.6490947,0.7067898,-0.654338685,-0.44394895,-9.01533325
162,1747532599310,-4.9890184,-1.1995413,0.66896087,-2.176868,-0.44581318,-8.670187
163,1747532599320,-4.86149835,-1.06140495,0.665300035,-2.46848405,-0.41864893,-8.55167675
164,1747532599330,-4.543369800000001,-0.79306405,0.6688389,-2.98566995,-0.3664509649999999,-8.32477575
165,1747532599340,-4.13249965,-0.5433934650000001,0.68824145,-3.36650205,-0.303866685,-8.09494475
166,1747532599350,-3.4468203,-0.1552204,0.73290396,-3.556918,-0.24181503,-7.764713
167,1747532599360,-3.08097865,0.06516328,0.74486273,-3.33694095,-0.27510455,-7.52742515
168,1747532599370,-2.5557675,0.371577145,0.742300115,-2.93533625,-0.338221475,-7.1378045
169,1747532599380,-2.26472925,0.5453459350000001,0.702152715,-2.56009675,-0.38908784,-6.80943685
170,1747532599390,-1.9375705,0.77292925,0.63113207,-2.0053604,-0.47137952,-6.263755
171,1747532599400,-1.6511693,0.880192425,0.586713635,-1.6740631,-0.62744076,-5.951899
172,1747532599410,-1.27105015,1.0631133,0.505564575,-1.2026835500000002,-0.90840425,-5.44110475
173,1747532599420,-1.08690895,1.2250453,0.34595114,-1.03383915,-1.00161488,-5.08077875
174,1747532599430,-0.81466305,1.4382293,0.00707766,-1.0676613,-0.8367652299999999,-4.76998775
175,1747532599440,-0.6787232,1.5634308,-0.09640261,-1.3385048,-0.37337518,-4.303136
176,1747532599450,-0.6245425,1.7162106,-0.0545467929999999,-1.4271880499999998,-0.0764327199999999,-3.91218385
177,1747532599460,-0.5433934650000001,1.9424516,0.0262361545,-1.4620755,0.31318775,-3.3001893
178,1747532599470,-0.479084365,2.0648463,0.1108019925,-1.2844427,0.465254265,-2.8522456
179,1747532599480,-0.39927765,2.16051675,0.20525214,-0.9661949,0.5347627850000001,-2.3987093
180,1747532599490,-0.28701133,2.27607785,0.2717577399999999,-0.220243425,0.4479437149999999,-1.61547355
181,1747532599500,-0.15619664,2.3978624,0.21818718,0.76592517,0.26738137,-0.5305017
182,1747532599510,-0.14008886,2.4405725,0.13496366,1.1158645,0.22796659,0.046871636
183,1747532599520,-0.14997318,2.44948065,0.102504045,1.24982155,0.2412823949999999,0.377636243
184,1747532599530,-0.20354374,2.4371557,0.012446919,1.5616777,0.3057309,1.4578145
185,1747532599540,-0.3526627,2.2616785,-0.090789296,1.6239957,0.32863408,2.2551649
186,1747532599550,-0.4067213899999999,2.20505715,-0.105554763,1.5414377,0.30546458,3.0503848
187,1747532599560,-0.5349735,1.9949238,-0.1461903,1.2969595,0.25300032,4.573713
188,1747532599570,-0.5776835,1.90901575,-0.1607117049999999,1.1880362,0.26684876,4.955344
189,1747532599580,-0.82076454,1.4394495,-0.14228538,0.94542223,0.36591834,5.806224
190,1747532599590,-0.90520835,1.274467,-0.07980672,0.90174633,0.6269081,6.330334
191,1747532599600,-0.96402615,1.1277885,-0.009518232,1.0183928,0.7105314,6.3835974
192,1747532599610,-1.0382195,0.967443,0.044174362,1.10334765,0.71665668,6.35883
193,1747532599620,-1.0947187500000002,0.90386605,0.046492906,1.2761868,0.6924219149999999,6.2951803
194,1747532599630,-1.21089,0.79330807,0.058939825,1.45967855,0.6082659850000001,6.23339485
195,1747532599640,-1.300581,0.7193587400000001,0.0644311135,1.6676715,0.5025384749999999,6.20516535
196,1747532599650,-1.4931422,0.6565139900000001,0.0029286869999999,1.9939088,0.49667956,6.34098665
197,1747532599660,-2.02055,0.588178,-0.0707766,2.2732744,0.72278196,6.8933263
198,1747532599670,-2.21274505,0.528505975,-0.069556315,2.2498386,0.79308938,7.12795065
199,1747532599680,-2.60799575,0.367428175,-0.073339205,2.1353226,0.8847020999999999,7.58255215
200,1747532599690,-3.3380930500000003,-0.017206035,-0.11006982,1.6104135,0.90121373,8.113586399999999
201,1747532599700,-4.1758194,-0.6233222,-0.17425688,0.5448828,0.5997439,8.512528
202,1747532599710,-4.24610805,-0.72448395,-0.191218855,0.22796661,0.3954794299999999,8.4771085
203,1747532599720,-4.431225550000001,-0.8455363499999999,-0.234661035,-0.385359415,-0.01784318,8.429172000000001
204,1747532599730,-5.0156205,-0.84211955,-0.43564217,-1.293763675,-0.56192701,8.917329
205,1747532599740,-5.947675,-0.96329397,-0.70996255,-2.3425164,-0.86872315,10.199907
206,1747532599750,-6.2205315,-1.2949678,-0.63162017,-2.5608957,-0.6844324,10.803379
207,1747532599760,-6.151219,-1.7081566,-0.41977844,-2.503904,-0.57417756,10.967963
208,1747532599770,-5.99001915,-1.8610585,-0.266998617,-2.32813545,-0.6332997300000001,10.799385
209,1747532599780,-5.7132583,-2.04129485,-0.022575297,-1.8796592,-0.88443585,10.3053685
210,1747532599790,-5.184996,-2.0359256,0.08029483,-0.52357745,-2.1816616,8.6680565
211,1747532599800,-4.638308,-2.0825405,-0.1403329,-0.20240025,-2.5816684,7.7332873
212,1747532599810,-4.352151,-2.10889865,-0.24881635,-0.2146508,-2.4841967,6.9055767
213,1747532599820,-3.5149126,-2.12744705,-0.423805415,-0.42530685,-1.93398765,6.05815885
214,1747532599830,-2.4544837,-2.106214,-0.375116,-0.8229168,-0.79042625,4.363856
215,1747532599840,-2.046176,-2.059111,-0.23331872,-0.9395633,-0.51026165,3.5819516
216,1747532599850,-1.89303005,-2.02360065,-0.16961978,-0.942492765,-0.476705825,3.2495892
217,1747532599860,-1.4018649,-1.9068193,0.011958805,-0.7845673,-0.4383563,2.363289
218,1747532599870,-1.0455413,-1.8267685,0.0706545675,-0.39095206945,-0.51372377,1.8626148
219,1747532599880,-0.5067849,-1.7148682000000002,0.112388355,0.15845808055,-0.66951872,1.1851067
220,1747532599890,-0.12764193,-1.6234688,-0.009030119,0.49428272,-0.87511474,0.74248934
221,1747532599900,-0.0793185999999999,-1.59942915,-0.0854200345,0.49188587,-0.92305167,0.65753447
222,1747532599910,0.08175918,-1.5834434,-0.32532832,0.31052458,-1.0530139,0.44048685
223,1747532599920,0.19756434,-1.6210282,-0.433445675,0.07190534,-1.041296,0.251136095
224,1747532599930,0.34912389,-1.6664228,-0.543149415,-0.2625877,-0.83942837,-0.19547603
225,1747532599940,0.397569255,-1.6722802,-0.520208035,-0.2242381749999999,-0.696949235,-0.321709875
226,1747532599950,0.397569255,-1.65971125,-0.4573632749999999,-0.0303600349999999,-0.3374224899999999,-0.58190073
227,1747532599960,0.33911754,-1.64372545,-0.37243135,0.45327002,0.20772657,-0.89855057
228,1747532599970,0.1755991824999999,-1.6487287,-0.253331415,0.69215556,0.310524585,-1.086303435
229,1747532599980,0.057841565,-1.6591012,-0.18084641,0.9310411,0.4133226,-1.2740563
230,1747532599990,-0.17303659,-1.7120615,-0.1871919,0.90174633,0.23702134,-1.6788567
231,1747532600000,-0.30848834,-1.7447653,-0.1952458,0.7238472,0.10918961,-1.8977686
232,1747532600010,-0.396470995,-1.8035831,-0.16644704,0.620516535,0.113716985,-2.2517027
233,1747532600020,-0.544857825,-1.90022975,-0.1299604825,0.522245885,0.184024435,-2.9547772
234,1747532600030,-0.71081675,-1.96722345,-0.1086054775,0.54781225,0.305198255,-3.60032745
235,1747532600040,-0.8163715,-1.9963883,-0.09493827,0.5683186,0.360592,-3.8967373
236,1747532600050,-1.2431056,-1.95746115,-0.0141553204999999,0.7350325,0.424507885,-4.6030078
237,1747532600060,-1.7347589499999998,-1.87704425,0.010128376,0.91186635,0.39627838,-5.075985299999999
238,1747532600070,-2.0642362,-1.824816,0.008053889,1.0210559,0.37071204,-5.358813
239,1747532600080,-2.8452194,-1.8480015,-0.08078295,0.8495484,0.4250405,-6.078399
240,1747532600090,-3.1959298,-1.8975451,-0.07614586,0.62744075,0.5342301,-6.585465
241,1747532600100,-3.5573784,-1.9531902,0.06870212,0.504669025,0.61119547,-6.861901
242,1747532600110,-4.09284,-1.9965103,0.32679266,0.287088765,0.84635262,-7.6163745
243,1747532600120,-4.4530685000000005,-1.96514885,0.53729203,0.24181503,1.0293118,-8.2214445
244,1747532600130,-5.0251384,-1.876068,0.7636551,0.3536678,0.9438243,-8.5002775
245,1747532600140,-5.384391,-1.7816179,0.8705522,0.32756883,0.67218184,-8.600412
246,1747532600150,-5.708987,-1.5295068,1.0523748,0.23755397,0.31318775,-8.637164
247,1747532600160,-5.6688395,-1.4770345,1.04139225,0.06764429,-0.04074636,-8.713597
248,1747532600170,-5.576708,-1.3506128,0.9940452,-0.26897928,-0.52917011,-8.831841
249,1747532600180,-5.366819,-1.0748281,0.8949579,-0.94808537,-0.7819041,-8.77991
250,1747532600190,-5.094939,-0.86249834,0.8498074,-1.3736585,-0.70200926,-8.6094675
251,1747532600200,-4.694197,-0.6213697,0.77829856,-1.8279938,-0.5954828,-8.4331665
252,1747532600210,-3.7704403,-0.08053889,0.65065664,-2.7345338,-0.5294364,-8.051802
253,1747532600220,-3.53297265,0.066383575,0.62527469,-2.92015615,-0.54941013,-7.90719215
254,1747532600230,-3.1172212,0.33667697,0.58049017,-3.3944652,-0.628506,-7.39187
255,1747532600240,-2.62410355,0.6498024,0.53570565,-3.54413485,-0.68842715,-6.948453649999999
256,1747532600250,-2.16161505,0.901547475,0.47493541,-3.74040985,-0.77045253,-6.22354115
257,1747532600260,-2.0139604,0.96353805,0.43954712,-3.7870152,-0.79255676,-5.942045
258,1747532600270,-1.6786257,0.989286075,0.41465327,-3.78009095,-0.743820905,-5.5585498
259,1747532600280,-1.2473766,1.03077575,0.41526341,-3.68448345,-0.652474475,-4.97824695
260,1747532600290,-0.73632073,1.1800168,0.48835856,-3.4320158,-0.56645435,-4.59288765
261,1747532600300,-0.631254065,1.1881927,0.4645629799999999,-2.8615667,-0.42157838,-4.165184
262,1747532600310,-0.39342028,1.2341975,0.43295756,-2.0090888,-0.17417073,-3.7827542
263,1747532600320,-0.349612,1.2784939,0.45260416,-1.7491642499999998,-0.106260125,-3.7241646
264,1747532600330,-0.24356914,1.4382293,0.4966565,-0.7664578,0.019707393,-3.5270905
265,1747532600340,-0.17620933,1.6695957,0.42417148,0.35260254,0.034621093,-3.2234902
266,1747532600350,-0.16034561,1.7994341,0.34802565,0.8223842,0.07882957,-3.0120351
267,1747532600360,-0.1403329,1.9356179,0.27383223,1.0223876,0.103064335,-2.87834455
268,1747532600370,-0.1258115025,2.0007813,0.224044555,1.3728596,0.156593875,-2.57794
269,1747532600380,-0.1199541375,2.1423346,0.08358961,1.58511355,0.235157135,-2.19444475
270,1747532600390,-0.14814276,2.4071367,-0.29189247,1.3028184,0.43516052,-0.6940198
271,1747532600400,-0.1552204,2.4376438,-0.3577879,1.12119085,0.4687163599999999,-0.278832975
272,1747532600410,-0.178039755,2.4271493,-0.347781565,0.719053535,0.5286375,0.721982975
273,1747532600420,-0.227461345,2.3755312,-0.2923805849999999,0.36804887,0.52996905,1.80189485
274,1747532600430,-0.274442375,2.25081805,-0.1948797099999999,0.166713885,0.4383563,2.7672908
275,1747532600440,-0.35827604,1.7540395,0.002928687,0.16405073,0.08628642,4.686631
276,1747532600450,-0.42392743,1.5299948,0.030019043,0.32011196,-0.019707393,5.1478906
277,1747532600460,-0.47469133,1.3147364,0.033923957,0.5299691,-0.061252706,5.4349794
278,1747532600470,-0.502391845,1.2205303,0.0240396385,0.6498113299999999,-0.0410126809999999,5.4943677
279,1747532600480,-0.5625519800000001,1.0479818,0.0085420035,0.89562108,0.019174762,5.5489625
280,1747532600490,-0.7231416,0.66188323,-0.094206095,1.2514194,0.178964425,5.38890675
281,1747532600500,-0.7656076,0.55718267,-0.09445015,1.6463662,0.3920173,5.0898337
282,1747532600510,-0.8124666,0.545589985,-0.097012753,1.7337178999999998,0.4609932,5.052016699999999
283,1747532600520,-0.91655702,0.53680393,-0.1098257629999999,1.8956381,0.6130597,5.0216565
284,1747532600530,-1.05298502,0.5493728499999999,-0.126177605,2.0213393,0.7621967199999999,5.094360849999999
285,1747532600540,-1.35354145,0.55925717,-0.1032362199999999,2.1249363,0.91799162,5.5090152
286,1747532600550,-1.9578272,0.49812084,-0.034900185,2.16541635,1.02265385,6.14124975
287,1747532600560,-2.18370215,0.4378387,-0.007199688,2.11881105,1.03996445,6.82355175
288,1747532600570,-2.61995445,0.25198911,0.0572314244999999,2.06315095,1.0343718000000002,7.4504598
289,1747532600580,-3.1827504500000003,-0.15461027,0.17254847,1.9872508,0.827710465,7.808654799999999
290,1747532600590,-3.5351691,-0.4356422,0.2511349,1.9323897,0.62903863,7.939416
291,1747532600600,-3.9127259,-0.58756785,0.333138135,1.9504992,0.254864505,8.06245425
292,1747532600610,-4.3952272,-0.7458389750000001,0.350466205,1.93079185,-0.3006708999999999,8.32610725
293,1747532600620,-4.59828285,-0.73095146,0.1557085255,1.7483653,-0.5504754199999999,8.6174565
294,1747532600630,-4.875044,-0.696539405,-0.0920095795,1.3361079,-0.5494101499999999,8.9642
295,1747532600640,-5.473838199999999,-0.93876617,-0.146312315,0.31132351,-0.258859265,9.6877815
296,1747532600650,-5.862743,-1.5975988,0.15229172,-0.8330368,-0.098004326,10.316021
297,1747532600660,-5.5740233,-1.7791773000000002,0.37291946,-0.83916205,-0.186687598,10.161824
298,1747532600670,-5.2853036,-1.9607558,0.5935472,-0.68709555,-0.403468935,9.711217
299,1747532600680,-5.1259343,-1.92609975,0.6119735500000001,-0.307328795,-0.70121035,9.076852
300,1747532600690,-4.64233485,-1.8620347,0.47090847,0.0892158949999999,-1.0383665,8.4022735
301,1747532600700,-3.77703,-1.8826576,0.088348724,0.23915187,-1.3086774,6.471482
302,1747532600710,-3.2856207,-1.8398256,0.0320935285,0.0229031849999999,-1.16033935,5.9977053
303,1747532600720,-2.6158055,-1.7634357,-0.002196515,-0.48149953,-0.7637946500000001,4.9204563
304,1747532600730,-2.28742645,-1.71303785,0.0230634095,-0.8407599649999999,-0.453270025,4.0916807
305,1747532600740,-1.8538588,-1.688632,0.07565775,-0.9358348,-0.37071204,3.498861
306,1747532600750,-1.50925,-1.6891203,0.20183535,-0.7504788,-0.3834952,3.1766186
307,1747532600760,-1.1678139,-1.7076685,0.30507156,-0.559796465,-0.4186489249999999,3.0170952
308,1747532600770,-0.893371525,-1.726583,0.31886078,0.127565435,-0.6016081,2.5113609
309,1747532600780,-0.54534589,-1.75745625,0.291038255,0.8708537000000001,-0.841558925,1.9406455
310,1747532600790,-0.396715045,-1.78283815,0.178161795,1.2197278,-1.00401175,1.5542208
311,1747532600800,-0.2626056,-1.7978477000000002,0.044296393,1.3499564,-1.1166635,1.25408255
312,1747532600810,-0.0841997485,-1.78503475,-0.185239447,1.1917646,-1.1414309,0.8543421
313,1747532600820,0.0806609215,-1.77551655,-0.443452,0.7667240500000001,-1.01759387,0.4655205799999999
314,1747532600830,0.1666910999999999,-1.7706354,-0.5551082,0.26525083055,-0.74355459,0.224238165
315,1747532600840,0.23405088,-1.7103533,-0.4937278,-0.39734364,-0.20399815,-0.09960223
316,1747532600850,0.23478307,-1.6639824,-0.35485923,-0.6109292,0.10013486,-0.3153183
317,1747532600860,0.173402675,-1.6368920500000002,-0.23539321,-0.636495535,0.19920445,-0.4261058
318,1747532600870,0.0634548865,-1.59467015,-0.08041686,-0.555801735,0.34168357,-0.7749799
319,1747532600880,-0.12666571,-1.5587937,-0.02391761,-0.31851408,0.3089267,-1.2080098
320,1747532600890,-0.176087305,-1.5659934,-0.03721873,-0.2844256149999999,0.25806032,-1.3209279
321,1747532600900,-0.26419197,-1.5819791,-0.07700006,-0.24820662,0.16112125,-1.5691346
322,1747532600910,-0.41672775,-1.5819791,-0.131180775,-0.23489081,0.1238369949999999,-2.01201835
323,1747532600920,-0.57463278,-1.564407,-0.146800445,-0.1712412575,0.175768635,-2.4876589
324,1747532600930,-0.65932065,-1.5459806500000002,-0.126421655,-0.0399474175,0.27297402,-2.85304455
325,1747532600940,-0.8573731,-1.500464,-0.090789296,0.25566345,0.45220476,-3.556918
326,1747532600950,-0.8573731,-1.500464,-0.090789296,0.25566345,0.45220476,-3.556918
327,1747532600960,-1.453483,-1.34646385,0.078952522,0.81519363,0.5411543249999999,-4.28156415
328,1747532600970,-1.71474625,-1.3116857,0.096768697,0.96939063,0.487891105,-4.5180527
329,1747532600980,-2.2248259,-1.3064384,0.054424766,0.9667275,0.36272255,-4.873052
330,1747532600990,-2.37540915,-1.3362134,0.034778158,0.8636631699999999,0.3299656749999999,-5.0144660000000005
331,1747532601000,-2.7589451,-1.46934665,0.063454885,0.44900898,0.344080425,-5.5809205
332,1747532601010,-3.1135603,-1.598697,0.17132818,-0.0005326249999999,0.45513424,-6.3071645
333,1747532601020,-3.5071027,-1.6383562,0.39586085,-0.172839155,0.595216515,-6.81902415
334,1747532601030,-3.7418857,-1.6234688,0.5405868,-0.13795175,0.81066626,-7.3641734
335,1747532601040,-3.98252635,-1.55867155,0.6828722,-0.064182185,0.8482168299999999,-7.4584492
336,1747532601050,-4.485772,-1.3928347,0.9303462,0.23648871,0.63862604,-7.653925
337,1747532601060,-4.556793,-1.3707475,0.9601212,0.196807605,0.453003705,-7.649930250000001
338,1747532601070,-4.6539280000000005,-1.3237665,1.0041736,0.0396811,0.059122175,-7.62010275
339,1747532601080,-4.682238,-1.2385906,1.0164984,-0.39521313,-0.5049353,-7.528224
340,1747532601090,-4.655392,-1.2071072,0.9776934,-0.90014845,-0.7137272,-7.481885
341,1747532601100,-4.655392,-1.2071072,0.9776934,-0.90014845,-0.7137272,-7.481885
342,1747532601110,-4.40096225,-1.04810385,0.9285158,-1.551824025,-0.65220815,-7.4264913
343,1747532601120,-4.03145955,-0.8139308999999999,0.87213855,-2.3710123,-0.5589975,-7.32848695
344,1747532601130,-3.60619,-0.58988637,0.82393724,-2.790993,-0.46658584,-7.2176995
345,1747532601140,-2.9343002,-0.30873242,0.75267255,-3.0115025,-0.4394216,-7.2043834
346,1747532601150,-2.6226392,-0.09396204,0.7236297,-2.964631,-0.525708,-7.1740236
347,1747532601160,-2.361742,0.1044565,0.6804316,-2.819755,-0.6940198,-7.012103
348,1747532601170,-2.361742,0.1044565,0.6804316,-2.819755,-0.6940198,-7.012103
349,1747532601180,-2.1405041,0.2776151249999999,0.6105092000000001,-2.6945865,-0.837564175,-6.7412595
350,1747532601190,-1.4548253,0.6987359,0.34192422,-2.5494442,-1.101749775,-6.1692125
351,1747532601200,-1.35610415,0.7427882299999999,0.287255385,-2.5808694,-1.2604742,-5.74017735
352,1747532601210,-1.16756995,0.84065518,0.19927274,-2.7712855,-1.3310479,-5.371596
353,1747532601220,-0.997950115,0.96268375,0.1383804625,-2.83919605,-1.31213945,-5.2674664
354,1747532601230,-0.7695125,1.2034464,0.010738519,-2.97022355,-1.2186625,-5.086904049999999
355,1747532601240,-0.631254075,1.3603752,-0.0145214065,-3.05464575,-0.8633968299999999,-4.809669
356,1747532601250,-0.474569325,1.5833215,0.012202864,-2.9265477,-0.42077947,-4.407265349999999
357,1747532601260,-0.441987685,1.7070585,0.1198321099999999,-2.5150894,-0.109988565,-3.9196406
358,1747532601270,-0.396348985,1.79857985,0.2153805099999999,-1.9180087,0.154995975,-3.3033851
359,1747532601280,-0.30458345,1.84543885,0.2706594799999999,-1.22878255,0.34461305,-2.6618295
360,1747532601290,-0.11543907525,1.86838025,0.25784648,-0.26551715,0.443150015,-1.9158781
361,1747532601300,0.06443111,1.8938842,0.19158493,0.8271778,0.44794372,-1.1547467
362,1747532601310,0.10055158,1.9265879,0.14106509,1.2261194,0.4394216,-0.84581995
363,1747532601320,0.094816235,1.94721075,0.114950962,1.42585645,0.45779741,-0.623978645
364,1747532601330,0.0036608586,2.0071268,0.05588911,1.7467674,0.50307116,-0.16538231
365,1747532601340,-0.1803583,2.0081031,0.00707766,2.00376245,0.5608617499999999,0.73263561
366,1747532601350,-0.23697957,1.9336655,-0.037584815,2.1166804,0.59388494,2.143312
367,1747532601360,-0.30360723,1.8167621,-0.073461235,2.0064256,0.62371236,2.892193
368,1747532601370,-0.339117565,1.75098875,-0.0766339775,1.92812865,0.63862603,3.25438295
369,1747532601380,-0.41135851,1.6166353,-0.061746485,1.7012273,0.680704,4.285026
370,1747532601390,-0.6118515,1.2771516,0.018060237,1.5190672,0.85753787,5.419
371,1747532601400,-0.72118914,1.1058234,0.0078098318,1.4460965,0.9896307,5.693306
372,1747532601410,-0.78525415,1.0467615,0.0180602359,1.4176006499999998,1.03570335,5.77692915
373,1747532601420,-0.92607518,0.94730817,0.04588276,1.38058275,1.1068097,5.919408300000001
374,1747532601430,-1.3288918,0.75218445,0.07199689,1.4066817,1.2234563,6.1849256
375,1747532601440,-1.4963149,0.66847277,0.09664667,1.4354439,1.2138689,6.2701464
376,1747532601450,-1.60894735,0.632230285,0.126177595,1.4652713,1.15474665,6.3271382
377,1747532601460,-2.0239668,0.5127643,0.18963248,1.5739282,0.8788432,6.605172
378,1747532601470,-2.25569905,0.3798751199999999,0.20171332,1.67166625,0.6436860600000001,6.9223546
379,1747532601480,-2.4874313,0.24698594,0.21379416,1.7694043,0.40852892,7.2395372
380,1747532601490,-3.34212,-0.053204484,0.18279888,1.8801918,0.028229509,7.856858
381,1747532601500,-3.6005765,-0.152779842,0.1692537,1.8263959,-0.33129725,8.289355
382,1747532601510,-4.156051,-0.5130083,0.011470691,1.6500946,-0.72011876,8.634501
383,1747532601520,-4.156051,-0.5130083,0.011470691,1.6500946,-0.72011876,8.634501
384,1747532601530,-4.2236547,-0.73290396,-0.49568027,1.2996227,-1.0077401,8.728777
385,1747532601540,-4.51029985,-0.6906820300000001,-0.675184385,-0.10892328,-0.8764463499999999,8.8632665
386,1747532601550,-4.9979262,-0.696051275,-0.858959485,-1.7789917,-0.4463458,9.594304
387,1747532601560,-5.30995345,-1.042612575,-0.567555115,-2.0157467,-0.404534175,10.114952
388,1747532601570,-5.33216275,-1.5252358,-0.084565832,-1.9771308,-0.40639839,10.641193
389,1747532601580,-5.243326,-1.7088889,0.102748096,-1.7017599,-0.45007423,10.646786
390,1747532601590,-4.893958,-1.90071795,0.408917898,-0.5049353000000001,-0.746217765,10.0425145
391,1747532601600,-4.4138973,-2.10658015,0.7138674199999999,1.31107425,-1.26500155,8.991897
392,1747532601610,-3.8651345,-2.1619811,0.4997071899999999,2.49138725,-1.69377045,7.3705645
393,1747532601620,-3.1578567,-2.17638065,0.1415531907,2.8620993,-1.82186855,5.720470150000001
394,1747532601630,-2.702812,-2.0990145,-0.1326450992999999,2.2442459500000003,-1.5952336,4.91566275
395,1747532601640,-2.2543569,-1.9404991,-0.4166057,0.6828345,-1.1563445,4.2109904
396,1747532601650,-2.075829,-1.9189001,-0.423927435,0.11052118,-1.025317,4.098605
397,1747532601660,-1.5398792,-1.96868785,-0.383413935,-1.31586797,-0.66392607,3.7476004
398,1747532601670,-1.0718994,-2.084859,-0.286889295,-2.3971114,-0.3720436099999999,3.3529199
399,1747532601680,-0.8487090749999999,-2.1762584,-0.1705960225,-2.624279,-0.31052458,3.1968586
400,1747532601690,-0.635158975,-2.2672919,-0.057231423,-2.61149585,-0.32091091,2.6634275
401,1747532601700,-0.30555966,-2.3895645,0.027090356,-1.8546255,-0.44368264,1.8988339
402,1747532601710,-0.024161667,-2.4579005,-0.055400997,-1.1627362,-0.49241847,1.35235323
403,1747532601720,0.0070776599999999,-2.45070085,-0.1003075335,-0.16591494,-0.53050168,0.538757505
404,1747532601730,0.0353883,-2.39591,-0.23673552,0.60933125,-0.43036684,-0.19014971
405,1747532601740,-0.018792408,-2.318788,-0.32020313,0.92464954,-0.27696875,-0.5635249
406,1747532601750,-0.109215619,-2.2787625,-0.29347885,1.08577082,-0.0513990099999999,-0.8524779
407,1747532601760,-0.252233165,-2.2225073,-0.21623472,1.2953616,0.282295075,-1.31640055
408,1747532601770,-0.354371125,-2.1904138,-0.1144628499999999,1.3800501,0.478836385,-1.7739316
409,1747532601780,-0.517645425,-2.14562925,-0.0218431249999999,1.4013554,0.592553375,-2.30523225
410,1747532601790,-0.89056486,-2.0627718,0.09786696,1.2687299,0.5949502,-3.0445259
411,1747532601800,-1.343291,-1.9773518,0.11495096,0.62744075,0.39148468,-4.0863543
412,1747532601810,-1.6864356,-1.8914437,0.13276714,0.417849975,0.34914042,-4.34734415
413,1747532601820,-1.8705768,-1.85593335,0.15058332,0.02450108,0.2862898299999999,-4.82804485
414,1747532601830,-2.22641215,-1.80944045,0.200248965,-0.274305605,0.288953,-5.2434981
415,1747532601840,-2.83240625,-1.84348645,0.329721345,-0.40906155,0.3949468,-5.6477659
416,1747532601850,-3.5462738,-1.9407432,0.50617473,-0.173105465,0.78217045,-6.47094895
417,1747532601860,-4.06733605,-2.0146925500000004,0.6757945000000001,0.29214878,1.21573305,-7.40092495
418,1747532601870,-4.53226515,-2.01823135,0.86640322,0.727043,1.3936321500000002,-8.01345165
419,1747532601880,-4.94508815,-1.944404,1.05518152,1.13210982,1.3491574000000002,-8.562595
420,1747532601890,-5.521551,-1.6822866,1.2991167,1.5041534,0.7728494,-9.200156
421,1747532601900,-5.888125,-1.2556745,1.1600041,0.9864349,-0.8149273,-9.549563
422,1747532601910,-5.8666477,-1.0326062,0.9061846,0.1486044,-1.4274544,-9.567673
423,1747532601920,-5.852370499999999,-0.91850943,0.78025105,-0.54807855,-1.57392825,-9.5104145
424,1747532601930,-5.78293635,-0.7015425550000001,0.55230155,-1.8423748,-1.6482304,-9.371131
425,1747532601940,-5.0698013,-0.30604777,0.37243137,-3.5297537,-1.1829761,-9.111207
426,1747532601950,-4.658321,-0.14643435,0.46297657,-4.838964,-0.14647387,-8.901882
427,1747532601960,-4.2719784,0.033679903,0.571338,-4.9960904,0.25406557,-8.813998
428,1747532601970,-4.02840915,0.1472885515,0.61722075,-4.9484197000000005,0.389620485,-8.7721865
429,1747532601980,-3.56274775,0.36388934,0.682872165,-4.7771785,0.6018744,-8.6922915
430,1747532601990,-2.916728,0.6284474,0.7070338,-4.3500075,0.7185209,-8.54129
431,1747532602000,-2.3309908,0.9135063,0.66090703,-3.7033918,0.628506,-7.949536
432,1747532602010,-2.2101824,0.9536537,0.655659795,-3.4344127,0.5789712,-7.5719
433,1747532602020,-1.9578272,1.04200235,0.6380876799999999,-3.30418405,0.5374259,-7.38787535
434,1747532602030,-1.6893642999999998,1.1412116,0.60038085,-3.0727553,0.44315001,-7.03740335
435,1747532602040,-1.27947015,1.3019233,0.53131265,-2.8019118,0.35766254,-6.601444
436,1747532602050,-0.89276142,1.47654625,0.47554555,-2.5116272,0.37257625,-6.2461780000000005
437,1747532602060,-0.6887296,1.7245085,0.5293602,-2.19923845,0.47004795,-6.042979
438,1747532602070,-0.64931432,1.81737225,0.5873238,-1.7251958,0.541154355,-5.74017775
439,1747532602080,-0.5549861700000001,1.995046,0.665544125,-1.00853913,0.54435015,-5.22379075
440,1747532602090,-0.44345201,2.1599068,0.61282775,0.04314322,0.517452225,-4.1662495
441,1747532602100,-0.38146147,2.3136628,0.45248213,1.091896,0.5390238,-2.6136262
442,1747532602110,-0.35925226,2.33660415,0.406599365,1.2237225,0.54807855,-2.2240058
443,1747532602120,-0.279933665,2.34990525,0.29860403,1.3835122,0.5451490800000001,-1.5100124
444,1747532602130,-0.17791774,2.32732985,0.19597796,1.35954375,0.50839746,-0.92784537
445,1747532602140,-0.16278618,2.29816495,0.136672052,1.1307782,0.4295678899999999,-0.180296005
446,1747532602150,-0.22697324,2.2277546,0.12032023,0.7952199,0.3371562,1.0365024
447,1747532602160,-0.24381319,2.18333615,0.1070191075,0.7496798499999999,0.32463935,1.3430322
448,1747532602170,-0.263825895,2.0913266,0.0895690125,0.6807039850000001,0.31824777,1.9379824
449,1747532602180,-0.276272805,1.9869921,0.076145865,0.6474144850000001,0.32996567,2.4889904
450,1747532602190,-0.36022848,1.679602,0.035632357,0.6876282,0.386691,3.671434
451,1747532602200,-0.38426812,1.62798385,0.0250158675,0.71346085,0.41039313,3.8607848
452,1747532602210,-0.43930303,1.5403673,0.0004881142499999,0.77604514,0.42290998,4.383563
453,1747532602220,-0.509713565,1.46898055,-0.02037878125,0.79015992,0.37337518,4.5492117
454,1747532602230,-0.6019672149999999,1.3957634,-0.0341680154999999,0.839961035,0.245010815,4.92871235
455,1747532602240,-0.7862304,1.2760533,-0.0445404489999999,1.040497035,0.146740175,5.47918765
456,1747532602250,-0.9686632,1.14426235,-0.0466149349999999,1.34196685,0.18429075,5.969742
457,1747532602260,-1.0792211,1.038829675,-0.0420998749999999,1.8018948,0.45007423,6.405435
458,1747532602270,-1.23639395,0.927051455,-0.044784505,1.96434765,0.586960715,6.522348
459,1747532602280,-1.68033415,0.8056329799999999,-0.02257529525,2.6114957,1.1824435,7.176687
460,1747532602290,-2.425929,0.6233222,0.042465962,2.7409256,1.2500879,7.5213
461,1747532602300,-2.7524776,0.40952805,0.033435844,2.7957866,1.190433,7.8547273
462,1747532602310,-3.1495588,0.15546446,0.07150877,2.8075044,1.1611383,8.051269
463,1747532602320,-3.934691,-0.16693515,0.32850105,2.9209552,0.7222493,8.639295
464,1747532602330,-4.391566,-0.32532832,0.39073566,2.9577067,0.2412824,9.211874
465,1747532602340,-4.932641,-0.57451075,0.36632994,2.9092371,-0.24074976,10.047042
466,1747532602350,-5.299703,-0.89300543,0.21037734,2.694054,-0.5342301,10.863034
467,1747532602360,-5.3167872,-1.164031015,-0.013301115,2.1241374,-0.49321743,10.93067825
468,1747532602370,-5.4549236,-1.4763023,-0.3443648,0.69295454,-0.11504856,10.414025
469,1747532602380,-5.8439507,-1.5060773,-0.30287504,-0.4293016,0.18216023,9.983659
470,1747532602390,-6.0123506,-1.6383562,-0.0993313,-1.1110709,0.2790993,10.007627
471,1747532602400,-5.91741205,-1.67545295,0.043198135,-1.2642026,0.29507825,9.996708
472,1747532602410,-5.503246750000001,-1.8807051,0.379020885,-1.2817794,0.25726135,9.6014945
473,1747532602420,-4.95668075,-2.0503249,0.610265135,-0.97018957,0.0540621649999999,8.845955499999999
474,1747532602430,-4.377411,-1.9846735,0.5730464,-0.52624065,-0.45699844,7.7284937
475,1747532602440,-4.0540347,-1.9141409,0.42734426,-0.45593318,-0.70627034,7.115967
476,1747532602450,-3.6696448,-1.9063311,0.32508424,-0.545948,-0.82078624,6.6355324
477,1747532602460,-2.6709623,-1.9719826,0.10958171,-0.9012137,-0.88949585,5.455752
478,1747532602470,-2.46473405,-2.00578445,0.054790855,-0.9816412,-0.921720075,5.125253750000001
479,1747532602480,-1.8062676,-2.0866895,0.03904916,-1.0343717,-0.9715212,4.0980725
480,1747532602490,-1.8062676,-2.0866895,0.03904916,-1.0343717,-0.9715212,4.0980725
481,1747532602500,-0.614048,-2.0444674,0.20354374,0.3355583,-0.71479243,1.9366508
482,1747532602510,-0.43613032,-1.9773518,0.14423785,0.81918836,-0.6135923,1.406149
483,1747532602520,-0.34570709,-1.9503835,0.0931078475,0.96672748,-0.58083542,1.19735722
484,1747532602530,-0.09127741,-1.8702106,-0.07492557,1.1978899,-0.48043427,0.6018744
485,1747532602540,-0.0051252022,-1.8109047,-0.16717921,1.081776,-0.42663842,0.39254996
486,1747532602550,0.099575356,-1.7606289,-0.3443648,0.82611257,-0.40266997,0.24607609
487,1747532602560,0.123859058,-1.7616051,-0.34778159,0.491619535,-0.276169815,0.105194865
488,1747532602570,0.16974182,-1.7584324,-0.313247475,0.04314321,-0.03941479,-0.14407701
489,1747532602580,0.15790504,-1.74732785,-0.22392252,-0.135288585,0.1736381,-0.3677825449999999
490,1747532602590,0.039537273,-1.7489142,-0.05198419,-0.25513083,0.39574575,-0.72651035
491,1747532602600,-0.16766733,-1.7933327,0.046858992,-0.28815404,0.21891184,-1.3938985
492,1747532602610,-0.3236199,-1.8109047,0.027334413,-0.28122982,0.098004326,-1.7086842
493,1747532602620,-0.3742618,-1.82591425,-0.0024405705,-0.27457191,0.051399008,-1.8738001
494,1747532602630,-0.52960426,-1.8572757,-0.09493827,-0.24501082,-0.03355583,-2.3888555
495,1747532602640,-0.7985553,-1.8255482,-0.122272685,-0.17736652,0.017044231,-2.7494476
496,1747532602650,-0.97134787,-1.8084643,-0.12813005,0.041012682,0.33981937,-3.601659
497,1747532602660,-1.0964272350000002,-1.79931215,-0.1228828174999999,0.061252706,0.416252085,-3.842142500000001
498,1747532602670,-1.39625155,-1.76782875,-0.0938400075,0.093210638,0.55260595,-4.3012715
499,1747532602680,-1.77466225,-1.73292855,-0.041367703,0.140348588,0.662860825,-4.773982500000001
500,1747532602690,-2.7649245,-1.7523311,0.12739788,0.22743396,0.70147663,-5.446697
501,1747532602700,-2.9308835,-1.73732155,0.1766974499999999,0.31531828,0.618119685,-5.86081875
502,1747532602710,-3.385318,-1.6571487,0.33460248,0.5613944,0.51771855,-6.653109
503,1747532602720,-3.385318,-1.6571487,0.33460248,0.5613944,0.51771855,-6.653109
504,1747532602730,-3.8304784,-1.5679458,0.366696,0.6527407700000001,0.5403553999999999,-7.19825835
505,1747532602740,-4.351541,-1.5246257,0.39244407,0.41758367,0.62531024,-7.7103844
506,1747532602750,-4.9775476,-1.4538491,0.5232587,-0.5139901,0.5635249,-8.469385
507,1747532602760,-5.0975018,-1.39222455,0.579147825,-0.9576728,0.45167214,-8.742625
508,1747532602770,-5.2828635,-1.2532339,0.693732725,-1.1363709,0.3933489049999999,-8.811601
509,1747532602780,-5.3850015,-1.0817837,0.78879305,-1.4476944,0.269778225,-8.86885925
510,1747532602790,-5.3139805,-0.8307708,0.80538895,-1.8104169,0.1254348925,-8.72877675
511,1747532602800,-5.0793193500000005,-0.6135599,0.7623128,-2.1622205,0.0583232305,-8.530104999999999
512,1747532602810,-4.79670115,-0.48481973,0.7298531699999999,-2.3907198,0.1014664429999999,-8.385228999999999
513,1747532602820,-4.4701526000000005,-0.335090595,0.719724805,-2.5702169,0.16751284,-8.236624500000001
514,1747532602830,-3.9239526,-0.07468152,0.7238738,-2.7249465,0.22743396,-7.949003
515,1747532602840,-3.116611,0.33631086,0.70971847,-2.683401,0.05752428,-7.49307
516,1747532602850,-2.9533367,0.43088308,0.692390415,-2.6541063,-0.01358212,-7.3239593
517,1747532602860,-2.460585,0.6728658,0.6230781,-2.5848641,-0.22530343,-6.7495155
518,1747532602870,-2.1862648,0.7895252,0.5442477,-2.58433155,-0.272175065,-6.51941845
519,1747532602880,-1.9285404,0.88788025,0.4694441299999999,-2.6530412,-0.32011197,-5.818208200000001
520,1747532602890,-1.4113832,1.006004,0.353883,-2.76010025,-0.30945932,-5.13643885
521,1747532602900,-1.4113832,1.006004,0.353883,-2.7979171,-0.2977414,-4.9257827
522,1747532602910,-1.0169866,1.099966,0.3807293,-2.7041738,-0.14753912,-4.010188
523,1747532602920,-0.90996748,1.1216871,0.3756041,-2.6330674,-0.11558119,-3.8336205
524,1747532602930,-0.69348868,1.15597715,0.35363895,-2.4679515,-0.017044231,-3.52815595
525,1747532602940,-0.45846155,1.1842878,0.35998443,-2.0876521,0.203998149,-3.18514075
526,1747532602950,-0.294821165,1.2184558,0.4272221899999999,-1.57792295,0.4013383849999999,-2.85943615
527,1747532602960,-0.207570695,1.25457625,0.4951921099999999,-1.093493925,0.447677385,-2.6530411000000003
528,1747532602970,-0.100063473,1.291795,0.51422857,-0.564590155,0.42184473,-2.50283885
529,1747532602980,0.010738519,1.4209013,0.41855815,0.2146508,0.3254383,-2.369681
530,1747532602990,-0.0041489725,1.47398375,0.378410755,0.6809703500000001,0.31771513,-2.2317291
531,1747532603000,-0.0131790905,1.56696955,0.28664524,1.26260475,0.33928673,-2.00589295
532,1747532603010,0.0076878035,1.63286505,0.177429615,1.422927,0.4130563,-1.81308015
533,1747532603020,0.021477038,1.69985875,0.084931923,1.4618091,0.49774483,-1.5683356000000002
534,1747532603030,0.0256260109999999,1.79369875,0.033801929,1.42079645,0.56485648,-1.25834365
535,1747532603040,-0.014887493,1.9680777,0.00707766,1.1973573,0.5906891,-0.06977482
536,1747532603050,-0.076389916,1.9668574,0.0039049159,1.14649085,0.5853628,0.29854039
537,1747532603060,-0.1466784,1.9280523,0.020744866,0.9864349,0.53795856,1.7715348
538,1747532603070,-0.18902233,1.87033275,0.035388301,0.9520801,0.48176585,2.2453112
539,1747532603080,-0.26675456,1.64921685,0.078464408,0.904409515,0.279898235,3.54227065
540,1747532603090,-0.308488355,1.3850249,0.114462855,0.908137945,0.049268485,4.65813515
541,1747532603100,-0.33716509,1.19392805,0.1227608,0.95660746,-0.1387506949999999,5.1673317
542,1747532603110,-0.401596205,1.036023,0.1208083349999999,1.04715493,-0.33262883,5.53617955
543,1747532603120,-0.56694496,0.7072779,-0.037584815,1.3720607,-0.49375007,5.871205
544,1747532603130,-0.5879339,0.6467517,-0.0938400125,1.3720607,-0.49375007,5.871205
545,1747532603140,-0.6194173199999999,0.52948218,-0.20305563,1.403486,-0.2953445675,5.5897089
546,1747532603150,-0.72582626,0.42734426,-0.27993366,1.4317155,0.20293288,5.0317764
547,1747532603160,-0.82747611,0.44210972,-0.2335627799999999,1.4719292,0.348341475,4.989166
548,1747532603170,-1.6171232,0.5352176,0.065163285,1.9765981,0.7882957,5.6746635
549,1747532603180,-1.9268318,0.43661842,0.15888128,2.2509038,0.7680557,6.359096
550,1747532603190,-2.250452,0.27602875,0.23527117,2.38166495,0.75900095,6.73167225
551,1747532603200,-2.511349,0.10836142,0.30629185,2.64052425,0.72411355,7.4206321
552,1747532603210,-2.8331386,-0.049665645,0.2702934,2.86103405,0.533697515,7.96791185
553,1747532603220,-3.2896477,-0.2569922799999999,0.1682774679999999,2.8844698500000003,-0.073769555,8.2227765
554,1747532603230,-3.58446885,-0.31190516,0.004148973,2.66582425,-0.6660566050000001,8.220646
555,1747532603240,-4.191927,-0.27846932,-0.30214286,2.25942585,-0.899349535,8.278969
556,1747532603250,-4.489677,-0.28322844,-0.42221903,1.62852305,-0.9851033,8.600945
557,1747532603260,-5.1051895,-0.4391810149999999,-0.64223665,0.2860235,-0.824514685,9.4310525
558,1747532603270,-5.422952,-0.59037447,-0.7421781,-0.6823019,-0.66206187,10.023606
559,1747532603280,-5.513009,-0.76463133,-0.65114474,-1.5611451,-0.5006743,10.450244
560,1747532603290,-5.4889695,-0.92692945,-0.38011916,-2.37474085,-0.31345406,10.7301425
561,1747532603300,-5.36840535,-0.99404515,-0.230878165,-2.6056369,-0.208525515,10.524014
562,1747532603310,-5.060893050000001,-1.061527,-0.0568653425,-2.4772725,-0.321976175,9.701097
563,1747532603320,-4.7317817,-1.1100944,0.0835896075,-2.15050265,-0.593085985,8.8142645
564,1747532603330,-4.2285357,-1.2527459,0.07541369,-1.6719326,-0.92305166,7.931959
565,1747532603340,-3.7140634,-1.3960074,0.024649782,-1.3773869,-1.067395,7.1670995
566,1747532603350,-3.2254605,-1.5275543,0.044418417,-1.0663297,-1.1147993,6.344715
567,1747532603360,-2.8299658,-1.5131549,0.0767560035,-0.66579028,-1.06819395,5.487177
568,1747532603370,-2.27119685,-1.49155585,0.13947872,-0.0564590249999999,-0.9952233,4.3036682
569,1747532603380,-1.7520871,-1.5102262,0.16058967,0.5475459,-0.93636745,3.3305492
570,1747532603390,-1.4013767,-1.547811,0.065407336,0.83516735,-0.9139969,2.6434538
571,1747532603400,-1.097891525,-1.55293625,0.016351834,1.013599125,-0.87831055,2.0431772500000003
572,1747532603410,-0.6125837,-1.5112025,-0.09493827,1.2735237,-0.8346347,1.0365024
573,1747532603420,-0.5648705,-1.4766684,-0.12300485,1.28098055,-0.8194547,0.91399695
574,1747532603430,-0.43881494,-1.4072341,-0.2277054,1.2229236,-0.7451525,0.6508766
575,1747532603440,-0.353394895,-1.45287285,-0.345096935,1.0972224000000002,-0.6831008350000001,0.59068915
576,1747532603450,-0.15326795,-1.577098,-0.528628,0.58536283,-0.393881535,0.3752394049999999
577,1747532603460,-0.1020159274999999,-1.6190758500000002,-0.5368039,-0.0173105449999999,0.0007989449999999,0.087618
578,1747532603470,-0.02770049635,-1.692171,-0.51227615,-0.408262605,0.3454119949999999,-0.1952097199999999
579,1747532603480,-0.01415532035,-1.74342295,-0.39012551,-0.66579028,0.68150295,-0.5017395649999999
580,1747532603490,-0.06443111,-1.7869871,-0.099575356,-0.7025419,1.005077,-0.96406436
581,1747532603500,-0.22282428,-1.7950411,0.2608972,-0.023435818,0.8644621,-1.514806
582,1747532603510,-0.277004975,-1.7977257,0.31214923,0.2876214159999999,0.6860303,-1.66447565
583,1747532603520,-0.3791429349999999,-1.82188735,0.362913145,0.828243125,0.34567831,-1.96168445
584,1747532603530,-0.459559805,-1.85690955,0.336921035,1.24209835,0.0322242499999999,-2.294047
585,1747532603540,-0.71020657,-1.8213992,0.19988288,1.7182716,-0.33662358,-2.9049761
586,1747532603550,-0.8756774,-1.7579445,0.09786696,1.82186855,-0.427171065,-3.36277355
587,1747532603560,-1.0653099,-1.6976621,0.025626011,1.7773937,-0.4889564,-4.2392197
588,1747532603570,-1.16268875,-1.66337215,0.00768780325,1.6498283,-0.43116579,-4.42670635
589,1747532603580,-1.38368255,-1.5967446,-0.01330111925,1.3574132,-0.293746665,-4.78703215
590,1747532603590,-1.8649634,-1.51840215,0.0674818329999999,0.49801114,-0.0063915867,-5.587845
591,1747532603600,-2.5608926,-1.4726415,0.23502712,0.27856666,0.016511599,-5.8813252
592,1747532603610,-2.73771215,-1.4892374,0.2779812,0.22397185,0.056725332,-6.0491041
593,1747532603620,-3.10404215,-1.5407334499999998,0.36279109,0.164583355,0.1648496725,-6.4102286500000005
594,1747532603630,-3.756041,-1.6761851,0.51520485,0.2263687,0.36804888,-7.0754867
595,1747532603640,-4.113097,-1.752209,0.607702555,0.49428272,0.5550028,-8.515724
596,1747532603650,-4.872359,-1.7860109,0.844194,0.6988135,0.49801114,-9.277921
597,1747532603660,-5.0959155,-1.735125,0.9187535,0.84661892,0.34727622,-9.6089515
598,1747532603670,-5.5244800000000005,-1.5678238000000002,1.01198335,1.02638227,0.0029294799999999,-10.0377205
599,1747532603680,-5.998195,-1.0748281,0.7487676,0.13954964,-0.9060074,-9.897372
600,1747532603690,-5.9612205,-1.02638272,0.6718896,-0.323041455,-0.9960223,-9.7764645
601,1747532603700,-5.81576235,-0.93144447,0.550959235,-1.289236325,-1.0969561,-9.5338505
602,1747532603710,-5.56975235,-0.84517025,0.504100235,-2.24078375,-1.04875285,-9.2981605
603,1747532603720,-5.28591385,-0.774881765,0.51544893,-3.0157637,-0.87484845,-9.099755
604,1747532603730,-4.78352215,-0.626983065,0.56487051,-3.6203013,-0.4908206,-8.854744499999999
605,1747532603740,-3.9486022,-0.2633378,0.5696296,-3.9159122,-0.10226539,-8.600412
606,1747532603750,-3.5205257,-0.026846299,0.5288721,-3.895672,-0.077231675,-8.51093
607,1747532603760,-3.32479185,0.0906672655,0.51032373,-3.8738341,-0.0918790625,-8.4352965
608,1747532603770,-2.958462,0.313003415,0.4809148,-3.81657625,-0.136886485,-8.231565
609,1747532603780,-2.1232982,0.71045065,0.5008055,-3.6762276,-0.23755397,-7.734885
610,1747532603790,-1.8426323,0.77732235,0.48274526,-3.50472,-0.333960405,-7.2997245
611,1747532603800,-1.726217,0.8047787550000001,0.483355405,-3.2229576,-0.4681837399999999,-6.6381953
612,1747532603810,-1.5072976,0.85395628,0.46444096,-3.0077742,-0.525175395,-6.1982413
613,1747532603820,-1.2686095000000002,0.90569642,0.4318593,-2.8069718,-0.602673375,-5.763081
614,1747532603830,-0.95975507,1.03089782,0.419900475,-2.5933863,-0.81013363,-5.2211275
615,1747532603840,-0.6535853,1.2388345,0.3746279,-2.3515713,-0.98803276,-4.588094
616,1747532603850,-0.54632215,1.2855715,0.35693375,-2.26688275,-0.96060223,-4.479437
617,1747532603860,-0.3450969499999999,1.38319445,0.34887985,-2.05010145,-0.8886968850000001,-4.290619
618,1747532603870,-0.219285435,1.49741325,0.387196815,-1.7100158,-0.7893609850000001,-4.11804615
619,1747532603880,-0.15363404,1.6772833500000002,0.438814915,-0.92598114,-0.6455503,-3.741475
620,1747532603890,-0.060038086,1.906087,0.4429639,0.46818373,-0.4383563,-3.018427
621,1747532603900,-0.033191787,1.94769885,0.4280764,0.786431465,-0.3914846749999999,-2.83386985
622,1747532603910,-0.00122028605,2.0383662,0.38121742,1.38457745,-0.3142530249999999,-2.4596957
623,1747532603920,0.0039049159,2.0874217,0.34924594,1.6644757,-0.283893,-2.2700787
624,1747532603930,-0.021721095,2.2400795,0.21940746,2.25862695,-0.249271875,-1.63065355
625,1747532603940,-0.1116561885,2.36967385,0.021965155,2.40536715,-0.252733975,-0.797883075
626,1747532603950,-0.27358818,2.4976819,-0.23014598,2.1779332,-0.2593919,0.6173208
627,1747532603960,-0.35071027,2.3924932,-0.37999713,1.8322549,-0.20080236,1.5052186
628,1747532603970,-0.3574218449999999,2.3137848,-0.3555914,1.4434333499999998,-0.076166414,2.4889903
629,1747532603980,-0.39708114,2.0818083,-0.24405725,0.85753787,0.13369069,4.172108
630,1747532603990,-0.40903993,1.9884564,-0.2007370849999999,0.825047315,0.167512835,4.4392232
631,1747532604000,-0.4230732299999999,1.803583,-0.1325230869999999,0.808003095,0.23861924,4.873585
632,1747532604010,-0.451139835,1.6406748,-0.0923756695,0.874049485,0.30493195,5.13057995
633,1747532604020,-0.556206465,1.43200585,-0.0851759775,1.05434552,0.3685815,5.29223365
634,1747532604030,-0.6964173499999999,1.2515255,-0.082003235,1.28790475,0.43888895,5.41180965
635,1747532604040,-0.8572510799999999,1.20247,-0.0477131909999999,1.5816514,0.569916465,5.59530165
636,1747532604050,-1.0882512800000002,1.19746685,-0.0112266334,1.9499666,0.7608651150000001,5.9127505
637,1747532604060,-1.46287915,1.15134005,-0.0194025514,2.2900523,0.99575595,6.3180835
638,1747532604070,-1.9042567,1.06055075,-0.0403914749999999,2.6162895,1.40535015,7.0512516
639,1747532604080,-2.3456342,0.94352533,-0.038561046,2.7718180500000003,1.7728664,7.804660099999999
640,1747532604090,-2.80641425,0.73790708,-0.0342900435,2.6844664,1.90495915,8.196145
641,1747532604100,-3.39166355,0.3574218249999999,0.0708986314999999,2.41681875,1.81121585,8.396414499999999
642,1747532604110,-4.0769764,0.0052472299999999,0.270903545,2.19977115,1.4527544,8.525044999999999
643,1747532604120,-4.394495,-0.09884319,0.3687705,2.20163535,0.76299567,8.906942
644,1747532604130,-5.6059947,-0.6994681,0.55401,2.2817965,-0.4165184,9.862218
645,1747532604140,-5.7292438,-1.0416363,0.30897647,2.1353226,-0.90920323,10.285661
646,1747532604150,-5.7536497,-1.2185779,-0.025870068,1.7060211,-0.9715212,10.396448
647,1747532604160,-5.88409835,-1.2274859,-0.218187174,0.91532852,-0.5922870499999999,10.4092315
648,1747532604170,-6.06287,-1.2330991999999998,-0.3756041049999999,-0.31878038,-0.099069599,10.4856645
649,1747532604180,-6.1155868,-1.368429,-0.117147475,-1.3821807,0.016511599,10.604175
650,1747532604190,-6.034803650000001,-1.48142745,0.0079318624999999,-1.4919029,-0.0340884605,10.544254
651,1747532604200,-5.692879,-1.7784452,0.39976576,-1.2697952,-0.20026971,10.088055
652,1747532604210,-5.692879,-1.7784452,0.39976576,-1.2697952,-0.20026971,10.088055
653,1747532604220,-5.073462,-1.9263439,0.733148,0.020240024,-0.7339672,9.055281
654,1747532604230,-5.073462,-1.9263439,0.733148,0.020240024,-0.7339672,9.055281
655,1747532604240,-3.7916732,-1.8968128,0.33118567,0.88203895,-1.303351,7.342868
656,1747532604250,-2.7251432,-2.0249429,-0.12056428,0.3691141249999999,-1.10680975,6.5377945
657,1747532604260,-2.277542,-2.0710697,-0.22868164,-0.85487473,-0.68656296,4.8235173
658,1747532604270,-1.8604484,-2.0349493,-0.1261776,-1.3960291,-0.37550572,3.812049
659,1747532604280,-1.4431105,-1.9588034,0.09298581,-1.3699301,-0.17204021,3.1755533
660,1747532604290,-1.0666522,-1.9303708,0.20793678,-0.97764645,-0.2098571,2.69698315
661,1747532604300,-0.38268176,-1.8987653,0.31507793,-0.09960223,-0.49481535,1.8285265
662,1747532604310,-0.31422371,-1.8747257,0.270903555,0.1147822349999999,-0.616788125,1.68444945
663,1747532604320,-0.19561189,-1.8576417,0.125323395,0.4444815749999999,-0.8876316500000001,1.4444986000000002
664,1747532604330,-0.0824913499999999,-1.89290805,-0.09640262,0.5659217249999999,-1.1715246,1.2713931
665,1747532604340,0.0433201575,-1.94879715,-0.314589785,0.526240635,-1.33504265,1.10494555
666,1747532604350,0.1748670175,-1.9991948,-0.47225076,0.44714476,-0.990962265,0.732901965
667,1747532604360,0.234661045,-2.02896985,-0.506906915,0.454068985,-0.351537275,0.27324033
668,1747532604370,0.19939477,-2.0386102,-0.43466598,0.52890381,0.15579493,-0.101999075
669,1747532604380,0.1023820149999999,-2.0397085,-0.333748295,0.556334375,0.53715959,-0.49082059
670,1747532604390,-0.11946603,-2.0299462000000004,-0.1533899795,0.502804825,0.711330325,-0.9901633
671,1747532604400,-0.325816435,-2.0309224,0.0163518365,0.42876893,0.6745787249999999,-1.44343335
672,1747532604410,-0.427100185,-2.05264355,0.106775046,0.39627837,0.510528,-1.7451695
673,1747532604420,-0.5294822,-2.08376085,0.179748155,0.4247742,0.283360345,-2.13292565
674,1747532604430,-0.6527311,-2.1263488500000003,0.21855326,0.504402725,0.0583232299999999,-2.60297365
675,1747532604440,-1.1146095,-2.1660082,0.13691612,0.6737798,-0.30839407,-4.00859
676,1747532604450,-1.3615954,-2.106214,0.033191785,0.62903863,-0.3520699,-4.606736
677,1747532604460,-1.3615954,-2.106214,0.033191785,0.62903863,-0.3520699,-4.606736
678,1747532604470,-1.80590155,-1.9713724,-0.0501537615,0.476972165,-0.1595233565,-5.348693000000001
679,1747532604480,-2.3085375,-1.8824136,0.020012695,0.39468047,0.22264028,-5.9207397
680,1747532604490,-2.66229855,-1.8858304,0.1216625375,0.390685735,0.36405414,-6.30876235
681,1747532604500,-3.4438918,-1.9680777,0.41538543,0.49641323,0.54914385,-7.1623054
682,1747532604510,-3.6706209,-2.01188585,0.489090715,0.5928196649999999,0.562992275,-7.421431200000001
683,1747532604520,-4.1301807,-2.084859,0.61892918,0.7869641249999999,0.59388495,-7.9745695
684,1747532604530,-5.222581,-2.0198178,0.75047606,0.773382,0.4990764,-9.508018
685,1747532604540,-5.427711,-1.90718535,0.801117955,0.604537585,0.367782555,-9.6912435
686,1747532604550,-5.903501,-1.5419537,0.9518233,0.046871636,-0.12783173,-9.99005
687,1747532604560,-5.94791935,-1.4217555000000002,0.97427655,-0.161387562,-0.333427765,-9.976734
688,1747532604570,-5.980134700000001,-1.18624025,0.97500873,-0.60054283,-0.71133035,-9.900834
689,1747532604580,-5.90374465,-0.95621627,0.91582483,-1.1315772,-0.9885654,-9.723201
690,1747532604590,-5.4070883,-0.53302103,0.73632073,-2.3377228,-0.91346425,-9.200689
691,1747532604600,-5.161811,-0.40440285,0.7246059,-2.7089674,-0.6711166,-8.940764
692,1747532604610,-5.01427825,-0.341802165,0.7342462000000001,-2.8490498,-0.542485925,-8.820922
693,1747532604620,-4.65404975,-0.189388418,0.74156795,-3.10311545,-0.347276225,-8.624381
694,1747532604630,-4.0647736,0.111290105,0.7299752,-3.4104443,-0.30306774,-8.451808
695,1747532604640,-3.3606684,0.59964865,0.673598,-3.7289581,-0.60080916,-8.148208
696,1747532604650,-3.1743307,0.7078880249999999,0.6271051000000001,-3.8336204,-0.742755655,-7.9681782
697,1747532604660,-2.7854254000000003,0.89849675,0.53839029,-4.0216397,-0.944889575,-7.5985312
698,1747532604670,-2.417387,1.03224015,0.482257115,-4.16252085,-1.0295781000000002,-7.1900025
699,1747532604680,-2.09352305,1.108386,0.459437755,-4.241350349999999,-1.0679276,-6.7351347
700,1747532604690,-1.57929445,1.1700105,0.44821113,-4.061321,-1.1430287,-5.6208677
701,1747532604700,-1.07958722,1.2193100499999998,0.43112713,-3.9566586,-1.13503925,-5.4240601
702,1747532604710,-0.80429062,1.2854495,0.37145513,-3.7113813,-1.055677085,-5.05973975
703,1747532604720,-0.5707278499999999,1.3391421,0.3265486,-3.3912694,-0.8602010600000001,-4.7518785
704,1747532604730,-0.24869433,1.512911,0.41343296,-1.9936424,-0.23861924,-3.8775625
705,1747532604740,-0.21647878,1.615659,0.46444094,-1.2767195,-0.09960223,-3.4424021
706,1747532604750,-0.13618395,1.6817985,0.47493544,-0.53795856,-0.0314253,-2.9843383
707,1747532604760,-0.0366085899999999,1.756724,0.4213648599999999,0.11371697,0.0159789699999999,-2.61682215
708,1747532604770,0.085053955,1.86728195,0.33533466,1.021056,0.08708537,-2.0804615
709,1747532604780,0.08639627,1.9758875,0.22526483,1.6506273,0.15659387,-1.506284
710,1747532604790,0.0694342875,2.0040761,0.184873365,1.7707359,0.1880191749999999,-1.26100685
711,1747532604800,0.029652954,2.07009365,0.1061649074999999,2.0197413,0.29188246,-0.31158987
712,1747532604810,-0.0528383935,2.15282905,0.0021965174999999,1.9662118,0.32170986,0.339020415
713,1747532604820,-0.22355644,2.196027,-0.11983211,1.7433053,0.37923414,1.7257284
714,1747532604830,-0.26675457,2.1898036000000003,-0.127397885,1.65115995,0.39787627,2.09351095
715,1747532604840,-0.34204623,2.1635674500000004,-0.13972278,1.47299445,0.43489421,2.79765075
716,1747532604850,-0.41062633,2.1073122,-0.155098385,1.30361735,0.47750479,3.4165694
717,1747532604860,-0.510201685,2.0059065,-0.161321845,1.09668975,0.52411011,4.1292314
718,1747532604870,-0.623078135,1.9057211,-0.1581491,0.95048223,0.57364491,4.7374975
719,1747532604880,-0.7530386,1.84617105,-0.11848979,0.98190753,0.66818713,5.16067375
720,1747532604890,-0.9004491750000001,1.78357035,-0.01122663,1.17099195,0.803475725,5.62832475
721,1747532604900,-1.1089962,1.6686195,0.17669745,1.6916399,0.9986854,6.2823973
722,1747532604910,-1.24859695,1.62212655,0.236369455,2.15236675,1.09535815,6.538327000000001
723,1747532604920,-1.4902136,1.54097745,0.29897013,2.84638655,1.25621315,6.82408405
724,1747532604930,-1.854591,1.5165718,0.3355787,3.5063179,1.4455639,6.9055767
725,1747532604940,-2.0660665,1.54524845,0.36767223,3.70232655,1.49802815,7.02488635
726,1747532604950,-2.78078815,1.5769758500000002,0.41819209,4.04587445,1.57872195,7.3998595
727,1747532604960,-3.51820735,1.5068094,0.398545475,4.1332261500000005,1.52439345,8.5599325
728,1747532604970,-3.968493,1.27263645,0.33399233,3.88768255,1.37152795,9.8465055
729,1747532604980,-4.668571,0.71874857,0.3612047,3.336941,1.107875,10.741061
730,1747532604990,-4.915679,0.50934747,0.38683071,3.1848744,1.00720752,10.788998
731,1747532605000,-5.6761613,0.030751215,0.33240596,2.6583674,0.574976485,10.569021
732,1747532605010,-6.5058338,-0.3188608,0.084321785,1.7853832499999998,0.101200124,10.391388
733,1747532605020,-7.323426,-0.52350277,-0.4729829,-0.23489082,-0.19387813,11.204984
734,1747532605030,-7.323426,-0.52350277,-0.4729829,-0.23489082,-0.19387813,11.204984
735,1747532605040,-7.591156,-0.9371798,-0.7124031,-3.1880702000000003,0.087351687,12.773053
736,1747532605050,-7.478158,-1.6278619,-0.07834238,-5.3694654,0.40107206,13.06973
737,1747532605060,-7.35564135,-1.8611806,0.14899695,-5.2552159,0.306263525,12.770923
738,1747532605070,-6.9689326000000005,-2.268146,0.46773571,-4.81925655,0.003462105,11.9306955
739,1747532605080,-6.4240749,-2.532338,0.48957883,-4.17290725,-0.58483019,10.6989835
740,1747532605090,-5.5181344,-2.74735245,0.25796851,-3.293265,-1.46180915,8.7173253
741,1747532605100,-4.1245675,-2.9137995,-0.016351834,-2.36621865,-1.9451729,6.6970513
742,1747532605110,-3.6971011,-2.91965685,-0.0218431235,-1.6247946,-1.80881905,5.3508232
743,1747532605120,-2.94394035,-2.86840485,0.0351442435,-0.784300925,-1.5435682,4.106328
744,1747532605130,-2.1386735,-2.5933523,0.28627914,0.82877576,-1.2378373,2.3499734
745,1747532605140,-1.8052914,-2.32379115,0.35168647,1.44742803,-1.2346415,1.90176335
746,1747532605150,-1.1792847,-1.8399476,0.2489384,3.91751,-1.540905,0.35313517
747,1747532605160,-1.0515207,-1.7426908,0.1406990065,4.09540915,-1.60295665,0.22423817
748,1747532605170,-0.76243485,-1.5711185,-0.0845658335,4.22643665,-1.6815199,0.04500742385
749,1747532605180,-0.23942018,-1.4392056,-0.41880223,3.6826193,-1.6239957,0.00479369
750,1747532605190,-0.07602384,-1.3569583,-0.501659665,2.7859329,-1.29243212,0.15020228
751,1747532605200,0.16290822,-1.3019234,-0.5645044,1.46047755,-0.8753810550000001,0.347009895
752,1747532605210,0.30128868,-1.3885637,-0.509591515,0.65913236,-0.724646135,0.38669101
753,1747532605220,0.44564855,-1.5590377,-0.38878322,-0.27483824,-0.54435015,0.20080236
754,1747532605230,0.456753135,-1.59759875,-0.337897275,-0.44821002,-0.493217455,0.07776431
755,1747532605240,0.28115395,-1.6002834,-0.15619664,-0.7387609,-0.2828277,-0.41065946
756,1747532605250,0.2234344099999999,-1.5933277499999998,-0.1691316749999999,-0.725977725,-0.25193504,-0.45806373
757,1747532605260,0.092375667,-1.59405995,-0.218065145,-0.7824367,-0.13369069,-0.60773337
758,1747532605270,-0.0462488479999999,-1.62639755,-0.284814805,-0.854874715,-0.103330652,-0.6764429350000001
759,1747532605280,-0.19829651,-1.6948556,-0.280177725,-0.989098065,-0.0282295075,-1.0162623
760,1747532605290,-0.32166745,-1.77148955,-0.21574661,-0.98057595,0.0466053195,-1.48977235
761,1747532605300,-0.42795439,-1.82469395,-0.14362769,-0.7752462,0.11185277,-1.9148128
762,1747532605310,-0.569019495,-1.854835,-0.05381462,-0.43569314,0.167779155,-2.3720775
763,1747532605320,-0.71655211,-1.867526,0.01598575,0.00079895,0.18429075,-2.85624025
764,1747532605330,-1.009542835,-1.85032,0.0118367765,0.63223444,0.176833895,-3.68261925
765,1747532605340,-1.5007081,-1.7767367,-0.025626011,1.2692626,0.21837921,-4.72285
766,1747532605350,-1.8233517,-1.6966859,-0.018304294,1.4231933,0.21731395,-5.129781
767,1747532605360,-2.00785905,-1.6632501,-0.0368526455,1.42345965,0.24048345,-5.3042180000000005
768,1747532605370,-2.3973744000000003,-1.60662885,-0.0615024285,1.3456953500000002,0.311057225,-5.6280585
769,1747532605380,-2.9784746,-1.58661615,-0.0084199775,1.129979265,0.39601207,-5.9279305
770,1747532605390,-3.4762294,-1.6334751,0.1114121325,0.7520767150000001,0.536360655,-6.521549
771,1747532605400,-3.865867,-1.7979698,0.3526627,0.4780374349999999,0.73716301,-7.281881500000001
772,1747532605410,-4.267097,-1.8597162,0.58232063,0.60933125,1.0540792,-8.355402
773,1747532605420,-4.504198499999999,-1.82139915,0.7115489150000001,0.753674595,1.0410297000000002,-8.592956000000001
774,1747532605430,-5.12983935,-1.66544655,0.9213161,1.06313392,0.822384175,-9.1269195
775,1747532605440,-5.6573691,-1.49485055,0.99172663,1.1054782,0.48123324,-9.509349
776,1747532605450,-6.0826387,-1.2302926,0.9886759,0.47137952,0.026631612,-9.707222
777,1747532605460,-6.15695435,-1.13389,0.99233675,0.1251685699999999,-0.1347559589999999,-9.7160105
778,1747532605470,-6.2124775,-0.96097545,0.9995364,-0.60640179,-0.4498079149999999,-9.6947055
779,1747532605480,-5.852249,-0.6640798,1.091424,-2.3046997,-0.8000136,-9.399361
780,1747532605490,-5.6927575,-0.610265175,1.1153415999999998,-2.43226505,-0.7869641199999999,-9.349826
781,1747532605500,-5.3466842,-0.498853025,1.1557330499999998,-2.5840652,-0.768321995,-9.2624745
782,1747532605510,-4.9703479,-0.35119837,1.18148105,-2.5534389,-0.781904105,-9.175123
783,1747532605520,-4.6063367,-0.145336083,1.16964425,-2.4120251,-0.8705873799999999,-9.0385025
784,1747532605530,-4.21730935,0.102992157,1.0908137999999998,-2.25862695,-1.0415622999999998,-8.836368499999999
785,1747532605540,-3.3003862,0.65090066,0.7214332,-2.2109563,-1.4551512,-8.097075
786,1747532605550,-2.9733496,0.8371163,0.571338,-2.372344,-1.500425,-7.7141128
787,1747532605560,-2.7977503500000003,0.91643495,0.49690053,-2.56222735,-1.4908376,-7.4877439
788,1747532605570,-2.42861375,1.06177105,0.35998443,-2.96250045,-1.4913702,-7.104248500000001
789,1747532605580,-1.5087619,1.2866699,0.20085911,-3.9398806,-1.4104102,-6.5077004
790,1747532605590,-1.38197415,1.3440233,0.1558305525,-4.05919015,-1.2530173,-6.4115602
791,1747532605600,-1.1092402,1.4953387,0.08395569,-4.283961,-0.7366304,-5.998504
792,1747532605610,-1.01210542,1.59881895,0.245399555,-3.9838228,-0.43489423,-5.444034
793,1747532605620,-0.8700641,1.7935767,0.53912246,-3.0029805,-0.0031957934,-4.218447
794,1747532605630,-0.7592621,1.9265879,0.5940353,-2.509763,-0.0322242497,-3.87809515
795,1747532605640,-0.65773428,2.00346595,0.575975075,-1.6335829999999998,-0.146473868,-3.37848625
796,1747532605650,-0.485673915,2.1383076,0.531312625,-0.8807073999999999,-0.305198265,-3.1143006
797,1747532605660,-0.326304545,2.37345685,0.38780698,0.1139833,-0.438090005,-2.79125915
798,1747532605670,-0.221481955,2.62752045,0.200371005,0.95740645,-0.48469533,-2.34864185
799,1747532605680,-0.194391595,2.7839610500000003,0.029530925,1.3153353,-0.40639839,-1.79763385
800,1747532605690,-0.183287,2.8635237,-0.0707766,1.4546186,-0.34088463,-1.4711303
801,1747532605700,-0.184629295,2.988115,-0.29652955,1.5502261,0.1222390875,-0.19734024
802,1747532605710,-0.23380684,2.9136775,-0.3148338499999999,1.32492265,0.566720695,1.35847856
803,1747532605720,-0.3824377,2.6585157,-0.12154051,1.04981812,0.78616517,2.9212215
804,1747532605730,-0.48542988,2.4283698,-0.006345488,0.91825795,0.55606806,4.2786345
805,1747532605740,-0.53082454,2.3076834,0.0152535795,0.906273725,0.4612595149999999,4.65840145
806,1747532605750,-0.6604189250000001,1.94525835,-0.0028066575,0.8562063,0.23648871,5.5071512
807,1747532605760,-0.757309625,1.5971107,-0.077366146,0.8149273,0.12969595,6.059756999999999
808,1747532605770,-0.80307035,1.4039393,-0.148142745,0.824781,0.27403929,6.1558968
809,1747532605780,-0.9454777,1.1766,-0.21208574,0.8767126,0.77870834,6.1268687
810,1747532605790,-1.048836,1.1015524,-0.1826768449999999,0.912398985,0.99708752,6.119678
811,1747532605800,-1.4082103,0.79269797,0.029042812,1.002147535,1.3241237,6.12100965
812,1747532605810,-1.5224291,0.78293565,0.050275791,1.22398885,1.4729944499999998,6.19344765
813,1747532605820,-1.8163961,0.77964088,0.076389915,1.4732607,1.4913703,6.40250565
814,1747532605830,-2.255211,0.7638992149999999,0.0802948325,1.62133245,1.4444987,6.82541565
815,1747532605840,-2.5142777,0.74169,0.079318605,1.6879115,1.419465,7.1031833
816,1747532605850,-3.22070145,0.265656317,0.1083614249999999,1.829858,1.4905713,8.3609945
817,1747532605860,-3.7830093,-0.1992727329999999,0.20232347,1.96701085,1.56274295,9.064069
818,1747532605870,-4.7037153,-0.7580418,0.5025139,2.3270702,1.099353,9.632121
819,1747532605880,-4.88993095,-0.88324315,0.5698737,2.5278726,0.765126235,9.847038
820,1747532605890,-5.112633300000001,-1.07080115,0.58378497,2.91376465,0.066579035,10.2065645
821,1747532605900,-5.639187,-1.0079564,-0.42099872,2.572081,-0.88949585,10.703777
822,1747532605910,-5.7920885,-1.0299216,-0.64577546,1.95662445,-0.75074515,10.829212
823,1747532605920,-6.0194277,-1.0971593999999998,-1.0129596,0.481765825,-0.38189732,11.0747555
824,1747532605930,-6.1844106,-1.23615,-1.1199788,-2.1800637,0.22104238,11.417504
825,1747532605940,-6.14572765,-1.3930788,-0.74583899,-3.03147635,0.283360355,11.496334
826,1747532605950,-5.9833076,-1.6183436,-0.23881001,-4.2767705,0.125434898,11.3053855
827,1747532605960,-5.70349575,-1.7186511,-0.045394645,-4.5412224,-0.260989792,10.7040435
828,1747532605970,-5.3746285,-1.8004103,0.00488114525,-4.207528399999999,-0.600809155,9.9474395
829,1747532605980,-4.7395916,-2.004198,-0.08786061,-3.5633097,-1.0961571,8.497082
830,1747532605990,-3.3406556,-2.2751017,-0.053692598,-2.389388,-1.4056164,6.2685485
831,1747532606000,-2.6633968,-2.3195202,0.008542004,-1.568602,-1.3603427,5.191034
832,1747532606010,-2.4066485,-2.31195435,0.041245674,-1.10228245,-1.3270531499999998,4.693289099999999
833,1747532606020,-1.90620905,-2.2471571,0.135695832,0.0109189499999999,-1.2671320499999998,3.6424056
834,1747532606030,-1.2632403,-2.0449557,0.2801777,1.7193369,-1.2591426,2.3052323
835,1747532606040,-0.64821607,-1.7923565,0.17523311,3.2591765,-1.5041534,1.1558119
836,1747532606050,-0.52960426,-1.6471423,0.0043930304,3.3816819,-1.5076155,1.03517073
837,1747532606060,-0.465417195,-1.5925955,-0.1055547648,3.4194989,-1.510545,0.89642006
838,1747532606070,-0.31690834,-1.53475395,-0.30385128,3.07808175,-1.49083765,0.91879061
839,1747532606080,-0.07248501,-1.5614783,-0.5186216,2.107093,-1.3278521,1.0583402
840,1747532606090,0.029652955,-1.6191978,-0.53155665,1.29722574,-1.02158858,1.0101369999999998
841,1747532606100,0.163152275,-1.7036416,-0.49482606,0.252467672,-0.53609433,0.83569995
842,1747532606110,0.19451363,-1.7303659,-0.44516042,0.017576864,-0.3568636,0.7094661
843,1747532606120,0.148386805,-1.7669745,-0.270781515,-0.3038666849999999,0.091612742,0.243412925
844,1747532606130,0.072851088,-1.7844246,-0.189388425,-0.38589205,0.31957934,-0.034887415
845,1747532606140,-0.089935097,-1.8060236,-0.0813930895,-0.397077325,0.47803743,-0.3139867
846,1747532606150,-0.29652956,-1.8782645,0.065163285,-0.31318775,0.43196473,-0.66365975
847,1747532606160,-0.330453515,-1.90706335,0.0912774095,-0.239418185,0.354733065,-0.805339925
848,1747532606170,-0.396593035,-1.9580713,0.138990602,-0.016777915,0.198671825,-1.211472
849,1747532606180,-0.5390004500000001,-2.00737085,0.15619664,0.26631611,0.072970615,-1.7502295499999998
850,1747532606190,-0.82198477,-1.9815009,0.14765464,0.819721,-0.008522116,-3.180347
851,1747532606200,-1.018939,-1.8794849,0.14570218,0.93796533,0.049534798,-3.645335
852,1747532606210,-1.163909,-1.8105387,0.14692247,0.962466415,0.082824314,-3.82243515
853,1747532606220,-1.4554353999999998,-1.6932692,0.159003305,0.97764645,0.135554905,-4.13349235
854,1747532606230,-1.93671625,-1.58039275,0.241494655,0.90654005,0.10626013,-4.4908887
855,1747532606240,-2.42775935,-1.5332897,0.371943265,0.8543420749999999,-0.03222425,-4.897287
856,1747532606250,-2.7534538,-1.59894105,0.501415635,0.933704275,-0.19254655,-5.3122075
857,1747532606260,-2.9228296,-1.6471423,0.5720702,1.0034791,-0.26312032,-5.544169
858,1747532606270,-3.3550551,-1.84519475,0.6306439349999999,1.2655342,-0.23675503,-6.633668
859,1747532606280,-3.9775231,-1.95697295,0.67945537,1.1685951,0.15978967,-8.766594
860,1747532606290,-4.72336185,-1.8924198,0.82564567,1.1254519,0.144609655,-9.042231
861,1747532606300,-5.4641976,-1.5338998,1.0653099,1.0279802,-0.10705908,-9.573532
862,1747532606310,-5.6183198,-1.3953973,1.1155857,1.0018812,-0.31185616,-9.599631
863,1747532606320,-5.8513945,-1.1420658499999998,1.16366495,0.86819052,-0.8372978200000001,-9.59031
864,1747532606330,-5.9541425,-0.8533461499999999,1.0527409,-0.14114754,-1.9648803,-9.277921
865,1747532606340,-5.977938,-0.6794554,0.9440134,-0.14114754,-1.9648803,-9.277921
866,1747532606350,-5.799898649999999,-0.50019534,0.7647534,-1.14702345,-2.15449745,-9.06034025
867,1747532606360,-5.6368683,-0.38158351,0.6739641199999999,-1.8639465,-2.1180121,-8.920524749999998
868,1747532606370,-5.4252705,-0.252111135,0.61294979,-2.56329265,-2.0144151,-8.763665
869,1747532606380,-4.9086012,-0.085542068,0.575120895,-3.19126595,-1.8780612,-8.609734
870,1747532606390,-4.12652,0.14497001,0.5442477,-4.181163,-1.5845809,-8.32877
871,1747532606400,-3.9268811,0.221481955,0.52948222,-4.27863465,-1.53797555,-8.2446145
872,1747532606410,-3.0714605,0.5208182,0.45687518,-4.42138,-1.3938985,-7.9639173
873,1747532606420,-2.9205111500000003,0.569873675,0.44113349,-4.3787694,-1.29030155,-7.70638945
874,1747532606430,-2.6294729,0.6604189,0.4012301299999999,-4.3092609,-1.1342403,-7.30345295
875,1747532606440,-2.3438038,0.745106775,0.35437113,-4.25946,-1.009338,-6.867227
876,1747532606450,-2.06997155,0.82259495,0.33106366,-4.253601,-0.998419065,-6.7287428
877,1747532606460,-1.70620425,0.9384001,0.34436478,-4.1798315,-1.019191765,-6.3604278
878,1747532606470,-1.347074,1.10033205,0.35998443,-4.02669975,-1.093494,-6.024603
879,1747532606480,-1.095817025,1.29240515,0.34765953,-3.83548465,-1.11213615,-5.8666775
880,1747532606490,-0.880924625,1.5020504,0.323985995,-3.5744949000000004,-1.04262762,-5.7425742500000005
881,1747532606500,-0.7404697,1.6994927,0.349856065,-3.1696945000000003,-0.922785345,-5.52552675
882,1747532606510,-0.58110034,2.2062776,0.5613316,-1.2713932,-0.45859635,-4.237089
883,1747532606520,-0.4878704499999999,2.2696104,0.547176315,-0.806138915,-0.386424675,-3.919374
884,1747532606530,-0.32081325,2.35564055,0.47444728,0.051931645,-0.25672873,-3.317766
885,1747532606540,-0.13911264,2.4147024,0.294089,0.7323693099999999,-0.139017015,-2.7806065
886,1747532606550,-0.051740136,2.4881637,0.20256752,1.4775218,0.03568636,-2.0069582
887,1747532606560,-0.0298970125,2.5722414,0.1197100835,1.61733775,0.11424961,-1.5779230000000002
888,1747532606570,-0.0258700695,2.6818231,0.0080538905,1.7491642,0.25140241,-0.85487475
889,1747532606580,-0.071752832,2.71306255,-0.045394648,1.69110725,0.35846148,-0.20506339
890,1747532606590,-0.138990602,2.68890085,-0.086396263,1.4583471,0.43729106,0.9816412
891,1747532606600,-0.234172935,2.52037915,-0.069312256,1.24129945,0.35979307,1.8967033
892,1747532606610,-0.29018408,2.3817546,-0.035876416,1.0242518,0.28229508,2.8117654
893,1747532606620,-0.308732425,2.11439005,-0.0159857485,0.75101147,0.0034621099999999,4.022971350000001
894,1747532606630,-0.307024025,1.9430619,-0.021477038,0.61838602,-0.20426446,4.60300785
895,1747532606640,-0.364133425,1.8040712,-0.032215557,0.57950385,-0.3688478149999999,4.93643535
896,1747532606650,-0.614048,1.619808,-0.15961345,0.717189275,-0.40187101,5.26613465
897,1747532606660,-0.69263443,1.6041883,-0.206106345,0.947819025,-0.251136095,5.58784465
898,1747532606670,-0.877263755,1.5439061,-0.28029974,1.1454255999999998,0.04287689,5.89623885
899,1747532606680,-1.069702925,1.4378632,-0.305803735,1.3502227,0.467917415,6.27227715
900,1747532606690,-1.6861916,0.95987713,-0.18816814,1.8556907,1.76248,7.0451264
901,1747532606700,-2.1211014,0.7314396,0.0053692595,2.0266657,1.9579561,7.291735
902,1747532606710,-2.33440745,0.6418705499999999,0.14057697975,2.13798585,1.8676749,7.4999942
903,1747532606720,-2.72392285,0.464074835,0.3882951,2.38645875,1.50521865,7.972705700000001
904,1747532606730,-3.0429057,0.29787188,0.5588911000000001,2.8218856,0.47617322,8.788964
905,1747532606740,-4.0347548,-0.5010495,0.23673552,2.95477735,0.0474042749999999,9.1271855
906,1747532606750,-4.0347548,-0.5010495,0.23673552,3.0876691,-0.38136467,9.465407
907,1747532606760,-4.5338516,-0.93205464,-0.09493827,2.2812638,-0.19441076,9.504822
908,1747532606770,-4.7776647,-0.87616557,-0.10396838,1.6719326,-0.13102753,9.408416
909,1747532606780,-5.1647396,-0.71215904,-0.03172744,0.9502159,-0.14647387,9.539443
910,1747532606790,-5.85054,-0.38853914,0.14228538,0.17204021,-0.45859635,10.491257
911,1747532606800,-6.110217,-0.34290043,0.21525851,-0.037284255,-0.7419567,11.124557
912,1747532606810,-6.19771165,-0.3593743,0.2247767299999999,-0.13635385,-1.0274476,11.6998
913,1747532606820,-6.35061365,-0.421608895,0.239054075,-0.143011755,-1.1171961,11.9144505
914,1747532606830,-6.3491493,-0.68702116,0.2229463,-0.115048565,-1.2319783,12.1663855
915,1747532606840,-5.883732,-1.1514622,0.10421244,-0.099069595,-1.0567423,10.656905
916,1747532606850,-5.6339395,-1.2548204,0.094206095,-0.2034655075,-0.99762013,9.979397
917,1747532606860,-5.384147,-1.3581786,0.08419975,-0.30786142,-0.93849796,9.301889
918,1747532606870,-4.87272515,-1.4315178,0.15607461,-0.43010051,-0.923850595,8.4936197
919,1747532606880,-3.76751185,-1.57941655,0.354371135,-0.3653857,-0.860733685,6.95910645
920,1747532606890,-2.83667735,-1.66922965,0.54937287,0.021837915,-0.80906835,5.79929975
921,1747532606900,-2.097184,-1.6407969,0.6994681,0.64714813,-0.85540736,4.5034056
922,1747532606910,-1.97149445,-1.59296165,0.7148437000000001,0.81892204,-0.96992328,4.1494714
923,1747532606920,-1.74037225,-1.48472225,0.7070338700000001,1.098820275,-1.2809805,3.5409391
924,1747532606930,-1.1334019,-1.279104,0.32337585,1.0812434,-2.4799356,2.7318707
925,1747532606940,-0.9193637,-1.2800802,0.053204484,0.923584285,-2.61842,2.64372005
926,1747532606950,-0.82491355,-1.2948457,-0.076145853,0.552073315,-2.8165592,2.4639567
927,1747532606960,-0.61002112,-1.3351152,-0.278347285,0.1422128024999999,-2.8631645,2.26475225
928,1747532606970,-0.364133415,-1.3858791,-0.38548841,-0.1584580875,-2.73559915,2.0200077
929,1747532606980,0.06858008,-1.4924101,-0.4886026,-0.19068234,-2.1411816,1.57605875
930,1747532606990,0.08297946,-1.49302025,-0.4809148,0.0239684449999999,-1.36220695,1.1462246
931,1747532607000,0.08639627,-1.4887493,-0.42246306,0.5118596,-0.5267733,0.88203895
932,1747532607010,0.0585737415,-1.4817936,-0.39110172,0.716390375,-0.272175082,0.849282075
933,1747532607020,-0.006833602,-1.47117705,-0.333504215,1.037034975,0.099602228,0.789627275
934,1747532607030,-0.2135501,-1.4992436,-0.21306199,1.3097427,0.30146983,0.57417756
935,1747532607040,-0.25394157,-1.5074195,-0.18109048,1.31933005,0.279898225,0.5155879999999999
936,1747532607050,-0.34119204,-1.5522041,-0.07907455,1.3406353,0.19441076,0.30253512
937,1747532607060,-0.356811705,-1.585762,-0.070410518,1.3366406,0.1808286399999999,0.1792307515
938,1747532607070,-0.42697817,-1.7177970500000002,-0.068946173,1.30095425,0.18695391,-0.1408812234999999
939,1747532607080,-0.64479923,-1.8318938,0.016351834,1.0290455,0.41385525,-1.4391723
940,1747532607090,-0.8449261,-1.7987018,0.122760795,1.0157297,0.4527374,-1.8679413
941,1747532607100,-1.0621371,-1.7374434,0.21501444,1.0524813,0.4133226,-2.2498386
942,1747532607110,-1.1755017,-1.6965639,0.24881636,1.07352025,0.381364675,-2.4330641
943,1747532607120,-1.39417705,-1.61297435,0.31117299,1.1057445,0.30839406,-2.81229815
944,1747532607130,-1.88461,-1.415532,0.4971446,1.1259845,0.042077947,-3.914847
945,1747532607140,-1.9757655,-1.36659855,0.52460105,1.1648667,-0.07882957,-4.437359
946,1747532607150,-2.3583252,-1.232001,0.5527897,1.1664646,-0.17204021,-5.000884
947,1747532607160,-2.6721829,-1.1458488,0.50361215,0.97578225,-0.177899165,-5.6128785
948,1747532607170,-3.304291,-0.9303462,0.47151858,0.5273059,-0.09161274,-6.6653595
949,1747532607180,-3.6608586,-0.7934301,0.53643787,0.25992453,0.0015978967,-7.032876
950,1747532607190,-3.8694055,-0.727412615,0.567677185,0.0996022275,0.06764429335,-7.1857415
951,1747532607200,-4.3393377,-0.595133615,0.63869785,-0.2631203175,0.197340245,-7.45765025
952,1747532607210,-4.784132,-0.4624884999999999,0.735832635,-0.6972155800000001,0.29640984,-7.68614925
953,1747532607220,-5.0828582,-0.33911754,0.8606679150000001,-1.1579424500000002,0.32996567,-7.927165
954,1747532607230,-5.36901545,-0.130082514,1.06799458,-2.0793962,-0.076166406,-8.535432
955,1747532607240,-5.662372,0.24552159,1.2822767,-2.2285333,-0.3174488,-8.574313
956,1747532607250,-5.63491575,0.325450345,1.2509154,-2.31029225,-0.44581318,-8.5593995
957,1747532607260,-5.392200900000001,0.4815249649999999,1.0823939,-2.6375947,-0.73210303,-8.434764
958,1747532607270,-4.8206186,0.5854933,0.77317333,-3.1782165,-0.76965356,-8.19508
959,1747532607280,-4.490653,0.5981843,0.63503695,-3.4993937,-0.5336975,-8.070976
960,1747532607290,-4.3285992,0.60221125,0.606726325,-3.64666655,-0.39627839,-7.9977392
961,1747532607300,-3.999610300000001,0.614902235,0.590130425,-3.88155735,-0.136886491,-7.838215849999999
962,1747532607310,-3.4820869,0.645653435,0.626494945,-3.92922795,0.114249614,-7.55725215
963,1747532607320,-3.1314986,0.6677406,0.65114474,-3.8892806,0.24341293,-7.362575
964,1747532607330,-2.7192859,0.7039831700000001,0.637843575,-3.58754435,0.31132353,-7.05657795
965,1747532607340,-2.4344710000000003,0.7708548500000001,0.5869576750000001,-3.39872625,0.339020415,-6.863765150000001
966,1747532607350,-2.1516087,0.83748245,0.50922545,-3.32602195,0.27616981,-6.6714850000000006
967,1747532607360,-1.7289015,0.93754595,0.44198766,-3.37449145,0.104395917,-6.4120930000000005
968,1747532607370,-1.4492118,1.0096649,0.42002252,-3.422162,-0.008522116,-6.250439
969,1747532607380,-0.8756774,1.2400548,0.37291947,-3.30578195,0.027696876,-6.164153000000001
970,1747532607390,-0.8756774,1.2400548,0.37291947,-3.2495892,0.041012682,-6.180132
971,1747532607400,-0.43246946,1.7437891,0.45052966,-2.7499802,0.31957933,-6.0698767
972,1747532607410,-0.33570076,1.86777015,0.46029195,-2.16488365,0.568584915,-5.88212385
973,1747532607420,-0.1930492899999999,2.09083845,0.48396552,-1.202949835,0.88816425,-5.58784475
974,1747532607430,-0.1381364,2.28217935,0.47762004,-0.438622632,1.031176,-5.291168750000001
975,1747532607440,-0.12776397,2.4453315,0.37719047,0.267647703,1.1845741,-4.83257225
976,1747532607450,-0.17511108,2.6004298500000003,0.1653487815,0.93130745,1.53078505,-3.83814785
977,1747532607460,-0.2374677,2.72733965,0.0220871819999999,1.3289174,1.92972655,-2.62507795
978,1747532607470,-0.219529495,2.78908625,0.00536925912,1.3483585,2.09670675,-1.79497055
979,1747532607480,-0.15912533,2.8483922,-0.008053889,1.1504856,2.05383,-0.8111989
980,1747532607490,-0.28725538,2.9040372,0.020500809,0.7824367,1.736381,0.7302388
981,1747532607500,-0.42197496,2.8637679,0.07028849,0.70467246,1.6138756,1.7124126
982,1747532607510,-0.50336808,2.82837955,0.093473925,0.70573771,1.5395734,2.2445122
983,1747532607520,-0.6999562,2.686582,0.17669745,0.747016695,1.36913115,3.29379775
984,1747532607530,-0.8593256,2.5303855,0.2208718,0.9406285,1.0439591,4.7713194
985,1747532607540,-1.01698655,2.27973875,0.22721729,1.0729876,0.92678005,5.31007695
986,1747532607550,-1.2464004,1.7386639,0.16791138,1.6170714,0.8133294,6.8555093
987,1747532607560,-1.3036318,1.6074831,0.14704449,1.6780578,0.81918835,6.931409349999999
988,1747532607570,-1.45018815,1.36855105,0.148264785,1.77659475,0.79761675,7.04139805
989,1747532607580,-1.6842391,1.15426875,0.17352471,1.82453165,0.7283745800000001,7.10744455
990,1747532607590,-2.4410605,0.737541,0.16791138,1.6564863,0.2892193,7.4461985
991,1747532607600,-2.65290225,0.64528735,0.21428226,1.5960325000000002,0.1209075165,7.6555231
992,1747532607610,-3.099771,0.4313711649999999,0.299702305,1.5355787,-0.047404267,7.8648477
993,1747532607620,-3.334798,0.30970863,0.33875147,1.4572818,-0.5651228,8.694689
994,1747532607630,-4.1699622000000005,-0.21464834,0.296773615,1.25354995,-1.2692626,9.865414
995,1747532607640,-5.077611,-0.71215904,0.090789296,0.64714813,-2.2413163,11.020161
996,1747532607650,-5.137405,-0.85127175,-0.20574026,0.434361565,-2.2197448,10.8923295
997,1747532607660,-5.11556175,-0.867989625,-0.31336949,-0.072970625,-2.09537525,10.467289
998,1747532607670,-5.12983925,-0.84028908,-0.43454392,-0.663393455,-1.8804581,9.896307
999,1747532607680,-5.3680392,-0.616488605,-0.289451895,-1.19336253,-1.53424715,9.68139
1000,1747532607690,-5.67848,-0.42636803,0.042221904,-1.2793826,-1.1531488,10.195113
