id,timestamp,acc_x,acc_y,acc_z,gyro_x,gyro_y,gyro_z
0,1747402055050,2.6,2.54,1.22,-8.91,104.43,363.34
1,1747402055060,,,,,,
2,1747402055070,2.16,1.87,1.08,-77.21,2.38,369.38
3,1747402055080,2.16,1.87,1.08,-77.21,2.38,369.38
4,1747402055090,,,,,,
5,1747402055100,2.16,1.87,1.08,-77.21,2.38,369.38
6,1747402055110,1.13,1.33,0.94,-83.86,20.75,338.44
7,1747402055120,,,,,,
8,1747402055130,1.13,1.33,0.94,-83.86,20.75,338.44
9,1747402055140,0.31,1.17,0.76,-98.08,-79.47,346.92
10,1747402055150,,,,,,
11,1747402055160,0.31,1.17,0.76,-98.08,-79.47,346.92
12,1747402055170,,,,,,
13,1747402055180,0.41,1.22,0.39,-86.43,-145.32,349.73
14,1747402055190,,,,,,
15,1747402055200,0.41,1.22,0.39,-86.43,-145.32,349.73
16,1747402055210,,,,,,
17,1747402055220,,,,,,
18,1747402055230,,,,,,
19,1747402055240,0.11,1.58,0.22,-100.83,-4.94,325.01
20,1747402055250,0.11,1.58,0.22,-100.83,-4.94,325.01
21,1747402055260,-0.07,1.33,0.22,-132.02,-1.22,317.63
22,1747402055270,-0.07,1.33,0.22,-132.02,-1.22,317.63
23,1747402055280,-0.07,1.33,0.22,-132.02,-1.22,317.63
24,1747402055290,-0.29,1.0,0.02,-108.22,-44.8,296.81
25,1747402055300,-0.29,1.0,0.02,-108.22,-44.8,296.81
26,1747402055310,-0.29,1.0,0.02,-108.22,-44.8,296.81
27,1747402055320,,,,,,
28,1747402055330,-0.62,0.39,-0.22,-108.22,-44.8,296.81
29,1747402055340,-0.62,0.39,-0.22,-108.22,-44.8,296.81
30,1747402055350,-0.62,0.39,-0.22,-67.32,-55.36,214.9
31,1747402055360,-0.62,0.39,-0.22,-67.32,-55.36,214.9
32,1747402055370,-1.06,-0.45,-0.41,0.98,-27.16,88.38
33,1747402055380,-1.06,-0.45,-0.41,0.98,-27.16,88.38
34,1747402055390,-1.06,-0.45,-0.41,0.98,-27.16,88.38
35,1747402055400,-1.06,-0.45,-0.41,0.98,-27.16,88.38
36,1747402055410,-1.17,-0.68,-0.71,44.74,-68.97,36.13
37,1747402055420,-1.17,-0.68,-0.71,44.74,-68.97,36.13
38,1747402055430,-1.17,-0.68,-0.71,44.74,-68.97,36.13
39,1747402055440,-1.17,-0.68,-0.71,44.74,-68.97,36.13
40,1747402055450,-1.37,-0.44,-0.68,49.68,29.54,-28.63
41,1747402055460,-1.37,-0.44,-0.68,49.68,29.54,-28.63
42,1747402055470,-1.37,-0.44,-0.68,49.68,29.54,-28.63
43,1747402055480,-1.37,-0.44,-0.68,49.68,29.54,-28.63
44,1747402055490,-1.91,-1.03,-0.75,-60.49,219.3,-118.16
45,1747402055500,-1.91,-1.03,-0.75,-60.49,219.3,-118.16
46,1747402055510,-1.91,-1.03,-0.75,-60.49,219.3,-118.16
47,1747402055520,-1.4,-0.65,-0.88,12.39,263.85,-287.48
48,1747402055530,-1.4,-0.65,-0.88,12.39,263.85,-287.48
49,1747402055540,-1.4,-0.65,-0.88,12.39,263.85,-287.48
50,1747402055550,-1.4,-0.65,-0.88,12.39,263.85,-287.48
51,1747402055560,-1.165,-0.11,-0.8,98.085,289.485,-358.92
52,1747402055570,-0.93,0.43,-0.72,183.78,315.12,-430.36
53,1747402055580,-0.93,0.43,-0.72,183.78,315.12,-430.36
54,1747402055590,-0.93,0.43,-0.72,183.78,315.12,-430.36
55,1747402055600,-0.1,2.43,0.21,183.78,315.12,-430.36
56,1747402055610,-0.1,2.43,0.21,395.39,121.52,-371.58
57,1747402055620,-0.1,2.43,0.21,395.39,121.52,-371.58
58,1747402055630,-0.1,2.43,0.21,395.39,121.52,-371.58
59,1747402055640,1.19,2.94,0.54,305.42,-11.17,-303.83
60,1747402055650,1.19,2.94,0.54,305.42,-11.17,-303.83
61,1747402055660,1.19,2.94,0.54,305.42,-11.17,-303.83
62,1747402055670,1.19,2.94,0.54,305.42,-11.17,-303.83
63,1747402055680,0.58,2.02,0.6,260.38,50.23,-296.2
64,1747402055690,0.58,2.02,0.6,260.38,50.23,-296.2
65,1747402055700,0.58,2.02,0.6,260.38,50.23,-296.2
66,1747402055710,0.58,2.02,0.6,260.38,50.23,-296.2
67,1747402055720,0.54,1.74,0.6,265.99,-20.26,-319.52
68,1747402055730,0.54,1.74,0.6,265.99,-20.26,-319.52
69,1747402055740,0.54,1.74,0.6,265.99,-20.26,-319.52
70,1747402055750,0.54,1.74,0.6,265.99,-20.26,-319.52
71,1747402055760,0.85,0.81,1.01,236.21,-31.01,-304.38
72,1747402055770,0.85,0.81,1.01,236.21,-31.01,-304.38
73,1747402055780,0.85,0.81,1.01,236.21,-31.01,-304.38
74,1747402055790,0.85,0.81,1.01,236.21,-31.01,-304.38
75,1747402055800,3.23,1.55,0.68,99.49,-163.82,-227.72
76,1747402055810,3.23,1.55,0.68,99.49,-163.82,-227.72
77,1747402055820,3.23,1.55,0.68,99.49,-163.82,-227.72
78,1747402055830,4.78,1.04,1.38,57.13,-89.72,-80.69
79,1747402055840,4.78,1.04,1.38,57.13,-89.72,-80.69
80,1747402055850,4.78,1.04,1.38,57.13,-89.72,-80.69
81,1747402055860,4.78,1.04,1.38,57.13,-89.72,-80.69
82,1747402055870,4.3,2.39,1.64,2.08,78.55,82.4
83,1747402055880,4.3,2.39,1.64,2.08,78.55,82.4
84,1747402055890,4.3,2.39,1.64,2.08,78.55,82.4
85,1747402055900,4.3,2.39,1.64,2.08,78.55,82.4
86,1747402055910,3.41,2.91,1.17,-55.24,52.98,184.81
87,1747402055920,3.41,2.91,1.17,-55.24,52.98,184.81
88,1747402055930,3.41,2.91,1.17,-55.24,52.98,184.81
89,1747402055940,3.41,2.91,1.17,-55.24,52.98,184.81
90,1747402055950,2.77,2.24,1.07,-90.15,56.58,225.65
91,1747402055960,2.77,2.24,1.07,-90.15,56.58,225.65
92,1747402055970,2.77,2.24,1.07,-90.15,56.58,225.65
93,1747402055980,2.3200000000000003,1.905,1.07,-124.175,45.47,251.465
94,1747402055990,1.87,1.57,1.07,-158.2,34.36,277.28
95,1747402056000,1.87,1.57,1.07,-158.2,34.36,277.28
96,1747402056010,1.87,1.57,1.07,-158.2,34.36,277.28
97,1747402056020,1.625,1.63,0.795,-210.69,-11.66,341.765
98,1747402056030,1.38,1.69,0.52,-263.18,-57.68,406.25
99,1747402056040,1.38,1.69,0.52,-263.18,-57.68,406.25
100,1747402056050,1.38,1.69,0.52,-263.18,-57.68,406.25
101,1747402056060,1.08,1.93,0.325,-278.71500000000003,-34.82,436.005
102,1747402056070,0.78,2.17,0.13,-294.25,-11.96,465.76
103,1747402056080,0.78,2.17,0.13,-294.25,-11.96,465.76
104,1747402056090,0.78,2.17,0.13,-294.25,-11.96,465.76
105,1747402056100,0.27,2.33,0.2,-303.41,-40.77,497.5
106,1747402056110,0.27,2.33,0.2,-303.41,-40.77,497.5
107,1747402056120,0.27,2.33,0.2,-303.41,-40.77,497.5
108,1747402056130,0.27,2.33,0.2,-303.41,-40.77,497.5
109,1747402056140,0.51,2.25,-0.01,-252.62,-76.97,539.31
110,1747402056150,0.51,2.25,-0.01,-252.62,-76.97,539.31
111,1747402056160,0.51,2.25,-0.01,-252.62,-76.97,539.31
112,1747402056170,0.51,2.25,-0.01,-252.62,-76.97,539.31
113,1747402056180,0.21,1.75,0.1,-244.93,22.34,478.64
114,1747402056190,0.21,1.75,0.1,-244.93,22.34,478.64
115,1747402056200,0.21,1.75,0.1,-244.93,22.34,478.64
116,1747402056210,-0.09,1.305,0.12,-199.52,-37.385,442.66
117,1747402056220,-0.39,0.86,0.14,-154.11,-97.11,406.68
118,1747402056230,-0.39,0.86,0.14,-154.11,-97.11,406.68
119,1747402056240,-0.39,0.86,0.14,-154.11,-97.11,406.68
120,1747402056250,-0.67,0.47,-0.48,-71.66,-206.3,312.81
121,1747402056260,-0.67,0.47,-0.48,-71.66,-206.3,312.81
122,1747402056270,-0.67,0.47,-0.48,-71.66,-206.3,312.81
123,1747402056280,-0.67,0.47,-0.48,-71.66,-206.3,312.81
124,1747402056290,-2.82,0.15,-1.47,-71.66,-206.3,312.81
125,1747402056300,-2.82,0.15,-1.47,-42.48,33.14,183.35
126,1747402056310,-2.82,0.15,-1.47,-42.48,33.14,183.35
127,1747402056320,-2.82,0.15,-1.47,-42.48,33.14,183.35
128,1747402056330,-2.82,0.15,-1.47,-42.48,33.14,183.35
129,1747402056340,-3.48,0.17,-1.34,63.29,53.89,40.83
130,1747402056350,-3.48,0.17,-1.34,63.29,53.89,40.83
131,1747402056360,-3.48,0.17,-1.34,63.29,53.89,40.83
132,1747402056370,-3.16,-0.29,-1.17,69.52,95.7,-140.01
133,1747402056380,-3.16,-0.29,-1.17,69.52,95.7,-140.01
134,1747402056390,-3.16,-0.29,-1.17,69.52,95.7,-140.01
135,1747402056400,-3.16,-0.29,-1.17,69.52,95.7,-140.01
136,1747402056410,-1.69,0.2,-0.79,93.93,51.27,-256.96
137,1747402056420,-1.69,0.2,-0.79,93.93,51.27,-256.96
138,1747402056430,-1.69,0.2,-0.79,93.93,51.27,-256.96
139,1747402056440,-1.69,0.2,-0.79,93.93,51.27,-256.96
140,1747402056450,-0.55,0.85,-0.37,158.81,16.91,-378.72
141,1747402056460,-0.55,0.85,-0.37,158.81,16.91,-378.72
142,1747402056470,-0.55,0.85,-0.37,158.81,16.91,-378.72
143,1747402056480,-0.55,0.85,-0.37,158.81,16.91,-378.72
144,1747402056490,0.57,1.81,0.2,216.31,-55.42,-362.06
145,1747402056500,0.57,1.81,0.2,216.31,-55.42,-362.06
146,1747402056510,0.57,1.81,0.2,216.31,-55.42,-362.06
147,1747402056520,1.01,1.94,0.47,216.31,-55.42,-362.06
148,1747402056530,1.01,1.94,0.47,153.44,-6.04,-375.61
149,1747402056540,1.01,1.94,0.47,153.44,-6.04,-375.61
150,1747402056550,1.01,1.94,0.47,153.44,-6.04,-375.61
151,1747402056560,0.42,1.48,0.36,153.47,4.914999999999999,-374.085
152,1747402056570,0.42,1.48,0.36,153.5,15.87,-372.56
153,1747402056580,0.42,1.48,0.36,153.5,15.87,-372.56
154,1747402056590,0.42,1.48,0.36,153.5,15.87,-372.56
155,1747402056600,0.39,1.475,0.24,167.01999999999998,-8.3,-372.985
156,1747402056610,0.36,1.47,0.12,180.54,-32.47,-373.41
157,1747402056620,0.36,1.47,0.12,180.54,-32.47,-373.41
158,1747402056630,0.36,1.47,0.12,180.54,-32.47,-373.41
159,1747402056640,0.66,1.53,0.11,183.78,48.4,-421.08
160,1747402056650,0.66,1.53,0.11,183.78,48.4,-421.08
161,1747402056660,0.66,1.53,0.11,183.78,48.4,-421.08
162,1747402056670,0.66,1.53,0.11,183.78,48.4,-421.08
163,1747402056680,1.25,1.87,0.82,204.96,17.64,-422.61
164,1747402056690,1.25,1.87,0.82,204.96,17.64,-422.61
165,1747402056700,1.25,1.87,0.82,204.96,17.64,-422.61
166,1747402056710,2.785,1.55,1.09,168.4,24.84,-403.84
167,1747402056720,4.32,1.23,1.36,131.84,32.04,-385.07
168,1747402056730,4.32,1.23,1.36,131.84,32.04,-385.07
169,1747402056740,4.32,1.23,1.36,131.84,32.04,-385.07
170,1747402056750,4.645,1.3,2.055,127.75,60.760000000000005,-333.92499999999995
171,1747402056760,4.97,1.37,2.75,123.66,89.48,-282.78
172,1747402056770,4.97,1.37,2.75,123.66,89.48,-282.78
173,1747402056780,4.97,1.37,2.75,123.66,89.48,-282.78
174,1747402056790,6.56,2.04,1.9,-104.68,-173.1,41.02
175,1747402056800,6.56,2.04,1.9,-104.68,-173.1,41.02
176,1747402056810,6.56,2.04,1.9,-104.68,-173.1,41.02
177,1747402056820,5.39,1.77,1.475,-104.68,-173.1,41.02
178,1747402056830,4.22,1.5,1.05,-51.88,141.17,227.84
179,1747402056840,4.22,1.5,1.05,-51.88,141.17,227.84
180,1747402056850,4.22,1.5,1.05,-51.88,141.17,227.84
181,1747402056860,4.22,1.5,1.05,-51.88,141.17,227.84
182,1747402056870,4.22,1.5,1.05,-51.88,141.17,227.84
183,1747402056880,1.68,1.6,1.29,-132.69,140.14,301.88
184,1747402056890,1.68,1.6,1.29,-132.69,140.14,301.88
185,1747402056900,1.33,1.66,0.95,-132.69,140.14,301.88
186,1747402056910,0.98,1.72,0.61,-236.76,-3.85,409.91
187,1747402056920,0.98,1.72,0.61,-236.76,-3.85,409.91
188,1747402056930,0.98,1.72,0.61,-236.76,-3.85,409.91
189,1747402056940,0.98,1.72,0.61,-236.76,-3.85,409.91
190,1747402056950,0.25,1.83,0.29,-290.41,25.94,426.57
191,1747402056960,0.25,1.83,0.29,-290.41,25.94,426.57
192,1747402056970,0.25,1.83,0.29,-290.41,25.94,426.57
193,1747402056980,0.25,1.83,0.29,-290.41,25.94,426.57
194,1747402056990,0.17,2.02,0.3,-292.48,-54.87,423.46
195,1747402057000,0.17,2.02,0.3,-292.48,-54.87,423.46
196,1747402057010,0.17,2.02,0.3,-292.48,-54.87,423.46
197,1747402057020,0.27,2.04,0.295,-306.15,-25.82,419.005
198,1747402057030,0.37,2.06,0.29,-319.82,3.23,414.55
199,1747402057040,0.37,2.06,0.29,-319.82,3.23,414.55
200,1747402057050,0.37,2.06,0.29,-319.82,3.23,414.55
201,1747402057060,0.05,1.67,0.36,-314.08500000000004,-25.025,408.965
202,1747402057070,0.05,1.67,0.36,-308.35,-53.28,403.38
203,1747402057080,0.05,1.67,0.36,-308.35,-53.28,403.38
204,1747402057090,0.05,1.67,0.36,-308.35,-53.28,403.38
205,1747402057100,-0.39,0.68,-0.1,-220.58,-142.21,385.07
206,1747402057110,-0.39,0.68,-0.1,-220.58,-142.21,385.07
207,1747402057120,-0.39,0.68,-0.1,-220.58,-142.21,385.07
208,1747402057130,-0.39,0.68,-0.1,-220.58,-142.21,385.07
209,1747402057140,-1.21,0.0,-0.79,-127.32,-171.08,293.15
210,1747402057150,-1.21,0.0,-0.79,-127.32,-171.08,293.15
211,1747402057160,-1.21,0.0,-0.79,-127.32,-171.08,293.15
212,1747402057170,-1.21,0.0,-0.79,-127.32,-171.08,293.15
213,1747402057180,-2.145,-0.035,-1.14,-74.34,-109.315,227.51
214,1747402057190,-3.08,-0.07,-1.49,-21.36,-47.55,161.87
215,1747402057200,-3.08,-0.07,-1.49,-21.36,-47.55,161.87
216,1747402057210,-3.08,-0.07,-1.49,-21.36,-47.55,161.87
217,1747402057220,-3.48,-0.23,-1.43,11.41,60.49,1.77
218,1747402057230,-3.48,-0.23,-1.43,11.41,60.49,1.77
219,1747402057240,-3.48,-0.23,-1.43,11.41,60.49,1.77
220,1747402057250,-3.18,-0.235,-1.235,40.555,62.685,-89.265
221,1747402057260,-2.88,-0.24,-1.04,69.7,64.88,-180.3
222,1747402057270,-2.88,-0.24,-1.04,69.7,64.88,-180.3
223,1747402057280,-2.88,-0.24,-1.04,69.7,64.88,-180.3
224,1747402057290,-2.205,0.065,-0.775,69.7,64.88,-180.3
225,1747402057300,-1.53,0.37,-0.51,102.66,38.21,-308.17
226,1747402057310,-1.53,0.37,-0.51,102.66,38.21,-308.17
227,1747402057320,-1.53,0.37,-0.51,102.66,38.21,-308.17
228,1747402057330,-0.8200000000000001,0.8700000000000001,-0.21,134.885,30.15,-354.065
229,1747402057340,-0.11,1.37,0.09,167.11,22.09,-399.96
230,1747402057350,-0.11,1.37,0.09,167.11,22.09,-399.96
231,1747402057360,-0.11,1.37,0.09,167.11,22.09,-399.96
232,1747402057370,0.82,1.99,0.63,189.27,-17.88,-392.15
233,1747402057380,0.82,1.99,0.63,189.27,-17.88,-392.15
234,1747402057390,0.82,1.99,0.63,189.27,-17.88,-392.15
235,1747402057400,0.82,1.99,0.63,189.27,-17.88,-392.15
236,1747402057410,0.65,1.89,0.75,125.85,27.1,-384.16
237,1747402057420,0.65,1.89,0.75,125.85,27.1,-384.16
238,1747402057430,0.65,1.89,0.75,125.85,27.1,-384.16
239,1747402057440,0.51,1.58,0.6,125.85,27.1,-384.16
240,1747402057450,0.51,1.58,0.6,91.13,-0.92,-397.71
241,1747402057460,0.51,1.58,0.6,91.13,-0.92,-397.71
242,1747402057470,0.51,1.58,0.6,91.13,-0.92,-397.71
243,1747402057480,0.485,1.435,0.37,88.84,36.77,-410.22
244,1747402057490,0.46,1.29,0.14,86.55,74.46,-422.73
245,1747402057500,0.46,1.29,0.14,86.55,74.46,-422.73
246,1747402057510,0.53,1.48,0.04,86.55,74.46,-422.73
247,1747402057520,0.53,1.48,0.04,149.84,163.51,-500.85
248,1747402057530,0.53,1.48,0.04,149.84,163.51,-500.85
249,1747402057540,0.53,1.48,0.04,149.84,163.51,-500.85
250,1747402057550,1.65,2.11,0.67,183.225,210.69,-495.085
251,1747402057560,1.65,2.11,0.67,216.61,257.87,-489.32
252,1747402057570,1.65,2.11,0.67,216.61,257.87,-489.32
253,1747402057580,1.65,2.11,0.67,216.61,257.87,-489.32
254,1747402057590,3.14,1.44,1.74,189.64,69.21,-337.52
255,1747402057600,3.14,1.44,1.74,189.64,69.21,-337.52
256,1747402057610,3.14,1.44,1.74,189.64,69.21,-337.52
257,1747402057620,3.14,1.44,1.74,189.64,69.21,-337.52
258,1747402057630,4.23,1.62,2.93,162.72,11.66,-290.28
259,1747402057640,4.23,1.62,2.93,162.72,11.66,-290.28
260,1747402057650,4.23,1.62,2.93,162.72,11.66,-290.28
261,1747402057660,5.295,2.655,2.62,162.72,11.66,-290.28
262,1747402057670,6.36,3.69,2.31,-44.01,-107.97,-52.92
263,1747402057680,6.36,3.69,2.31,-44.01,-107.97,-52.92
264,1747402057690,6.36,3.69,2.31,-44.01,-107.97,-52.92
265,1747402057700,3.94,2.32,1.75,-67.26,32.71,310.42
266,1747402057710,3.94,2.32,1.75,-67.26,32.71,310.42
267,1747402057720,3.94,2.32,1.75,-67.26,32.71,310.42
268,1747402057730,3.94,2.32,1.75,-67.26,32.71,310.42
269,1747402057740,1.31,1.71,1.56,-112.58,78.64,303.13
270,1747402057750,1.31,1.71,1.56,-157.9,124.57,295.84
271,1747402057760,1.31,1.71,1.56,-157.9,124.57,295.84
272,1747402057770,1.31,1.71,1.56,-157.9,124.57,295.84
273,1747402057780,0.73,1.58,0.84,-224.85,-134.77,422.42
274,1747402057790,0.73,1.58,0.84,-224.85,-134.77,422.42
275,1747402057800,0.73,1.58,0.84,-224.85,-134.77,422.42
276,1747402057810,0.73,1.58,0.84,-224.85,-134.77,422.42
277,1747402057820,0.51,1.83,0.38,-244.02,-75.81,430.18
278,1747402057830,0.51,1.83,0.38,-244.02,-75.81,430.18
279,1747402057840,0.51,1.83,0.38,-244.02,-75.81,430.18
280,1747402057850,0.51,1.83,0.38,-244.02,-75.81,430.18
281,1747402057860,0.08,2.07,0.57,-260.01,-102.78,411.13
282,1747402057870,0.08,2.07,0.57,-260.01,-102.78,411.13
283,1747402057880,0.08,2.07,0.57,-260.01,-102.78,411.13
284,1747402057890,0.08,2.07,0.57,-260.01,-102.78,411.13
285,1747402057900,0.35,1.94,0.44,-230.77,-173.65,487.73
286,1747402057910,0.35,1.94,0.44,-230.77,-173.65,487.73
287,1747402057920,0.35,1.94,0.44,-230.77,-173.65,487.73
288,1747402057930,0.25,2.06,0.73,-212.71,-78.19,493.41
289,1747402057940,0.25,2.06,0.73,-212.71,-78.19,493.41
290,1747402057950,0.25,2.06,0.73,-212.71,-78.19,493.41
291,1747402057960,0.25,2.06,0.73,-212.71,-78.19,493.41
292,1747402057970,0.115,1.66,0.525,-197.695,-119.995,476.1950000000001
293,1747402057980,-0.02,1.26,0.32,-182.68,-161.8,458.98
294,1747402057990,-0.02,1.26,0.32,-182.68,-161.8,458.98
295,1747402058000,-0.02,1.26,0.32,-182.68,-161.8,458.98
296,1747402058010,-0.335,1.07,0.06,-128.45,-154.48000000000002,421.23
297,1747402058020,-0.65,0.88,-0.2,-74.22,-147.16,383.48
298,1747402058030,-0.65,0.88,-0.2,-74.22,-147.16,383.48
299,1747402058040,-0.65,0.88,-0.2,-74.22,-147.16,383.48
300,1747402058050,-2.74,-0.13,-1.22,-78.95,-58.655,296.57
301,1747402058060,-2.74,-0.13,-1.22,-83.68,29.85,209.66
302,1747402058070,-2.74,-0.13,-1.22,-83.68,29.85,209.66
303,1747402058080,-2.74,-0.13,-1.22,-83.68,29.85,209.66
304,1747402058090,-3.66,0.05,-1.62,44.98,46.51,74.4
305,1747402058100,-3.66,0.05,-1.62,44.98,46.51,74.4
306,1747402058110,-3.66,0.05,-1.62,44.98,46.51,74.4
307,1747402058120,-3.79,-0.345,-1.55,52.58,76.875,-29.39
308,1747402058130,-3.92,-0.74,-1.48,60.18,107.24,-133.18
309,1747402058140,-3.92,-0.74,-1.48,60.18,107.24,-133.18
310,1747402058150,-3.92,-0.74,-1.48,60.18,107.24,-133.18
311,1747402058160,-3.05,-0.29,-1.19,87.89,79.375,-205.965
312,1747402058170,-2.18,0.16,-0.9,115.6,51.51,-278.75
313,1747402058180,-2.18,0.16,-0.9,115.6,51.51,-278.75
314,1747402058190,-2.18,0.16,-0.9,115.6,51.51,-278.75
315,1747402058200,-1.395,0.705,-0.675,140.44,42.815,-339.6
316,1747402058210,-0.61,1.25,-0.45,165.28,34.12,-400.45
317,1747402058220,-0.61,1.25,-0.45,165.28,34.12,-400.45
318,1747402058230,-0.61,1.25,-0.45,165.28,34.12,-400.45
319,1747402058240,0.0499999999999999,1.925,0.05,204.71,18.405,-421.63
320,1747402058250,0.71,2.6,0.55,244.14,2.69,-442.81
321,1747402058260,0.71,2.6,0.55,244.14,2.69,-442.81
322,1747402058270,0.71,2.6,0.55,244.14,2.69,-442.81
323,1747402058280,0.74,2.41,0.82,132.2,4.88,-425.6
324,1747402058290,0.74,2.41,0.82,132.2,4.88,-425.6
325,1747402058300,0.74,2.41,0.82,132.2,4.88,-425.6
326,1747402058310,0.74,2.41,0.82,132.2,4.88,-425.6
327,1747402058320,0.38,1.91,0.47,129.15,25.51,-445.62
328,1747402058330,0.38,1.91,0.47,129.15,25.51,-445.62
329,1747402058340,0.38,1.91,0.47,129.15,25.51,-445.62
330,1747402058350,0.37,1.82,0.255,129.15,25.51,-445.62
331,1747402058360,0.36,1.73,0.04,182.5,76.48,-449.83
332,1747402058370,0.36,1.73,0.04,182.5,76.48,-449.83
333,1747402058380,0.36,1.73,0.04,182.5,76.48,-449.83
334,1747402058390,0.5249999999999999,1.995,0.275,218.265,99.55,-464.935
335,1747402058400,0.69,2.26,0.51,254.03,122.62,-480.04
336,1747402058410,0.69,2.26,0.51,254.03,122.62,-480.04
337,1747402058420,0.69,2.26,0.51,254.03,122.62,-480.04
338,1747402058430,1.85,2.09,1.26,254.03,122.62,-480.04
339,1747402058440,1.85,2.09,1.26,196.11,119.26,-410.4
340,1747402058450,1.85,2.09,1.26,196.11,119.26,-410.4
341,1747402058460,1.85,2.09,1.26,196.11,119.26,-410.4
342,1747402058470,3.67,1.36,2.14,196.11,119.26,-410.4
343,1747402058480,3.67,1.36,2.14,169.68,56.09,-310.3
344,1747402058490,3.67,1.36,2.14,169.68,56.09,-310.3
345,1747402058500,3.67,1.36,2.14,169.68,56.09,-310.3
346,1747402058510,4.98,1.83,3.24,41.44,-35.77,-211.24
347,1747402058520,4.98,1.83,3.24,41.44,-35.77,-211.24
348,1747402058530,4.98,1.83,3.24,41.44,-35.77,-211.24
349,1747402058540,4.98,1.83,3.24,41.44,-35.77,-211.24
350,1747402058550,5.76,2.86,1.92,-70.19,-152.47,175.78
351,1747402058560,5.76,2.86,1.92,-70.19,-152.47,175.78
352,1747402058570,5.76,2.86,1.92,-70.19,-152.47,175.78
353,1747402058580,4.575,2.43,1.7,-78.85499999999999,-4.974999999999994,216.795
354,1747402058590,3.39,2.0,1.48,-87.52,142.52,257.81
355,1747402058600,3.39,2.0,1.48,-87.52,142.52,257.81
356,1747402058610,3.39,2.0,1.48,-87.52,142.52,257.81
357,1747402058620,2.38,1.91,1.49,-131.925,114.32,267.915
358,1747402058630,1.37,1.82,1.5,-176.33,86.12,278.02
359,1747402058640,1.37,1.82,1.5,-176.33,86.12,278.02
360,1747402058650,1.37,1.82,1.5,-176.33,86.12,278.02
361,1747402058660,0.92,1.6,0.67,-255.07,-46.63,366.15
362,1747402058670,0.92,1.6,0.67,-255.07,-46.63,366.15
363,1747402058680,0.92,1.6,0.67,-255.07,-46.63,366.15
364,1747402058690,0.92,1.6,0.67,-255.07,-46.63,366.15
365,1747402058700,0.37,1.83,0.38,-284.3,-12.7,391.97
366,1747402058710,0.37,1.83,0.38,-284.3,-12.7,391.97
367,1747402058720,0.37,1.83,0.38,-284.3,-12.7,391.97
368,1747402058730,0.37,1.83,0.38,-284.3,-12.7,391.97
369,1747402058740,0.05,2.02,0.34,-298.46,-99.85,450.62
370,1747402058750,0.05,2.02,0.34,-298.46,-99.85,450.62
371,1747402058760,0.05,2.02,0.34,-298.46,-99.85,450.62
372,1747402058770,0.05,2.02,0.34,-298.46,-99.85,450.62
373,1747402058780,0.2,2.06,0.34,-260.68,-119.38,493.59
374,1747402058790,0.2,2.06,0.34,-260.68,-119.38,493.59
375,1747402058800,0.2,2.06,0.34,-260.68,-119.38,493.59
376,1747402058810,0.14,1.96,0.37,-272.55,-92.555,481.595
377,1747402058820,0.08,1.86,0.4,-284.42,-65.73,469.6
378,1747402058830,0.08,1.86,0.4,-284.42,-65.73,469.6
379,1747402058840,0.08,1.86,0.4,-284.42,-65.73,469.6
380,1747402058850,0.08,1.86,0.4,-284.42,-65.73,469.6
381,1747402058860,-0.16,1.09,0.22,-232.36,-114.14,405.58
382,1747402058870,-0.16,1.09,0.22,-232.36,-114.14,405.58
383,1747402058880,-0.16,1.09,0.22,-232.36,-114.14,405.58
384,1747402058890,-0.43,0.8150000000000001,-0.0649999999999999,-187.925,-125.245,350.495
385,1747402058900,-0.7,0.54,-0.35,-143.49,-136.35,295.41
386,1747402058910,-0.7,0.54,-0.35,-143.49,-136.35,295.41
387,1747402058920,-0.7,0.54,-0.35,-143.49,-136.35,295.41
388,1747402058930,-1.6149999999999998,0.335,-0.815,-102.23,-91.825,244.53500000000005
389,1747402058940,-2.53,0.13,-1.28,-60.97,-47.3,193.66
390,1747402058950,-2.53,0.13,-1.28,-60.97,-47.3,193.66
391,1747402058960,-2.53,0.13,-1.28,-60.97,-47.3,193.66
392,1747402058970,-3.58,0.46,-1.5,21.24,59.14,13.12
393,1747402058980,-3.58,0.46,-1.5,21.24,59.14,13.12
394,1747402058990,-3.58,0.46,-1.5,21.24,59.14,13.12
395,1747402059000,-3.6,-0.0649999999999999,-1.47,21.24,59.14,13.12
396,1747402059010,-3.62,-0.59,-1.44,27.71,112.67,-122.44
397,1747402059020,-3.62,-0.59,-1.44,27.71,112.67,-122.44
398,1747402059030,-3.62,-0.59,-1.44,27.71,112.67,-122.44
399,1747402059040,-3.62,-0.59,-1.44,27.71,112.67,-122.44
400,1747402059050,-2.31,0.05,-0.94,95.28,38.02,-259.89
401,1747402059060,-2.31,0.05,-0.94,95.28,38.02,-259.89
402,1747402059070,,,,,,
403,1747402059080,-1.47,0.52,-0.74,125.185,24.23,-329.345
404,1747402059090,-0.63,0.99,-0.54,155.09,10.44,-398.8
405,1747402059100,-0.63,0.99,-0.54,155.09,10.44,-398.8
406,1747402059110,-0.63,0.99,-0.54,155.09,10.44,-398.8
407,1747402059120,0.75,2.25,0.23,237.37,-18.98,-429.57
408,1747402059130,0.75,2.25,0.23,237.37,-18.98,-429.57
409,1747402059140,0.75,2.25,0.23,237.37,-18.98,-429.57
410,1747402059150,0.75,2.25,0.23,237.37,-18.98,-429.57
411,1747402059160,1.015,2.38,0.505,200.44,-18.525,-426.7
412,1747402059170,1.28,2.51,0.78,163.51,-18.07,-423.83
413,1747402059180,1.28,2.51,0.78,163.51,-18.07,-423.83
414,1747402059190,1.28,2.51,0.78,163.51,-18.07,-423.83
415,1747402059200,0.61,2.09,0.7,105.1,-16.91,-465.7
416,1747402059210,0.61,2.09,0.7,105.1,-16.91,-465.7
417,1747402059220,0.61,2.09,0.7,105.1,-16.91,-465.7
418,1747402059230,0.61,2.09,0.7,105.1,-16.91,-465.7
419,1747402059240,0.7,2.02,0.3,96.8,-1.95,-508.85
420,1747402059250,0.7,2.02,0.3,96.8,-1.95,-508.85
421,1747402059260,0.7,2.02,0.3,96.8,-1.95,-508.85
422,1747402059270,0.75,1.93,0.32,105.65,60.365,-494.02
423,1747402059280,0.8,1.84,0.34,114.5,122.68,-479.19
424,1747402059290,0.8,1.84,0.34,114.5,122.68,-479.19
425,1747402059300,0.8000000000000002,1.84,0.34,114.5,122.68,-479.19
426,1747402059310,2.01,1.43,1.18,119.81,102.72,-461.79
427,1747402059320,2.01,1.43,1.18,119.81,102.72,-461.79
428,1747402059330,2.01,1.43,1.18,119.81,102.72,-461.79
429,1747402059340,2.01,1.43,1.18,119.81,102.72,-461.79
430,1747402059350,4.31,1.15,1.73,40.53,54.81,-303.96
431,1747402059360,4.31,1.15,1.73,40.53,54.81,-303.96
432,1747402059370,4.31,1.15,1.73,40.53,54.81,-303.96
433,1747402059380,4.31,1.15,1.73,40.53,54.81,-303.96
434,1747402059390,5.63,1.77,1.95,-6.745000000000001,-16.265,-244.08
435,1747402059400,5.63,1.77,1.95,-54.02,-87.34,-184.2
436,1747402059410,5.63,1.77,1.95,-54.02,-87.34,-184.2
437,1747402059420,5.63,1.77,1.95,-54.02,-87.34,-184.2
438,1747402059430,5.88,2.39,0.96,-25.88,-94.42,107.12
439,1747402059440,5.88,2.39,0.96,-25.88,-94.42,107.12
440,1747402059450,5.88,2.39,0.96,-25.88,-94.42,107.12
441,1747402059460,5.88,2.39,0.96,-25.88,-94.42,107.12
442,1747402059470,3.23,1.72,0.96,-68.05,171.33,217.22
443,1747402059480,3.23,1.72,0.96,-68.05,171.33,217.22
444,1747402059490,3.23,1.72,0.96,-68.05,171.33,217.22
445,1747402059500,2.305,1.625,1.145,-90.85,96.895,256.1
446,1747402059510,1.38,1.53,1.33,-113.65,22.46,294.98
447,1747402059520,1.38,1.53,1.33,-113.65,22.46,294.98
448,1747402059530,1.38,1.53,1.33,-113.65,22.46,294.98
449,1747402059540,1.38,1.53,1.33,-113.65,22.46,294.98
450,1747402059550,0.91,1.64,0.75,-170.78,-132.63,392.33
451,1747402059560,0.91,1.64,0.75,-170.78,-132.63,392.33
452,1747402059570,0.91,1.64,0.75,-170.78,-132.63,392.33
453,1747402059580,0.38,1.81,0.38,-208.86,-146.3,454.16
454,1747402059590,0.38,1.81,0.38,-208.86,-146.3,454.16
455,1747402059600,0.38,1.81,0.38,-208.86,-146.3,454.16
456,1747402059610,0.38,1.81,0.38,-208.86,-146.3,454.16
457,1747402059620,0.21,1.9,0.38,-208.86,-146.3,454.16
458,1747402059630,0.21,1.9,0.38,-171.63,-126.16,467.1
459,1747402059640,0.21,1.9,0.38,-171.63,-126.16,467.1
460,1747402059650,0.21,1.9,0.38,-171.63,-126.16,467.1
461,1747402059660,0.07,2.04,0.58,-167.72,-102.05,508.3
462,1747402059670,0.07,2.04,0.58,-167.72,-102.05,508.3
463,1747402059680,0.07,2.04,0.58,-167.72,-102.05,508.3
464,1747402059690,0.07,2.04,0.58,-167.72,-102.05,508.3
465,1747402059700,0.01,1.7,0.51,-154.24,-90.03,506.41
466,1747402059710,0.01,1.7,0.51,-154.24,-90.03,506.41
467,1747402059720,0.01,1.7,0.51,-154.24,-90.03,506.41
468,1747402059730,-0.09,1.49,0.44,-138.005,-81.42,458.435
469,1747402059740,-0.19,1.28,0.37,-121.77,-72.81,410.46
470,1747402059750,-0.19,1.28,0.37,-121.77,-72.81,410.46
471,1747402059760,-0.19,1.28,0.37,-121.77,-72.81,410.46
472,1747402059770,-0.63,0.985,0.03,-100.07,-83.34,386.96
473,1747402059780,-1.07,0.69,-0.31,-78.37,-93.87,363.46
474,1747402059790,-1.07,0.69,-0.31,-78.37,-93.87,363.46
475,1747402059800,-1.07,0.69,-0.31,-78.37,-93.87,363.46
476,1747402059810,-3.26,-0.27,-1.28,-48.22,-51.575,304.805
477,1747402059820,-3.26,-0.27,-1.28,-18.07,-9.28,246.15
478,1747402059830,-3.26,-0.27,-1.28,-18.07,-9.28,246.15
479,1747402059840,-3.26,-0.27,-1.28,-18.07,-9.28,246.15
480,1747402059850,-4.13,-0.22,-1.5,-7.14,62.68,-19.35
481,1747402059860,-4.13,-0.22,-1.5,-7.14,62.68,-19.35
482,1747402059870,-4.13,-0.22,-1.5,-7.14,62.68,-19.35
483,1747402059880,-4.13,-0.22,-1.5,-7.14,62.68,-19.35
484,1747402059890,-3.42,-0.85,-1.58,16.36,87.95,-256.96
485,1747402059900,-3.42,-0.85,-1.58,16.36,87.95,-256.96
486,1747402059910,-3.42,-0.85,-1.58,16.36,87.95,-256.96
487,1747402059920,-2.69,-0.295,-1.32,62.165,77.695,-323.245
488,1747402059930,-1.96,0.26,-1.06,107.97,67.44,-389.53
489,1747402059940,-1.96,0.26,-1.06,107.97,67.44,-389.53
490,1747402059950,-1.96,0.26,-1.06,107.97,67.44,-389.53
491,1747402059960,-1.215,1.12,-0.645,173.89,45.105,-435.425
492,1747402059970,-0.47,1.98,-0.23,239.81,22.77,-481.32
493,1747402059980,-0.47,1.98,-0.23,239.81,22.77,-481.32
494,1747402059990,-0.47,1.98,-0.23,239.81,22.77,-481.32
495,1747402060000,0.74,2.52,0.34,209.96,-102.66,-442.87
496,1747402060010,0.74,2.52,0.34,209.96,-102.66,-442.87
497,1747402060020,0.74,2.52,0.34,209.96,-102.66,-442.87
498,1747402060030,0.74,2.52,0.34,209.96,-102.66,-442.87
499,1747402060040,0.8,2.32,0.25,157.35,-60.03,-462.035
500,1747402060050,0.8,2.32,0.25,104.74,-17.4,-481.2
501,1747402060060,0.8,2.32,0.25,104.74,-17.4,-481.2
502,1747402060070,0.8,2.32,0.25,104.74,-17.4,-481.2
503,1747402060080,0.7,2.25,0.48,67.75,84.11,-479.19
504,1747402060090,0.7,2.25,0.48,67.75,84.11,-479.19
505,1747402060100,0.7,2.25,0.48,67.75,84.11,-479.19
506,1747402060110,0.7,2.25,0.48,67.75,84.11,-479.19
507,1747402060120,0.44,1.85,0.48,114.56,84.59,-410.52
508,1747402060130,0.44,1.85,0.48,114.56,84.59,-410.52
509,1747402060140,0.44,1.85,0.48,114.56,84.59,-410.52
510,1747402060150,0.44,1.85,0.48,114.56,84.59,-410.52
511,1747402060160,0.78,1.8,0.64,111.69,55.11,-335.57
512,1747402060170,0.78,1.8,0.64,111.69,55.11,-335.57
513,1747402060180,0.78,1.8,0.64,111.69,55.11,-335.57
514,1747402060190,1.67,1.5,0.94,111.69,55.11,-335.57
515,1747402060200,1.67,1.5,0.94,65.25,170.04,-324.28
516,1747402060210,1.67,1.5,0.94,65.25,170.04,-324.28
517,1747402060220,1.67,1.5,0.94,65.25,170.04,-324.28
518,1747402060230,3.69,1.32,1.47,47.24,72.08,-272.09
519,1747402060240,3.69,1.32,1.47,47.24,72.08,-272.09
520,1747402060250,3.69,1.32,1.47,47.24,72.08,-272.09
521,1747402060260,3.69,1.32,1.47,47.24,72.08,-272.09
522,1747402060270,4.305,1.51,1.845,59.875,96.71,-188.625
523,1747402060280,4.92,1.7,2.22,72.51,121.34,-105.16
524,1747402060290,4.92,1.7,2.22,72.51,121.34,-105.16
525,1747402060300,4.92,1.7,2.22,72.51,121.34,-105.16
526,1747402060310,5.1,2.66,2.89,-87.4,-28.87,-26.98
527,1747402060320,5.1,2.66,2.89,-87.4,-28.87,-26.98
528,1747402060330,5.1,2.66,2.89,-87.4,-28.87,-26.98
529,1747402060340,5.1,2.66,2.89,-87.4,-28.87,-26.98
530,1747402060350,3.96,2.02,1.43,-119.87,-71.17,254.09
531,1747402060360,3.96,2.02,1.43,-119.87,-71.17,254.09
532,1747402060370,3.96,2.02,1.43,-119.87,-71.17,254.09
533,1747402060380,2.855,1.915,1.34,-119.87,-71.17,254.09
534,1747402060390,1.75,1.81,1.25,-188.84,31.56,324.34
535,1747402060400,1.75,1.81,1.25,-188.84,31.56,324.34
536,1747402060410,1.75,1.81,1.25,-188.84,31.56,324.34
537,1747402060420,,,,,,
538,1747402060430,0.49,1.79,0.77,-224.91,-149.23,436.52
539,1747402060440,0.49,1.79,0.77,-224.91,-149.23,436.52
540,1747402060450,0.49,1.79,0.77,-224.91,-149.23,436.52
541,1747402060460,0.3349999999999999,1.95,0.6,-209.35,-154.20499999999998,474.67
542,1747402060470,0.18,2.11,0.43,-193.79,-159.18,512.82
543,1747402060480,0.18,2.11,0.43,-193.79,-159.18,512.82
544,1747402060490,0.18,2.11,0.43,-193.79,-159.18,512.82
545,1747402060500,0.065,2.155,0.475,-205.78,-128.935,506.045
546,1747402060510,-0.05,2.2,0.52,-217.77,-98.69,499.27
547,1747402060520,-0.05,2.2,0.52,-217.77,-98.69,499.27
548,1747402060530,-0.05,2.2,0.52,-217.77,-98.69,499.27
549,1747402060540,-0.07,2.06,0.51,-230.04,-75.74,482.48
550,1747402060550,-0.07,2.06,0.51,-230.04,-75.74,482.48
551,1747402060560,-0.07,2.06,0.51,-230.04,-75.74,482.48
552,1747402060570,-0.07,2.06,0.51,-230.04,-75.74,482.48
553,1747402060580,-0.09,1.8,0.47,-194.4,-96.74,462.16
554,1747402060590,-0.09,1.8,0.47,-194.4,-96.74,462.16
555,1747402060600,-0.09,1.8,0.47,-194.4,-96.74,462.16
556,1747402060610,-0.09,1.8,0.47,-194.4,-96.74,462.16
557,1747402060620,-0.48,0.64,-0.08,-106.32,-188.6,411.13
558,1747402060630,-0.48,0.64,-0.08,-106.32,-188.6,411.13
559,1747402060640,-0.48,0.64,-0.08,-106.32,-188.6,411.13
560,1747402060650,-0.685,0.435,-0.4049999999999999,-54.38,-169.615,332.58
561,1747402060660,-0.89,0.23,-0.73,-2.44,-150.63,254.03
562,1747402060670,-0.89,0.23,-0.73,-2.44,-150.63,254.03
563,1747402060680,-0.89,0.23,-0.73,-2.44,-150.63,254.03
564,1747402060690,-3.08,-0.14,-1.21,-43.52,109.74,134.03
565,1747402060700,-3.08,-0.14,-1.21,-43.52,109.74,134.03
566,1747402060710,-3.08,-0.14,-1.21,-43.52,109.74,134.03
567,1747402060720,-3.08,-0.14,-1.21,-43.52,109.74,134.03
568,1747402060730,-3.285,-0.29,-1.24,-20.325000000000003,91.34,54.045
569,1747402060740,-3.49,-0.44,-1.27,2.87,72.94,-25.94
570,1747402060750,-3.49,-0.44,-1.27,2.87,72.94,-25.94
571,1747402060760,-3.49,-0.44,-1.27,2.87,72.94,-25.94
572,1747402060770,-3.19,-0.97,-1.23,-7.109999999999999,83.19,-99.55
573,1747402060780,-3.19,-0.97,-1.23,-17.09,93.44,-173.16
574,1747402060790,-3.19,-0.97,-1.23,-17.09,93.44,-173.16
575,1747402060800,-2.7266666666666666,-0.7666666666666666,-1.1666666666666667,-17.09,93.44,-173.16
576,1747402060810,-1.8,-0.36,-1.04,38.94,95.89,-347.84
577,1747402060820,-1.8,-0.36,-1.04,38.94,95.89,-347.84
578,1747402060830,-1.8,-0.36,-1.04,38.94,95.89,-347.84
579,1747402060840,-1.8,-0.36,-1.04,38.94,95.89,-347.84
580,1747402060850,-0.77,1.03,-0.5,177.86,146.0,-443.91
581,1747402060860,-0.77,1.03,-0.5,177.86,146.0,-443.91
582,1747402060870,-0.77,1.03,-0.5,177.86,146.0,-443.91
583,1747402060880,-0.125,1.95,0.01,256.44,35.92,-421.965
584,1747402060890,0.52,2.87,0.52,335.02,-74.16,-400.02
585,1747402060900,0.52,2.87,0.52,335.02,-74.16,-400.02
586,1747402060910,0.52,2.87,0.52,335.02,-74.16,-400.02
587,1747402060920,0.6950000000000001,2.585,0.5700000000000001,228.76,-25.94,-413.295
588,1747402060930,0.87,2.3,0.62,122.5,22.28,-426.57
589,1747402060940,0.87,2.3,0.62,122.5,22.28,-426.57
590,1747402060950,0.87,2.3,0.62,122.5,22.28,-426.57
591,1747402060960,0.4,1.8,0.53,129.82,68.12,-430.48
592,1747402060970,0.4,1.8,0.53,129.82,68.12,-430.48
593,1747402060980,0.4,1.8,0.53,129.82,68.12,-430.48
594,1747402060990,0.4000000000000001,1.8,0.53,129.82,68.12,-430.48
595,1747402061000,0.43,1.6,0.4,150.27,102.78,-417.97
596,1747402061010,0.43,1.6,0.4,150.27,102.78,-417.97
597,1747402061020,0.43,1.6,0.4,150.27,102.78,-417.97
598,1747402061030,0.43,1.6,0.4,150.27,102.78,-417.97
599,1747402061040,0.46,1.59,0.51,184.33,177.55,-406.74
600,1747402061050,0.46,1.59,0.51,184.33,177.55,-406.74
601,1747402061060,0.46,1.59,0.51,184.33,177.55,-406.74
602,1747402061070,1.145,1.54,0.915,184.33,177.55,-406.74
603,1747402061080,1.83,1.49,1.32,148.07,154.11,-342.59
604,1747402061090,1.83,1.49,1.32,148.07,154.11,-342.59
605,1747402061100,1.83,1.49,1.32,148.07,154.11,-342.59
606,1747402061110,1.83,1.49,1.32,148.07,154.11,-342.59
607,1747402061120,2.7350000000000003,1.51,1.71,139.89,146.3,-318.085
608,1747402061130,3.64,1.53,2.1,131.71,138.49,-293.58
609,1747402061140,3.64,1.53,2.1,131.71,138.49,-293.58
610,1747402061150,4.44,2.105,2.545,100.675,11.690000000000005,-202.15
611,1747402061160,5.24,2.68,2.99,69.64,-115.11,-110.72
612,1747402061170,5.24,2.68,2.99,69.64,-115.11,-110.72
613,1747402061180,5.24,2.68,2.99,69.64,-115.11,-110.72
614,1747402061190,4.93,2.84,1.87,69.64,-115.11,-110.72
615,1747402061200,4.93,2.84,1.87,-32.78,-37.84,160.83
616,1747402061210,4.93,2.84,1.87,-32.78,-37.84,160.83
617,1747402061220,4.93,2.84,1.87,-32.78,-37.84,160.83
618,1747402061230,2.44,1.9,1.59,-110.41,112.61,265.32
619,1747402061240,2.44,1.9,1.59,-110.41,112.61,265.32
620,1747402061250,2.44,1.9,1.59,-110.41,112.61,265.32
621,1747402061260,2.44,1.9,1.59,-110.41,112.61,265.32
622,1747402061270,1.725,1.6949999999999998,1.49,-150.54,48.37,296.45
623,1747402061280,1.01,1.49,1.39,-190.67,-15.87,327.58
624,1747402061290,1.01,1.49,1.39,-190.67,-15.87,327.58
625,1747402061300,1.01,1.49,1.39,-190.67,-15.87,327.58
626,1747402061310,0.6,1.49,0.63,-211.485,-73.12,363.835
627,1747402061320,0.6,1.49,0.63,-232.3,-130.37,400.09
628,1747402061330,0.6,1.49,0.63,-232.3,-130.37,400.09
629,1747402061340,0.6,1.49,0.63,-232.3,-130.37,400.09
630,1747402061350,-0.05,1.6,0.4,-243.35,-109.99,452.45
631,1747402061360,-0.05,1.6,0.4,-243.35,-109.99,452.45
632,1747402061370,-0.05,1.6,0.4,-243.35,-109.99,452.45
633,1747402061380,-0.05,1.6,0.4,-243.35,-109.99,452.45
634,1747402061390,-0.15,1.66,0.48,-233.89,-141.97,460.935
635,1747402061400,-0.15,1.66,0.48,-224.43,-173.95,469.42
636,1747402061410,-0.15,1.66,0.48,-224.43,-173.95,469.42
637,1747402061420,0.0,1.69,0.47,-209.87,-149.14,478.09
638,1747402061430,0.15,1.72,0.46,-195.31,-124.33,486.76
639,1747402061440,0.15,1.72,0.46,-195.31,-124.33,486.76
640,1747402061450,0.15,1.72,0.46,-195.31,-124.33,486.76
641,1747402061460,0.135,1.585,0.435,-202.145,-100.495,469.12
642,1747402061470,0.12,1.45,0.41,-208.98,-76.66,451.48
643,1747402061480,0.12,1.45,0.41,-208.98,-76.66,451.48
644,1747402061490,0.12,1.45,0.41,-208.98,-76.66,451.48
645,1747402061500,-0.02,0.92,0.1,-155.64,-30.03,390.5
646,1747402061510,-0.02,0.92,0.1,-155.64,-30.03,390.5
647,1747402061520,-0.02,0.92,0.1,-155.64,-30.03,390.5
648,1747402061530,-0.715,0.5800000000000001,-0.23,-155.64,-30.03,390.5
649,1747402061540,-1.41,0.24,-0.56,-119.26,-44.19,279.79
650,1747402061550,-1.41,0.24,-0.56,-119.26,-44.19,279.79
651,1747402061560,-1.41,0.24,-0.56,-119.26,-44.19,279.79
652,1747402061570,-1.41,0.24,-0.56,-119.26,-44.19,279.79
653,1747402061580,-3.02,-0.11,-1.82,-60.85,35.89,179.26
654,1747402061590,-3.02,-0.11,-1.82,-60.85,35.89,179.26
655,1747402061600,-3.02,-0.11,-1.82,-60.85,35.89,179.26
656,1747402061610,-3.375,-0.325,-1.975,-41.655,80.445,55.725
657,1747402061620,-3.73,-0.54,-2.13,-22.46,125.0,-67.81
658,1747402061630,-3.73,-0.54,-2.13,-22.46,125.0,-67.81
659,1747402061640,-3.73,-0.54,-2.13,-22.46,125.0,-67.81
660,1747402061650,-3.375,-0.6799999999999999,-1.955,-22.46,125.0,-67.81
661,1747402061660,-3.02,-0.82,-1.78,72.63,101.68,-230.41
662,1747402061670,-3.02,-0.82,-1.78,72.63,101.68,-230.41
663,1747402061680,-3.02,-0.82,-1.78,72.63,101.68,-230.41
664,1747402061690,-3.02,-0.82,-1.78,72.63,101.68,-230.41
665,1747402061700,-1.57,0.35,-1.09,191.83,57.01,-344.24
666,1747402061710,-1.57,0.35,-1.09,191.83,57.01,-344.24
667,1747402061720,-1.57,0.35,-1.09,191.83,57.01,-344.24
668,1747402061730,-0.15,1.78,-0.36,237.485,69.885,-391.815
669,1747402061740,-0.15,1.78,-0.36,283.14,82.76,-439.39
670,1747402061750,-0.15,1.78,-0.36,283.14,82.76,-439.39
671,1747402061760,-0.15,1.78,-0.36,283.14,82.76,-439.39
672,1747402061770,0.86,2.85,0.62,317.69,37.11,-378.6
673,1747402061780,0.86,2.85,0.62,317.69,37.11,-378.6
674,1747402061790,,,,,,
675,1747402061800,,,,,,
676,1747402061810,0.7,2.32,0.62,224.18,35.22,-361.08
677,1747402061820,0.7,2.32,0.62,224.18,35.22,-361.08
678,1747402061830,0.7,2.32,0.62,224.18,35.22,-361.08
679,1747402061840,0.55,2.01,0.53,224.18,35.22,-361.08
680,1747402061850,0.55,2.01,0.53,212.16,34.79,-353.88
681,1747402061860,0.55,2.01,0.53,212.16,34.79,-353.88
682,1747402061870,0.55,2.01,0.53,212.16,34.79,-353.88
683,1747402061880,0.44,1.81,0.45,207.185,37.02,-351.805
684,1747402061890,0.33,1.61,0.37,202.21,39.25,-349.73
685,1747402061900,0.33,1.61,0.37,202.21,39.25,-349.73
686,1747402061910,0.33,1.61,0.37,202.21,39.25,-349.73
687,1747402061920,0.74,1.87,0.65,236.88,67.2,-367.0
688,1747402061930,0.74,1.87,0.65,236.88,67.2,-367.0
689,1747402061940,0.74,1.87,0.65,236.88,67.2,-367.0
690,1747402061950,0.74,1.87,0.65,236.88,67.2,-367.0
691,1747402061960,1.6549999999999998,1.485,1.055,185.855,47.24,-349.85
692,1747402061970,2.57,1.1,1.46,134.83,27.28,-332.7
693,1747402061980,2.57,1.1,1.46,134.83,27.28,-332.7
694,1747402061990,2.57,1.1,1.46,134.83,27.28,-332.7
695,1747402062000,4.28,0.55,2.47,144.04500000000002,52.395,-275.265
696,1747402062010,4.28,0.55,2.47,153.26,77.51,-217.83
697,1747402062020,4.28,0.55,2.47,153.26,77.51,-217.83
698,1747402062030,5.29,1.645,2.51,153.26,77.51,-217.83
699,1747402062040,6.3,2.74,2.55,-38.15,-154.66,-107.73
700,1747402062050,6.3,2.74,2.55,-38.15,-154.66,-107.73
701,1747402062060,6.3,2.74,2.55,-38.15,-154.66,-107.73
702,1747402062070,5.49,2.7,2.28,-38.15,-154.66,-107.73
703,1747402062080,4.68,2.66,2.01,0.18,55.6,260.86
704,1747402062090,4.68,2.66,2.01,0.18,55.6,260.86
705,1747402062100,4.68,2.66,2.01,0.18,55.6,260.86
706,1747402062110,1.63,1.81,1.94,0.18,55.6,260.86
707,1747402062120,1.63,1.81,1.94,-136.72,174.19,254.64
708,1747402062130,1.63,1.81,1.94,-136.72,174.19,254.64
709,1747402062140,1.63,1.81,1.94,-136.72,174.19,254.64
710,1747402062150,1.33,1.53,1.585,-183.745,67.9,291.17
711,1747402062160,1.03,1.25,1.23,-230.77,-38.39,327.7
712,1747402062170,1.03,1.25,1.23,-230.77,-38.39,327.7
713,1747402062180,1.03,1.25,1.23,-230.77,-38.39,327.7
714,1747402062190,0.46,1.58,0.5,-306.95,-46.57,325.38
715,1747402062200,0.46,1.58,0.5,-306.95,-46.57,325.38
716,1747402062210,0.46,1.58,0.5,-306.95,-46.57,325.38
717,1747402062220,0.46,1.58,0.5,-306.95,-46.57,325.38
718,1747402062230,-0.04,1.72,0.26,-308.35,-106.08,370.48
719,1747402062240,-0.04,1.72,0.26,-308.35,-106.08,370.48
720,1747402062250,-0.04,1.72,0.26,-308.35,-106.08,370.48
721,1747402062260,-0.035,1.73,0.28,-308.35,-106.08,370.48
722,1747402062270,-0.03,1.74,0.3,-241.94,-181.7,460.21
723,1747402062280,-0.03,1.74,0.3,-241.94,-181.7,460.21
724,1747402062290,-0.03,1.74,0.3,-241.94,-181.7,460.21
725,1747402062300,0.115,1.765,0.305,-234.525,-157.195,473.42
726,1747402062310,0.26,1.79,0.31,-227.11,-132.69,486.63
727,1747402062320,0.26,1.79,0.31,-227.11,-132.69,486.63
728,1747402062330,0.275,1.615,0.275,-218.415,-116.605,473.63
729,1747402062340,0.29,1.44,0.24,-209.72,-100.52,460.63
730,1747402062350,0.29,1.44,0.24,-209.72,-100.52,460.63
731,1747402062360,0.29,1.44,0.24,-209.72,-100.52,460.63
732,1747402062370,0.07,1.08,0.07,-132.26,-132.81,407.59
733,1747402062380,0.07,1.08,0.07,-132.26,-132.81,407.59
734,1747402062390,0.07,1.08,0.07,-132.26,-132.81,407.59
735,1747402062400,0.07,1.08,0.07,-132.26,-132.81,407.59
736,1747402062410,-0.405,0.765,-0.3249999999999999,-101.56,-140.47,366.27
737,1747402062420,-0.88,0.45,-0.72,-70.86,-148.13,324.95
738,1747402062430,-0.88,0.45,-0.72,-70.86,-148.13,324.95
739,1747402062440,-2.335,0.09,-1.075,-70.86,-148.13,324.95
740,1747402062450,-3.79,-0.27,-1.43,-9.58,104.19,157.65
741,1747402062460,-3.79,-0.27,-1.43,-9.58,104.19,157.65
742,1747402062470,-3.79,-0.27,-1.43,-9.58,104.19,157.65
743,1747402062480,-3.955,-0.53,-1.545,-9.58,104.19,157.65
744,1747402062490,-4.12,-0.79,-1.66,-12.51,139.95,-79.9
745,1747402062500,-4.12,-0.79,-1.66,-12.51,139.95,-79.9
746,1747402062510,-4.12,-0.79,-1.66,-12.51,139.95,-79.9
747,1747402062520,-4.12,-0.79,-1.66,-12.51,139.95,-79.9
748,1747402062530,-3.27,-0.72,-1.28,64.15,101.75,-241.52
749,1747402062540,-3.27,-0.72,-1.28,64.15,101.75,-241.52
750,1747402062550,-3.27,-0.72,-1.28,64.15,101.75,-241.52
751,1747402062560,-2.395,-0.0949999999999999,-1.04,96.465,66.53,-301.975
752,1747402062570,-1.52,0.53,-0.8,128.78,31.31,-362.43
753,1747402062580,-1.52,0.53,-0.8,128.78,31.31,-362.43
754,1747402062590,-1.52,0.53,-0.8,128.78,31.31,-362.43
755,1747402062600,-0.06,1.86,-0.26,199.71,10.25,-407.9
756,1747402062610,-0.06,1.86,-0.26,199.71,10.25,-407.9
757,1747402062620,-0.06,1.86,-0.26,199.71,10.25,-407.9
758,1747402062630,-0.06,1.86,-0.26,199.71,10.25,-407.9
759,1747402062640,1.18,2.64,0.31,202.915,-14.59,-406.83
760,1747402062650,1.18,2.64,0.31,206.12,-39.43,-405.76
761,1747402062660,1.18,2.64,0.31,206.12,-39.43,-405.76
762,1747402062670,1.18,2.64,0.31,206.12,-39.43,-405.76
763,1747402062680,0.84,2.0,0.35,130.98,32.65,-383.18
764,1747402062690,0.84,2.0,0.35,130.98,32.65,-383.18
765,1747402062700,0.84,2.0,0.35,130.98,32.65,-383.18
766,1747402062710,0.84,2.0,0.35,130.98,32.65,-383.18
767,1747402062720,0.48,1.62,0.31,144.78,13.67,-364.32
768,1747402062730,0.48,1.62,0.31,144.78,13.67,-364.32
769,1747402062740,0.48,1.62,0.31,144.78,13.67,-364.32
770,1747402062750,0.505,1.5750000000000002,0.2299999999999999,156.925,28.93,-368.44
771,1747402062760,0.53,1.53,0.15,169.07,44.19,-372.56
772,1747402062770,0.53,1.53,0.15,169.07,44.19,-372.56
773,1747402062780,0.53,1.53,0.15,169.07,44.19,-372.56
774,1747402062790,0.97,1.84,0.75,199.04,135.74,-414.67
775,1747402062800,0.97,1.84,0.75,199.04,135.74,-414.67
776,1747402062810,0.97,1.84,0.75,199.04,135.74,-414.67
777,1747402062820,0.97,1.84,0.75,199.04,135.74,-414.67
778,1747402062830,1.7599999999999998,1.3050000000000002,1.13,160.435,139.16000000000005,-387.055
779,1747402062840,2.55,0.77,1.51,121.83,142.58,-359.44
780,1747402062850,2.55,0.77,1.51,121.83,142.58,-359.44
781,1747402062860,2.55,0.77,1.51,121.83,142.58,-359.44
782,1747402062870,4.12,0.91,2.8,128.85,148.38,-302.37
783,1747402062880,4.12,0.91,2.8,128.85,148.38,-302.37
784,1747402062890,4.12,0.91,2.8,128.85,148.38,-302.37
785,1747402062900,4.12,0.91,2.8,128.85,148.38,-302.37
786,1747402062910,5.95,2.58,2.58,-30.33,-138.31,-120.3
787,1747402062920,5.95,2.58,2.58,-30.33,-138.31,-120.3
788,1747402062930,5.95,2.58,2.58,-30.33,-138.31,-120.3
789,1747402062940,5.95,2.58,2.58,-30.33,-138.31,-120.3
790,1747402062950,,,,,,
791,1747402062960,4.64,2.6,2.11,-1.4,57.19,207.4
792,1747402062970,4.64,2.6,2.11,-1.4,57.19,207.4
793,1747402062980,4.64,2.6,2.11,-1.4,57.19,207.4
794,1747402062990,1.54,1.49,1.82,-162.72,197.75,193.6
795,1747402063000,1.54,1.49,1.82,-162.72,197.75,193.6
796,1747402063010,1.54,1.49,1.82,-162.72,197.75,193.6
797,1747402063020,1.165,1.335,1.48,-194.915,110.565,219.57
798,1747402063030,0.79,1.18,1.14,-227.11,23.38,245.54
799,1747402063040,0.79,1.18,1.14,-227.11,23.38,245.54
800,1747402063050,0.79,1.18,1.14,-227.11,23.38,245.54
801,1747402063060,0.6,1.2999999999999998,0.7949999999999999,-269.225,18.89,248.195
802,1747402063070,0.41,1.42,0.45,-311.34,14.4,250.85
803,1747402063080,0.41,1.42,0.45,-311.34,14.4,250.85
804,1747402063090,0.41,1.42,0.45,-311.34,14.4,250.85
805,1747402063100,-0.2,1.56,0.42,-363.34,-50.35,272.34
806,1747402063110,-0.2,1.56,0.42,-363.34,-50.35,272.34
807,1747402063120,-0.2,1.56,0.42,-363.34,-50.35,272.34
808,1747402063130,-0.2,1.56,0.42,-363.34,-50.35,272.34
809,1747402063140,-0.17,1.58,0.3,-343.26,-152.53,309.81
810,1747402063150,-0.17,1.58,0.3,-343.26,-152.53,309.81
811,1747402063160,-0.17,1.58,0.3,-343.26,-152.53,309.81
812,1747402063170,-0.17,1.58,0.3,-343.26,-152.53,309.81
813,1747402063180,-0.12,1.72,0.46,-313.66,-145.57,365.17
814,1747402063190,-0.12,1.72,0.46,-313.66,-145.57,365.17
815,1747402063200,-0.12,1.72,0.46,-313.66,-145.57,365.17
816,1747402063210,-0.12,1.72,0.46,-313.66,-145.57,365.17
817,1747402063220,-0.04,1.39,0.35,-285.71,-202.45,385.07
818,1747402063230,-0.04,1.39,0.35,-285.71,-202.45,385.07
819,1747402063240,-0.04,1.39,0.35,-285.71,-202.45,385.07
820,1747402063250,-0.07,1.08,0.0799999999999999,-232.15,-221.25,394.41
821,1747402063260,-0.1,0.77,-0.19,-178.59,-240.05,403.75
822,1747402063270,-0.1,0.77,-0.19,-178.59,-240.05,403.75
823,1747402063280,-0.1,0.77,-0.19,-178.59,-240.05,403.75
824,1747402063290,-1.39,-0.54,-0.95,-178.59,-240.05,403.75
825,1747402063300,-1.39,-0.54,-0.95,-92.22,-314.82,407.53
826,1747402063310,-1.39,-0.54,-0.95,-92.22,-314.82,407.53
827,1747402063320,-1.39,-0.54,-0.95,-92.22,-314.82,407.53
828,1747402063330,-1.39,-0.54,-0.95,-92.22,-314.82,407.53
829,1747402063340,-3.57,-0.1,-1.28,36.01,-156.56,222.35
830,1747402063350,-3.57,-0.1,-1.28,36.01,-156.56,222.35
831,1747402063360,-3.57,-0.1,-1.28,36.01,-156.56,222.35
832,1747402063370,-3.57,-0.1,-1.28,36.01,-156.56,222.35
833,1747402063380,-4.19,-0.81,-0.98,-8.36,30.46,-34.91
834,1747402063390,-4.19,-0.81,-0.98,-8.36,30.46,-34.91
835,1747402063400,-4.19,-0.81,-0.98,-8.36,30.46,-34.91
836,1747402063410,-3.2,-0.37,-0.69,51.45,-44.37,-207.64
837,1747402063420,-3.2,-0.37,-0.69,51.45,-44.37,-207.64
838,1747402063430,-3.2,-0.37,-0.69,51.45,-44.37,-207.64
839,1747402063440,-3.2,-0.37,-0.69,51.45,-44.37,-207.64
840,1747402063450,-1.32,0.75,-0.55,53.16,-85.39,-325.56
841,1747402063460,-1.32,0.75,-0.55,53.16,-85.39,-325.56
842,1747402063470,-1.32,0.75,-0.55,53.16,-85.39,-325.56
843,1747402063480,-1.32,0.75,-0.55,53.16,-85.39,-325.56
844,1747402063490,0.27,1.67,-0.38,55.97,-53.59,-422.24
845,1747402063500,0.27,1.67,-0.38,55.97,-53.59,-422.24
846,1747402063510,0.27,1.67,-0.38,55.97,-53.59,-422.24
847,1747402063520,0.92,1.98,-0.195,54.505,-69.705,-397.705
848,1747402063530,1.57,2.29,-0.01,53.04,-85.82,-373.17
849,1747402063540,1.57,2.29,-0.01,53.04,-85.82,-373.17
850,1747402063550,1.57,2.29,-0.01,53.04,-85.82,-373.17
851,1747402063560,1.31,1.935,0.065,33.57,-36.38,-359.95500000000004
852,1747402063570,1.05,1.58,0.14,14.1,13.06,-346.74
853,1747402063580,1.05,1.58,0.14,14.1,13.06,-346.74
854,1747402063590,1.05,1.58,0.14,14.1,13.06,-346.74
855,1747402063600,0.67,1.27,0.2,36.56,31.01,-353.94
856,1747402063610,0.67,1.27,0.2,36.56,31.01,-353.94
857,1747402063620,0.67,1.27,0.2,36.56,31.01,-353.94
858,1747402063630,0.67,1.27,0.2,36.56,31.01,-353.94
859,1747402063640,0.685,1.285,0.155,53.13,39.31,-360.715
860,1747402063650,0.7,1.3,0.11,69.7,47.61,-367.49
861,1747402063660,0.7,1.3,0.11,69.7,47.61,-367.49
862,1747402063670,0.745,1.365,0.195,69.7,47.61,-367.49
863,1747402063680,0.79,1.43,0.28,77.94,125.67,-459.47
864,1747402063690,0.79,1.43,0.28,77.94,125.67,-459.47
865,1747402063700,0.79,1.43,0.28,77.94,125.67,-459.47
866,1747402063710,1.495,1.335,0.485,77.94,125.67,-459.47
867,1747402063720,2.2,1.24,0.69,88.5,141.24,-457.46
868,1747402063730,2.2,1.24,0.69,88.5,141.24,-457.46
869,1747402063740,2.2,1.24,0.69,88.5,141.24,-457.46
870,1747402063750,3.42,0.7949999999999999,1.005,78.37,90.975,-400.24
871,1747402063760,4.64,0.35,1.32,68.24,40.71,-343.02
872,1747402063770,4.64,0.35,1.32,68.24,40.71,-343.02
873,1747402063780,4.64,0.35,1.32,68.24,40.71,-343.02
874,1747402063790,6.66,0.71,1.53,6.41,1.89,-218.93
875,1747402063800,6.66,0.71,1.53,6.41,1.89,-218.93
876,1747402063810,6.66,0.71,1.53,6.41,1.89,-218.93
877,1747402063820,6.66,0.71,1.53,6.41,1.89,-218.93
878,1747402063830,6.66,0.71,1.53,6.41,1.89,-218.93
879,1747402063840,5.77,2.08,1.36,57.01,127.08,127.75
880,1747402063850,5.77,2.08,1.36,57.01,127.08,127.75
881,1747402063860,5.77,2.08,1.36,57.01,127.08,127.75
882,1747402063870,2.32,1.58,1.69,-52.61,143.13,250.49
883,1747402063880,2.32,1.58,1.69,-52.61,143.13,250.49
884,1747402063890,2.32,1.58,1.69,-52.61,143.13,250.49
885,1747402063900,1.3,1.31,1.15,-52.61,143.13,250.49
886,1747402063910,1.3,1.31,1.15,-137.15,-13.98,341.25
887,1747402063920,1.3,1.31,1.15,-137.15,-13.98,341.25
888,1747402063930,1.3,1.31,1.15,-137.15,-13.98,341.25
889,1747402063940,1.3,1.31,1.15,-137.15,-13.98,341.25
890,1747402063950,0.76,1.31,0.44,-181.76,-48.46,389.59
891,1747402063960,0.76,1.31,0.44,-181.76,-48.46,389.59
892,1747402063970,0.76,1.31,0.44,-181.76,-48.46,389.59
893,1747402063980,0.76,1.31,0.44,-181.76,-48.46,389.59
894,1747402063990,0.22,1.5,0.16,-235.17,-52.49,350.22
895,1747402064000,0.22,1.5,0.16,-235.17,-52.49,350.22
896,1747402064010,0.22,1.5,0.16,-235.17,-52.49,350.22
897,1747402064020,0.11,1.57,0.23,-243.1,-48.16,406.07
898,1747402064030,0.11,1.57,0.23,-243.1,-48.16,406.07
899,1747402064040,0.11,1.57,0.23,-243.1,-48.16,406.07
900,1747402064050,0.11,1.57,0.23,-243.1,-48.16,406.07
901,1747402064060,0.17,1.65,0.31,-209.53,-59.665,435.795
902,1747402064070,0.17,1.65,0.31,-175.96,-71.17,465.52
903,1747402064080,0.17,1.65,0.31,-175.96,-71.17,465.52
904,1747402064090,0.17,1.65,0.31,-175.96,-71.17,465.52
905,1747402064100,0.17,1.37,0.16,-202.76,-28.93,437.07
906,1747402064110,0.17,1.37,0.16,-202.76,-28.93,437.07
907,1747402064120,0.17,1.37,0.16,-202.76,-28.93,437.07
908,1747402064130,0.0466666666666666,1.18,0.1433333333333333,-180.80666666666664,-61.09666666666667,426.0233333333333
909,1747402064140,-0.2,0.8,0.11,-136.9,-125.43,403.93
910,1747402064150,-0.2,0.8,0.11,-136.9,-125.43,403.93
911,1747402064160,-0.2,0.8,0.11,-136.9,-125.43,403.93
912,1747402064170,-0.5,0.595,-0.21,-136.9,-125.43,403.93
913,1747402064180,-0.8,0.39,-0.53,-76.42,-141.48,335.88
914,1747402064190,-0.8,0.39,-0.53,-76.42,-141.48,335.88
915,1747402064200,-0.8,0.39,-0.53,-76.42,-141.48,335.88
916,1747402064210,-2.005,0.145,-0.915,-86.67,-50.38499999999999,262.88
917,1747402064220,-3.21,-0.1,-1.3,-96.92,40.71,189.88
918,1747402064230,-3.21,-0.1,-1.3,-96.92,40.71,189.88
919,1747402064240,-3.21,-0.1,-1.3,-96.92,40.71,189.88
920,1747402064250,-3.21,-0.1,-1.3,-96.92,40.71,189.88
921,1747402064260,-3.89,-0.66,-1.5,-18.68,82.82,29.24
922,1747402064270,-3.89,-0.66,-1.5,-18.68,82.82,29.24
923,1747402064280,-3.89,-0.66,-1.5,-18.68,82.82,29.24
924,1747402064290,-3.87,-1.14,-1.37,59.02,60.49,-188.54
925,1747402064300,-3.87,-1.14,-1.37,59.02,60.49,-188.54
926,1747402064310,-3.87,-1.14,-1.37,59.02,60.49,-188.54
927,1747402064320,-3.87,-1.14,-1.37,59.02,60.49,-188.54
928,1747402064330,-2.22,0.09,-0.96,194.03,12.33,-311.34
929,1747402064340,-2.22,0.09,-0.96,194.03,12.33,-311.34
930,1747402064350,-2.22,0.09,-0.96,194.03,12.33,-311.34
931,1747402064360,-1.425,1.235,-0.605,222.78,-4.944999999999999,-334.26
932,1747402064370,-0.63,2.38,-0.25,251.53,-22.22,-357.18
933,1747402064380,-0.63,2.38,-0.25,251.53,-22.22,-357.18
934,1747402064390,-0.63,2.38,-0.25,251.53,-22.22,-357.18
935,1747402064400,0.5700000000000001,2.85,0.0249999999999999,226.105,-76.05,-373.84
936,1747402064410,1.77,3.32,0.3,200.68,-129.88,-390.5
937,1747402064420,1.77,3.32,0.3,200.68,-129.88,-390.5
938,1747402064430,1.77,3.32,0.3,200.68,-129.88,-390.5
939,1747402064440,1.86,2.41,0.39,43.4,-68.79,-368.84
940,1747402064450,1.86,2.41,0.39,43.4,-68.79,-368.84
941,1747402064460,1.86,2.41,0.39,43.4,-68.79,-368.84
942,1747402064470,1.86,2.41,0.39,43.4,-68.79,-368.84
943,1747402064480,1.28,1.46,0.19,39.18,-49.01,-340.03
944,1747402064490,1.28,1.46,0.19,39.18,-49.01,-340.03
945,1747402064500,1.28,1.46,0.19,39.18,-49.01,-340.03
946,1747402064510,,,,,,
947,1747402064520,1.12,1.12,0.01,64.21,-10.01,-356.75
948,1747402064530,1.12,1.12,0.01,64.21,-10.01,-356.75
949,1747402064540,1.12,1.12,0.01,64.21,-10.01,-356.75
950,1747402064550,1.12,1.12,0.01,64.21,-10.01,-356.75
951,1747402064560,1.33,1.01,0.16,78.19,38.27,-400.63
952,1747402064570,1.33,1.01,0.16,78.19,38.27,-400.63
953,1747402064580,1.33,1.01,0.16,78.19,38.27,-400.63
954,1747402064590,2.19,0.42,0.08,83.01,42.6,-373.66
955,1747402064600,2.19,0.42,0.08,83.01,42.6,-373.66
956,1747402064610,2.19,0.42,0.08,83.01,42.6,-373.66
957,1747402064620,3.215,-0.23,0.52,134.615,77.88,-353.76
958,1747402064630,4.24,-0.88,0.96,186.22,113.16,-333.86
959,1747402064640,4.24,-0.88,0.96,186.22,113.16,-333.86
960,1747402064650,4.24,-0.88,0.96,186.22,113.16,-333.86
961,1747402064660,4.87,-0.26,1.77,129.365,75.655,-289.64
962,1747402064670,5.5,0.36,2.58,72.51,38.15,-245.42
963,1747402064680,5.5,0.36,2.58,72.51,38.15,-245.42
964,1747402064690,5.5,0.36,2.58,72.51,38.15,-245.42
965,1747402064700,6.82,1.17,1.2,22.675000000000004,-71.5,-19.559999999999988
966,1747402064710,6.82,1.17,1.2,-27.16,-181.15,206.3
967,1747402064720,6.82,1.17,1.2,-27.16,-181.15,206.3
968,1747402064730,6.82,1.17,1.2,-27.16,-181.15,206.3
969,1747402064740,3.9,0.72,0.83,-2.69,91.98,318.12
970,1747402064750,3.9,0.72,0.83,-2.69,91.98,318.12
971,1747402064760,3.9,0.72,0.83,-2.69,91.98,318.12
972,1747402064770,2.865,0.91,0.76,-39.065,94.45,357.73
973,1747402064780,1.83,1.1,0.69,-75.44,96.92,397.34
974,1747402064790,1.83,1.1,0.69,-75.44,96.92,397.34
975,1747402064800,1.83,1.1,0.69,-75.44,96.92,397.34
976,1747402064810,1.34,1.205,0.415,-113.68,81.725,420.26
977,1747402064820,0.85,1.31,0.14,-151.92,66.53,443.18
978,1747402064830,0.85,1.31,0.14,-151.92,66.53,443.18
979,1747402064840,0.85,1.31,0.14,-151.92,66.53,443.18
980,1747402064850,0.29,1.48,-0.03,-170.26,74.34,427.49
981,1747402064860,0.29,1.48,-0.03,-188.6,82.15,411.8
982,1747402064870,0.29,1.48,-0.03,-188.6,82.15,411.8
983,1747402064880,0.29,1.48,-0.03,-188.6,82.15,411.8
984,1747402064890,0.3,1.475,-0.015,-175.72,73.85,415.13
985,1747402064900,0.31,1.47,0.0,-162.84,65.55,418.46
986,1747402064910,0.31,1.47,0.0,-162.84,65.55,418.46
987,1747402064920,0.31,1.47,0.0,-162.84,65.55,418.46
988,1747402064930,0.48,1.4,0.12,-160.71,7.26,429.69
989,1747402064940,0.48,1.4,0.12,-160.71,7.26,429.69
990,1747402064950,0.48,1.4,0.12,-160.71,7.26,429.69
991,1747402064960,0.48,1.4,0.12,-160.71,7.26,429.69
992,1747402064970,0.46,0.97,0.11,-129.03,1.04,417.3
993,1747402064980,0.46,0.97,0.11,-129.03,1.04,417.3
994,1747402064990,0.46,0.97,0.11,-129.03,1.04,417.3
995,1747402065000,0.46,0.97,0.11,-129.03,1.04,417.3
996,1747402065010,0.06,0.65,0.06,-99.79,-46.39,304.38
997,1747402065020,0.06,0.65,0.06,-99.79,-46.39,304.38
998,1747402065030,0.06,0.65,0.06,-99.79,-46.39,304.38
999,1747402065040,0.06,0.65,0.06,-99.79,-46.39,304.38
1000,1747402065050,-0.9,0.13,-0.47,-51.33,-72.94,219.06
