id,timestamp,acc_x,acc_y,acc_z,gyro_x,gyro_y,gyro_z
0,1747401524790,0.45,-0.26,-1.01,-13.37,19.9,-1.89
1,1747401524800,,,,,,
2,1747401524810,0.51,-0.24,-1.03,-11.23,-8.85,3.23
3,1747401524820,0.51,-0.24,-1.03,-11.23,-8.85,3.23
4,1747401524830,,,,,,
5,1747401524840,0.51,-0.24,-1.03,-11.23,-8.85,3.23
6,1747401524850,0.58,-0.28,-1.04,28.87,-8.79,-5.92
7,1747401524860,0.58,-0.28,-1.04,28.87,-8.79,-5.92
8,1747401524870,0.58,-0.28,-1.04,28.87,-8.79,-5.92
9,1747401524880,,,,,,
10,1747401524890,0.63,-0.26,-1.01,78.61,-6.16,3.3
11,1747401524900,0.63,-0.26,-1.01,78.61,-6.16,3.3
12,1747401524910,,,,,,
13,1747401524920,0.63,-0.26,-1.01,78.61,-6.16,3.3
14,1747401524930,0.6599999999999999,-0.215,-0.98,42.725,-14.125,3.91
15,1747401524940,0.69,-0.17,-0.95,6.84,-22.09,4.52
16,1747401524950,,,,,,
17,1747401524960,0.6599999999999999,-0.26,-0.915,19.045,-1.25,7.145
18,1747401524970,0.63,-0.35,-0.88,31.25,19.59,9.77
19,1747401524980,0.63,-0.35,-0.88,31.25,19.59,9.77
20,1747401524990,0.63,-0.35,-0.88,31.25,19.59,9.77
21,1747401525000,0.68,-0.12,-0.8,11.415,20.05,-0.0300000000000002
22,1747401525010,0.68,-0.12,-0.8,-8.42,20.51,-9.83
23,1747401525020,0.68,-0.12,-0.8,-8.42,20.51,-9.83
24,1747401525030,,,,,,
25,1747401525040,0.68,-0.12,-0.8,-8.42,20.51,-9.83
26,1747401525050,0.61,-0.29,-0.85,-12.7,43.52,-22.77
27,1747401525060,0.61,-0.29,-0.85,-12.7,43.52,-22.77
28,1747401525070,0.56,-0.275,-0.86,-6.165,30.425,-4.12
29,1747401525080,0.51,-0.26,-0.87,0.37,17.33,14.53
30,1747401525090,0.51,-0.26,-0.87,0.37,17.33,14.53
31,1747401525100,0.51,-0.26,-0.87,0.37,17.33,14.53
32,1747401525110,0.51,-0.26,-0.87,0.37,17.33,14.53
33,1747401525120,0.4,-0.24,-0.82,-10.07,12.39,35.22
34,1747401525130,0.4,-0.24,-0.82,-10.07,12.39,35.22
35,1747401525140,0.4,-0.24,-0.82,-10.07,12.39,35.22
36,1747401525150,0.4,-0.24,-0.82,-10.07,12.39,35.22
37,1747401525160,0.38,-0.28,-0.75,19.71,8.48,16.6
38,1747401525170,0.38,-0.28,-0.75,19.71,8.48,16.6
39,1747401525180,0.38,-0.28,-0.75,19.71,8.48,16.6
40,1747401525190,0.38,-0.28,-0.75,19.71,8.48,16.6
41,1747401525200,0.23,-0.3,-0.76,20.63,24.41,16.24
42,1747401525210,0.23,-0.3,-0.76,20.63,24.41,16.24
43,1747401525220,0.23,-0.3,-0.76,20.63,24.41,16.24
44,1747401525230,0.27,-0.34,-0.75,3.97,-6.23,3.23
45,1747401525240,0.27,-0.34,-0.75,3.97,-6.23,3.23
46,1747401525250,0.27,-0.34,-0.75,3.97,-6.23,3.23
47,1747401525260,0.27,-0.34,-0.75,3.97,-6.23,3.23
48,1747401525270,0.31,-0.48,-0.74,5.55,-11.72,-22.58
49,1747401525280,0.31,-0.48,-0.74,5.55,-11.72,-22.58
50,1747401525290,0.31,-0.48,-0.74,5.55,-11.72,-22.58
51,1747401525300,0.265,-0.4599999999999999,-0.76,14.035,-0.5500000000000007,-16.174999999999997
52,1747401525310,0.22,-0.44,-0.78,22.52,10.62,-9.77
53,1747401525320,0.22,-0.44,-0.78,22.52,10.62,-9.77
54,1747401525330,0.22,-0.44,-0.78,22.52,10.62,-9.77
55,1747401525340,0.27,-0.53,-0.79,22.52,10.62,-9.77
56,1747401525350,0.27,-0.53,-0.79,0.06,2.2,-20.87
57,1747401525360,0.27,-0.53,-0.79,0.06,2.2,-20.87
58,1747401525370,0.27,-0.53,-0.79,0.06,2.2,-20.87
59,1747401525380,0.25,-0.64,-0.78,-1.04,16.48,-11.17
60,1747401525390,0.25,-0.64,-0.78,-1.04,16.48,-11.17
61,1747401525400,0.25,-0.64,-0.78,-1.04,16.48,-11.17
62,1747401525410,0.25,-0.64,-0.78,-1.04,16.48,-11.17
63,1747401525420,0.195,-0.665,-0.885,3.905,23.56,-15.075
64,1747401525430,0.14,-0.69,-0.99,8.85,30.64,-18.98
65,1747401525440,0.14,-0.69,-0.99,8.85,30.64,-18.98
66,1747401525450,0.14,-0.69,-0.99,8.85,30.64,-18.98
67,1747401525460,0.15,-0.75,-1.02,11.47,26.61,-19.41
68,1747401525470,0.15,-0.75,-1.02,11.47,26.61,-19.41
69,1747401525480,0.15,-0.75,-1.02,11.47,26.61,-19.41
70,1747401525490,0.15,-0.75,-1.02,11.47,26.61,-19.41
71,1747401525500,0.04,-0.82,-1.15,13.18,13.31,-4.09
72,1747401525510,0.04,-0.82,-1.15,13.18,13.31,-4.09
73,1747401525520,0.04,-0.82,-1.15,13.18,13.31,-4.09
74,1747401525530,0.04,-0.82,-1.15,13.18,13.31,-4.09
75,1747401525540,-0.07,-0.72,-1.12,26.73,18.8,2.69
76,1747401525550,-0.07,-0.72,-1.12,26.73,18.8,2.69
77,1747401525560,-0.07,-0.72,-1.12,26.73,18.8,2.69
78,1747401525570,-0.065,-0.735,-1.1150000000000002,26.73,18.8,2.69
79,1747401525580,-0.06,-0.75,-1.11,-10.19,5.31,8.73
80,1747401525590,-0.06,-0.75,-1.11,-10.19,5.31,8.73
81,1747401525600,-0.06,-0.75,-1.11,-10.19,5.31,8.73
82,1747401525610,-0.02,-0.79,-1.13,-1.83,2.69,22.03
83,1747401525620,-0.02,-0.79,-1.13,-1.83,2.69,22.03
84,1747401525630,-0.02,-0.79,-1.13,-1.83,2.69,22.03
85,1747401525640,-0.02,-0.79,-1.13,-1.83,2.69,22.03
86,1747401525650,0.07,-0.7,-1.08,-1.83,2.69,22.03
87,1747401525660,0.07,-0.7,-1.08,-13.67,-23.86,14.1
88,1747401525670,0.07,-0.7,-1.08,-13.67,-23.86,14.1
89,1747401525680,0.07,-0.7,-1.08,-13.67,-23.86,14.1
90,1747401525690,0.09,-0.77,-1.0,-13.67,-23.86,14.1
91,1747401525700,0.09,-0.77,-1.0,-22.34,-28.32,26.25
92,1747401525710,0.09,-0.77,-1.0,-22.34,-28.32,26.25
93,1747401525720,0.09,-0.77,-1.0,-22.34,-28.32,26.25
94,1747401525730,0.11,-0.6699999999999999,-0.96,-16.57,-20.17,24.11
95,1747401525740,0.13,-0.57,-0.92,-10.8,-12.02,21.97
96,1747401525750,0.13,-0.57,-0.92,-10.8,-12.02,21.97
97,1747401525760,0.13,-0.57,-0.92,-10.8,-12.02,21.97
98,1747401525770,0.12,-0.66,-0.92,-23.985,-14.98,17.73
99,1747401525780,0.12,-0.66,-0.92,-37.17,-17.94,13.49
100,1747401525790,0.12,-0.66,-0.92,-37.17,-17.94,13.49
101,1747401525800,0.1,-0.615,-0.93,-37.17,-17.94,13.49
102,1747401525810,0.08,-0.57,-0.94,-25.39,-5.19,39.25
103,1747401525820,0.08,-0.57,-0.94,-25.39,-5.19,39.25
104,1747401525830,0.08,-0.57,-0.94,-25.39,-5.19,39.25
105,1747401525840,0.08,-0.57,-0.94,-25.39,-5.19,39.25
106,1747401525850,0.23,-0.43,-0.91,-29.3,-18.8,-2.2
107,1747401525860,0.23,-0.43,-0.91,-29.3,-18.8,-2.2
108,1747401525870,0.23,-0.43,-0.91,-29.3,-18.8,-2.2
109,1747401525880,0.25,-0.64,-0.92,-59.27,-23.25,8.73
110,1747401525890,0.25,-0.64,-0.92,-59.27,-23.25,8.73
111,1747401525900,0.25,-0.64,-0.92,-59.27,-23.25,8.73
112,1747401525910,0.25,-0.64,-0.92,-59.27,-23.25,8.73
113,1747401525920,0.21,-0.32,-0.94,-19.96,-12.45,58.35
114,1747401525930,0.21,-0.32,-0.94,-19.96,-12.45,58.35
115,1747401525940,0.21,-0.32,-0.94,-19.96,-12.45,58.35
116,1747401525950,0.21,-0.32,-0.94,-19.96,-12.45,58.35
117,1747401525960,0.23,-0.28,-0.85,-23.165,-23.895000000000003,25.575
118,1747401525970,0.23,-0.28,-0.85,-26.37,-35.34,-7.2
119,1747401525980,0.23,-0.28,-0.85,-26.37,-35.34,-7.2
120,1747401525990,0.23,-0.28,-0.85,-26.37,-35.34,-7.2
121,1747401526000,0.21,-0.48,-0.84,-25.39,-32.165,7.755000000000001
122,1747401526010,0.21,-0.48,-0.84,-24.41,-28.99,22.71
123,1747401526020,0.21,-0.48,-0.84,-24.41,-28.99,22.71
124,1747401526030,0.21,-0.48,-0.84,-24.41,-28.99,22.71
125,1747401526040,0.23,-0.23,-0.79,-16.6,-28.2,46.81
126,1747401526050,0.23,-0.23,-0.79,-16.6,-28.2,46.81
127,1747401526060,0.23,-0.23,-0.79,-16.6,-28.2,46.81
128,1747401526070,0.23,-0.23,-0.79,-16.6,-28.2,46.81
129,1747401526080,0.22,-0.17,-0.75,-13.18,-14.83,20.94
130,1747401526090,0.22,-0.17,-0.75,-13.18,-14.83,20.94
131,1747401526100,0.22,-0.17,-0.75,-13.18,-14.83,20.94
132,1747401526110,0.29,-0.32,-0.66,-13.18,-14.83,20.94
133,1747401526120,0.29,-0.32,-0.66,-15.63,4.15,37.9
134,1747401526130,0.29,-0.32,-0.66,-15.63,4.15,37.9
135,1747401526140,0.29,-0.32,-0.66,-15.63,4.15,37.9
136,1747401526150,0.29,-0.32,-0.66,-15.63,4.15,37.9
137,1747401526160,0.43,-0.1,-0.71,30.4,51.39,25.39
138,1747401526170,0.43,-0.1,-0.71,30.4,51.39,25.39
139,1747401526180,0.43,-0.1,-0.71,30.4,51.39,25.39
140,1747401526190,0.4,-0.05,-0.82,-17.88,18.86,-18.92
141,1747401526200,0.4,-0.05,-0.82,-17.88,18.86,-18.92
142,1747401526210,0.4,-0.05,-0.82,-17.88,18.86,-18.92
143,1747401526220,0.4,-0.05,-0.82,-17.88,18.86,-18.92
144,1747401526230,0.6,-0.23,-0.86,-43.15,-4.09,-47.55
145,1747401526240,0.6,-0.23,-0.86,-43.15,-4.09,-47.55
146,1747401526250,0.6,-0.23,-0.86,-43.15,-4.09,-47.55
147,1747401526260,0.6,-0.23,-0.86,-43.15,-4.09,-47.55
148,1747401526270,0.63,-0.26,-0.94,0.43,18.25,-57.5
149,1747401526280,0.63,-0.26,-0.94,0.43,18.25,-57.5
150,1747401526290,0.63,-0.26,-0.94,0.43,18.25,-57.5
151,1747401526300,0.64,-0.26,-0.98,-17.24,3.51,-48.955
152,1747401526310,0.65,-0.26,-1.02,-34.91,-11.23,-40.41
153,1747401526320,0.65,-0.26,-1.02,-34.91,-11.23,-40.41
154,1747401526330,0.65,-0.26,-1.02,-34.91,-11.23,-40.41
155,1747401526340,0.65,-0.26,-1.02,-34.91,-11.23,-40.41
156,1747401526350,0.6,-0.25,-0.93,10.93,14.22,-41.99
157,1747401526360,0.6,-0.25,-0.93,10.93,14.22,-41.99
158,1747401526370,0.6,-0.25,-0.93,10.93,14.22,-41.99
159,1747401526380,0.625,-0.19,-0.96,5.925,13.15,-42.02
160,1747401526390,0.65,-0.13,-0.99,0.92,12.08,-42.05
161,1747401526400,0.65,-0.13,-0.99,0.92,12.08,-42.05
162,1747401526410,0.65,-0.13,-0.99,0.92,12.08,-42.05
163,1747401526420,0.68,-0.16,-1.05,-14.435,13.335,-37.075
164,1747401526430,0.68,-0.16,-1.05,-29.79,14.59,-32.1
165,1747401526440,0.68,-0.16,-1.05,-29.79,14.59,-32.1
166,1747401526450,0.68,-0.16,-1.05,-29.79,14.59,-32.1
167,1747401526460,0.69,-0.22,-1.16,-19.47,9.89,-12.88
168,1747401526470,0.69,-0.22,-1.16,-19.47,9.89,-12.88
169,1747401526480,0.69,-0.22,-1.16,-19.47,9.89,-12.88
170,1747401526490,0.69,-0.22,-1.16,-19.47,9.89,-12.88
171,1747401526500,0.75,-0.09,-1.11,29.17,8.24,-15.5
172,1747401526510,0.75,-0.09,-1.11,29.17,8.24,-15.5
173,1747401526520,0.75,-0.09,-1.11,29.17,8.24,-15.5
174,1747401526530,0.75,-0.09,-1.11,29.17,8.24,-15.5
175,1747401526540,0.73,-0.07,-0.97,0.73,5.68,-17.27
176,1747401526550,0.73,-0.07,-0.97,0.73,5.68,-17.27
177,1747401526560,0.73,-0.07,-0.97,0.73,5.68,-17.27
178,1747401526570,0.73,-0.07,-0.97,0.73,5.68,-17.27
179,1747401526580,0.77,-0.19,-0.94,-40.16,-14.22,4.46
180,1747401526590,0.77,-0.19,-0.94,-40.16,-14.22,4.46
181,1747401526600,0.77,-0.19,-0.94,-40.16,-14.22,4.46
182,1747401526610,0.7050000000000001,-0.185,-0.92,-19.315,-9.0,21.09
183,1747401526620,0.64,-0.18,-0.9,1.53,-3.78,37.72
184,1747401526630,0.64,-0.18,-0.9,1.53,-3.78,37.72
185,1747401526640,0.64,-0.18,-0.9,1.53,-3.78,37.72
186,1747401526650,0.64,-0.18,-0.9,1.53,-3.78,37.72
187,1747401526660,0.63,-0.12,-0.92,0.92,-19.47,34.36
188,1747401526670,0.63,-0.12,-0.92,0.92,-19.47,34.36
189,1747401526680,0.63,-0.12,-0.92,0.92,-19.47,34.36
190,1747401526690,0.56,-0.1699999999999999,-0.92,15.9,-17.09,33.295
191,1747401526700,0.49,-0.22,-0.92,30.88,-14.71,32.23
192,1747401526710,0.49,-0.22,-0.92,30.88,-14.71,32.23
193,1747401526720,0.49,-0.22,-0.92,30.88,-14.71,32.23
194,1747401526730,0.47,-0.15,-0.89,27.83,-20.39,19.65
195,1747401526740,0.47,-0.15,-0.89,27.83,-20.39,19.65
196,1747401526750,0.47,-0.15,-0.89,27.83,-20.39,19.65
197,1747401526760,0.4399999999999999,-0.2249999999999999,-0.905,27.83,-20.39,19.65
198,1747401526770,0.41,-0.3,-0.92,39.49,-9.58,-2.81
199,1747401526780,0.41,-0.3,-0.92,39.49,-9.58,-2.81
200,1747401526790,0.41,-0.3,-0.92,39.49,-9.58,-2.81
201,1747401526800,0.41,-0.305,-0.895,23.130000000000003,-23.56,6.01
202,1747401526810,0.41,-0.31,-0.87,6.77,-37.54,14.83
203,1747401526820,0.41,-0.31,-0.87,6.77,-37.54,14.83
204,1747401526830,0.41,-0.31,-0.87,6.77,-37.54,14.83
205,1747401526840,0.41,-0.31,-0.87,6.77,-37.54,14.83
206,1747401526850,0.32,-0.32,-0.85,29.11,-16.85,-6.96
207,1747401526860,0.32,-0.32,-0.85,29.11,-16.85,-6.96
208,1747401526870,0.32,-0.32,-0.85,29.11,-16.85,-6.96
209,1747401526880,0.325,-0.35,-0.8200000000000001,19.375,-23.745,-2.2
210,1747401526890,0.33,-0.38,-0.79,9.64,-30.64,2.56
211,1747401526900,0.33,-0.38,-0.79,9.64,-30.64,2.56
212,1747401526910,0.33,-0.38,-0.79,9.64,-30.64,2.56
213,1747401526920,0.16,-0.38,-0.81,20.475,-16.085,-6.535
214,1747401526930,0.16,-0.38,-0.81,31.31,-1.53,-15.63
215,1747401526940,0.16,-0.38,-0.81,31.31,-1.53,-15.63
216,1747401526950,0.16,-0.38,-0.81,31.31,-1.53,-15.63
217,1747401526960,0.19,-0.43,-0.805,17.21,-7.814999999999999,-15.995
218,1747401526970,0.22,-0.48,-0.8,3.11,-14.1,-16.36
219,1747401526980,0.22,-0.48,-0.8,3.11,-14.1,-16.36
220,1747401526990,0.185,-0.485,-0.815,19.99,-1.0999999999999996,-15.655
221,1747401527000,0.15,-0.49,-0.83,36.87,11.9,-14.95
222,1747401527010,0.15,-0.49,-0.83,36.87,11.9,-14.95
223,1747401527020,0.15,-0.49,-0.83,36.87,11.9,-14.95
224,1747401527030,0.15,-0.49,-0.83,36.87,11.9,-14.95
225,1747401527040,0.09,-0.51,-0.82,8.48,-3.48,2.75
226,1747401527050,0.09,-0.51,-0.82,8.48,-3.48,2.75
227,1747401527060,0.09,-0.51,-0.82,8.48,-3.48,2.75
228,1747401527070,0.04,-0.46,-0.84,8.48,-3.48,2.75
229,1747401527080,0.04,-0.46,-0.84,30.33,11.47,-10.8
230,1747401527090,0.04,-0.46,-0.84,30.33,11.47,-10.8
231,1747401527100,0.04,-0.46,-0.84,30.33,11.47,-10.8
232,1747401527110,0.03,-0.51,-0.84,19.47,-2.32,-10.68
233,1747401527120,0.03,-0.51,-0.84,19.47,-2.32,-10.68
234,1747401527130,0.03,-0.51,-0.84,19.47,-2.32,-10.68
235,1747401527140,0.03,-0.51,-0.84,19.47,-2.32,-10.68
236,1747401527150,-0.02,-0.47,-0.86,48.1,6.9,-46.81
237,1747401527160,-0.02,-0.47,-0.86,48.1,6.9,-46.81
238,1747401527170,-0.02,-0.47,-0.86,48.1,6.9,-46.81
239,1747401527180,-0.02,-0.47,-0.86,48.1,6.9,-46.81
240,1747401527190,0.0,-0.64,-0.85,30.27,-13.43,-82.95
241,1747401527200,0.0,-0.64,-0.85,30.27,-13.43,-82.95
242,1747401527210,0.0,-0.64,-0.85,30.27,-13.43,-82.95
243,1747401527220,0.0,-0.64,-0.85,30.27,-13.43,-82.95
244,1747401527230,-0.09,-0.83,-0.87,36.32,35.1,-39.43
245,1747401527240,-0.09,-0.83,-0.87,36.32,35.1,-39.43
246,1747401527250,-0.09,-0.83,-0.87,36.32,35.1,-39.43
247,1747401527260,-0.145,-0.7749999999999999,-0.93,36.32,35.1,-39.43
248,1747401527270,-0.2,-0.72,-0.99,39.31,51.45,-51.33
249,1747401527280,,,,,,
250,1747401527290,-0.2,-0.72,-0.99,39.31,51.45,-51.33
251,1747401527300,-0.145,-0.825,-0.995,10.895,31.4,-40.465
252,1747401527310,-0.09,-0.93,-1.0,-17.52,11.35,-29.6
253,1747401527320,-0.09,-0.93,-1.0,-17.52,11.35,-29.6
254,1747401527330,-0.09,-0.93,-1.0,-17.52,11.35,-29.6
255,1747401527340,-0.06,-0.935,-1.03,-7.234999999999999,17.975,-8.575000000000001
256,1747401527350,-0.03,-0.94,-1.06,3.05,24.6,12.45
257,1747401527360,-0.03,-0.94,-1.06,3.05,24.6,12.45
258,1747401527370,-0.03,-0.94,-1.06,3.05,24.6,12.45
259,1747401527380,0.04,-0.9,-1.16,-7.785,14.62,16.905
260,1747401527390,0.04,-0.9,-1.16,-18.62,4.64,21.36
261,1747401527400,0.04,-0.9,-1.16,-18.62,4.64,21.36
262,1747401527410,0.04,-0.9,-1.16,-18.62,4.64,21.36
263,1747401527420,0.06,-1.03,-1.15,-39.73,-40.89,64.7
264,1747401527430,0.06,-1.03,-1.15,-39.73,-40.89,64.7
265,1747401527440,0.06,-1.03,-1.15,-39.73,-40.89,64.7
266,1747401527450,0.06,-1.03,-1.15,-39.73,-40.89,64.7
267,1747401527460,0.0,-0.77,-0.99,-10.25,-36.87,77.51
268,1747401527470,0.0,-0.77,-0.99,-10.25,-36.87,77.51
269,1747401527480,0.0,-0.77,-0.99,-10.25,-36.87,77.51
270,1747401527490,0.015,-0.7250000000000001,-0.94,-21.725,-30.825,64.055
271,1747401527500,0.03,-0.68,-0.89,-33.2,-24.78,50.6
272,1747401527510,0.03,-0.68,-0.89,-33.2,-24.78,50.6
273,1747401527520,0.03,-0.68,-0.89,-33.2,-24.78,50.6
274,1747401527530,-0.015,-0.76,-0.895,-32.5,-20.265,70.65
275,1747401527540,-0.06,-0.84,-0.9,-31.8,-15.75,90.7
276,1747401527550,-0.06,-0.84,-0.9,-31.8,-15.75,90.7
277,1747401527560,-0.06,-0.84,-0.9,-31.8,-15.75,90.7
278,1747401527570,-0.04,-0.6599999999999999,-0.9,-24.935,-8.7,87.955
279,1747401527580,-0.02,-0.48,-0.9,-18.07,-1.65,85.21
280,1747401527590,-0.02,-0.48,-0.9,-18.07,-1.65,85.21
281,1747401527600,-0.02,-0.48,-0.9,-18.07,-1.65,85.21
282,1747401527610,-0.06,-0.56,-0.9,-53.59,-14.77,32.78
283,1747401527620,-0.06,-0.56,-0.9,-53.59,-14.77,32.78
284,1747401527630,-0.06,-0.56,-0.9,-53.59,-14.77,32.78
285,1747401527640,-0.06,-0.56,-0.9,-53.59,-14.77,32.78
286,1747401527650,-0.08,-0.6,-0.88,-31.8,-24.11,73.36
287,1747401527660,-0.08,-0.6,-0.88,-31.8,-24.11,73.36
288,1747401527670,-0.08,-0.6,-0.88,-31.8,-24.11,73.36
289,1747401527680,-0.0049999999999999,-0.4499999999999999,-0.81,-31.8,-24.11,73.36
290,1747401527690,0.07,-0.3,-0.74,-41.93,-15.93,57.92
291,1747401527700,0.07,-0.3,-0.74,-41.93,-15.93,57.92
292,1747401527710,0.07,-0.3,-0.74,-41.93,-15.93,57.92
293,1747401527720,0.06,-0.3399999999999999,-0.78,-36.71,6.93,28.5
294,1747401527730,0.05,-0.38,-0.82,-31.49,29.79,-0.92
295,1747401527740,0.05,-0.38,-0.82,-31.49,29.79,-0.92
296,1747401527750,0.05,-0.38,-0.82,-31.49,29.79,-0.92
297,1747401527760,0.09,-0.345,-0.845,-45.56,14.345,18.585
298,1747401527770,0.13,-0.31,-0.87,-59.63,-1.1,38.09
299,1747401527780,0.13,-0.31,-0.87,-59.63,-1.1,38.09
300,1747401527790,0.13,-0.31,-0.87,-59.63,-1.1,38.09
301,1747401527800,0.15,-0.16,-0.81,-50.75,9.155,11.965000000000002
302,1747401527810,0.15,-0.16,-0.81,-41.87,19.41,-14.16
303,1747401527820,0.15,-0.16,-0.81,-41.87,19.41,-14.16
304,1747401527830,0.15,-0.16,-0.81,-41.87,19.41,-14.16
305,1747401527840,0.16,-0.24,-0.86,-70.37,10.31,-9.34
306,1747401527850,0.16,-0.24,-0.86,-70.37,10.31,-9.34
307,1747401527860,0.16,-0.24,-0.86,-70.37,10.31,-9.34
308,1747401527870,0.16,-0.24,-0.86,-70.37,10.31,-9.34
309,1747401527880,0.21,-0.19,-0.82,-65.0,5.31,-8.12
310,1747401527890,0.21,-0.19,-0.82,-65.0,5.31,-8.12
311,1747401527900,0.21,-0.19,-0.82,-65.0,5.31,-8.12
312,1747401527910,0.21,-0.19,-0.82,-65.0,5.31,-8.12
313,1747401527920,0.24,-0.1,-0.86,-57.07,15.5,-22.22
314,1747401527930,0.24,-0.1,-0.86,-57.07,15.5,-22.22
315,1747401527940,0.24,-0.1,-0.86,-57.07,15.5,-22.22
316,1747401527950,0.29,-0.105,-0.87,-57.07,15.5,-22.22
317,1747401527960,0.34,-0.11,-0.88,-51.09,1.04,-18.25
318,1747401527970,0.34,-0.11,-0.88,-51.09,1.04,-18.25
319,1747401527980,0.34,-0.11,-0.88,-51.09,1.04,-18.25
320,1747401527990,0.375,-0.1,-0.87,-34.335,3.02,-28.41
321,1747401528000,0.41,-0.09,-0.86,-17.58,5.0,-38.57
322,1747401528010,0.41,-0.09,-0.86,-17.58,5.0,-38.57
323,1747401528020,0.41,-0.09,-0.86,-17.58,5.0,-38.57
324,1747401528030,0.48,-0.11,-0.87,-17.58,5.0,-38.57
325,1747401528040,0.48,-0.11,-0.87,-17.15,8.97,-28.02
326,1747401528050,0.48,-0.11,-0.87,-17.15,8.97,-28.02
327,1747401528060,0.48,-0.11,-0.87,-17.15,8.97,-28.02
328,1747401528070,0.5,-0.13,-0.9,-1.89,23.32,-39.06
329,1747401528080,0.5,-0.13,-0.9,-1.89,23.32,-39.06
330,1747401528090,0.5,-0.13,-0.9,-1.89,23.32,-39.06
331,1747401528100,0.5,-0.13,-0.9,-1.89,23.32,-39.06
332,1747401528110,0.52,-0.16,-1.01,21.97,34.79,-39.06
333,1747401528120,0.52,-0.16,-1.01,21.97,34.79,-39.06
334,1747401528130,0.52,-0.16,-1.01,21.97,34.79,-39.06
335,1747401528140,0.52,-0.16,-1.01,21.97,34.79,-39.06
336,1747401528150,0.52,-0.03,-1.05,6.65,22.28,-34.55
337,1747401528160,0.52,-0.03,-1.05,6.65,22.28,-34.55
338,1747401528170,0.52,-0.03,-1.05,6.65,22.28,-34.55
339,1747401528180,0.52,-0.03,-1.05,6.65,22.28,-34.55
340,1747401528190,0.58,-0.1,-1.09,5.13,24.54,-31.01
341,1747401528200,0.58,-0.1,-1.09,5.13,24.54,-31.01
342,1747401528210,0.58,-0.1,-1.09,5.13,24.54,-31.01
343,1747401528220,0.62,-0.08,-1.1,7.109999999999999,24.08,-25.425
344,1747401528230,0.66,-0.06,-1.11,9.09,23.62,-19.84
345,1747401528240,0.66,-0.06,-1.11,9.09,23.62,-19.84
346,1747401528250,0.66,-0.06,-1.11,9.09,23.62,-19.84
347,1747401528260,0.67,-0.1,-1.155,8.85,20.08,-10.99
348,1747401528270,0.68,-0.14,-1.2,8.61,16.54,-2.14
349,1747401528280,0.68,-0.14,-1.2,8.61,16.54,-2.14
350,1747401528290,0.68,-0.14,-1.2,8.61,16.54,-2.14
351,1747401528300,0.68,-0.08,-1.2,18.01,3.48,11.05
352,1747401528310,0.68,-0.08,-1.2,18.01,3.48,11.05
353,1747401528320,0.68,-0.08,-1.2,18.01,3.48,11.05
354,1747401528330,0.68,-0.08,-1.2,18.01,3.48,11.05
355,1747401528340,0.66,-0.07,-1.09,14.47,-8.42,4.33
356,1747401528350,0.66,-0.07,-1.09,14.47,-8.42,4.33
357,1747401528360,0.66,-0.07,-1.09,14.47,-8.42,4.33
358,1747401528370,0.66,-0.07,-1.09,14.47,-8.42,4.33
359,1747401528380,0.73,-0.12,-0.96,-4.33,-7.26,7.57
360,1747401528390,0.73,-0.12,-0.96,-4.33,-7.26,7.57
361,1747401528400,0.73,-0.12,-0.96,-4.33,-7.26,7.57
362,1747401528410,0.715,-0.125,-0.98,1.71,-1.7049999999999998,13.03
363,1747401528420,0.7,-0.13,-1.0,7.75,3.85,18.49
364,1747401528430,0.7,-0.13,-1.0,7.75,3.85,18.49
365,1747401528440,0.7,-0.13,-1.0,7.75,3.85,18.49
366,1747401528450,0.58,-0.09,-0.965,2.805,-8.174999999999999,21.665
367,1747401528460,0.46,-0.05,-0.93,-2.14,-20.2,24.84
368,1747401528470,0.46,-0.05,-0.93,-2.14,-20.2,24.84
369,1747401528480,0.46,-0.05,-0.93,-2.14,-20.2,24.84
370,1747401528490,0.525,-0.0849999999999999,-0.95,-29.91,-32.895,26.795
371,1747401528500,0.59,-0.12,-0.97,-57.68,-45.59,28.75
372,1747401528510,0.59,-0.12,-0.97,-57.68,-45.59,28.75
373,1747401528520,0.59,-0.12,-0.97,-57.68,-45.59,28.75
374,1747401528530,0.33,-0.19,-0.91,49.26,-1.83,15.32
375,1747401528540,0.33,-0.19,-0.91,49.26,-1.83,15.32
376,1747401528550,0.33,-0.19,-0.91,49.26,-1.83,15.32
377,1747401528560,0.33,-0.19,-0.91,49.26,-1.83,15.32
378,1747401528570,0.4,-0.06,-0.9,11.72,-16.42,17.82
379,1747401528580,0.4,-0.06,-0.9,11.72,-16.42,17.82
380,1747401528590,0.4,-0.06,-0.9,11.72,-16.42,17.82
381,1747401528600,0.4,-0.06,-0.9,11.72,-16.42,17.82
382,1747401528610,0.2,-0.17,-0.86,37.9,-13.79,-3.36
383,1747401528620,0.2,-0.17,-0.86,37.9,-13.79,-3.36
384,1747401528630,0.2,-0.17,-0.86,37.9,-13.79,-3.36
385,1747401528640,0.2,-0.17,-0.86,37.9,-13.79,-3.36
386,1747401528650,,,,,,
387,1747401528660,0.21,-0.13,-0.8,-23.07,-51.94,2.81
388,1747401528670,0.21,-0.13,-0.8,-23.07,-51.94,2.81
389,1747401528680,0.195,-0.2,-0.81,-12.205,-34.055,-6.56
390,1747401528690,0.18,-0.27,-0.82,-1.34,-16.17,-15.93
391,1747401528700,0.18,-0.27,-0.82,-1.34,-16.17,-15.93
392,1747401528710,0.18,-0.27,-0.82,-1.34,-16.17,-15.93
393,1747401528720,0.19,-0.295,-0.84,15.72,-8.785,-13.12
394,1747401528730,0.2,-0.32,-0.86,32.78,-1.4,-10.31
395,1747401528740,0.2,-0.32,-0.86,32.78,-1.4,-10.31
396,1747401528750,0.2,-0.32,-0.86,32.78,-1.4,-10.31
397,1747401528760,0.18,-0.315,-0.875,26.46,-0.885,-15.96
398,1747401528770,0.16,-0.31,-0.89,20.14,-0.37,-21.61
399,1747401528780,0.16,-0.31,-0.89,20.14,-0.37,-21.61
400,1747401528790,0.16,-0.31,-0.89,20.14,-0.37,-21.61
401,1747401528800,0.13,-0.47,-0.91,20.14,-0.37,-21.61
402,1747401528810,0.13,-0.47,-0.91,10.07,-10.56,-12.94
403,1747401528820,0.13,-0.47,-0.91,10.07,-10.56,-12.94
404,1747401528830,0.13,-0.47,-0.91,10.07,-10.56,-12.94
405,1747401528840,0.09,-0.39,-0.93,13.12,-12.725,-6.41
406,1747401528850,0.09,-0.39,-0.93,16.17,-14.89,0.12
407,1747401528860,0.09,-0.39,-0.93,16.17,-14.89,0.12
408,1747401528870,0.055,-0.37,-0.905,16.17,-14.89,0.12
409,1747401528880,0.02,-0.35,-0.88,28.81,-13.49,-9.22
410,1747401528890,0.02,-0.35,-0.88,28.81,-13.49,-9.22
411,1747401528900,0.02,-0.35,-0.88,28.81,-13.49,-9.22
412,1747401528910,-0.0349999999999999,-0.39,-0.865,31.22,-19.255,-4.275
413,1747401528920,-0.09,-0.43,-0.85,33.63,-25.02,0.67
414,1747401528930,-0.09,-0.43,-0.85,33.63,-25.02,0.67
415,1747401528940,-0.09,-0.43,-0.85,33.63,-25.02,0.67
416,1747401528950,-0.115,-0.4,-0.825,34.730000000000004,-15.38,-6.225
417,1747401528960,-0.14,-0.37,-0.8,35.83,-5.74,-13.12
418,1747401528970,-0.14,-0.37,-0.8,35.83,-5.74,-13.12
419,1747401528980,-0.14,-0.37,-0.8,35.83,-5.74,-13.12
420,1747401528990,-0.19,-0.42,-0.8300000000000001,30.945,4.055,-19.255
421,1747401529000,-0.24,-0.47,-0.86,26.06,13.85,-25.39
422,1747401529010,-0.24,-0.47,-0.86,26.06,13.85,-25.39
423,1747401529020,-0.24,-0.47,-0.86,26.06,13.85,-25.39
424,1747401529030,-0.25,-0.5249999999999999,-0.89,22.155,19.165,-30.335
425,1747401529040,-0.26,-0.58,-0.92,18.25,24.48,-35.28
426,1747401529050,-0.26,-0.58,-0.92,18.25,24.48,-35.28
427,1747401529060,-0.26,-0.58,-0.92,18.25,24.48,-35.28
428,1747401529070,-0.275,-0.63,-0.965,19.225,30.125,-30.58
429,1747401529080,-0.29,-0.68,-1.01,20.2,35.77,-25.88
430,1747401529090,-0.29,-0.68,-1.01,20.2,35.77,-25.88
431,1747401529100,-0.29,-0.68,-1.01,20.2,35.77,-25.88
432,1747401529110,-0.29,-0.74,-1.15,20.2,35.77,-25.88
433,1747401529120,-0.29,-0.74,-1.15,-1.34,40.89,-24.84
434,1747401529130,-0.29,-0.74,-1.15,-1.34,40.89,-24.84
435,1747401529140,-0.29,-0.74,-1.15,-1.34,40.89,-24.84
436,1747401529150,-0.32,-0.81,-1.22,12.63,43.21,6.04
437,1747401529160,-0.32,-0.81,-1.22,12.63,43.21,6.04
438,1747401529170,-0.32,-0.81,-1.22,12.63,43.21,6.04
439,1747401529180,-0.275,-0.77,-1.26,0.2400000000000002,30.425,18.005
440,1747401529190,-0.23,-0.73,-1.3,-12.15,17.64,29.97
441,1747401529200,-0.23,-0.73,-1.3,-12.15,17.64,29.97
442,1747401529210,-0.23,-0.73,-1.3,-12.15,17.64,29.97
443,1747401529220,-0.185,-0.755,-1.275,-26.065,-4.119999999999999,38.085
444,1747401529230,-0.14,-0.78,-1.25,-39.98,-25.88,46.2
445,1747401529240,-0.14,-0.78,-1.25,-39.98,-25.88,46.2
446,1747401529250,-0.14,-0.78,-1.25,-39.98,-25.88,46.2
447,1747401529260,-0.155,-0.7150000000000001,-1.165,-24.905,-25.39,54.655
448,1747401529270,-0.17,-0.65,-1.08,-9.83,-24.9,63.11
449,1747401529280,-0.17,-0.65,-1.08,-9.83,-24.9,63.11
450,1747401529290,-0.17,-0.65,-1.08,-9.83,-24.9,63.11
451,1747401529300,-0.2,-0.54,-0.97,-15.625,-23.925,56.365
452,1747401529310,-0.2,-0.54,-0.97,-21.42,-22.95,49.62
453,1747401529320,-0.2,-0.54,-0.97,-21.42,-22.95,49.62
454,1747401529330,-0.2,-0.54,-0.97,-21.42,-22.95,49.62
455,1747401529340,-0.205,-0.55,-0.945,-20.445,-15.475,52.43
456,1747401529350,-0.21,-0.56,-0.92,-19.47,-8.0,55.24
457,1747401529360,-0.21,-0.56,-0.92,-19.47,-8.0,55.24
458,1747401529370,-0.21,-0.56,-0.92,-19.47,-8.0,55.24
459,1747401529380,-0.11,-0.48,-0.9,-6.775,3.4450000000000003,62.41
460,1747401529390,-0.11,-0.48,-0.9,5.92,14.89,69.58
461,1747401529400,-0.11,-0.48,-0.9,5.92,14.89,69.58
462,1747401529410,-0.11,-0.48,-0.9,5.92,14.89,69.58
463,1747401529420,-0.09,-0.4,-0.96,3.325,21.545,50.17
464,1747401529430,-0.09,-0.4,-0.96,0.73,28.2,30.76
465,1747401529440,-0.09,-0.4,-0.96,0.73,28.2,30.76
466,1747401529450,-0.095,-0.49,-1.005,-9.615,16.36,33.445
467,1747401529460,-0.1,-0.58,-1.05,-19.96,4.52,36.13
468,1747401529470,-0.1,-0.58,-1.05,-19.96,4.52,36.13
469,1747401529480,-0.1,-0.58,-1.05,-19.96,4.52,36.13
470,1747401529490,-0.01,-0.35,-0.9,-15.135000000000002,-10.04,36.77
471,1747401529500,-0.01,-0.35,-0.9,-10.31,-24.6,37.41
472,1747401529510,-0.01,-0.35,-0.9,-10.31,-24.6,37.41
473,1747401529520,-0.01,-0.35,-0.9,-10.31,-24.6,37.41
474,1747401529530,0.02,-0.345,-0.87,-19.47,-14.19,15.409999999999998
475,1747401529540,0.05,-0.34,-0.84,-28.63,-3.78,-6.59
476,1747401529550,0.05,-0.34,-0.84,-28.63,-3.78,-6.59
477,1747401529560,0.05,-0.34,-0.84,-28.63,-3.78,-6.59
478,1747401529570,0.03,-0.45,-0.94,-20.94,3.91,0.85
479,1747401529580,0.03,-0.45,-0.94,-20.94,3.91,0.85
480,1747401529590,0.03,-0.45,-0.94,-20.94,3.91,0.85
481,1747401529600,0.07,-0.36,-0.915,-20.94,3.91,0.85
482,1747401529610,0.11,-0.27,-0.89,-24.29,-14.53,7.75
483,1747401529620,0.11,-0.27,-0.89,-24.29,-14.53,7.75
484,1747401529630,0.11,-0.27,-0.89,-24.29,-14.53,7.75
485,1747401529640,0.11,-0.27,-0.89,-24.29,-14.53,7.75
486,1747401529650,0.1,-0.31,-0.87,-25.94,13.43,-25.39
487,1747401529660,0.1,-0.31,-0.87,-25.94,13.43,-25.39
488,1747401529670,0.1,-0.31,-0.87,-25.94,13.43,-25.39
489,1747401529680,0.1,-0.31,-0.87,-25.94,13.43,-25.39
490,1747401529690,0.11,-0.3399999999999999,-0.89,-19.745,6.9,-14.375
491,1747401529700,0.12,-0.37,-0.91,-13.55,0.37,-3.36
492,1747401529710,0.12,-0.37,-0.91,-13.55,0.37,-3.36
493,1747401529720,0.12,-0.37,-0.91,-13.55,0.37,-3.36
494,1747401529730,0.19,-0.17,-0.82,-25.82,-4.03,0.49
495,1747401529740,0.19,-0.17,-0.82,-25.82,-4.03,0.49
496,1747401529750,0.19,-0.17,-0.82,-25.82,-4.03,0.49
497,1747401529760,0.29,-0.23,-0.86,-46.88,-8.67,-19.96
498,1747401529770,0.29,-0.23,-0.86,-46.88,-8.67,-19.96
499,1747401529780,0.29,-0.23,-0.86,-46.88,-8.67,-19.96
500,1747401529790,0.29,-0.23,-0.86,-46.88,-8.67,-19.96
501,1747401529800,0.3299999999999999,-0.165,-0.895,-47.975,-8.73,-18.405
502,1747401529810,0.37,-0.1,-0.93,-49.07,-8.79,-16.85
503,1747401529820,0.37,-0.1,-0.93,-49.07,-8.79,-16.85
504,1747401529830,0.39,-0.1,-0.935,-49.07,-8.79,-16.85
505,1747401529840,0.41,-0.1,-0.94,-40.71,-8.3,-44.92
506,1747401529850,0.41,-0.1,-0.94,-40.71,-8.3,-44.92
507,1747401529860,0.41,-0.1,-0.94,-40.71,-8.3,-44.92
508,1747401529870,0.41,-0.1,-0.94,-40.71,-8.3,-44.92
509,1747401529880,0.47,-0.11,-0.95,-12.27,-1.28,-46.02
510,1747401529890,0.47,-0.11,-0.95,-12.27,-1.28,-46.02
511,1747401529900,0.47,-0.11,-0.95,-12.27,-1.28,-46.02
512,1747401529910,0.4649999999999999,-0.13,-0.97,-11.02,0.5199999999999999,-42.235
513,1747401529920,0.46,-0.15,-0.99,-9.77,2.32,-38.45
514,1747401529930,0.46,-0.15,-0.99,-9.77,2.32,-38.45
515,1747401529940,0.46,-0.15,-0.99,-9.77,2.32,-38.45
516,1747401529950,0.48,-0.12,-0.985,-1.2249999999999996,6.835,-32.96
517,1747401529960,0.5,-0.09,-0.98,7.32,11.35,-27.47
518,1747401529970,0.5,-0.09,-0.98,7.32,11.35,-27.47
519,1747401529980,0.5,-0.09,-0.98,7.32,11.35,-27.47
520,1747401529990,0.525,-0.08,-1.0,-3.91,15.775,-26.28
521,1747401530000,0.55,-0.07,-1.02,-15.14,20.2,-25.09
522,1747401530010,0.55,-0.07,-1.02,-15.14,20.2,-25.09
523,1747401530020,0.55,-0.07,-1.02,-15.14,20.2,-25.09
524,1747401530030,0.5800000000000001,-0.09,-1.075,-15.385000000000002,18.86,-18.585
525,1747401530040,0.61,-0.11,-1.13,-15.63,17.52,-12.08
526,1747401530050,0.61,-0.11,-1.13,-15.63,17.52,-12.08
527,1747401530060,0.61,-0.11,-1.13,-15.63,17.52,-12.08
528,1747401530070,0.61,-0.1,-1.18,-11.72,-0.67,-1.89
529,1747401530080,0.61,-0.1,-1.18,-11.72,-0.67,-1.89
530,1747401530090,0.61,-0.1,-1.18,-11.72,-0.67,-1.89
531,1747401530100,0.61,-0.1,-1.18,-11.72,-0.67,-1.89
532,1747401530110,0.61,-0.095,-1.18,-5.98,-4.180000000000001,2.135
533,1747401530120,0.61,-0.09,-1.18,-0.24,-7.69,6.16
534,1747401530130,0.61,-0.09,-1.18,-0.24,-7.69,6.16
535,1747401530140,0.61,-0.09,-1.18,-0.24,-7.69,6.16
536,1747401530150,0.61,-0.09,-1.18,-0.24,-7.69,6.16
537,1747401530160,0.59,-0.06,-1.16,26.67,0.61,-7.32
538,1747401530170,0.59,-0.06,-1.16,26.67,0.61,-7.32
539,1747401530180,0.5700000000000001,-0.09,-1.1,26.67,0.61,-7.32
540,1747401530190,0.55,-0.12,-1.04,13.92,-5.25,0.79
541,1747401530200,0.55,-0.12,-1.04,13.92,-5.25,0.79
542,1747401530210,0.55,-0.12,-1.04,13.92,-5.25,0.79
543,1747401530220,0.46,-0.16,-0.97,13.92,-5.25,0.79
544,1747401530230,0.46,-0.16,-0.97,13.92,-5.25,0.79
545,1747401530240,0.46,-0.16,-0.97,23.62,3.54,5.68
546,1747401530250,0.46,-0.16,-0.97,23.62,3.54,5.68
547,1747401530260,0.445,-0.155,-0.965,17.275,3.695,9.86
548,1747401530270,0.43,-0.15,-0.96,10.93,3.85,14.04
549,1747401530280,0.43,-0.15,-0.96,10.93,3.85,14.04
550,1747401530290,0.43,-0.15,-0.96,10.93,3.85,14.04
551,1747401530300,0.29,-0.2,-0.9,27.89,12.33,3.97
552,1747401530310,0.29,-0.2,-0.9,27.89,12.33,3.97
553,1747401530320,0.29,-0.2,-0.9,27.89,12.33,3.97
554,1747401530330,0.29,-0.2,-0.9,27.89,12.33,3.97
555,1747401530340,0.305,-0.215,-0.905,15.56,10.165,6.745
556,1747401530350,0.32,-0.23,-0.91,3.23,8.0,9.52
557,1747401530360,0.32,-0.23,-0.91,3.23,8.0,9.52
558,1747401530370,0.265,-0.235,-0.91,15.38,11.57,3.875
559,1747401530380,0.21,-0.24,-0.91,27.53,15.14,-1.77
560,1747401530390,0.21,-0.24,-0.91,27.53,15.14,-1.77
561,1747401530400,0.21,-0.24,-0.91,27.53,15.14,-1.77
562,1747401530410,0.2299999999999999,-0.29,-0.895,16.145,10.04,-1.89
563,1747401530420,0.25,-0.34,-0.88,4.76,4.94,-2.01
564,1747401530430,0.25,-0.34,-0.88,4.76,4.94,-2.01
565,1747401530440,0.25,-0.34,-0.88,4.76,4.94,-2.01
566,1747401530450,0.17,-0.35,-0.93,4.76,4.94,-2.01
567,1747401530460,0.17,-0.35,-0.93,7.32,21.42,5.07
568,1747401530470,0.17,-0.35,-0.93,7.32,21.42,5.07
569,1747401530480,0.17,-0.35,-0.93,7.32,21.42,5.07
570,1747401530490,0.17,-0.3299999999999999,-0.91,17.025,10.590000000000002,-4.635
571,1747401530500,0.17,-0.31,-0.89,26.73,-0.24,-14.34
572,1747401530510,0.17,-0.31,-0.89,26.73,-0.24,-14.34
573,1747401530520,0.17,-0.31,-0.89,26.73,-0.24,-14.34
574,1747401530530,0.18,-0.45,-0.83,-4.58,-14.77,-13.24
575,1747401530540,0.18,-0.45,-0.83,-4.58,-14.77,-13.24
576,1747401530550,0.18,-0.45,-0.83,-4.58,-14.77,-13.24
577,1747401530560,0.18,-0.45,-0.83,-4.58,-14.77,-13.24
578,1747401530570,0.11,-0.43,-0.85,19.59,13.61,3.66
579,1747401530580,0.11,-0.43,-0.85,19.59,13.61,3.66
580,1747401530590,0.11,-0.43,-0.85,19.59,13.61,3.66
581,1747401530600,0.11,-0.43,-0.85,19.59,13.61,3.66
582,1747401530610,0.06,-0.36,-0.91,20.51,8.36,9.52
583,1747401530620,0.06,-0.36,-0.91,20.51,8.36,9.52
584,1747401530630,0.06,-0.36,-0.91,20.51,8.36,9.52
585,1747401530640,0.06,-0.36,-0.91,20.51,8.36,9.52
586,1747401530650,0.06,-0.38,-0.85,31.19,19.96,-0.31
587,1747401530660,0.06,-0.38,-0.85,31.19,19.96,-0.31
588,1747401530670,0.06,-0.38,-0.85,31.19,19.96,-0.31
589,1747401530680,0.05,-0.39,-0.855,28.655,20.905,1.95
590,1747401530690,0.04,-0.4,-0.86,26.12,21.85,4.21
591,1747401530700,0.04,-0.4,-0.86,26.12,21.85,4.21
592,1747401530710,0.04,-0.4,-0.86,26.12,21.85,4.21
593,1747401530720,-0.03,-0.4,-0.89,31.49,26.67,0.79
594,1747401530730,-0.03,-0.4,-0.89,31.49,26.67,0.79
595,1747401530740,-0.03,-0.4,-0.89,31.49,26.67,0.79
596,1747401530750,-0.03,-0.4,-0.89,31.49,26.67,0.79
597,1747401530760,-0.02,-0.49,-0.86,34.55,16.54,-13.06
598,1747401530770,-0.02,-0.49,-0.86,34.55,16.54,-13.06
599,1747401530780,-0.02,-0.49,-0.86,34.55,16.54,-13.06
600,1747401530790,-0.02,-0.49,-0.86,34.55,16.54,-13.06
601,1747401530800,-0.03,-0.54,-0.83,38.15,35.16,-17.76
602,1747401530810,-0.03,-0.54,-0.83,38.15,35.16,-17.76
603,1747401530820,-0.03,-0.54,-0.83,38.15,35.16,-17.76
604,1747401530830,-0.03,-0.54,-0.83,38.15,35.16,-17.76
605,1747401530840,-0.05,-0.66,-0.95,41.99,56.46,-22.83
606,1747401530850,-0.05,-0.66,-0.95,41.99,56.46,-22.83
607,1747401530860,-0.05,-0.66,-0.95,41.99,56.46,-22.83
608,1747401530870,-0.06,-0.8,-1.01,41.99,56.46,-22.83
609,1747401530880,-0.06,-0.8,-1.01,28.87,49.01,-26.0
610,1747401530890,-0.06,-0.8,-1.01,28.87,49.01,-26.0
611,1747401530900,-0.06,-0.8,-1.01,28.87,49.01,-26.0
612,1747401530910,-0.045,-0.855,-1.11,24.505000000000003,57.035,-22.735
613,1747401530920,-0.03,-0.91,-1.21,20.14,65.06,-19.47
614,1747401530930,-0.03,-0.91,-1.21,20.14,65.06,-19.47
615,1747401530940,-0.03,-0.91,-1.21,20.14,65.06,-19.47
616,1747401530950,-0.03,-0.96,-1.42,-1.924999999999999,39.245000000000005,2.1050000000000004
617,1747401530960,-0.03,-0.96,-1.42,-23.99,13.43,23.68
618,1747401530970,-0.03,-0.96,-1.42,-23.99,13.43,23.68
619,1747401530980,-0.03,-0.96,-1.42,-23.99,13.43,23.68
620,1747401530990,-0.08,-0.77,-1.25,-14.954999999999998,-0.4249999999999998,36.620000000000005
621,1747401531000,-0.08,-0.77,-1.25,-5.92,-14.28,49.56
622,1747401531010,-0.08,-0.77,-1.25,-5.92,-14.28,49.56
623,1747401531020,-0.08,-0.77,-1.25,-5.92,-14.28,49.56
624,1747401531030,-0.08,-0.67,-1.02,-7.08,-32.71,42.97
625,1747401531040,-0.08,-0.67,-1.02,-7.08,-32.71,42.97
626,1747401531050,-0.08,-0.67,-1.02,-7.08,-32.71,42.97
627,1747401531060,-0.105,-0.64,-0.96,-18.525,-31.89,39.49
628,1747401531070,-0.13,-0.61,-0.9,-29.97,-31.07,36.01
629,1747401531080,-0.13,-0.61,-0.9,-29.97,-31.07,36.01
630,1747401531090,-0.13,-0.61,-0.9,-29.97,-31.07,36.01
631,1747401531100,-0.13,-0.61,-0.9,-29.97,-31.07,36.01
632,1747401531110,-0.14,-0.6,-0.93,-25.09,-21.18,34.91
633,1747401531120,-0.14,-0.6,-0.93,-25.09,-21.18,34.91
634,1747401531130,-0.14,-0.6,-0.93,-25.09,-21.18,34.91
635,1747401531140,-0.12,-0.5800000000000001,-0.9,-24.935,-22.155,28.41
636,1747401531150,-0.1,-0.56,-0.87,-24.78,-23.13,21.91
637,1747401531160,-0.1,-0.56,-0.87,-24.78,-23.13,21.91
638,1747401531170,-0.1,-0.56,-0.87,-24.78,-23.13,21.91
639,1747401531180,-0.065,-0.5900000000000001,-0.845,-24.26,-15.805,25.055
640,1747401531190,-0.03,-0.62,-0.82,-23.74,-8.48,28.2
641,1747401531200,-0.03,-0.62,-0.82,-23.74,-8.48,28.2
642,1747401531210,-0.03,-0.62,-0.82,-23.74,-8.48,28.2
643,1747401531220,-0.03,-0.62,-0.82,-23.74,-8.48,28.2
644,1747401531230,0.02,-0.59,-0.82,9.28,26.12,29.48
645,1747401531240,0.02,-0.59,-0.82,9.28,26.12,29.48
646,1747401531250,0.02,-0.59,-0.82,9.28,26.12,29.48
647,1747401531260,0.0699999999999999,-0.59,-0.7849999999999999,21.975,45.925,24.415
648,1747401531270,0.12,-0.59,-0.75,34.67,65.73,19.35
649,1747401531280,0.12,-0.59,-0.75,34.67,65.73,19.35
650,1747401531290,0.175,-0.61,-0.755,34.67,65.73,19.35
651,1747401531300,0.23,-0.63,-0.76,88.75,120.79,19.41
652,1747401531310,0.23,-0.63,-0.76,88.75,120.79,19.41
653,1747401531320,0.23,-0.63,-0.76,88.75,120.79,19.41
654,1747401531330,0.23,-0.63,-0.76,88.75,120.79,19.41
655,1747401531340,0.23,-0.63,-0.76,88.75,120.79,19.41
656,1747401531350,0.09,-0.43,-0.84,38.21,54.57,19.78
657,1747401531360,0.09,-0.43,-0.84,38.21,54.57,19.78
658,1747401531370,0.215,-0.4499999999999999,-0.77,19.5,22.615,-0.3650000000000002
659,1747401531380,,,,,,
660,1747401531390,0.34,-0.47,-0.7,0.79,-9.34,-20.51
661,1747401531400,0.34,-0.47,-0.7,0.79,-9.34,-20.51
662,1747401531410,0.29,-0.54,-0.67,-39.61,-14.4,-24.05
663,1747401531420,0.29,-0.54,-0.67,-39.61,-14.4,-24.05
664,1747401531430,0.29,-0.54,-0.67,-39.61,-14.4,-24.05
665,1747401531440,0.29,-0.54,-0.67,-39.61,-14.4,-24.05
666,1747401531450,0.34,-0.55,-0.7,-40.59,-28.26,0.43
667,1747401531460,0.34,-0.55,-0.7,-40.59,-28.26,0.43
668,1747401531470,0.34,-0.55,-0.7,-40.59,-28.26,0.43
669,1747401531480,0.34,-0.55,-0.7,-40.59,-28.26,0.43
670,1747401531490,0.22,-0.27,-0.71,-56.58,-27.65,-1.89
671,1747401531500,0.22,-0.27,-0.71,-56.58,-27.65,-1.89
672,1747401531510,0.22,-0.27,-0.71,-56.58,-27.65,-1.89
673,1747401531520,0.22,-0.27,-0.71,-56.58,-27.65,-1.89
674,1747401531530,0.4,-0.35,-0.74,-101.75,-57.31,-21.73
675,1747401531540,0.4,-0.35,-0.74,-101.75,-57.31,-21.73
676,1747401531550,0.4,-0.35,-0.74,-101.75,-57.31,-21.73
677,1747401531560,0.4,-0.35,-0.74,-101.75,-57.31,-21.73
678,1747401531570,0.49,-0.22,-0.72,-77.09,-42.24,-28.81
679,1747401531580,0.49,-0.22,-0.72,-77.09,-42.24,-28.81
680,1747401531590,0.49,-0.22,-0.72,-77.09,-42.24,-28.81
681,1747401531600,0.65,-0.24,-0.75,-65.37,-25.575000000000003,-47.335
682,1747401531610,0.65,-0.24,-0.75,-53.65,-8.91,-65.86
683,1747401531620,0.65,-0.24,-0.75,-53.65,-8.91,-65.86
684,1747401531630,0.65,-0.24,-0.75,-53.65,-8.91,-65.86
685,1747401531640,0.79,-0.26,-0.91,-48.46,-2.56,-56.88
686,1747401531650,0.79,-0.26,-0.91,-48.46,-2.56,-56.88
687,1747401531660,0.79,-0.26,-0.91,-48.46,-2.56,-56.88
688,1747401531670,0.79,-0.26,-0.91,-48.46,-2.56,-56.88
689,1747401531680,0.85,-0.47,-1.05,59.33,55.85,-75.01
690,1747401531690,0.85,-0.47,-1.05,59.33,55.85,-75.01
691,1747401531700,0.85,-0.47,-1.05,59.33,55.85,-75.01
692,1747401531710,0.85,-0.47,-1.05,59.33,55.85,-75.01
693,1747401531720,0.77,-0.29,-1.15,73.0,29.79,-36.19
694,1747401531730,0.77,-0.29,-1.15,73.0,29.79,-36.19
695,1747401531740,0.77,-0.29,-1.15,73.0,29.79,-36.19
696,1747401531750,0.77,-0.29,-1.15,73.0,29.79,-36.19
697,1747401531760,0.76,-0.31,-1.02,9.95,-15.01,12.63
698,1747401531770,0.76,-0.31,-1.02,9.95,-15.01,12.63
699,1747401531780,0.76,-0.31,-1.02,9.95,-15.01,12.63
700,1747401531790,0.76,-0.31,-1.02,9.95,-15.01,12.63
701,1747401531800,0.78,-0.19,-0.96,-14.1,-10.25,19.84
702,1747401531810,0.78,-0.19,-0.96,-14.1,-10.25,19.84
703,1747401531820,0.78,-0.19,-0.96,-14.1,-10.25,19.84
704,1747401531830,0.76,-0.21,-1.025,-19.805,-11.595,22.22
705,1747401531840,0.74,-0.23,-1.09,-25.51,-12.94,24.6
706,1747401531850,0.74,-0.23,-1.09,-25.51,-12.94,24.6
707,1747401531860,0.74,-0.23,-1.09,-25.51,-12.94,24.6
708,1747401531870,0.74,-0.23,-1.09,-25.51,-12.94,24.6
709,1747401531880,0.76,-0.13,-1.08,-29.48,-38.7,22.58
710,1747401531890,0.76,-0.13,-1.08,-29.48,-38.7,22.58
711,1747401531900,0.76,-0.13,-1.08,-29.48,-38.7,22.58
712,1747401531910,0.74,-0.165,-1.035,-31.585,-45.81,16.384999999999998
713,1747401531920,0.72,-0.2,-0.99,-33.69,-52.92,10.19
714,1747401531930,0.72,-0.2,-0.99,-33.69,-52.92,10.19
715,1747401531940,0.72,-0.2,-0.99,-33.69,-52.92,10.19
716,1747401531950,0.69,-0.24,-0.87,-7.08,-39.31,28.63
717,1747401531960,0.69,-0.24,-0.87,-7.08,-39.31,28.63
718,1747401531970,0.69,-0.24,-0.87,-7.08,-39.31,28.63
719,1747401531980,0.69,-0.24,-0.87,-7.08,-39.31,28.63
720,1747401531990,0.55,-0.28,-0.84,12.08,1.46,40.71
721,1747401532000,0.55,-0.28,-0.84,12.08,1.46,40.71
722,1747401532010,0.55,-0.28,-0.84,12.08,1.46,40.71
723,1747401532020,0.55,-0.28,-0.84,12.08,1.46,40.71
724,1747401532030,0.51,-0.31,-0.84,16.66,-10.38,36.38
725,1747401532040,0.51,-0.31,-0.84,16.66,-10.38,36.38
726,1747401532050,0.51,-0.31,-0.84,16.66,-10.38,36.38
727,1747401532060,0.51,-0.31,-0.84,16.66,-10.38,36.38
728,1747401532070,0.46,-0.29,-0.85,-19.96,-17.4,51.51
729,1747401532080,0.46,-0.29,-0.85,-19.96,-17.4,51.51
730,1747401532090,0.46,-0.29,-0.85,-19.96,-17.4,51.51
731,1747401532100,0.46,-0.29,-0.85,-19.96,-17.4,51.51
732,1747401532110,0.31,-0.27,-0.79,-8.42,-23.13,25.57
733,1747401532120,0.31,-0.27,-0.79,-8.42,-23.13,25.57
734,1747401532130,0.31,-0.27,-0.79,-8.42,-23.13,25.57
735,1747401532140,0.31,-0.35,-0.76,-37.23,-27.95,26.73
736,1747401532150,0.31,-0.35,-0.76,-37.23,-27.95,26.73
737,1747401532160,0.31,-0.35,-0.76,-37.23,-27.95,26.73
738,1747401532170,0.31,-0.35,-0.76,-37.23,-27.95,26.73
739,1747401532180,0.23,-0.31,-0.79,-5.43,3.17,16.24
740,1747401532190,0.23,-0.31,-0.79,-5.43,3.17,16.24
741,1747401532200,0.23,-0.31,-0.79,-5.43,3.17,16.24
742,1747401532210,0.23,-0.31,-0.79,-5.43,3.17,16.24
743,1747401532220,0.19,-0.29,-0.8,4.58,10.285,8.334999999999999
744,1747401532230,0.15,-0.27,-0.81,14.59,17.4,0.43
745,1747401532240,0.15,-0.27,-0.81,14.59,17.4,0.43
746,1747401532250,0.15,-0.27,-0.81,14.59,17.4,0.43
747,1747401532260,0.07,-0.28,-0.84,-22.16,-14.34,-3.91
748,1747401532270,0.07,-0.28,-0.84,-22.16,-14.34,-3.91
749,1747401532280,0.07,-0.28,-0.84,-22.16,-14.34,-3.91
750,1747401532290,0.095,-0.33,-0.84,-15.26,-6.955,-9.065
751,1747401532300,0.12,-0.38,-0.84,-8.36,0.43,-14.22
752,1747401532310,0.12,-0.38,-0.84,-8.36,0.43,-14.22
753,1747401532320,0.12,-0.38,-0.84,-8.36,0.43,-14.22
754,1747401532330,0.01,-0.35,-0.86,12.27,15.045,-29.695
755,1747401532340,0.01,-0.35,-0.86,32.9,29.66,-45.17
756,1747401532350,0.01,-0.35,-0.86,32.9,29.66,-45.17
757,1747401532360,0.01,-0.35,-0.86,32.9,29.66,-45.17
758,1747401532370,0.12,-0.41,-0.86,7.08,18.74,-48.03
759,1747401532380,0.12,-0.41,-0.86,7.08,18.74,-48.03
760,1747401532390,0.12,-0.41,-0.86,7.08,18.74,-48.03
761,1747401532400,0.12,-0.41,-0.86,7.08,18.74,-48.03
762,1747401532410,0.08,-0.46,-0.92,15.69,31.98,-71.41
763,1747401532420,0.08,-0.46,-0.92,15.69,31.98,-71.41
764,1747401532430,0.08,-0.46,-0.92,15.69,31.98,-71.41
765,1747401532440,0.08,-0.46,-0.92,15.69,31.98,-71.41
766,1747401532450,0.14,-0.51,-0.98,15.93,20.08,-58.17
767,1747401532460,0.14,-0.51,-0.98,15.93,20.08,-58.17
768,1747401532470,0.14,-0.51,-0.98,15.93,20.08,-58.17
769,1747401532480,0.14,-0.51,-0.98,15.93,20.08,-58.17
770,1747401532490,0.07,-0.44,-1.0,36.44,8.79,-68.54
771,1747401532500,0.07,-0.44,-1.0,36.44,8.79,-68.54
772,1747401532510,0.07,-0.44,-1.0,36.44,8.79,-68.54
773,1747401532520,0.1,-0.535,-0.955,21.575,-13.46,-62.925
774,1747401532530,0.13,-0.63,-0.91,6.71,-35.71,-57.31
775,1747401532540,0.13,-0.63,-0.91,6.71,-35.71,-57.31
776,1747401532550,0.13,-0.63,-0.91,6.71,-35.71,-57.31
777,1747401532560,-0.05,-0.5,-0.93,45.105,-11.11,-60.635000000000005
778,1747401532570,-0.05,-0.5,-0.93,83.5,13.49,-63.96
779,1747401532580,-0.05,-0.5,-0.93,83.5,13.49,-63.96
780,1747401532590,-0.05,-0.5,-0.93,83.5,13.49,-63.96
781,1747401532600,-0.08,-0.655,-0.93,47.52,-7.079999999999999,-63.81
782,1747401532610,-0.11,-0.81,-0.93,11.54,-27.65,-63.66
783,1747401532620,-0.11,-0.81,-0.93,11.54,-27.65,-63.66
784,1747401532630,-0.11,-0.81,-0.93,11.54,-27.65,-63.66
785,1747401532640,-0.125,-0.805,-0.985,30.52,-1.375,-43.7
786,1747401532650,-0.14,-0.8,-1.04,49.5,24.9,-23.74
787,1747401532660,-0.14,-0.8,-1.04,49.5,24.9,-23.74
788,1747401532670,-0.135,-0.815,-1.08,49.5,24.9,-23.74
789,1747401532680,-0.13,-0.83,-1.12,9.52,4.64,-21.06
790,1747401532690,-0.13,-0.83,-1.12,9.52,4.64,-21.06
791,1747401532700,-0.13,-0.83,-1.12,9.52,4.64,-21.06
792,1747401532710,-0.13,-0.83,-1.12,9.52,4.64,-21.06
793,1747401532720,0.01,-0.81,-1.07,9.83,-2.56,12.76
794,1747401532730,0.01,-0.81,-1.07,9.83,-2.56,12.76
795,1747401532740,,,,,,
796,1747401532750,0.09,-0.785,-1.09,-7.444999999999999,-6.470000000000001,13.34
797,1747401532760,0.17,-0.76,-1.11,-24.72,-10.38,13.92
798,1747401532770,0.17,-0.76,-1.11,-24.72,-10.38,13.92
799,1747401532780,0.17,-0.76,-1.11,-24.72,-10.38,13.92
800,1747401532790,0.145,-0.86,-1.11,-17.73,-13.065,32.715
801,1747401532800,0.12,-0.96,-1.11,-10.74,-15.75,51.51
802,1747401532810,0.12,-0.96,-1.11,-10.74,-15.75,51.51
803,1747401532820,0.12,-0.96,-1.11,-10.74,-15.75,51.51
804,1747401532830,0.08,-0.67,-1.04,-2.105,-13.46,58.655
805,1747401532840,0.08,-0.67,-1.04,6.53,-11.17,65.8
806,1747401532850,0.08,-0.67,-1.04,6.53,-11.17,65.8
807,1747401532860,0.08,-0.67,-1.04,6.53,-11.17,65.8
808,1747401532870,0.05,-0.8,-0.97,-34.36,-43.27,59.45
809,1747401532880,0.05,-0.8,-0.97,-34.36,-43.27,59.45
810,1747401532890,0.05,-0.8,-0.97,-34.36,-43.27,59.45
811,1747401532900,0.05,-0.8,-0.97,-34.36,-43.27,59.45
812,1747401532910,0.02,-0.74,-0.83,-12.27,-23.07,84.78
813,1747401532920,0.02,-0.74,-0.83,-12.27,-23.07,84.78
814,1747401532930,0.02,-0.74,-0.83,-12.27,-23.07,84.78
815,1747401532940,0.02,-0.74,-0.83,-12.27,-23.07,84.78
816,1747401532950,-0.02,-0.44,-0.89,-11.54,11.54,71.41
817,1747401532960,-0.02,-0.44,-0.89,-11.54,11.54,71.41
818,1747401532970,-0.02,-0.44,-0.89,-11.54,11.54,71.41
819,1747401532980,-0.025,-0.52,-0.925,-35.77,-7.26,68.145
820,1747401532990,-0.03,-0.6,-0.96,-60.0,-26.06,64.88
821,1747401533000,-0.03,-0.6,-0.96,-60.0,-26.06,64.88
822,1747401533010,-0.03,-0.6,-0.96,-60.0,-26.06,64.88
823,1747401533020,-0.035,-0.49,-0.915,-50.905,-19.04,65.58
824,1747401533030,-0.04,-0.38,-0.87,-41.81,-12.02,66.28
825,1747401533040,-0.04,-0.38,-0.87,-41.81,-12.02,66.28
826,1747401533050,-0.04,-0.38,-0.87,-41.81,-12.02,66.28
827,1747401533060,-0.025,-0.35,-0.9,-51.455,-11.32,40.465
828,1747401533070,-0.01,-0.32,-0.93,-61.1,-10.62,14.65
829,1747401533080,-0.01,-0.32,-0.93,-61.1,-10.62,14.65
830,1747401533090,-0.01,-0.32,-0.93,-61.1,-10.62,14.65
831,1747401533100,-0.02,-0.38,-0.95,-48.065,-9.795,13.095
832,1747401533110,-0.03,-0.44,-0.97,-35.03,-8.97,11.54
833,1747401533120,-0.03,-0.44,-0.97,-35.03,-8.97,11.54
834,1747401533130,-0.03,-0.44,-0.97,-35.03,-8.97,11.54
835,1747401533140,-0.15,-0.28,-0.89,-29.630000000000003,-9.95,4.73
836,1747401533150,-0.15,-0.28,-0.89,-24.23,-10.93,-2.08
837,1747401533160,-0.15,-0.28,-0.89,-24.23,-10.93,-2.08
838,1747401533170,-0.15,-0.28,-0.89,-24.23,-10.93,-2.08
839,1747401533180,0.03,-0.36,-0.85,-38.88,-30.94,-1.95
840,1747401533190,0.03,-0.36,-0.85,-38.88,-30.94,-1.95
841,1747401533200,0.03,-0.36,-0.85,-38.88,-30.94,-1.95
842,1747401533210,0.015,-0.345,-0.84,-25.21,-14.8,3.33
843,1747401533220,0.0,-0.33,-0.83,-11.54,1.34,8.61
844,1747401533230,0.0,-0.33,-0.83,-11.54,1.34,8.61
845,1747401533240,0.0,-0.33,-0.83,-11.54,1.34,8.61
846,1747401533250,-0.025,-0.29,-0.845,-14.985,-1.13,2.8999999999999995
847,1747401533260,-0.05,-0.25,-0.86,-18.43,-3.6,-2.81
848,1747401533270,-0.05,-0.25,-0.86,-18.43,-3.6,-2.81
849,1747401533280,-0.05,-0.25,-0.86,-18.43,-3.6,-2.81
850,1747401533290,0.0199999999999999,-0.25,-0.845,-25.235,-9.34,2.35
851,1747401533300,0.09,-0.25,-0.83,-32.04,-15.08,7.51
852,1747401533310,0.09,-0.25,-0.83,-32.04,-15.08,7.51
853,1747401533320,0.09,-0.25,-0.83,-32.04,-15.08,7.51
854,1747401533330,0.075,-0.235,-0.8200000000000001,-28.47,-7.51,3.845
855,1747401533340,0.06,-0.22,-0.81,-24.9,0.06,0.18
856,1747401533350,0.06,-0.22,-0.81,-24.9,0.06,0.18
857,1747401533360,0.06,-0.22,-0.81,-24.9,0.06,0.18
858,1747401533370,0.14,-0.13,-0.78,-41.99,1.1,-8.97
859,1747401533380,0.14,-0.13,-0.78,-41.99,1.1,-8.97
860,1747401533390,0.14,-0.13,-0.78,-41.99,1.1,-8.97
861,1747401533400,0.14,-0.13,-0.78,-41.99,1.1,-8.97
862,1747401533410,0.28,-0.14,-0.81,-30.76,18.13,-30.03
863,1747401533420,0.28,-0.14,-0.81,-30.76,18.13,-30.03
864,1747401533430,0.28,-0.14,-0.81,-30.76,18.13,-30.03
865,1747401533440,0.28,-0.14,-0.81,-30.76,18.13,-30.03
866,1747401533450,0.27,-0.08,-0.91,-42.91,30.21,-28.02
867,1747401533460,0.27,-0.08,-0.91,-42.91,30.21,-28.02
868,1747401533470,0.27,-0.08,-0.91,-42.91,30.21,-28.02
869,1747401533480,0.39,-0.13,-1.0,-42.91,30.21,-28.02
870,1747401533490,0.39,-0.13,-1.0,-45.47,17.7,-31.49
871,1747401533500,0.39,-0.13,-1.0,-45.47,17.7,-31.49
872,1747401533510,0.39,-0.13,-1.0,-45.47,17.7,-31.49
873,1747401533520,0.45,-0.12,-1.07,-15.2,32.35,-34.0
874,1747401533530,0.45,-0.12,-1.07,-15.2,32.35,-34.0
875,1747401533540,0.45,-0.12,-1.07,-15.2,32.35,-34.0
876,1747401533550,0.45,-0.12,-1.07,-15.2,32.35,-34.0
877,1747401533560,0.48,-0.08,-1.11,-7.935,26.735,-36.38
878,1747401533570,0.48,-0.08,-1.11,-0.67,21.12,-38.76
879,1747401533580,0.48,-0.08,-1.11,-0.67,21.12,-38.76
880,1747401533590,0.505,-0.105,-1.08,-0.67,21.12,-38.76
881,1747401533600,0.53,-0.13,-1.05,9.7,27.16,-36.32
882,1747401533610,0.53,-0.13,-1.05,9.7,27.16,-36.32
883,1747401533620,0.53,-0.13,-1.05,9.7,27.16,-36.32
884,1747401533630,0.53,-0.13,-1.05,9.7,27.16,-36.32
885,1747401533640,0.56,-0.1,-1.08,3.85,26.79,-24.54
886,1747401533650,0.56,-0.1,-1.08,3.85,26.79,-24.54
887,1747401533660,0.56,-0.1,-1.08,3.85,26.79,-24.54
888,1747401533670,0.605,-0.1,-1.0950000000000002,3.48,25.635,-14.16
889,1747401533680,0.65,-0.1,-1.11,3.11,24.48,-3.78
890,1747401533690,0.65,-0.1,-1.11,3.11,24.48,-3.78
891,1747401533700,0.65,-0.1,-1.11,3.11,24.48,-3.78
892,1747401533710,0.645,-0.075,-1.135,3.11,24.48,-3.78
893,1747401533720,0.64,-0.05,-1.16,16.11,30.09,4.82
894,1747401533730,0.64,-0.05,-1.16,16.11,30.09,4.82
895,1747401533740,0.64,-0.05,-1.16,16.11,30.09,4.82
896,1747401533750,0.62,-0.01,-1.18,16.11,30.09,4.82
897,1747401533760,0.62,-0.01,-1.18,1.04,-13.12,13.12
898,1747401533770,0.62,-0.01,-1.18,1.04,-13.12,13.12
899,1747401533780,0.62,-0.01,-1.18,1.04,-13.12,13.12
900,1747401533790,0.68,-0.1,-0.99,7.26,-29.11,13.61
901,1747401533800,0.68,-0.1,-0.99,7.26,-29.11,13.61
902,1747401533810,0.68,-0.1,-0.99,7.26,-29.11,13.61
903,1747401533820,0.68,-0.1,-0.99,7.26,-29.11,13.61
904,1747401533830,0.6,-0.08,-0.96,28.2,1.22,32.41
905,1747401533840,0.6,-0.08,-0.96,28.2,1.22,32.41
906,1747401533850,0.6,-0.08,-0.96,28.2,1.22,32.41
907,1747401533860,0.6,-0.08,-0.96,28.2,1.22,32.41
908,1747401533870,0.48,-0.06,-0.97,4.76,-3.36,21.06
909,1747401533880,0.48,-0.06,-0.97,4.76,-3.36,21.06
910,1747401533890,0.48,-0.06,-0.97,4.76,-3.36,21.06
911,1747401533900,0.48,-0.115,-0.98,-5.125,-3.055,25.665
912,1747401533910,0.48,-0.17,-0.99,-15.01,-2.75,30.27
913,1747401533920,0.48,-0.17,-0.99,-15.01,-2.75,30.27
914,1747401533930,0.48,-0.17,-0.99,-15.01,-2.75,30.27
915,1747401533940,0.41,-0.165,-0.97,4.765,8.94,24.38
916,1747401533950,0.34,-0.16,-0.95,24.54,20.63,18.49
917,1747401533960,0.34,-0.16,-0.95,24.54,20.63,18.49
918,1747401533970,0.34,-0.16,-0.95,24.54,20.63,18.49
919,1747401533980,0.31,-0.14,-0.94,-41.2,-8.3,18.68
920,1747401533990,0.31,-0.14,-0.94,-41.2,-8.3,18.68
921,1747401534000,0.31,-0.14,-0.94,-41.2,-8.3,18.68
922,1747401534010,0.31,-0.14,-0.94,-41.2,-8.3,18.68
923,1747401534020,0.23,-0.19,-0.93,-40.34,19.1,11.6
924,1747401534030,0.23,-0.19,-0.93,-40.34,19.1,11.6
925,1747401534040,0.23,-0.19,-0.93,-40.34,19.1,11.6
926,1747401534050,0.23,-0.19,-0.93,-40.34,19.1,11.6
927,1747401534060,0.17,-0.24,-0.96,5.55,1.1,-13.55
928,1747401534070,0.17,-0.24,-0.96,5.55,1.1,-13.55
929,1747401534080,0.17,-0.24,-0.96,5.55,1.1,-13.55
930,1747401534090,0.17,-0.24,-0.96,5.55,1.1,-13.55
931,1747401534100,0.22,-0.31,-0.84,-28.5,-5.92,-9.34
932,1747401534110,0.22,-0.31,-0.84,-28.5,-5.92,-9.34
933,1747401534120,0.22,-0.31,-0.84,-28.5,-5.92,-9.34
934,1747401534130,0.22,-0.31,-0.84,-28.5,-5.92,-9.34
935,1747401534140,0.19,-0.35,-0.94,5.19,19.47,-7.57
936,1747401534150,0.19,-0.35,-0.94,5.19,19.47,-7.57
937,1747401534160,0.19,-0.35,-0.94,5.19,19.47,-7.57
938,1747401534170,0.18,-0.315,-0.93,16.725,15.075,-7.689999999999999
939,1747401534180,0.17,-0.28,-0.92,28.26,10.68,-7.81
940,1747401534190,0.17,-0.28,-0.92,28.26,10.68,-7.81
941,1747401534200,0.17,-0.28,-0.92,28.26,10.68,-7.81
942,1747401534210,0.18,-0.3,-0.885,11.355,6.685,-6.68
943,1747401534220,0.19,-0.32,-0.85,-5.55,2.69,-5.55
944,1747401534230,0.19,-0.32,-0.85,-5.55,2.69,-5.55
945,1747401534240,0.19,-0.32,-0.85,-5.55,2.69,-5.55
946,1747401534250,0.18,-0.3,-0.93,8.18,9.495,1.9550000000000003
947,1747401534260,0.18,-0.3,-0.93,21.91,16.3,9.46
948,1747401534270,0.18,-0.3,-0.93,21.91,16.3,9.46
949,1747401534280,0.18,-0.3,-0.93,21.91,16.3,9.46
950,1747401534290,0.1,-0.16,-0.9,25.63,-11.6,1.65
951,1747401534300,0.1,-0.16,-0.9,25.63,-11.6,1.65
952,1747401534310,0.1,-0.16,-0.9,25.63,-11.6,1.65
953,1747401534320,0.055,-0.16,-0.895,25.63,-11.6,1.65
954,1747401534330,0.01,-0.16,-0.89,26.86,-22.89,-5.37
955,1747401534340,0.01,-0.16,-0.89,26.86,-22.89,-5.37
956,1747401534350,0.01,-0.16,-0.89,26.86,-22.89,-5.37
957,1747401534360,0.01,-0.16,-0.89,26.86,-22.89,-5.37
958,1747401534370,-0.13,-0.22,-0.92,16.175,-44.07,-18.465
959,1747401534380,-0.13,-0.22,-0.92,5.49,-65.25,-31.56
960,1747401534390,-0.13,-0.22,-0.92,5.49,-65.25,-31.56
961,1747401534400,-0.13,-0.22,-0.92,5.49,-65.25,-31.56
962,1747401534410,-0.11,-0.32,-0.84,39.86,-22.58,-35.77
963,1747401534420,-0.11,-0.32,-0.84,39.86,-22.58,-35.77
964,1747401534430,-0.11,-0.32,-0.84,39.86,-22.58,-35.77
965,1747401534440,-0.175,-0.375,-0.86,27.53,7.414999999999999,-51.515
966,1747401534450,-0.24,-0.43,-0.88,15.2,37.41,-67.26
967,1747401534460,-0.24,-0.43,-0.88,15.2,37.41,-67.26
968,1747401534470,-0.24,-0.43,-0.88,15.2,37.41,-67.26
969,1747401534480,-0.2299999999999999,-0.5599999999999999,-1.04,12.755,45.345,-62.44
970,1747401534490,-0.22,-0.69,-1.2,10.31,53.28,-57.62
971,1747401534500,-0.22,-0.69,-1.2,10.31,53.28,-57.62
972,1747401534510,-0.22,-0.69,-1.2,10.31,53.28,-57.62
973,1747401534520,-0.16,-0.67,-1.26,5.19,25.82,-43.88
974,1747401534530,-0.16,-0.67,-1.26,5.19,25.82,-43.88
975,1747401534540,-0.16,-0.67,-1.26,5.19,25.82,-43.88
976,1747401534550,-0.16,-0.67,-1.26,5.19,25.82,-43.88
977,1747401534560,-0.16,-0.67,-1.26,5.19,25.82,-43.88
978,1747401534570,-0.1,-0.68,-1.29,10.8,48.71,-20.2
979,1747401534580,-0.1,-0.68,-1.29,10.8,48.71,-20.2
980,1747401534590,-0.1,-0.68,-1.29,10.8,48.71,-20.2
981,1747401534600,0.0,-0.68,-1.46,-18.92,7.14,-4.52
982,1747401534610,0.0,-0.68,-1.46,-18.92,7.14,-4.52
983,1747401534620,0.0,-0.68,-1.46,-18.92,7.14,-4.52
984,1747401534630,0.0,-0.68,-1.46,-18.92,7.14,-4.52
985,1747401534640,0.07,-0.81,-1.43,-19.590000000000003,-8.299999999999999,13.58
986,1747401534650,0.07,-0.81,-1.43,-20.26,-23.74,31.68
987,1747401534660,0.07,-0.81,-1.43,-20.26,-23.74,31.68
988,1747401534670,0.07,-0.81,-1.43,-20.26,-23.74,31.68
989,1747401534680,-0.1,-0.66,-1.28,13.49,-11.29,62.99
990,1747401534690,-0.1,-0.66,-1.28,13.49,-11.29,62.99
991,1747401534700,-0.1,-0.66,-1.28,13.49,-11.29,62.99
992,1747401534710,-0.15,-0.62,-1.255,13.49,-11.29,62.99
993,1747401534720,-0.2,-0.58,-1.23,-18.13,-50.48,65.31
994,1747401534730,-0.2,-0.58,-1.23,-18.13,-50.48,65.31
995,1747401534740,-0.2,-0.58,-1.23,-18.13,-50.48,65.31
996,1747401534750,-0.18,-0.595,-1.15,-6.775,-54.84,69.37
997,1747401534760,-0.16,-0.61,-1.07,4.58,-59.2,73.43
998,1747401534770,-0.16,-0.61,-1.07,4.58,-59.2,73.43
999,1747401534780,-0.16,-0.61,-1.07,4.58,-59.2,73.43
1000,1747401534790,-0.16,-0.61,-1.07,4.58,-59.2,73.43
