id,timestamp,acc_x,acc_y,acc_z,gyro_x,gyro_y,gyro_z
0,1747401567200,0.99,-0.71,-0.18,-33.26,-75.74,21.73
1,1747401567210,0.99,-0.64,-0.22,33.51,-15.01,22.58
2,1747401567220,0.99,-0.64,-0.22,33.51,-15.01,22.58
3,1747401567230,0.99,-0.64,-0.22,33.51,-15.01,22.58
4,1747401567240,0.99,-0.64,-0.22,33.51,-15.01,22.58
5,1747401567250,0.99,-0.64,-0.22,33.51,-15.01,22.58
6,1747401567260,0.97,-0.48,-0.22,3.48,-48.46,35.77
7,1747401567270,0.97,-0.48,-0.22,3.48,-48.46,35.77
8,1747401567280,0.97,-0.48,-0.22,3.48,-48.46,35.77
9,1747401567290,,,,,,
10,1747401567300,,,,,,
11,1747401567310,,,,,,
12,1747401567320,,,,,,
13,1747401567330,,,,,,
14,1747401567340,,,,,,
15,1747401567350,,,,,,
16,1747401567360,,,,,,
17,1747401567370,,,,,,
18,1747401567380,,,,,,
19,1747401567390,,,,,,
20,1747401567400,,,,,,
21,1747401567410,0.88,-0.32,-0.22,-54.2,-9.09,-25.63
22,1747401567420,,,,,,
23,1747401567430,,,,,,
24,1747401567440,,,,,,
25,1747401567450,,,,,,
26,1747401567460,,,,,,
27,1747401567470,0.8,-0.5,-0.4,-91.92,-67.57,-22.89
28,1747401567480,0.8,-0.5,-0.4,-91.92,-67.57,-22.89
29,1747401567490,,,,,,
30,1747401567500,0.67,-0.58,-0.34,-31.49,-21.67,-37.84
31,1747401567510,0.67,-0.58,-0.34,-31.49,-21.67,-37.84
32,1747401567520,0.67,-0.58,-0.34,-31.49,-21.67,-37.84
33,1747401567530,0.67,-0.58,-0.34,-31.49,-21.67,-37.84
34,1747401567540,0.58,-0.45,-0.39,-81.48,-27.71,-11.23
35,1747401567550,,,,,,
36,1747401567560,,,,,,
37,1747401567570,0.58,-0.45,-0.39,-25.15,-22.16,-1.34
38,1747401567580,0.6,-0.59,-0.49,-25.15,-22.16,-1.34
39,1747401567590,,,,,,
40,1747401567600,0.6,-0.59,-0.49,-25.15,-22.16,-1.34
41,1747401567610,0.58,-0.43,-0.5,-33.57,-21.91,4.39
42,1747401567620,,,,,,
43,1747401567630,0.58,-0.43,-0.5,-33.57,-21.91,4.39
44,1747401567640,,,,,,
45,1747401567650,0.58,-0.43,-0.5,-33.57,-21.91,4.39
46,1747401567660,,,,,,
47,1747401567670,0.57,-0.54,-0.59,-46.02,-20.81,1.28
48,1747401567680,0.57,-0.54,-0.59,-46.02,-20.81,1.28
49,1747401567690,,,,,,
50,1747401567700,0.49,-0.56,-0.64,-35.71,-45.17,31.86
51,1747401567710,,,,,,
52,1747401567720,0.49,-0.56,-0.64,-35.71,-45.17,31.86
53,1747401567730,0.42,-0.47,-0.62,-36.62,-37.23,2.87
54,1747401567740,,,,,,
55,1747401567750,0.42,-0.47,-0.62,-36.62,-37.23,2.87
56,1747401567760,,,,,,
57,1747401567770,0.34,-0.56,-0.68,-45.9,-61.22,23.25
58,1747401567780,0.34,-0.56,-0.68,-45.9,-61.22,23.25
59,1747401567790,,,,,,
60,1747401567800,0.34,-0.56,-0.68,-45.9,-61.22,23.25
61,1747401567810,0.31,-0.57,-0.79,-65.61,-82.15,-21.85
62,1747401567820,0.31,-0.57,-0.79,-65.61,-82.15,-21.85
63,1747401567830,,,,,,
64,1747401567840,,,,,,
65,1747401567850,0.21,-0.7,-0.93,-40.34,-69.64,-20.51
66,1747401567860,,,,,,
67,1747401567870,0.08,-0.73,-0.97,-5.07,-7.45,-12.82
68,1747401567880,0.08,-0.73,-0.97,-5.07,-7.45,-12.82
69,1747401567890,,,,,,
70,1747401567900,0.08,-0.73,-0.97,-5.07,-7.45,-12.82
71,1747401567910,0.02,-0.68,-1.05,22.34,41.26,-26.12
72,1747401567920,,,,,,
73,1747401567930,0.02,-0.68,-1.05,22.34,41.26,-26.12
74,1747401567940,0.02,-0.68,-1.05,22.34,41.26,-26.12
75,1747401567950,,,,,,
76,1747401567960,0.08,-0.79,-1.1,-10.5,7.63,-20.39
77,1747401567970,0.08,-0.79,-1.1,-10.5,7.63,-20.39
78,1747401567980,0.08,-0.79,-1.1,-10.5,7.63,-20.39
79,1747401567990,0.08,-0.79,-1.1,-10.5,7.63,-20.39
80,1747401568000,0.15,-0.94,-1.16,-23.99,22.09,-5.55
81,1747401568010,,,,,,
82,1747401568020,0.15,-0.94,-1.16,-23.99,22.09,-5.55
83,1747401568030,0.16,-0.84,-1.28,1.34,44.43,22.16
84,1747401568040,0.16,-0.84,-1.28,1.34,44.43,22.16
85,1747401568050,0.16,-0.84,-1.28,1.34,44.43,22.16
86,1747401568060,0.08,-0.78,-1.2,1.34,44.43,22.16
87,1747401568070,,,,,,
88,1747401568080,0.08,-0.78,-1.2,-11.41,-28.63,29.72
89,1747401568090,,,,,,
90,1747401568100,0.08,-0.78,-1.2,-11.41,-28.63,29.72
91,1747401568110,0.07,-0.63,-0.94,-30.52,-85.88,40.59
92,1747401568120,0.07,-0.63,-0.94,-30.52,-85.88,40.59
93,1747401568130,0.07,-0.63,-0.94,-30.52,-85.88,40.59
94,1747401568140,0.07,-0.63,-0.94,-30.52,-85.88,40.59
95,1747401568150,0.14,-0.67,-0.91,-34.24,-75.01,27.59
96,1747401568160,0.14,-0.67,-0.91,-34.24,-75.01,27.59
97,1747401568170,0.14,-0.67,-0.91,-34.24,-75.01,27.59
98,1747401568180,0.07,-0.55,-0.9,-14.34,-27.1,72.69
99,1747401568190,0.07,-0.55,-0.9,-14.34,-27.1,72.69
100,1747401568200,,,,,,
101,1747401568210,0.07,-0.55,-0.9,-14.34,-27.1,72.69
102,1747401568220,0.16,-0.37,-0.92,-16.6,0.31,4.39
103,1747401568230,0.16,-0.37,-0.92,-16.6,0.31,4.39
104,1747401568240,0.16,-0.37,-0.92,-16.6,0.31,4.39
105,1747401568250,,,,,,
106,1747401568260,0.18,-0.52,-0.85,-16.6,0.31,4.39
107,1747401568270,0.18,-0.52,-0.85,-42.79,-16.78,-18.92
108,1747401568280,0.18,-0.52,-0.85,-42.79,-16.78,-18.92
109,1747401568290,0.18,-0.52,-0.85,-42.79,-16.78,-18.92
110,1747401568300,0.28,-0.55,-0.9,-22.52,-5.25,3.42
111,1747401568310,0.28,-0.55,-0.9,-22.52,-5.25,3.42
112,1747401568320,0.28,-0.55,-0.9,-22.52,-5.25,3.42
113,1747401568330,0.28,-0.55,-0.9,-22.52,-5.25,3.42
114,1747401568340,0.27,-0.35,-0.86,-20.87,-21.48,6.65
115,1747401568350,0.27,-0.35,-0.86,-20.87,-21.48,6.65
116,1747401568360,0.27,-0.35,-0.86,-20.87,-21.48,6.65
117,1747401568370,0.26,-0.41,-0.82,-20.87,-21.48,6.65
118,1747401568380,0.26,-0.41,-0.82,-41.02,-25.45,-0.31
119,1747401568390,0.26,-0.41,-0.82,-41.02,-25.45,-0.31
120,1747401568400,0.26,-0.41,-0.82,-41.02,-25.45,-0.31
121,1747401568410,0.3,-0.35,-0.78,-54.2,-49.56,50.29
122,1747401568420,0.3,-0.35,-0.78,-54.2,-49.56,50.29
123,1747401568430,,,,,,
124,1747401568440,0.3,-0.35,-0.78,-54.2,-49.56,50.29
125,1747401568450,0.33,-0.27,-0.78,-50.96,-59.94,19.65
126,1747401568460,0.33,-0.27,-0.78,-50.96,-59.94,19.65
127,1747401568470,0.33,-0.27,-0.78,-50.96,-59.94,19.65
128,1747401568480,0.21,-0.22,-1.03,-12.57,-14.28,-9.89
129,1747401568490,,,,,,
130,1747401568500,0.21,-0.22,-1.03,-12.57,-14.28,-9.89
131,1747401568510,0.21,-0.22,-1.03,-12.57,-14.28,-9.89
132,1747401568520,0.21,-0.22,-1.03,-12.57,-14.28,-9.89
133,1747401568530,0.36,-0.23,-0.77,-19.23,-49.93,-5.07
134,1747401568540,0.36,-0.23,-0.77,-19.23,-49.93,-5.07
135,1747401568550,0.36,-0.23,-0.77,-19.23,-49.93,-5.07
136,1747401568560,0.36,-0.23,-0.77,-19.23,-49.93,-5.07
137,1747401568570,0.3,-0.14,-1.01,-19.23,-49.93,-5.07
138,1747401568580,0.3,-0.14,-1.01,-19.23,-49.93,-5.07
139,1747401568590,0.3,-0.14,-1.01,-5.98,-44.92,-37.05
140,1747401568600,0.25,-0.08,-0.82,-25.39,-20.32,-13.55
141,1747401568610,0.25,-0.08,-0.82,-25.39,-20.32,-13.55
142,1747401568620,0.25,-0.08,-0.82,-25.39,-20.32,-13.55
143,1747401568630,0.25,-0.08,-0.82,-25.39,-20.32,-13.55
144,1747401568640,0.27,-0.14,-0.86,-30.79,-16.475,-26.275
145,1747401568650,0.27,-0.14,-0.86,-36.19,-12.63,-39.0
146,1747401568660,0.27,-0.14,-0.86,-36.19,-12.63,-39.0
147,1747401568670,0.27,-0.14,-0.86,-36.19,-12.63,-39.0
148,1747401568680,0.37,-0.05,-1.08,-42.42,-12.57,-44.31
149,1747401568690,0.37,-0.05,-1.08,-42.42,-12.57,-44.31
150,1747401568700,0.37,-0.05,-1.08,-42.42,-12.57,-44.31
151,1747401568710,0.52,-0.19,-1.12,-42.42,-12.57,-44.31
152,1747401568720,0.52,-0.19,-1.12,-32.9,-16.66,-52.0
153,1747401568730,0.52,-0.19,-1.12,-32.9,-16.66,-52.0
154,1747401568740,0.52,-0.19,-1.12,-32.9,-16.66,-52.0
155,1747401568750,0.52,-0.19,-1.12,-32.9,-16.66,-52.0
156,1747401568760,0.52,-0.19,-1.19,-3.3,-6.23,-40.16
157,1747401568770,0.52,-0.19,-1.19,-3.3,-6.23,-40.16
158,1747401568780,,,,,,
159,1747401568790,0.52,-0.19,-1.19,-3.3,-6.23,-40.16
160,1747401568800,0.52,-0.2,-1.19,10.5,-23.99,-33.08
161,1747401568810,0.52,-0.2,-1.19,10.5,-23.99,-33.08
162,1747401568820,0.52,-0.2,-1.19,10.5,-23.99,-33.08
163,1747401568830,,,,,,
164,1747401568840,0.55,-0.15,-1.14,27.4,-13.92,-17.03
165,1747401568850,0.55,-0.15,-1.14,27.4,-13.92,-17.03
166,1747401568860,0.55,-0.15,-1.14,27.4,-13.92,-17.03
167,1747401568870,0.53,-0.1,-1.1,20.94,9.16,2.87
168,1747401568880,0.53,-0.1,-1.1,20.94,9.16,2.87
169,1747401568890,0.53,-0.1,-1.1,20.94,9.16,2.87
170,1747401568900,0.53,-0.1,-1.1,20.94,9.16,2.87
171,1747401568910,0.52,-0.06,-1.12,28.87,20.63,0.06
172,1747401568920,0.52,-0.06,-1.12,28.87,20.63,0.06
173,1747401568930,0.52,-0.06,-1.12,28.87,20.63,0.06
174,1747401568940,0.52,-0.06,-1.12,28.87,20.63,0.06
175,1747401568950,0.5,-0.02,-1.07,23.01,-2.26,-0.61
176,1747401568960,0.5,-0.02,-1.07,23.01,-2.26,-0.61
177,1747401568970,0.5,-0.02,-1.07,23.01,-2.26,-0.61
178,1747401568980,0.55,-0.06,-0.98,23.01,-2.26,-0.61
179,1747401568990,0.55,-0.06,-0.98,14.59,-11.05,-2.2
180,1747401569000,0.55,-0.06,-0.98,14.59,-11.05,-2.2
181,1747401569010,0.55,-0.06,-0.98,14.59,-11.05,-2.2
182,1747401569020,0.57,0.06,-1.1,-14.16,4.7,-7.63
183,1747401569030,0.57,0.06,-1.1,-14.16,4.7,-7.63
184,1747401569040,0.57,0.06,-1.1,-14.16,4.7,-7.63
185,1747401569050,0.57,0.06,-1.1,-14.16,4.7,-7.63
186,1747401569060,0.47,-0.26,-0.96,12.57,0.98,24.66
187,1747401569070,0.47,-0.26,-0.96,12.57,0.98,24.66
188,1747401569080,0.47,-0.26,-0.96,12.57,0.98,24.66
189,1747401569090,0.47,-0.26,-0.96,12.57,0.98,24.66
190,1747401569100,0.31,-0.03,-0.97,4.39,2.32,5.55
191,1747401569110,0.31,-0.03,-0.97,4.39,2.32,5.55
192,1747401569120,0.31,-0.03,-0.97,4.39,2.32,5.55
193,1747401569130,0.36,-0.33,-0.98,-59.75,-26.92,53.71
194,1747401569140,0.36,-0.33,-0.98,-59.75,-26.92,53.71
195,1747401569150,0.36,-0.33,-0.98,-59.75,-26.92,53.71
196,1747401569160,0.36,-0.33,-0.98,-59.75,-26.92,53.71
197,1747401569170,0.23,-0.21,-0.91,20.75,-13.98,8.3
198,1747401569180,0.23,-0.21,-0.91,20.75,-13.98,8.3
199,1747401569190,0.23,-0.21,-0.91,20.75,-13.98,8.3
200,1747401569200,0.23,-0.21,-0.91,20.75,-13.98,8.3
201,1747401569210,0.28,-0.18,-0.94,-9.83,-18.55,15.44
202,1747401569220,0.28,-0.18,-0.94,-9.83,-18.55,15.44
203,1747401569230,0.28,-0.18,-0.94,-9.83,-18.55,15.44
204,1747401569240,0.28,-0.18,-0.94,-9.83,-18.55,15.44
205,1747401569250,0.07,-0.39,-0.9,12.51,0.37,2.75
206,1747401569260,0.07,-0.39,-0.9,12.51,0.37,2.75
207,1747401569270,0.07,-0.39,-0.9,12.51,0.37,2.75
208,1747401569280,0.07,-0.39,-0.9,12.51,0.37,2.75
209,1747401569290,0.13,-0.28,-0.92,-23.32,10.25,33.63
210,1747401569300,0.13,-0.28,-0.92,-23.32,10.25,33.63
211,1747401569310,0.13,-0.28,-0.92,-23.32,10.25,33.63
212,1747401569320,0.13,-0.28,-0.92,-23.32,10.25,33.63
213,1747401569330,0.01,-0.33,-0.93,19.04,-5.31,3.23
214,1747401569340,0.01,-0.33,-0.93,19.04,-5.31,3.23
215,1747401569350,0.01,-0.33,-0.93,19.04,-5.31,3.23
216,1747401569360,0.05,-0.27,-0.9,-9.09,-33.57,9.16
217,1747401569370,0.05,-0.27,-0.9,-9.09,-33.57,9.16
218,1747401569380,0.05,-0.27,-0.9,-9.09,-33.57,9.16
219,1747401569390,0.05,-0.27,-0.9,-9.09,-33.57,9.16
220,1747401569400,0.07,-0.33,-0.88,0.2450000000000001,-27.375,-0.2699999999999996
221,1747401569410,0.07,-0.33,-0.88,9.58,-21.18,-9.7
222,1747401569420,0.07,-0.33,-0.88,9.58,-21.18,-9.7
223,1747401569430,0.07,-0.25,-0.93,9.58,-21.18,-9.7
224,1747401569440,0.07,-0.17,-0.98,8.67,-10.56,9.77
225,1747401569450,0.07,-0.17,-0.98,8.67,-10.56,9.77
226,1747401569460,0.07,-0.17,-0.98,8.67,-10.56,9.77
227,1747401569470,0.015,-0.2299999999999999,-0.915,8.67,-10.56,9.77
228,1747401569480,-0.04,-0.29,-0.85,14.34,-18.49,-10.62
229,1747401569490,-0.04,-0.29,-0.85,14.34,-18.49,-10.62
230,1747401569500,-0.04,-0.29,-0.85,14.34,-18.49,-10.62
231,1747401569510,-0.04,-0.29,-0.85,14.34,-18.49,-10.62
232,1747401569520,-0.04,-0.27,-0.87,-10.99,-19.9,-1.59
233,1747401569530,-0.04,-0.27,-0.87,-10.99,-19.9,-1.59
234,1747401569540,,,,,,
235,1747401569550,-0.04,-0.27,-0.87,-10.99,-19.9,-1.59
236,1747401569560,-0.08,-0.37,-0.88,-3.36,-15.63,-17.15
237,1747401569570,-0.08,-0.37,-0.88,-3.36,-15.63,-17.15
238,1747401569580,-0.08,-0.37,-0.88,-3.36,-15.63,-17.15
239,1747401569590,-0.17,-0.54,-0.85,-3.36,-15.63,-17.15
240,1747401569600,-0.17,-0.54,-0.85,-20.57,5.74,7.93
241,1747401569610,-0.17,-0.54,-0.85,-20.57,5.74,7.93
242,1747401569620,-0.17,-0.54,-0.85,-20.57,5.74,7.93
243,1747401569630,-0.3,-0.49,-1.0,-5.49,62.87,1.71
244,1747401569640,-0.3,-0.49,-1.0,-5.49,62.87,1.71
245,1747401569650,-0.3,-0.49,-1.0,-5.49,62.87,1.71
246,1747401569660,-0.3,-0.49,-1.0,-5.49,62.87,1.71
247,1747401569670,-0.48,-0.64,-1.06,10.8,59.08,14.95
248,1747401569680,-0.48,-0.64,-1.06,10.8,59.08,14.95
249,1747401569690,-0.48,-0.64,-1.06,10.8,59.08,14.95
250,1747401569700,-0.49,-0.515,-1.07,11.29,63.08,19.715
251,1747401569710,-0.5,-0.39,-1.08,11.78,67.08,24.48
252,1747401569720,-0.5,-0.39,-1.08,11.78,67.08,24.48
253,1747401569730,-0.5,-0.39,-1.08,11.78,67.08,24.48
254,1747401569740,-0.5,-0.39,-1.08,11.78,67.08,24.48
255,1747401569750,-0.47,-0.41,-1.19,-55.91,37.9,11.84
256,1747401569760,-0.47,-0.41,-1.19,-55.91,37.9,11.84
257,1747401569770,-0.47,-0.41,-1.19,-55.91,37.9,11.84
258,1747401569780,-0.43,-0.475,-1.245,-39.0,26.49,11.69
259,1747401569790,-0.39,-0.54,-1.3,-22.09,15.08,11.54
260,1747401569800,-0.39,-0.54,-1.3,-22.09,15.08,11.54
261,1747401569810,-0.39,-0.54,-1.3,-22.09,15.08,11.54
262,1747401569820,-0.24,-0.38,-1.19,7.75,-10.56,4.64
263,1747401569830,-0.24,-0.38,-1.19,7.75,-10.56,4.64
264,1747401569840,-0.24,-0.38,-1.19,7.75,-10.56,4.64
265,1747401569850,-0.24,-0.38,-1.19,7.75,-10.56,4.64
266,1747401569860,-0.24,-0.46,-1.16,-21.12,-21.24,8.42
267,1747401569870,-0.24,-0.46,-1.16,-21.12,-21.24,8.42
268,1747401569880,-0.24,-0.46,-1.16,-21.12,-21.24,8.42
269,1747401569890,-0.24,-0.46,-1.16,-21.12,-21.24,8.42
270,1747401569900,-0.28,-0.49,-1.17,2.08,-15.38,27.83
271,1747401569910,-0.28,-0.49,-1.17,2.08,-15.38,27.83
272,1747401569920,-0.28,-0.49,-1.17,2.08,-15.38,27.83
273,1747401569930,-0.28,-0.49,-1.17,2.08,-15.38,27.83
274,1747401569940,-0.33,-0.37,-1.11,9.4,-7.69,24.66
275,1747401569950,-0.33,-0.37,-1.11,9.4,-7.69,24.66
276,1747401569960,-0.33,-0.37,-1.11,9.4,-7.69,24.66
277,1747401569970,-0.28,-0.4,-1.09,9.4,-7.69,24.66
278,1747401569980,-0.28,-0.4,-1.09,-10.31,-25.51,4.76
279,1747401569990,-0.28,-0.4,-1.09,-10.31,-25.51,4.76
280,1747401570000,-0.28,-0.4,-1.09,-10.31,-25.51,4.76
281,1747401570010,-0.185,-0.43,-1.065,-12.54,-38.755,13.765
282,1747401570020,-0.09,-0.46,-1.04,-14.77,-52.0,22.77
283,1747401570030,-0.09,-0.46,-1.04,-14.77,-52.0,22.77
284,1747401570040,-0.09,-0.46,-1.04,-14.77,-52.0,22.77
285,1747401570050,-0.16,-0.33,-0.95,1.59,-14.95,7.14
286,1747401570060,-0.16,-0.33,-0.95,1.59,-14.95,7.14
287,1747401570070,-0.16,-0.33,-0.95,1.59,-14.95,7.14
288,1747401570080,-0.16,-0.33,-0.95,1.59,-14.95,7.14
289,1747401570090,-0.14,-0.36,-0.93,-4.88,-8.48,3.72
290,1747401570100,-0.14,-0.36,-0.93,-4.88,-8.48,3.72
291,1747401570110,-0.14,-0.36,-0.93,-4.88,-8.48,3.72
292,1747401570120,-0.14,-0.36,-0.93,-4.88,-8.48,3.72
293,1747401570130,-0.05,-0.24,-0.85,-1.04,-14.65,4.15
294,1747401570140,-0.05,-0.24,-0.85,-1.04,-14.65,4.15
295,1747401570150,-0.05,-0.24,-0.85,-1.04,-14.65,4.15
296,1747401570160,-0.04,-0.2299999999999999,-0.84,-1.04,-14.65,4.15
297,1747401570170,-0.03,-0.22,-0.83,-12.27,19.41,-35.16
298,1747401570180,-0.03,-0.22,-0.83,-12.27,19.41,-35.16
299,1747401570190,-0.03,-0.22,-0.83,-12.27,19.41,-35.16
300,1747401570200,0.01,-0.34,-0.9,-0.67,-15.32,10.93
301,1747401570210,0.01,-0.34,-0.9,-0.67,-15.32,10.93
302,1747401570220,0.01,-0.34,-0.9,-0.67,-15.32,10.93
303,1747401570230,0.01,-0.34,-0.9,-0.67,-15.32,10.93
304,1747401570240,0.16,-0.16,-0.79,7.93,17.58,-29.91
305,1747401570250,0.16,-0.16,-0.79,7.93,17.58,-29.91
306,1747401570260,0.16,-0.16,-0.79,7.93,17.58,-29.91
307,1747401570270,0.16,-0.16,-0.79,7.93,17.58,-29.91
308,1747401570280,0.03,-0.21,-0.85,-17.58,9.95,-31.98
309,1747401570290,0.03,-0.21,-0.85,-17.58,9.95,-31.98
310,1747401570300,0.03,-0.21,-0.85,-17.58,9.95,-31.98
311,1747401570310,0.03,-0.21,-0.85,-17.58,9.95,-31.98
312,1747401570320,0.27,-0.17,-0.84,-25.51,-37.05,14.71
313,1747401570330,0.27,-0.17,-0.84,-25.51,-37.05,14.71
314,1747401570340,0.27,-0.17,-0.84,-25.51,-37.05,14.71
315,1747401570350,0.21,-0.07,-0.87,-25.51,-37.05,14.71
316,1747401570360,0.21,-0.07,-0.87,-27.47,11.96,-26.67
317,1747401570370,0.21,-0.07,-0.87,-27.47,11.96,-26.67
318,1747401570380,0.21,-0.07,-0.87,-27.47,11.96,-26.67
319,1747401570390,0.195,-0.09,-0.915,-36.35,-3.174999999999999,-12.725
320,1747401570400,0.18,-0.11,-0.96,-45.23,-18.31,1.22
321,1747401570410,0.18,-0.11,-0.96,-45.23,-18.31,1.22
322,1747401570420,0.18,-0.11,-0.96,-45.23,-18.31,1.22
323,1747401570430,0.35,-0.02,-0.95,-49.87,-11.54,-21.48
324,1747401570440,0.35,-0.02,-0.95,-49.87,-11.54,-21.48
325,1747401570450,0.35,-0.02,-0.95,-49.87,-11.54,-21.48
326,1747401570460,0.35,-0.02,-0.95,-49.87,-11.54,-21.48
327,1747401570470,0.3,-0.1,-1.08,-32.71,16.42,-23.19
328,1747401570480,0.3,-0.1,-1.08,-32.71,16.42,-23.19
329,1747401570490,0.3,-0.1,-1.08,-32.71,16.42,-23.19
330,1747401570500,0.3,-0.1,-1.08,-32.71,16.42,-23.19
331,1747401570510,0.35,-0.04,-1.11,-9.4,10.01,-34.48
332,1747401570520,0.35,-0.04,-1.11,-9.4,10.01,-34.48
333,1747401570530,0.35,-0.04,-1.11,-9.4,10.01,-34.48
334,1747401570540,0.35,-0.04,-1.11,-9.4,10.01,-34.48
335,1747401570550,0.41,-0.11,-1.1,9.03,32.29,-38.33
336,1747401570560,0.41,-0.11,-1.1,9.03,32.29,-38.33
337,1747401570570,0.41,-0.11,-1.1,9.03,32.29,-38.33
338,1747401570580,0.395,-0.08,-1.12,7.63,25.33,-30.76
339,1747401570590,0.38,-0.05,-1.14,6.23,18.37,-23.19
340,1747401570600,0.38,-0.05,-1.14,6.23,18.37,-23.19
341,1747401570610,0.38,-0.05,-1.14,6.23,18.37,-23.19
342,1747401570620,0.38,-0.05,-1.14,6.23,18.37,-23.19
343,1747401570630,0.43,-0.05,-1.16,-13.98,15.69,-14.71
344,1747401570640,0.43,-0.05,-1.16,-13.98,15.69,-14.71
345,1747401570650,0.43,-0.05,-1.16,-13.98,15.69,-14.71
346,1747401570660,0.42,-0.05,-1.1949999999999998,-12.21,13.705,-12.85
347,1747401570670,0.41,-0.05,-1.23,-10.44,11.72,-10.99
348,1747401570680,0.41,-0.05,-1.23,-10.44,11.72,-10.99
349,1747401570690,0.41,-0.05,-1.23,-10.44,11.72,-10.99
350,1747401570700,0.4599999999999999,-0.015,-1.22,-0.125,9.185,-11.475
351,1747401570710,0.51,0.02,-1.21,10.19,6.65,-11.96
352,1747401570720,0.51,0.02,-1.21,10.19,6.65,-11.96
353,1747401570730,0.51,0.02,-1.21,10.19,6.65,-11.96
354,1747401570740,0.46,-0.03,-1.06,-9.22,29.79,6.35
355,1747401570750,0.46,-0.03,-1.06,-9.22,29.79,6.35
356,1747401570760,0.46,-0.03,-1.06,-9.22,29.79,6.35
357,1747401570770,0.46,-0.03,-1.06,-9.22,29.79,6.35
358,1747401570780,0.5,-0.01,-1.11,-3.36,5.55,-0.24
359,1747401570790,0.5,-0.01,-1.11,-3.36,5.55,-0.24
360,1747401570800,0.5,-0.01,-1.11,-3.36,5.55,-0.24
361,1747401570810,0.5,-0.01,-1.11,-3.36,5.55,-0.24
362,1747401570820,0.42,-0.07,-1.03,47.36,13.43,2.99
363,1747401570830,0.42,-0.07,-1.03,47.36,13.43,2.99
364,1747401570840,0.42,-0.07,-1.03,47.36,13.43,2.99
365,1747401570850,0.44,0.05,-1.04,47.36,13.43,2.99
366,1747401570860,0.44,0.05,-1.04,15.75,12.57,5.25
367,1747401570870,0.44,0.05,-1.04,15.75,12.57,5.25
368,1747401570880,0.44,0.05,-1.04,15.75,12.57,5.25
369,1747401570890,0.44,0.05,-1.04,15.75,12.57,5.25
370,1747401570900,0.37,-0.15,-1.05,15.93,17.21,11.6
371,1747401570910,,,,,,
372,1747401570920,0.37,-0.15,-1.05,15.93,17.21,11.6
373,1747401570930,0.32,-0.06,-0.98,14.47,-10.56,8.06
374,1747401570940,0.32,-0.06,-0.98,14.47,-10.56,8.06
375,1747401570950,0.32,-0.06,-0.98,14.47,-10.56,8.06
376,1747401570960,0.32,-0.06,-0.98,14.47,-10.56,8.06
377,1747401570970,0.32,-0.22,-0.94,-11.11,-14.83,2.75
378,1747401570980,0.32,-0.22,-0.94,-11.11,-14.83,2.75
379,1747401570990,0.32,-0.22,-0.94,-11.11,-14.83,2.75
380,1747401571000,0.32,-0.22,-0.94,-11.11,-14.83,2.75
381,1747401571010,0.19,-0.3,-0.96,0.06,-5.55,7.93
382,1747401571020,0.19,-0.3,-0.96,0.06,-5.55,7.93
383,1747401571030,0.19,-0.3,-0.96,0.06,-5.55,7.93
384,1747401571040,0.22,-0.265,-0.965,1.19,-1.615,8.605
385,1747401571050,0.25,-0.23,-0.97,2.32,2.32,9.28
386,1747401571060,0.25,-0.23,-0.97,2.32,2.32,9.28
387,1747401571070,0.25,-0.23,-0.97,2.32,2.32,9.28
388,1747401571080,0.07,-0.26,-0.85,7.81,2.75,4.52
389,1747401571090,0.07,-0.26,-0.85,7.81,2.75,4.52
390,1747401571100,0.07,-0.26,-0.85,7.81,2.75,4.52
391,1747401571110,0.07,-0.26,-0.85,7.81,2.75,4.52
392,1747401571120,0.1,-0.26,-0.98,-7.69,-9.46,0.18
393,1747401571130,0.1,-0.26,-0.98,-7.69,-9.46,0.18
394,1747401571140,0.1,-0.26,-0.98,-7.69,-9.46,0.18
395,1747401571150,0.1,-0.26,-0.98,-7.69,-9.46,0.18
396,1747401571160,-0.01,-0.28,-0.87,10.19,-11.9,-13.98
397,1747401571170,-0.01,-0.28,-0.87,10.19,-11.9,-13.98
398,1747401571180,-0.01,-0.28,-0.87,10.19,-11.9,-13.98
399,1747401571190,-0.01,-0.28,-0.87,10.19,-11.9,-13.98
400,1747401571200,0.17,-0.28,-0.84,-21.73,-41.26,8.61
401,1747401571210,0.17,-0.28,-0.84,-21.73,-41.26,8.61
402,1747401571220,0.17,-0.28,-0.84,-21.73,-41.26,8.61
403,1747401571230,0.115,-0.265,-0.845,-21.73,-41.26,8.61
404,1747401571240,0.06,-0.25,-0.85,7.32,0.98,-11.72
405,1747401571250,0.06,-0.25,-0.85,7.32,0.98,-11.72
406,1747401571260,0.06,-0.25,-0.85,7.32,0.98,-11.72
407,1747401571270,0.05,-0.27,-0.94,-4.03,-5.585,2.53
408,1747401571280,0.05,-0.27,-0.94,-15.38,-12.15,16.78
409,1747401571290,0.05,-0.27,-0.94,-15.38,-12.15,16.78
410,1747401571300,0.05,-0.27,-0.94,-15.38,-12.15,16.78
411,1747401571310,-0.01,-0.26,-0.98,22.16,42.36,12.45
412,1747401571320,-0.01,-0.26,-0.98,22.16,42.36,12.45
413,1747401571330,-0.01,-0.26,-0.98,22.16,42.36,12.45
414,1747401571340,-0.01,-0.26,-0.98,22.16,42.36,12.45
415,1747401571350,-0.08,-0.21,-1.01,33.205,45.35,0.4899999999999993
416,1747401571360,-0.08,-0.21,-1.01,44.25,48.34,-11.47
417,1747401571370,-0.08,-0.21,-1.01,44.25,48.34,-11.47
418,1747401571380,-0.08,-0.21,-1.01,44.25,48.34,-11.47
419,1747401571390,-0.08,-0.28,-1.02,-7.14,2.2,-4.64
420,1747401571400,-0.08,-0.28,-1.02,-7.14,2.2,-4.64
421,1747401571410,-0.08,-0.28,-1.02,-7.14,2.2,-4.64
422,1747401571420,-0.105,-0.36,-1.01,-7.14,2.2,-4.64
423,1747401571430,-0.13,-0.44,-1.0,17.33,41.69,-5.25
424,1747401571440,-0.13,-0.44,-1.0,17.33,41.69,-5.25
425,1747401571450,-0.13,-0.44,-1.0,17.33,41.69,-5.25
426,1747401571460,-0.3,-0.46,-1.02,17.33,41.69,-5.25
427,1747401571470,-0.3,-0.46,-1.02,21.85,68.05,-12.27
428,1747401571480,-0.3,-0.46,-1.02,21.85,68.05,-12.27
429,1747401571490,-0.3,-0.46,-1.02,21.85,68.05,-12.27
430,1747401571500,-0.3,-0.46,-1.02,21.85,68.05,-12.27
431,1747401571510,-0.3,-0.55,-1.09,-2.93,19.17,-26.0
432,1747401571520,-0.3,-0.55,-1.09,-2.93,19.17,-26.0
433,1747401571530,-0.3,-0.55,-1.09,-2.93,19.17,-26.0
434,1747401571540,-0.15,-0.54,-1.16,-2.93,19.17,-26.0
435,1747401571550,-0.15,-0.54,-1.16,-0.92,21.48,-21.85
436,1747401571560,-0.15,-0.54,-1.16,-0.92,21.48,-21.85
437,1747401571570,-0.15,-0.54,-1.16,-0.92,21.48,-21.85
438,1747401571580,-0.1699999999999999,-0.5700000000000001,-1.18,-3.42,16.11,-12.48
439,1747401571590,-0.19,-0.6,-1.2,-5.92,10.74,-3.11
440,1747401571600,-0.19,-0.6,-1.2,-5.92,10.74,-3.11
441,1747401571610,-0.19,-0.6,-1.2,-5.92,10.74,-3.11
442,1747401571620,-0.18,-0.57,-1.23,-9.46,3.05,19.23
443,1747401571630,-0.18,-0.57,-1.23,-9.46,3.05,19.23
444,1747401571640,-0.18,-0.57,-1.23,-9.46,3.05,19.23
445,1747401571650,-0.18,-0.57,-1.23,-9.46,3.05,19.23
446,1747401571660,-0.22,-0.55,-1.24,-26.86,-28.02,22.28
447,1747401571670,-0.22,-0.55,-1.24,-26.86,-28.02,22.28
448,1747401571680,-0.22,-0.55,-1.24,-26.86,-28.02,22.28
449,1747401571690,-0.22,-0.55,-1.24,-26.86,-28.02,22.28
450,1747401571700,-0.18,-0.52,-1.19,-23.62,-47.85,27.04
451,1747401571710,-0.18,-0.52,-1.19,-23.62,-47.85,27.04
452,1747401571720,-0.18,-0.52,-1.19,-23.62,-47.85,27.04
453,1747401571730,-0.175,-0.49,-1.17,-18.065,-34.7,27.835
454,1747401571740,-0.17,-0.46,-1.15,-12.51,-21.55,28.63
455,1747401571750,-0.17,-0.46,-1.15,-12.51,-21.55,28.63
456,1747401571760,-0.17,-0.46,-1.15,-12.51,-21.55,28.63
457,1747401571770,-0.175,-0.46,-1.125,-12.665,-28.26,24.6
458,1747401571780,-0.18,-0.46,-1.1,-12.82,-34.97,20.57
459,1747401571790,-0.18,-0.46,-1.1,-12.82,-34.97,20.57
460,1747401571800,-0.18,-0.46,-1.1,-12.82,-34.97,20.57
461,1747401571810,-0.145,-0.46,-1.07,-8.67,-31.28,22.155
462,1747401571820,-0.11,-0.46,-1.04,-4.52,-27.59,23.74
463,1747401571830,-0.11,-0.46,-1.04,-4.52,-27.59,23.74
464,1747401571840,-0.11,-0.46,-1.04,-4.52,-27.59,23.74
465,1747401571850,-0.11,-0.405,-0.98,-4.52,-27.59,23.74
466,1747401571860,-0.11,-0.35,-0.92,-3.97,-25.27,5.31
467,1747401571870,-0.11,-0.35,-0.92,-3.97,-25.27,5.31
468,1747401571880,-0.11,-0.35,-0.92,-3.97,-25.27,5.31
469,1747401571890,-0.06,-0.47,-0.94,-22.77,-31.98,47.12
470,1747401571900,-0.06,-0.47,-0.94,-22.77,-31.98,47.12
471,1747401571910,-0.06,-0.47,-0.94,-22.77,-31.98,47.12
472,1747401571920,-0.06,-0.47,-0.94,-22.77,-31.98,47.12
473,1747401571930,-0.11,-0.29,-0.91,4.88,-22.95,20.57
474,1747401571940,-0.11,-0.29,-0.91,4.88,-22.95,20.57
475,1747401571950,-0.11,-0.29,-0.91,4.88,-22.95,20.57
476,1747401571960,-0.09,-0.28,-0.87,4.88,-22.95,20.57
477,1747401571970,-0.07,-0.27,-0.83,-5.98,-20.87,23.56
478,1747401571980,-0.07,-0.27,-0.83,-5.98,-20.87,23.56
479,1747401571990,-0.07,-0.27,-0.83,-5.98,-20.87,23.56
480,1747401572000,-0.07,-0.27,-0.83,-5.98,-20.87,23.56
481,1747401572010,-0.1,-0.19,-0.84,-11.96,-6.16,7.87
482,1747401572020,-0.1,-0.19,-0.84,-11.96,-6.16,7.87
483,1747401572030,-0.1,-0.19,-0.84,-11.96,-6.16,7.87
484,1747401572040,-0.08,-0.19,-0.845,-4.575,-2.745,-7.6
485,1747401572050,-0.06,-0.19,-0.85,2.81,0.67,-23.07
486,1747401572060,-0.06,-0.19,-0.85,2.81,0.67,-23.07
487,1747401572070,-0.06,-0.19,-0.85,2.81,0.67,-23.07
488,1747401572080,0.0,-0.165,-0.825,-0.825,2.5,-12.115
489,1747401572090,0.06,-0.14,-0.8,-4.46,4.33,-1.16
490,1747401572100,0.06,-0.14,-0.8,-4.46,4.33,-1.16
491,1747401572110,0.06,-0.14,-0.8,-4.46,4.33,-1.16
492,1747401572120,0.07,-0.13,-0.845,-4.425,15.075,-22.185
493,1747401572130,0.08,-0.12,-0.89,-4.39,25.82,-43.21
494,1747401572140,0.08,-0.12,-0.89,-4.39,25.82,-43.21
495,1747401572150,0.08,-0.12,-0.89,-4.39,25.82,-43.21
496,1747401572160,0.12,-0.09,-0.89,-31.19,-10.86,-20.32
497,1747401572170,0.12,-0.09,-0.89,-31.19,-10.86,-20.32
498,1747401572180,0.12,-0.09,-0.89,-31.19,-10.86,-20.32
499,1747401572190,0.12,-0.09,-0.89,-31.19,-10.86,-20.32
500,1747401572200,0.21,-0.11,-0.91,-32.17,2.08,-31.01
501,1747401572210,0.21,-0.11,-0.91,-32.17,2.08,-31.01
502,1747401572220,0.21,-0.11,-0.91,-32.17,2.08,-31.01
503,1747401572230,0.2299999999999999,-0.045,-0.94,-28.355,3.27,-32.29
504,1747401572240,0.25,0.02,-0.97,-24.54,4.46,-33.57
505,1747401572250,0.25,0.02,-0.97,-24.54,4.46,-33.57
506,1747401572260,0.25,0.02,-0.97,-24.54,4.46,-33.57
507,1747401572270,0.305,0.0,-0.985,-24.54,4.46,-33.57
508,1747401572280,0.36,-0.02,-1.0,-46.81,1.71,-35.77
509,1747401572290,0.36,-0.02,-1.0,-46.81,1.71,-35.77
510,1747401572300,0.36,-0.02,-1.0,-46.81,1.71,-35.77
511,1747401572310,0.385,-0.015,-1.035,-38.510000000000005,6.225,-30.275
512,1747401572320,0.41,-0.01,-1.07,-30.21,10.74,-24.78
513,1747401572330,0.41,-0.01,-1.07,-30.21,10.74,-24.78
514,1747401572340,0.41,-0.01,-1.07,-30.21,10.74,-24.78
515,1747401572350,0.42,-0.03,-1.03,-12.21,18.31,-24.72
516,1747401572360,0.42,-0.03,-1.03,-12.21,18.31,-24.72
517,1747401572370,0.42,-0.03,-1.03,-12.21,18.31,-24.72
518,1747401572380,0.42,-0.03,-1.03,-12.21,18.31,-24.72
519,1747401572390,0.33,-0.01,-1.08,-6.745,18.525,-27.65
520,1747401572400,0.33,-0.01,-1.08,-1.28,18.74,-30.58
521,1747401572410,0.33,-0.01,-1.08,-1.28,18.74,-30.58
522,1747401572420,0.33,-0.01,-1.08,-1.28,18.74,-30.58
523,1747401572430,0.41,-0.02,-1.1,-9.64,19.17,-35.58
524,1747401572440,0.41,-0.02,-1.1,-9.64,19.17,-35.58
525,1747401572450,0.41,-0.02,-1.1,-9.64,19.17,-35.58
526,1747401572460,0.385,-0.025,-1.145,-9.46,20.57,-35.43
527,1747401572470,0.36,-0.03,-1.19,-9.28,21.97,-35.28
528,1747401572480,0.36,-0.03,-1.19,-9.28,21.97,-35.28
529,1747401572490,0.36,-0.03,-1.19,-9.28,21.97,-35.28
530,1747401572500,0.405,-0.035,-1.21,-12.33,12.085,-28.75
531,1747401572510,0.45,-0.04,-1.23,-15.38,2.2,-22.22
532,1747401572520,0.45,-0.04,-1.23,-15.38,2.2,-22.22
533,1747401572530,0.45,-0.04,-1.23,-15.38,2.2,-22.22
534,1747401572540,0.53,-0.03,-1.19,6.59,16.3,-27.65
535,1747401572550,0.53,-0.03,-1.19,6.59,16.3,-27.65
536,1747401572560,0.53,-0.03,-1.19,6.59,16.3,-27.65
537,1747401572570,0.53,-0.03,-1.19,6.59,16.3,-27.65
538,1747401572580,0.49,-0.05,-1.19,39.67,23.44,-0.24
539,1747401572590,0.49,-0.05,-1.19,39.67,23.44,-0.24
540,1747401572600,0.49,-0.05,-1.19,39.67,23.44,-0.24
541,1747401572610,0.49,-0.05,-1.19,39.67,23.44,-0.24
542,1747401572620,0.5,0.06,-1.14,20.08,-2.5,-1.1
543,1747401572630,0.5,0.06,-1.14,20.08,-2.5,-1.1
544,1747401572640,0.5,0.06,-1.14,20.08,-2.5,-1.1
545,1747401572650,0.575,-0.045,-1.095,12.665,-6.165,10.925
546,1747401572660,0.65,-0.15,-1.05,5.25,-9.83,22.95
547,1747401572670,0.65,-0.15,-1.05,5.25,-9.83,22.95
548,1747401572680,0.65,-0.15,-1.05,5.25,-9.83,22.95
549,1747401572690,0.65,-0.15,-1.05,5.25,-9.83,22.95
550,1747401572700,0.51,0.07,-1.03,23.68,17.46,29.05
551,1747401572710,0.51,0.07,-1.03,23.68,17.46,29.05
552,1747401572720,0.51,0.07,-1.03,23.68,17.46,29.05
553,1747401572730,0.475,0.0,-1.0550000000000002,23.68,17.46,29.05
554,1747401572740,0.44,-0.07,-1.08,-19.53,-15.01,49.01
555,1747401572750,0.44,-0.07,-1.08,-19.53,-15.01,49.01
556,1747401572760,0.44,-0.07,-1.08,-19.53,-15.01,49.01
557,1747401572770,0.31,-0.04,-0.99,-2.655,-19.955,41.505
558,1747401572780,0.31,-0.04,-0.99,14.22,-24.9,34.0
559,1747401572790,0.31,-0.04,-0.99,14.22,-24.9,34.0
560,1747401572800,0.31,-0.04,-0.99,14.22,-24.9,34.0
561,1747401572810,0.35,-0.04,-1.02,-17.46,-25.94,34.67
562,1747401572820,0.35,-0.04,-1.02,-17.46,-25.94,34.67
563,1747401572830,0.35,-0.04,-1.02,-17.46,-25.94,34.67
564,1747401572840,0.35,-0.04,-1.02,-17.46,-25.94,34.67
565,1747401572850,0.14,-0.14,-0.9499999999999998,12.27,-5.489999999999999,23.01
566,1747401572860,0.14,-0.14,-0.95,12.27,-5.49,23.01
567,1747401572870,0.14,-0.14,-0.95,12.27,-5.49,23.01
568,1747401572880,0.18,-0.1,-0.93,2.81,-7.385,17.485
569,1747401572890,0.22,-0.06,-0.91,-6.65,-9.28,11.96
570,1747401572900,0.22,-0.06,-0.91,-6.65,-9.28,11.96
571,1747401572910,0.22,-0.06,-0.91,-6.65,-9.28,11.96
572,1747401572920,0.145,-0.135,-0.915,-5.25,-3.2349999999999994,14.25
573,1747401572930,0.07,-0.21,-0.92,-3.85,2.81,16.54
574,1747401572940,0.07,-0.21,-0.92,-3.85,2.81,16.54
575,1747401572950,0.07,-0.21,-0.92,-3.85,2.81,16.54
576,1747401572960,0.07,-0.18,-0.915,6.739999999999999,8.73,17.545
577,1747401572970,0.07,-0.15,-0.91,17.33,14.65,18.55
578,1747401572980,0.07,-0.15,-0.91,17.33,14.65,18.55
579,1747401572990,0.07,-0.15,-0.91,17.33,14.65,18.55
580,1747401573000,0.03,-0.155,-0.915,14.25,14.68,13.855
581,1747401573010,-0.01,-0.16,-0.92,11.17,14.71,9.16
582,1747401573020,-0.01,-0.16,-0.92,11.17,14.71,9.16
583,1747401573030,-0.01,-0.16,-0.92,11.17,14.71,9.16
584,1747401573040,0.0,-0.215,-0.92,13.46,5.28,6.535
585,1747401573050,0.01,-0.27,-0.92,15.75,-4.15,3.91
586,1747401573060,0.01,-0.27,-0.92,15.75,-4.15,3.91
587,1747401573070,0.01,-0.27,-0.92,15.75,-4.15,3.91
588,1747401573080,0.01,-0.27,-0.92,15.75,-4.15,3.91
589,1747401573090,0.08,-0.17,-0.93,-6.47,-14.47,16.91
590,1747401573100,0.08,-0.17,-0.93,-6.47,-14.47,16.91
591,1747401573110,0.045,-0.215,-0.88,-6.47,-14.47,16.91
592,1747401573120,0.01,-0.26,-0.83,25.21,3.54,-5.25
593,1747401573130,0.01,-0.26,-0.83,25.21,3.54,-5.25
594,1747401573140,0.01,-0.26,-0.83,25.21,3.54,-5.25
595,1747401573150,0.0,-0.24,-0.81,23.745,-3.385,-9.705
596,1747401573160,-0.01,-0.22,-0.79,22.28,-10.31,-14.16
597,1747401573170,-0.01,-0.22,-0.79,22.28,-10.31,-14.16
598,1747401573180,-0.01,-0.22,-0.79,22.28,-10.31,-14.16
599,1747401573190,0.0,-0.27,-0.76,22.095,-9.03,-20.815
600,1747401573200,0.0,-0.27,-0.76,21.91,-7.75,-27.47
601,1747401573210,0.0,-0.27,-0.76,21.91,-7.75,-27.47
602,1747401573220,0.0,-0.27,-0.76,21.91,-7.75,-27.47
603,1747401573230,-0.005,-0.31,-0.8200000000000001,18.705,8.575,-27.745
604,1747401573240,-0.01,-0.35,-0.88,15.5,24.9,-28.02
605,1747401573250,-0.01,-0.35,-0.88,15.5,24.9,-28.02
606,1747401573260,-0.01,-0.35,-0.88,15.5,24.9,-28.02
607,1747401573270,-0.04,-0.405,-0.945,7.26,38.94,-18.86
608,1747401573280,-0.07,-0.46,-1.01,-0.98,52.98,-9.7
609,1747401573290,-0.07,-0.46,-1.01,-0.98,52.98,-9.7
610,1747401573300,-0.07,-0.46,-1.01,-0.98,52.98,-9.7
611,1747401573310,-0.22,-0.55,-1.15,26.98,62.93,-27.95
612,1747401573320,-0.22,-0.55,-1.15,26.98,62.93,-27.95
613,1747401573330,-0.22,-0.55,-1.15,26.98,62.93,-27.95
614,1747401573340,-0.22,-0.55,-1.15,26.98,62.93,-27.95
615,1747401573350,-0.21,-0.63,-1.09,38.76,51.45,-39.0
616,1747401573360,-0.21,-0.63,-1.09,38.76,51.45,-39.0
617,1747401573370,-0.21,-0.63,-1.09,38.76,51.45,-39.0
618,1747401573380,-0.215,-0.6599999999999999,-1.0750000000000002,54.2,48.735,-46.355
619,1747401573390,-0.22,-0.69,-1.06,69.64,46.02,-53.71
620,1747401573400,-0.22,-0.69,-1.06,69.64,46.02,-53.71
621,1747401573410,-0.22,-0.69,-1.06,69.64,46.02,-53.71
622,1747401573420,-0.21,-0.7366666666666667,-1.06,71.61333333333333,42.723333333333336,-50.35333333333333
623,1747401573430,-0.19,-0.83,-1.06,75.56,36.13,-43.64
624,1747401573440,-0.19,-0.83,-1.06,75.56,36.13,-43.64
625,1747401573450,-0.19,-0.83,-1.06,75.56,36.13,-43.64
626,1747401573460,-0.165,-0.835,-1.15,49.07,31.950000000000003,-19.01
627,1747401573470,-0.14,-0.84,-1.24,22.58,27.77,5.62
628,1747401573480,-0.14,-0.84,-1.24,22.58,27.77,5.62
629,1747401573490,-0.14,-0.84,-1.24,22.58,27.77,5.62
630,1747401573500,-0.15,-0.77,-1.33,20.535,12.665,14.56
631,1747401573510,-0.15,-0.77,-1.33,18.49,-2.44,23.5
632,1747401573520,,,,,,
633,1747401573530,-0.15,-0.77,-1.33,18.49,-2.44,23.5
634,1747401573540,-0.05,-0.72,-1.23,-8.06,-62.99,29.3
635,1747401573550,-0.05,-0.72,-1.23,-8.06,-62.99,29.3
636,1747401573560,-0.05,-0.72,-1.23,-8.06,-62.99,29.3
637,1747401573570,-0.05,-0.72,-1.23,-8.06,-62.99,29.3
638,1747401573580,-0.02,-0.7,-1.02,-28.63,-41.81,46.51
639,1747401573590,-0.02,-0.7,-1.02,-28.63,-41.81,46.51
640,1747401573600,-0.02,-0.7,-1.02,-28.63,-41.81,46.51
641,1747401573610,,,,,,
642,1747401573620,-0.07,-0.66,-0.93,-28.63,-41.81,46.51
643,1747401573630,-0.07,-0.66,-0.93,-1.34,17.09,63.6
644,1747401573640,-0.07,-0.66,-0.93,-1.34,17.09,63.6
645,1747401573650,-0.07,-0.66,-0.93,-1.34,17.09,63.6
646,1747401573660,-0.1,-0.55,-0.9,-13.67,21.36,48.16
647,1747401573670,-0.1,-0.55,-0.9,-13.67,21.36,48.16
648,1747401573680,-0.1,-0.55,-0.9,-13.67,21.36,48.16
649,1747401573690,-0.1,-0.55,-0.9,-13.67,21.36,48.16
650,1747401573700,-0.03,-0.6,-0.81,-48.83,27.77,30.4
651,1747401573710,-0.03,-0.6,-0.81,-48.83,27.77,30.4
652,1747401573720,-0.03,-0.6,-0.81,-48.83,27.77,30.4
653,1747401573730,-0.03,-0.6,-0.81,-48.83,27.77,30.4
654,1747401573740,0.08,-0.59,-0.9,-15.81,10.56,33.81
655,1747401573750,0.08,-0.59,-0.9,-15.81,10.56,33.81
656,1747401573760,0.08,-0.59,-0.9,-15.81,10.56,33.81
657,1747401573770,-0.01,-0.36,-0.8,-15.81,10.56,33.81
658,1747401573780,-0.01,-0.36,-0.8,-28.81,-19.35,-0.31
659,1747401573790,-0.01,-0.36,-0.8,-28.81,-19.35,-0.31
660,1747401573800,-0.01,-0.36,-0.8,-28.81,-19.35,-0.31
661,1747401573810,0.07,-0.51,-0.81,-73.97,-26.25,8.54
662,1747401573820,0.07,-0.51,-0.81,-73.97,-26.25,8.54
663,1747401573830,0.07,-0.51,-0.81,-73.97,-26.25,8.54
664,1747401573840,0.07,-0.51,-0.81,-73.97,-26.25,8.54
665,1747401573850,0.28,-0.31,-0.75,-28.44,-10.62,42.36
666,1747401573860,0.28,-0.31,-0.75,-28.44,-10.62,42.36
667,1747401573870,0.28,-0.31,-0.75,-28.44,-10.62,42.36
668,1747401573880,0.28,-0.31,-0.75,-28.44,-10.62,42.36
669,1747401573890,0.02,-0.14,-0.74,-61.89,23.8,27.53
670,1747401573900,0.02,-0.14,-0.74,-61.89,23.8,27.53
671,1747401573910,0.02,-0.14,-0.74,-61.89,23.8,27.53
672,1747401573920,0.065,-0.17,-0.81,-69.43,9.335,26.185
673,1747401573930,0.11,-0.2,-0.88,-76.97,-5.13,24.84
674,1747401573940,0.11,-0.2,-0.88,-76.97,-5.13,24.84
675,1747401573950,0.11,-0.2,-0.88,-76.97,-5.13,24.84
676,1747401573960,0.15,-0.11,-0.85,-76.97,-5.13,24.84
677,1747401573970,0.15,-0.11,-0.85,-10.25,-11.23,-42.54
678,1747401573980,0.15,-0.11,-0.85,-10.25,-11.23,-42.54
679,1747401573990,0.15,-0.11,-0.85,-10.25,-11.23,-42.54
680,1747401574000,0.205,-0.13,-0.855,-22.98,-13.825,-32.41
681,1747401574010,0.26,-0.15,-0.86,-35.71,-16.42,-22.28
682,1747401574020,0.26,-0.15,-0.86,-35.71,-16.42,-22.28
683,1747401574030,0.26,-0.15,-0.86,-35.71,-16.42,-22.28
684,1747401574040,0.36,-0.19,-0.96,-16.72,-7.08,-16.24
685,1747401574050,0.36,-0.19,-0.96,-16.72,-7.08,-16.24
686,1747401574060,0.36,-0.19,-0.96,-16.72,-7.08,-16.24
687,1747401574070,0.36,-0.19,-0.96,-16.72,-7.08,-16.24
688,1747401574080,0.29,-0.1,-0.94,4.15,7.75,-20.75
689,1747401574090,0.29,-0.1,-0.94,4.15,7.75,-20.75
690,1747401574100,0.29,-0.1,-0.94,4.15,7.75,-20.75
691,1747401574110,0.29,-0.1,-0.94,4.15,7.75,-20.75
692,1747401574120,0.4,-0.02,-0.96,-30.94,5.43,2.75
693,1747401574130,0.4,-0.02,-0.96,-30.94,5.43,2.75
694,1747401574140,0.4,-0.02,-0.96,-30.94,5.43,2.75
695,1747401574150,0.4,-0.02,-0.96,-30.94,5.43,2.75
696,1747401574160,0.4,-0.02,-0.96,-30.94,5.43,2.75
697,1747401574170,0.41,0.02,-1.01,-47.36,18.19,-5.07
698,1747401574180,0.41,0.02,-1.01,-47.36,18.19,-5.07
699,1747401574190,0.41,0.02,-1.01,-47.36,18.19,-5.07
700,1747401574200,0.52,0.05,-1.02,-58.53,2.93,-35.16
701,1747401574210,0.52,0.05,-1.02,-58.53,2.93,-35.16
702,1747401574220,0.52,0.05,-1.02,-58.53,2.93,-35.16
703,1747401574230,0.52,0.05,-1.02,-58.53,2.93,-35.16
704,1747401574240,0.59,-0.16,-1.04,-53.41,16.24,-46.45
705,1747401574250,0.59,-0.16,-1.04,-53.41,16.24,-46.45
706,1747401574260,0.59,-0.16,-1.04,-53.41,16.24,-46.45
707,1747401574270,0.63,-0.09,-1.08,-28.66,16.33,-35.370000000000005
708,1747401574280,0.67,-0.02,-1.12,-3.91,16.42,-24.29
709,1747401574290,0.67,-0.02,-1.12,-3.91,16.42,-24.29
710,1747401574300,0.67,-0.02,-1.12,-3.91,16.42,-24.29
711,1747401574310,0.63,-0.06,-1.13,-3.725,16.815,-22.885
712,1747401574320,0.63,-0.06,-1.13,-3.54,17.21,-21.48
713,1747401574330,0.63,-0.06,-1.13,-3.54,17.21,-21.48
714,1747401574340,0.63,-0.0199999999999999,-1.16,8.27,19.01,-16.509999999999998
715,1747401574350,0.63,0.02,-1.19,20.08,20.81,-11.54
716,1747401574360,0.63,0.02,-1.19,20.08,20.81,-11.54
717,1747401574370,0.63,0.02,-1.19,20.08,20.81,-11.54
718,1747401574380,0.63,0.02,-1.19,20.08,20.81,-11.54
719,1747401574390,0.61,0.04,-1.22,9.09,-9.03,-1.89
720,1747401574400,0.61,0.04,-1.22,9.09,-9.03,-1.89
721,1747401574410,0.61,0.04,-1.22,9.09,-9.03,-1.89
722,1747401574420,0.635,0.035,-1.1949999999999998,14.25,-9.335,-1.92
723,1747401574430,0.66,0.03,-1.17,19.41,-9.64,-1.95
724,1747401574440,0.66,0.03,-1.17,19.41,-9.64,-1.95
725,1747401574450,0.66,0.03,-1.17,19.41,-9.64,-1.95
726,1747401574460,0.66,0.03,-1.17,19.41,-9.64,-1.95
727,1747401574470,0.59,0.01,-1.07,20.205,-4.73,0.43
728,1747401574480,0.59,0.01,-1.07,21.0,0.18,2.81
729,1747401574490,0.59,0.01,-1.07,21.0,0.18,2.81
730,1747401574500,0.71,-0.01,-1.08,-5.31,-4.7,31.37
731,1747401574510,0.71,-0.01,-1.08,-5.31,-4.7,31.37
732,1747401574520,0.71,-0.01,-1.08,-5.31,-4.7,31.37
733,1747401574530,0.71,-0.01,-1.08,-5.31,-4.7,31.37
734,1747401574540,0.5,-0.06,-0.94,36.07,20.2,24.35
735,1747401574550,0.5,-0.06,-0.94,36.07,20.2,24.35
736,1747401574560,0.5,-0.06,-0.94,36.07,20.2,24.35
737,1747401574570,0.5,-0.06,-0.94,36.07,20.2,24.35
738,1747401574580,0.54,0.02,-0.94,-19.47,-14.53,44.86
739,1747401574590,0.54,0.02,-0.94,-19.47,-14.53,44.86
740,1747401574600,0.54,0.02,-0.94,-19.47,-14.53,44.86
741,1747401574610,0.425,-0.0499999999999999,-0.935,-6.254999999999999,-10.715,38.39
742,1747401574620,0.31,-0.12,-0.93,6.96,-6.9,31.92
743,1747401574630,0.31,-0.12,-0.93,6.96,-6.9,31.92
744,1747401574640,0.31,-0.12,-0.93,6.96,-6.9,31.92
745,1747401574650,0.315,-0.1,-0.9,4.12,-17.12,23.955
746,1747401574660,0.32,-0.08,-0.87,1.28,-27.34,15.99
747,1747401574670,0.32,-0.08,-0.87,1.28,-27.34,15.99
748,1747401574680,0.32,-0.08,-0.87,1.28,-27.34,15.99
749,1747401574690,0.3,-0.09,-0.85,-3.66,-21.79,13.92
750,1747401574700,0.3,-0.09,-0.85,-3.66,-21.79,13.92
751,1747401574710,0.3,-0.09,-0.85,-3.66,-21.79,13.92
752,1747401574720,0.3,-0.09,-0.85,-3.66,-21.79,13.92
753,1747401574730,0.21,-0.19,-0.89,-14.83,-10.62,20.32
754,1747401574740,0.21,-0.19,-0.89,-14.83,-10.62,20.32
755,1747401574750,0.21,-0.19,-0.89,-14.83,-10.62,20.32
756,1747401574760,0.21,-0.19,-0.89,-14.83,-10.62,20.32
757,1747401574770,0.19,-0.11,-0.98,12.76,21.61,21.36
758,1747401574780,0.19,-0.11,-0.98,12.76,21.61,21.36
759,1747401574790,0.19,-0.11,-0.98,12.76,21.61,21.36
760,1747401574800,0.19,-0.11,-0.98,12.76,21.61,21.36
761,1747401574810,0.19,-0.11,-0.98,12.76,21.61,21.36
762,1747401574820,0.05,-0.18,-0.92,18.31,-1.59,18.49
763,1747401574830,0.05,-0.18,-0.92,18.31,-1.59,18.49
764,1747401574840,0.075,-0.1699999999999999,-0.94,3.3249999999999997,-15.625,19.135
765,1747401574850,0.1,-0.16,-0.96,-11.66,-29.66,19.78
766,1747401574860,0.1,-0.16,-0.96,-11.66,-29.66,19.78
767,1747401574870,0.1,-0.16,-0.96,-11.66,-29.66,19.78
768,1747401574880,0.1,-0.16,-0.96,-11.66,-29.66,19.78
769,1747401574890,0.03,-0.18,-0.94,22.46,-4.82,9.7
770,1747401574900,0.03,-0.18,-0.94,22.46,-4.82,9.7
771,1747401574910,0.03,-0.18,-0.94,22.46,-4.82,9.7
772,1747401574920,-0.01,-0.17,-0.95,8.0,-20.81,7.02
773,1747401574930,-0.01,-0.17,-0.95,8.0,-20.81,7.02
774,1747401574940,-0.01,-0.17,-0.95,8.0,-20.81,7.02
775,1747401574950,-0.01,-0.17,-0.95,8.0,-20.81,7.02
776,1747401574960,-0.05,-0.27,-0.94,0.0,-18.07,14.16
777,1747401574970,-0.05,-0.27,-0.94,0.0,-18.07,14.16
778,1747401574980,-0.05,-0.27,-0.94,0.0,-18.07,14.16
779,1747401574990,,,,,,
780,1747401575000,-0.18,-0.25,-0.94,28.81,12.02,-5.74
781,1747401575010,-0.18,-0.25,-0.94,28.81,12.02,-5.74
782,1747401575020,-0.18,-0.25,-0.94,28.81,12.02,-5.74
783,1747401575030,-0.215,-0.3,-0.975,6.654999999999999,7.05,-7.905
784,1747401575040,-0.25,-0.35,-1.01,-15.5,2.08,-10.07
785,1747401575050,-0.25,-0.35,-1.01,-15.5,2.08,-10.07
786,1747401575060,-0.25,-0.35,-1.01,-15.5,2.08,-10.07
787,1747401575070,-0.25,-0.415,-1.045,-13.885,-2.99,-13.735
788,1747401575080,-0.25,-0.48,-1.08,-12.27,-8.06,-17.4
789,1747401575090,-0.25,-0.48,-1.08,-12.27,-8.06,-17.4
790,1747401575100,-0.25,-0.48,-1.08,-12.27,-8.06,-17.4
791,1747401575110,-0.25,-0.48,-1.08,-12.27,-8.06,-17.4
792,1747401575120,-0.17,-0.42,-1.03,-6.35,-3.48,-7.63
793,1747401575130,-0.17,-0.42,-1.03,-6.35,-3.48,-7.63
794,1747401575140,-0.17,-0.42,-1.03,-6.35,-3.48,-7.63
795,1747401575150,-0.24,-0.38,-0.99,-8.3,19.53,0.12
796,1747401575160,-0.24,-0.38,-0.99,-8.3,19.53,0.12
797,1747401575170,-0.24,-0.38,-0.99,-8.3,19.53,0.12
798,1747401575180,-0.24,-0.38,-0.99,-8.3,19.53,0.12
799,1747401575190,-0.26,-0.45,-1.11,-8.3,19.53,0.12
800,1747401575200,-0.26,-0.45,-1.11,-15.99,9.03,16.36
801,1747401575210,-0.26,-0.45,-1.11,-15.99,9.03,16.36
802,1747401575220,-0.26,-0.45,-1.11,-15.99,9.03,16.36
803,1747401575230,-0.28,-0.39,-1.18,-6.35,28.5,25.33
804,1747401575240,-0.28,-0.39,-1.18,-6.35,28.5,25.33
805,1747401575250,-0.28,-0.39,-1.18,-6.35,28.5,25.33
806,1747401575260,-0.28,-0.39,-1.18,-6.35,28.5,25.33
807,1747401575270,-0.32,-0.3,-1.27,-24.96,19.71,22.64
808,1747401575280,-0.32,-0.3,-1.27,-24.96,19.71,22.64
809,1747401575290,-0.32,-0.3,-1.27,-24.96,19.71,22.64
810,1747401575300,-0.32,-0.3,-1.27,-24.96,19.71,22.64
811,1747401575310,-0.21,-0.35,-1.3,-38.64,-25.09,24.66
812,1747401575320,-0.21,-0.35,-1.3,-38.64,-25.09,24.66
813,1747401575330,-0.21,-0.35,-1.3,-38.64,-25.09,24.66
814,1747401575340,-0.15,-0.35,-1.21,-38.64,-25.09,24.66
815,1747401575350,-0.15,-0.35,-1.21,-8.85,-34.48,23.86
816,1747401575360,-0.15,-0.35,-1.21,-8.85,-34.48,23.86
817,1747401575370,-0.15,-0.35,-1.21,-8.85,-34.48,23.86
818,1747401575380,-0.1699999999999999,-0.315,-1.13,0.8250000000000002,-25.36,24.715
819,1747401575390,-0.19,-0.28,-1.05,10.5,-16.24,25.57
820,1747401575400,-0.19,-0.28,-1.05,10.5,-16.24,25.57
821,1747401575410,-0.19,-0.28,-1.05,10.5,-16.24,25.57
822,1747401575420,-0.21,-0.275,-1.025,3.39,-14.16,25.205
823,1747401575430,-0.23,-0.27,-1.0,-3.72,-12.08,24.84
824,1747401575440,-0.23,-0.27,-1.0,-3.72,-12.08,24.84
825,1747401575450,-0.23,-0.27,-1.0,-3.72,-12.08,24.84
826,1747401575460,-0.27,-0.3,-0.98,-11.72,-15.01,23.68
827,1747401575470,-0.27,-0.3,-0.98,-11.72,-15.01,23.68
828,1747401575480,-0.27,-0.3,-0.98,-11.72,-15.01,23.68
829,1747401575490,-0.27,-0.3,-0.98,-11.72,-15.01,23.68
830,1747401575500,-0.27,-0.26,-0.955,-9.065,-18.065,18.8
831,1747401575510,-0.27,-0.22,-0.93,-6.41,-21.12,13.92
832,1747401575520,-0.27,-0.22,-0.93,-6.41,-21.12,13.92
833,1747401575530,-0.27,-0.22,-0.93,-6.41,-21.12,13.92
834,1747401575540,-0.22,-0.22,-0.9,-11.35,-17.58,3.97
835,1747401575550,-0.22,-0.22,-0.9,-11.35,-17.58,3.97
836,1747401575560,-0.22,-0.22,-0.9,-11.35,-17.58,3.97
837,1747401575570,-0.22,-0.22,-0.9,-11.35,-17.58,3.97
838,1747401575580,-0.16,-0.23,-0.92,7.39,0.06,2.62
839,1747401575590,-0.16,-0.23,-0.92,7.39,0.06,2.62
840,1747401575600,-0.16,-0.23,-0.92,7.39,0.06,2.62
841,1747401575610,-0.14,-0.18,-0.96,26.18,-2.08,-7.51
842,1747401575620,-0.14,-0.18,-0.96,26.18,-2.08,-7.51
843,1747401575630,-0.14,-0.18,-0.96,26.18,-2.08,-7.51
844,1747401575640,-0.14,-0.18,-0.96,26.18,-2.08,-7.51
845,1747401575650,-0.09,-0.17,-0.93,26.18,-2.08,-7.51
846,1747401575660,-0.09,-0.17,-0.93,7.93,-3.66,-10.07
847,1747401575670,-0.09,-0.17,-0.93,7.93,-3.66,-10.07
848,1747401575680,-0.07,-0.205,-0.94,7.93,-3.66,-10.07
849,1747401575690,-0.05,-0.24,-0.95,19.9,-9.52,-18.98
850,1747401575700,-0.05,-0.24,-0.95,19.9,-9.52,-18.98
851,1747401575710,-0.05,-0.24,-0.95,19.9,-9.52,-18.98
852,1747401575720,-0.05,-0.24,-0.95,19.9,-9.52,-18.98
853,1747401575730,0.04,-0.18,-0.87,28.2,-1.89,-21.85
854,1747401575740,0.04,-0.18,-0.87,28.2,-1.89,-21.85
855,1747401575750,0.04,-0.18,-0.87,28.2,-1.89,-21.85
856,1747401575760,0.04,-0.18,-0.87,28.2,-1.89,-21.85
857,1747401575770,0.01,-0.22,-0.91,-4.52,6.96,-24.6
858,1747401575780,0.01,-0.22,-0.91,-4.52,6.96,-24.6
859,1747401575790,0.01,-0.22,-0.91,-4.52,6.96,-24.6
860,1747401575800,0.01,-0.22,-0.91,-4.52,6.96,-24.6
861,1747401575810,0.05,-0.21,-0.92,-6.29,-13.12,-20.45
862,1747401575820,0.05,-0.21,-0.92,-6.29,-13.12,-20.45
863,1747401575830,0.05,-0.21,-0.92,-6.29,-13.12,-20.45
864,1747401575840,,,,,,
865,1747401575850,0.14,-0.12,-0.88,-30.52,-3.91,-26.73
866,1747401575860,0.14,-0.12,-0.88,-30.52,-3.91,-26.73
867,1747401575870,0.14,-0.12,-0.88,-30.52,-3.91,-26.73
868,1747401575880,0.18,-0.15,-0.94,-29.42,-9.46,-8.54
869,1747401575890,0.18,-0.15,-0.94,-29.42,-9.46,-8.54
870,1747401575900,0.18,-0.15,-0.94,-29.42,-9.46,-8.54
871,1747401575910,0.18,-0.15,-0.94,-29.42,-9.46,-8.54
872,1747401575920,0.24,-0.05,-0.94,-37.11,6.77,-8.79
873,1747401575930,0.24,-0.05,-0.94,-37.11,6.77,-8.79
874,1747401575940,0.24,-0.05,-0.94,-37.11,6.77,-8.79
875,1747401575950,0.24,-0.05,-0.94,-37.11,6.77,-8.79
876,1747401575960,0.25,-0.03,-1.04,-21.24,21.48,-22.22
877,1747401575970,0.25,-0.03,-1.04,-21.24,21.48,-22.22
878,1747401575980,0.25,-0.03,-1.04,-21.24,21.48,-22.22
879,1747401575990,0.3299999999999999,0.005,-1.05,-17.15,18.52,-44.07
880,1747401576000,0.41,0.04,-1.06,-13.06,15.56,-65.92
881,1747401576010,0.41,0.04,-1.06,-13.06,15.56,-65.92
882,1747401576020,0.41,0.04,-1.06,-13.06,15.56,-65.92
883,1747401576030,0.41,0.04,-1.06,-13.06,15.56,-65.92
884,1747401576040,0.44,-0.06,-1.1,-37.35,14.22,-52.55
885,1747401576050,0.44,-0.06,-1.1,-37.35,14.22,-52.55
886,1747401576060,0.44,-0.06,-1.1,-37.35,14.22,-52.55
887,1747401576070,0.44,-0.06,-1.1,-37.35,14.22,-52.55
888,1747401576080,0.5,-0.03,-1.13,-41.63,2.38,-42.97
889,1747401576090,0.5,-0.03,-1.13,-41.63,2.38,-42.97
890,1747401576100,0.5,-0.03,-1.13,-41.63,2.38,-42.97
891,1747401576110,0.52,-0.08,-1.17,-41.63,2.38,-42.97
892,1747401576120,0.52,-0.08,-1.17,-34.79,5.31,-25.39
893,1747401576130,0.52,-0.08,-1.17,-34.79,5.31,-25.39
894,1747401576140,0.52,-0.08,-1.17,-34.79,5.31,-25.39
895,1747401576150,0.51,-0.05,-1.26,-9.03,25.51,-8.0
896,1747401576160,0.51,-0.05,-1.26,-9.03,25.51,-8.0
897,1747401576170,0.51,-0.05,-1.26,-9.03,25.51,-8.0
898,1747401576180,0.51,-0.05,-1.26,-9.03,25.51,-8.0
899,1747401576190,0.44,0.05,-1.28,1.71,7.57,9.7
900,1747401576200,0.44,0.05,-1.28,1.71,7.57,9.7
901,1747401576210,0.44,0.05,-1.28,1.71,7.57,9.7
902,1747401576220,0.44,0.05,-1.28,1.71,7.57,9.7
903,1747401576230,0.45,0.13,-1.24,2.5,-6.23,10.68
904,1747401576240,0.45,0.13,-1.24,2.5,-6.23,10.68
905,1747401576250,0.45,0.13,-1.24,2.5,-6.23,10.68
906,1747401576260,0.44,0.14,-1.1800000000000002,7.905,11.84,-6.5600000000000005
907,1747401576270,0.43,0.15,-1.12,13.31,29.91,-23.8
908,1747401576280,0.43,0.15,-1.12,13.31,29.91,-23.8
909,1747401576290,0.43,0.15,-1.12,13.31,29.91,-23.8
910,1747401576300,0.4499999999999999,0.0399999999999999,-1.15,10.96,2.35,1.0399999999999991
911,1747401576310,0.47,-0.07,-1.18,8.61,-25.21,25.88
912,1747401576320,0.47,-0.07,-1.18,8.61,-25.21,25.88
913,1747401576330,0.47,-0.07,-1.18,8.61,-25.21,25.88
914,1747401576340,0.4399999999999999,0.0199999999999999,-1.105,26.005,-9.125,7.204999999999999
915,1747401576350,0.41,0.11,-1.03,43.4,6.96,-11.47
916,1747401576360,0.41,0.11,-1.03,43.4,6.96,-11.47
917,1747401576370,0.41,0.11,-1.03,43.4,6.96,-11.47
918,1747401576380,0.5,0.04,-1.07,-21.42,-11.6,30.52
919,1747401576390,0.5,0.04,-1.07,-21.42,-11.6,30.52
920,1747401576400,0.5,0.04,-1.07,-21.42,-11.6,30.52
921,1747401576410,0.5,0.04,-1.07,-21.42,-11.6,30.52
922,1747401576420,0.22,0.0,-1.01,18.01,3.05,17.64
923,1747401576430,0.22,0.0,-1.01,18.01,3.05,17.64
924,1747401576440,0.22,0.0,-1.01,18.01,3.05,17.64
925,1747401576450,0.22,0.0,-1.01,18.01,3.05,17.64
926,1747401576460,0.33,0.05,-0.91,-22.95,-35.95,9.09
927,1747401576470,0.33,0.05,-0.91,-22.95,-35.95,9.09
928,1747401576480,0.33,0.05,-0.91,-22.95,-35.95,9.09
929,1747401576490,0.33,0.05,-0.91,-22.95,-35.95,9.09
930,1747401576500,0.28,-0.0499999999999999,-0.91,-11.87,-29.39,13.15
931,1747401576510,0.23,-0.15,-0.91,-0.79,-22.83,17.21
932,1747401576520,0.23,-0.15,-0.91,-0.79,-22.83,17.21
933,1747401576530,0.17,-0.08,-0.895,-0.24,-19.745,10.405
934,1747401576540,0.11,-0.01,-0.88,0.31,-16.66,3.6
935,1747401576550,0.11,-0.01,-0.88,0.31,-16.66,3.6
936,1747401576560,0.11,-0.01,-0.88,0.31,-16.66,3.6
937,1747401576570,0.075,-0.065,-0.9,-16.169999999999998,-14.465,4.7
938,1747401576580,0.04,-0.12,-0.92,-32.65,-12.27,5.8
939,1747401576590,0.04,-0.12,-0.92,-32.65,-12.27,5.8
940,1747401576600,0.04,-0.12,-0.92,-32.65,-12.27,5.8
941,1747401576610,0.02,-0.19,-0.94,-16.72,-21.18,7.39
942,1747401576620,0.02,-0.19,-0.94,-16.72,-21.18,7.39
943,1747401576630,0.02,-0.19,-0.94,-16.72,-21.18,7.39
944,1747401576640,0.02,-0.19,-0.94,-16.72,-21.18,7.39
945,1747401576650,-0.02,-0.06,-0.91,-15.87,0.79,-3.72
946,1747401576660,-0.02,-0.06,-0.91,-15.87,0.79,-3.72
947,1747401576670,-0.02,-0.06,-0.91,-15.87,0.79,-3.72
948,1747401576680,-0.02,-0.06,-0.91,-15.87,0.79,-3.72
949,1747401576690,-0.07,-0.18,-0.96,-48.28,-18.13,5.49
950,1747401576700,-0.07,-0.18,-0.96,-48.28,-18.13,5.49
951,1747401576710,-0.07,-0.18,-0.96,-48.28,-18.13,5.49
952,1747401576720,-0.07,-0.18,-0.96,-48.28,-18.13,5.49
953,1747401576730,-0.04,-0.15,-0.98,-29.57,-9.765,7.325
954,1747401576740,-0.01,-0.12,-1.0,-10.86,-1.4,9.16
955,1747401576750,-0.01,-0.12,-1.0,-10.86,-1.4,9.16
956,1747401576760,-0.055,-0.09,-0.975,-7.994999999999999,2.625,5.04
957,1747401576770,-0.1,-0.06,-0.95,-5.13,6.65,0.92
958,1747401576780,-0.1,-0.06,-0.95,-5.13,6.65,0.92
959,1747401576790,-0.1,-0.06,-0.95,-5.13,6.65,0.92
960,1747401576800,-0.05,-0.04,-1.0,-5.13,6.65,0.92
961,1747401576810,-0.05,-0.04,-1.0,-5.13,6.65,0.92
962,1747401576820,-0.05,-0.04,-1.0,-23.07,-14.89,-1.77
963,1747401576830,-0.05,-0.04,-1.0,-23.07,-14.89,-1.77
964,1747401576840,-0.12,-0.12,-1.01,-19.44,-13.975,2.7750000000000004
965,1747401576850,-0.12,-0.12,-1.01,-15.81,-13.06,7.32
966,1747401576860,-0.12,-0.12,-1.01,-15.81,-13.06,7.32
967,1747401576870,-0.12,-0.12,-1.01,-15.81,-13.06,7.32
968,1747401576880,-0.19,0.0,-1.01,-2.84,-3.08,5.37
969,1747401576890,-0.19,0.0,-1.01,10.13,6.9,3.42
970,1747401576900,-0.19,0.0,-1.01,10.13,6.9,3.42
971,1747401576910,-0.19,0.0,-1.01,10.13,6.9,3.42
972,1747401576920,-0.28,-0.11,-0.95,2.99,25.09,-5.31
973,1747401576930,-0.28,-0.11,-0.95,2.99,25.09,-5.31
974,1747401576940,-0.28,-0.11,-0.95,2.99,25.09,-5.31
975,1747401576950,-0.28,-0.11,-0.95,2.99,25.09,-5.31
976,1747401576960,-0.46,-0.38,-0.9,20.02,53.28,-27.4
977,1747401576970,-0.46,-0.38,-0.9,20.02,53.28,-27.4
978,1747401576980,-0.46,-0.38,-0.9,20.02,53.28,-27.4
979,1747401576990,-0.46,-0.38,-0.9,20.02,53.28,-27.4
980,1747401577000,-0.58,-0.61,-0.94,7.51,45.41,-25.33
981,1747401577010,-0.58,-0.61,-0.94,7.51,45.41,-25.33
982,1747401577020,-0.58,-0.61,-0.94,7.51,45.41,-25.33
983,1747401577030,-0.53,-0.515,-1.13,-4.364999999999999,50.44499999999999,-10.59
984,1747401577040,-0.48,-0.42,-1.32,-16.24,55.48,4.15
985,1747401577050,-0.48,-0.42,-1.32,-16.24,55.48,4.15
986,1747401577060,-0.48,-0.42,-1.32,-16.24,55.48,4.15
987,1747401577070,-0.5249999999999999,-0.405,-1.405,-16.479999999999997,38.725,16.45
988,1747401577080,-0.57,-0.39,-1.49,-16.72,21.97,28.75
989,1747401577090,-0.57,-0.39,-1.49,-16.72,21.97,28.75
990,1747401577100,-0.57,-0.39,-1.49,-16.72,21.97,28.75
991,1747401577110,-0.46,-0.21,-1.4,-16.72,21.97,28.75
992,1747401577120,-0.46,-0.21,-1.4,20.69,-20.57,40.53
993,1747401577130,-0.46,-0.21,-1.4,20.69,-20.57,40.53
994,1747401577140,-0.46,-0.21,-1.4,20.69,-20.57,40.53
995,1747401577150,-0.37,-0.08,-1.16,10.62,-40.53,23.07
996,1747401577160,-0.37,-0.08,-1.16,10.62,-40.53,23.07
997,1747401577170,-0.37,-0.08,-1.16,10.62,-40.53,23.07
998,1747401577180,-0.37,-0.08,-1.16,10.62,-40.53,23.07
999,1747401577190,-0.39,-0.16,-1.1,-21.67,-24.35,20.2
1000,1747401577200,-0.39,-0.16,-1.1,-21.67,-24.35,20.2
