id,timestamp,acc_x,acc_y,acc_z,gyro_x,gyro_y,gyro_z
0,1747402025110,1.3,1.47,-0.14,19.04,123.41,78.19
1,1747402025120,1.3,1.47,-0.14,19.04,123.41,78.19
2,1747402025130,1.49,1.82,0.07,61.77,143.43,122.92
3,1747402025140,1.49,1.82,0.07,61.77,143.43,122.92
4,1747402025150,1.49,1.82,0.07,61.77,143.43,122.92
5,1747402025160,1.92,2.33,0.28,75.5,94.97,191.83
6,1747402025170,1.92,2.33,0.28,75.5,94.97,191.83
7,1747402025180,,,,,,
8,1747402025190,1.92,2.33,0.28,75.5,94.97,191.83
9,1747402025200,1.74,2.17,0.96,93.78,97.35,209.745
10,1747402025210,,,,,,
11,1747402025220,1.74,2.17,0.96,112.06,99.73,227.66
12,1747402025230,1.74,2.17,0.96,112.06,99.73,227.66
13,1747402025240,1.6,2.02,1.47,101.01,-47.24,244.45
14,1747402025250,1.6,2.02,1.47,101.01,-47.24,244.45
15,1747402025260,1.6,2.02,1.47,101.01,-47.24,244.45
16,1747402025270,1.53,1.875,1.365,83.19,-38.36,261.325
17,1747402025280,1.46,1.73,1.26,65.37,-29.48,278.2
18,1747402025290,1.46,1.73,1.26,65.37,-29.48,278.2
19,1747402025300,1.46,1.73,1.26,65.37,-29.48,278.2
20,1747402025310,1.25,1.64,1.08,-50.29,-77.03,359.44
21,1747402025320,1.25,1.64,1.08,-50.29,-77.03,359.44
22,1747402025330,1.25,1.64,1.08,-50.29,-77.03,359.44
23,1747402025340,1.25,1.64,1.08,-50.29,-77.03,359.44
24,1747402025350,1.04,1.64,0.875,-80.72,-84.08,384.585
25,1747402025360,0.83,1.64,0.67,-111.15,-91.13,409.73
26,1747402025370,0.83,1.64,0.67,-111.15,-91.13,409.73
27,1747402025380,0.83,1.64,0.67,-111.15,-91.13,409.73
28,1747402025390,0.4,1.99,0.84,-81.48,2.99,415.47
29,1747402025400,0.4,1.99,0.84,-81.48,2.99,415.47
30,1747402025410,0.4,1.99,0.84,-81.48,2.99,415.47
31,1747402025420,0.4,1.99,0.84,-81.48,2.99,415.47
32,1747402025430,0.09,2.31,0.74,-131.47,-78.37,472.41
33,1747402025440,0.09,2.31,0.74,-131.47,-78.37,472.41
34,1747402025450,0.09,2.31,0.74,-131.47,-78.37,472.41
35,1747402025460,0.09,2.31,0.74,-131.47,-78.37,472.41
36,1747402025470,0.14,2.0,0.46,-154.72,-38.51,460.94
37,1747402025480,0.14,2.0,0.46,-154.72,-38.51,460.94
38,1747402025490,0.14,2.0,0.46,-154.72,-38.51,460.94
39,1747402025500,0.14,2.0,0.46,-154.72,-38.51,460.94
40,1747402025510,-0.42,1.26,-0.01,-210.94,44.62,390.69
41,1747402025520,-0.42,1.26,-0.01,-210.94,44.62,390.69
42,1747402025530,-0.42,1.26,-0.01,-210.94,44.62,390.69
43,1747402025540,-0.755,0.68,-0.47,-210.94,44.62,390.69
44,1747402025550,-1.09,0.1,-0.93,-79.41,44.07,290.95
45,1747402025560,-1.09,0.1,-0.93,-79.41,44.07,290.95
46,1747402025570,-1.09,0.1,-0.93,-79.41,44.07,290.95
47,1747402025580,-2.17,-0.94,-1.21,-22.4,17.21,225.16
48,1747402025590,-2.17,-0.94,-1.21,-22.4,17.21,225.16
49,1747402025600,-2.17,-0.94,-1.21,-22.4,17.21,225.16
50,1747402025610,-2.17,-0.94,-1.21,-22.4,17.21,225.16
51,1747402025620,-2.67,-0.97,-1.64,17.03,118.53,-27.34
52,1747402025630,-2.67,-0.97,-1.64,17.03,118.53,-27.34
53,1747402025640,-2.67,-0.97,-1.64,17.03,118.53,-27.34
54,1747402025650,-2.67,-0.97,-1.64,17.03,118.53,-27.34
55,1747402025660,-2.62,-1.4,-1.82,31.035,62.01,-111.935
56,1747402025670,-2.62,-1.4,-1.82,45.04,5.49,-196.53
57,1747402025680,-2.62,-1.4,-1.82,45.04,5.49,-196.53
58,1747402025690,-2.62,-1.4,-1.82,45.04,5.49,-196.53
59,1747402025700,-1.29,0.16,-1.11,109.005,19.1,-288.3
60,1747402025710,-1.29,0.16,-1.11,172.97,32.71,-380.07
61,1747402025720,-1.29,0.16,-1.11,172.97,32.71,-380.07
62,1747402025730,-0.7150000000000001,1.375,-0.55,172.97,32.71,-380.07
63,1747402025740,-0.14,2.59,0.01,302.49,-13.12,-377.08
64,1747402025750,-0.14,2.59,0.01,302.49,-13.12,-377.08
65,1747402025760,-0.14,2.59,0.01,302.49,-13.12,-377.08
66,1747402025770,-0.14,2.59,0.01,302.49,-13.12,-377.08
67,1747402025780,1.0,2.64,0.52,140.56,-42.05,-331.54
68,1747402025790,1.0,2.64,0.52,140.56,-42.05,-331.54
69,1747402025800,1.0,2.64,0.52,140.56,-42.05,-331.54
70,1747402025810,0.34,1.67,0.37,140.56,-42.05,-331.54
71,1747402025820,0.34,1.67,0.37,102.05,75.62,-349.73
72,1747402025830,0.34,1.67,0.37,102.05,75.62,-349.73
73,1747402025840,0.34,1.67,0.37,102.05,75.62,-349.73
74,1747402025850,0.235,1.515,0.355,116.365,63.260000000000005,-337.43
75,1747402025860,0.13,1.36,0.34,130.68,50.9,-325.13
76,1747402025870,0.13,1.36,0.34,130.68,50.9,-325.13
77,1747402025880,0.13,1.36,0.34,130.68,50.9,-325.13
78,1747402025890,0.05,1.28,0.17,130.68,50.9,-325.13
79,1747402025900,0.05,1.28,0.17,164.18,83.37,-342.04
80,1747402025910,0.05,1.28,0.17,164.18,83.37,-342.04
81,1747402025920,0.05,1.28,0.17,164.18,83.37,-342.04
82,1747402025930,0.49,1.94,0.47,164.18,83.37,-342.04
83,1747402025940,0.49,1.94,0.47,204.59,87.46,-356.87
84,1747402025950,0.49,1.94,0.47,204.59,87.46,-356.87
85,1747402025960,0.49,1.94,0.47,204.59,87.46,-356.87
86,1747402025970,1.88,2.04,0.85,184.57,43.95,-304.02
87,1747402025980,1.88,2.04,0.85,184.57,43.95,-304.02
88,1747402025990,1.88,2.04,0.85,184.57,43.95,-304.02
89,1747402026000,2.74,1.885,1.175,167.39,66.225,-283.905
90,1747402026010,3.6,1.73,1.5,150.21,88.5,-263.79
91,1747402026020,3.6,1.73,1.5,150.21,88.5,-263.79
92,1747402026030,3.6,1.73,1.5,150.21,88.5,-263.79
93,1747402026040,3.6,1.73,1.5,150.21,88.5,-263.79
94,1747402026050,5.5,3.51,1.63,23.01,-162.96,-206.05
95,1747402026060,5.5,3.51,1.63,23.01,-162.96,-206.05
96,1747402026070,5.5,3.51,1.63,23.01,-162.96,-206.05
97,1747402026080,5.5,3.51,1.63,23.01,-162.96,-206.05
98,1747402026090,5.69,3.45,0.63,36.87,-65.12,212.95
99,1747402026100,5.69,3.45,0.63,36.87,-65.12,212.95
100,1747402026110,5.69,3.45,0.63,36.87,-65.12,212.95
101,1747402026120,2.0,2.42,1.16,-83.8,393.68,155.09
102,1747402026130,2.0,2.42,1.16,-83.8,393.68,155.09
103,1747402026140,2.0,2.42,1.16,-83.8,393.68,155.09
104,1747402026150,2.0,2.42,1.16,-83.8,393.68,155.09
105,1747402026160,,,,,,
106,1747402026170,0.84,1.79,1.16,-162.96,88.26,311.34
107,1747402026180,0.84,1.79,1.16,-162.96,88.26,311.34
108,1747402026190,0.84,1.79,1.16,-162.96,88.26,311.34
109,1747402026200,0.72,1.67,0.49,-233.95,-4.52,363.89
110,1747402026210,0.72,1.67,0.49,-233.95,-4.52,363.89
111,1747402026220,0.72,1.67,0.49,-233.95,-4.52,363.89
112,1747402026230,0.19,1.85,0.24,-233.95,-4.52,363.89
113,1747402026240,0.19,1.85,0.24,-223.39,-90.39,416.87
114,1747402026250,0.19,1.85,0.24,-223.39,-90.39,416.87
115,1747402026260,0.19,1.85,0.24,-223.39,-90.39,416.87
116,1747402026270,0.345,2.075,0.195,-224.12,-87.065,436.005
117,1747402026280,0.5,2.3,0.15,-224.85,-83.74,455.14
118,1747402026290,0.5,2.3,0.15,-224.85,-83.74,455.14
119,1747402026300,0.5,2.3,0.15,-224.85,-83.74,455.14
120,1747402026310,0.21,2.34,0.32,-262.33,-15.32,445.74
121,1747402026320,0.21,2.34,0.32,-262.33,-15.32,445.74
122,1747402026330,0.21,2.34,0.32,-262.33,-15.32,445.74
123,1747402026340,0.21,2.34,0.32,-262.33,-15.32,445.74
124,1747402026350,-0.04,1.93,0.32,-257.54,-22.005000000000003,436.43
125,1747402026360,-0.04,1.93,0.32,-252.75,-28.69,427.12
126,1747402026370,-0.04,1.93,0.32,-252.75,-28.69,427.12
127,1747402026380,-0.04,1.93,0.32,-252.75,-28.69,427.12
128,1747402026390,-0.1699999999999999,1.58,0.165,-241.61,-42.085,405.06
129,1747402026400,-0.3,1.23,0.01,-230.47,-55.48,383.0
130,1747402026410,-0.3,1.23,0.01,-230.47,-55.48,383.0
131,1747402026420,-0.3,1.23,0.01,-230.47,-55.48,383.0
132,1747402026430,-1.24,0.05,-0.71,-151.12,-53.59,292.48
133,1747402026440,-1.24,0.05,-0.71,-151.12,-53.59,292.48
134,1747402026450,-1.24,0.05,-0.71,-151.12,-53.59,292.48
135,1747402026460,-1.24,0.05,-0.71,-151.12,-53.59,292.48
136,1747402026470,-2.57,-1.01,-1.64,-33.87,-21.18,171.02
137,1747402026480,-2.57,-1.01,-1.64,-33.87,-21.18,171.02
138,1747402026490,-2.57,-1.01,-1.64,-33.87,-21.18,171.02
139,1747402026500,-2.925,-1.125,-1.65,-18.55,15.81,72.265
140,1747402026510,-3.28,-1.24,-1.66,-3.23,52.8,-26.49
141,1747402026520,-3.28,-1.24,-1.66,-3.23,52.8,-26.49
142,1747402026530,-3.28,-1.24,-1.66,-3.23,52.8,-26.49
143,1747402026540,-3.005,-1.215,-1.63,43.55,59.635,-122.285
144,1747402026550,-2.73,-1.19,-1.6,90.33,66.47,-218.08
145,1747402026560,-2.73,-1.19,-1.6,90.33,66.47,-218.08
146,1747402026570,-2.73,-1.19,-1.6,90.33,66.47,-218.08
147,1747402026580,-1.91,-0.39,-1.22,127.96,37.445,-272.21500000000003
148,1747402026590,-1.09,0.41,-0.84,165.59,8.42,-326.35
149,1747402026600,-1.09,0.41,-0.84,165.59,8.42,-326.35
150,1747402026610,-1.09,0.41,-0.84,165.59,8.42,-326.35
151,1747402026620,0.03,1.8,-0.12,216.86,65.43,-377.14
152,1747402026630,0.03,1.8,-0.12,216.86,65.43,-377.14
153,1747402026640,0.03,1.8,-0.12,216.86,65.43,-377.14
154,1747402026650,0.27,2.05,0.145,216.86,65.43,-377.14
155,1747402026660,0.51,2.3,0.41,197.75,-34.18,-324.34
156,1747402026670,0.51,2.3,0.41,197.75,-34.18,-324.34
157,1747402026680,0.51,2.3,0.41,197.75,-34.18,-324.34
158,1747402026690,0.51,2.3,0.41,197.75,-34.18,-324.34
159,1747402026700,0.36,1.69,0.27,167.965,-26.43,-318.785
160,1747402026710,0.36,1.69,0.27,138.18,-18.68,-313.23
161,1747402026720,0.36,1.69,0.27,138.18,-18.68,-313.23
162,1747402026730,0.36,1.69,0.27,138.18,-18.68,-313.23
163,1747402026740,0.2,1.49,0.14,142.21,-17.52,-335.69
164,1747402026750,0.2,1.49,0.14,142.21,-17.52,-335.69
165,1747402026760,0.2,1.49,0.14,142.21,-17.52,-335.69
166,1747402026770,0.2,1.49,0.14,142.21,-17.52,-335.69
167,1747402026780,0.21,1.29,0.0,128.78,33.14,-349.3
168,1747402026790,0.21,1.29,0.0,128.78,33.14,-349.3
169,1747402026800,0.21,1.29,0.0,128.78,33.14,-349.3
170,1747402026810,0.42,1.81,0.34,194.09,97.78,-391.6
171,1747402026820,0.42,1.81,0.34,194.09,97.78,-391.6
172,1747402026830,0.42,1.81,0.34,194.09,97.78,-391.6
173,1747402026840,0.42,1.81,0.34,194.09,97.78,-391.6
174,1747402026850,1.5,1.83,0.95,124.33,76.9,-353.39
175,1747402026860,1.5,1.83,0.95,124.33,76.9,-353.39
176,1747402026870,1.5,1.83,0.95,124.33,76.9,-353.39
177,1747402026880,1.5,1.83,0.95,124.33,76.9,-353.39
178,1747402026890,3.08,1.98,1.16,142.09,29.17,-310.85
179,1747402026900,3.08,1.98,1.16,142.09,29.17,-310.85
180,1747402026910,3.08,1.98,1.16,142.09,29.17,-310.85
181,1747402026920,3.08,1.98,1.16,142.09,29.17,-310.85
182,1747402026930,4.66,2.73,2.13,160.34,-46.75,-263.49
183,1747402026940,4.66,2.73,2.13,160.34,-46.75,-263.49
184,1747402026950,4.66,2.73,2.13,160.34,-46.75,-263.49
185,1747402026960,5.72,4.4,1.87,160.34,-46.75,-263.49
186,1747402026970,5.72,4.4,1.87,123.9,-31.31,84.41
187,1747402026980,5.72,4.4,1.87,123.9,-31.31,84.41
188,1747402026990,5.72,4.4,1.87,123.9,-31.31,84.41
189,1747402027000,2.37,2.65,2.12,-156.01,338.26,160.64
190,1747402027010,2.37,2.65,2.12,-156.01,338.26,160.64
191,1747402027020,2.37,2.65,2.12,-156.01,338.26,160.64
192,1747402027030,2.37,2.65,2.12,-156.01,338.26,160.64
193,1747402027040,0.65,1.61,1.59,-230.04,35.83,303.65
194,1747402027050,0.65,1.61,1.59,-230.04,35.83,303.65
195,1747402027060,0.65,1.61,1.59,-230.04,35.83,303.65
196,1747402027070,0.65,1.61,1.59,-230.04,35.83,303.65
197,1747402027080,0.53,1.69,0.62,-272.28,-106.51,381.23
198,1747402027090,0.53,1.69,0.62,-272.28,-106.51,381.23
199,1747402027100,0.53,1.69,0.62,-272.28,-106.51,381.23
200,1747402027110,0.425,1.93,0.415,-272.28,-106.51,381.23
201,1747402027120,0.32,2.17,0.21,-287.84,-62.56,387.76
202,1747402027130,0.32,2.17,0.21,-287.84,-62.56,387.76
203,1747402027140,0.32,2.17,0.21,-287.84,-62.56,387.76
204,1747402027150,0.23,2.345,0.18,-287.84,-62.56,387.76
205,1747402027160,0.14,2.52,0.15,-301.21,-77.33,432.25
206,1747402027170,0.14,2.52,0.15,-301.21,-77.33,432.25
207,1747402027180,0.14,2.52,0.15,-301.21,-77.33,432.25
208,1747402027190,0.14,2.52,0.15,-301.21,-77.33,432.25
209,1747402027200,0.14,2.39,0.09,-289.61,7.02,428.41
210,1747402027210,0.14,2.39,0.09,-289.61,7.02,428.41
211,1747402027220,0.14,2.39,0.09,-289.61,7.02,428.41
212,1747402027230,0.025,2.295,0.135,-293.425,10.895,409.03
213,1747402027240,-0.09,2.2,0.18,-297.24,14.77,389.65
214,1747402027250,-0.09,2.2,0.18,-297.24,14.77,389.65
215,1747402027260,-0.09,2.2,0.18,-297.24,14.77,389.65
216,1747402027270,-0.3,1.41,-0.34,-242.92,-31.62,356.08
217,1747402027280,-0.3,1.41,-0.34,-242.92,-31.62,356.08
218,1747402027290,-0.3,1.41,-0.34,-242.92,-31.62,356.08
219,1747402027300,-0.3,1.41,-0.34,-242.92,-31.62,356.08
220,1747402027310,-0.9,0.5399999999999999,-0.875,-239.535,-26.795,322.36
221,1747402027320,-1.5,-0.33,-1.41,-236.15,-21.97,288.64
222,1747402027330,-1.5,-0.33,-1.41,-236.15,-21.97,288.64
223,1747402027340,-1.5,-0.33,-1.41,-236.15,-21.97,288.64
224,1747402027350,-2.83,-0.75,-2.29,-166.385,19.595,206.665
225,1747402027360,-2.83,-0.75,-2.29,-96.62,61.16,124.69
226,1747402027370,-2.83,-0.75,-2.29,-96.62,61.16,124.69
227,1747402027380,-2.83,-0.75,-2.29,-96.62,61.16,124.69
228,1747402027390,-3.06,-1.71,-2.34,-100.22,2.08,-54.38
229,1747402027400,-3.06,-1.71,-2.34,-100.22,2.08,-54.38
230,1747402027410,-3.06,-1.71,-2.34,-100.22,2.08,-54.38
231,1747402027420,-2.56,-1.235,-2.07,-100.22,2.08,-54.38
232,1747402027430,-2.06,-0.76,-1.8,40.83,62.26,-268.37
233,1747402027440,-2.06,-0.76,-1.8,40.83,62.26,-268.37
234,1747402027450,-2.06,-0.76,-1.8,40.83,62.26,-268.37
235,1747402027460,-1.455,0.0299999999999999,-1.3050000000000002,127.015,36.835,-300.63
236,1747402027470,-0.85,0.82,-0.81,213.2,11.41,-332.89
237,1747402027480,-0.85,0.82,-0.81,213.2,11.41,-332.89
238,1747402027490,-0.85,0.82,-0.81,213.2,11.41,-332.89
239,1747402027500,-0.28,1.48,-0.36,245.73,22.98,-343.935
240,1747402027510,0.29,2.14,0.09,278.26,34.55,-354.98
241,1747402027520,0.29,2.14,0.09,278.26,34.55,-354.98
242,1747402027530,0.29,2.14,0.09,278.26,34.55,-354.98
243,1747402027540,0.405,2.1500000000000004,0.27,229.83,51.605,-342.255
244,1747402027550,0.52,2.16,0.45,181.4,68.66,-329.53
245,1747402027560,0.52,2.16,0.45,181.4,68.66,-329.53
246,1747402027570,0.52,2.16,0.45,181.4,68.66,-329.53
247,1747402027580,0.395,1.84,0.385,175.385,60.485,-310.17999999999995
248,1747402027590,0.27,1.52,0.32,169.37,52.31,-290.83
249,1747402027600,0.27,1.52,0.32,169.37,52.31,-290.83
250,1747402027610,0.27,1.52,0.32,169.37,52.31,-290.83
251,1747402027620,0.17,1.36,0.14,203.74,56.4,-284.73
252,1747402027630,0.17,1.36,0.14,203.74,56.4,-284.73
253,1747402027640,0.17,1.36,0.14,203.74,56.4,-284.73
254,1747402027650,0.17,1.36,0.14,203.74,56.4,-284.73
255,1747402027660,0.41,1.62,0.14,226.56,111.51,-314.7
256,1747402027670,0.41,1.62,0.14,226.56,111.51,-314.7
257,1747402027680,0.41,1.62,0.14,226.56,111.51,-314.7
258,1747402027690,0.41,1.62,0.14,226.56,111.51,-314.7
259,1747402027700,0.83,1.68,0.64,226.56,111.51,-314.7
260,1747402027710,0.83,1.68,0.64,229.19,117.13,-320.5
261,1747402027720,0.83,1.68,0.64,229.19,117.13,-320.5
262,1747402027730,2.6,1.27,1.42,240.6,123.72,-301.7
263,1747402027740,2.6,1.27,1.42,240.6,123.72,-301.7
264,1747402027750,2.6,1.27,1.42,240.6,123.72,-301.7
265,1747402027760,2.6,1.27,1.42,240.6,123.72,-301.7
266,1747402027770,3.11,2.03,3.07,225.77,189.21,-250.92
267,1747402027780,3.11,2.03,3.07,225.77,189.21,-250.92
268,1747402027790,3.11,2.03,3.07,225.77,189.21,-250.92
269,1747402027800,3.11,2.03,3.07,225.77,189.21,-250.92
270,1747402027810,5.15,3.8,3.23,82.76,-296.14,-89.9
271,1747402027820,5.15,3.8,3.23,82.76,-296.14,-89.9
272,1747402027830,5.15,3.8,3.23,82.76,-296.14,-89.9
273,1747402027840,5.15,3.8,3.23,82.76,-296.14,-89.9
274,1747402027850,5.07,2.89,1.62,25.97,-128.69,59.91
275,1747402027860,5.07,2.89,1.62,-30.82,38.76,209.72
276,1747402027870,5.07,2.89,1.62,-30.82,38.76,209.72
277,1747402027880,3.29,2.305,1.705,-96.345,119.995,213.685
278,1747402027890,1.51,1.72,1.79,-161.87,201.23,217.65
279,1747402027900,1.51,1.72,1.79,-161.87,201.23,217.65
280,1747402027910,1.51,1.72,1.79,-161.87,201.23,217.65
281,1747402027920,1.51,1.72,1.79,-161.87,201.23,217.65
282,1747402027930,0.84,1.59,1.08,-244.08,-10.74,314.21
283,1747402027940,0.84,1.59,1.08,-244.08,-10.74,314.21
284,1747402027950,0.84,1.59,1.08,-244.08,-10.74,314.21
285,1747402027960,0.63,1.69,0.7100000000000001,-244.08,-10.74,314.21
286,1747402027970,0.42,1.79,0.34,-300.29,-69.7,379.94
287,1747402027980,0.42,1.79,0.34,-300.29,-69.7,379.94
288,1747402027990,0.42,1.79,0.34,-300.29,-69.7,379.94
289,1747402028000,0.42,1.79,0.34,-300.29,-69.7,379.94
290,1747402028010,0.15,2.08,0.09,-274.54,-128.11,457.28
291,1747402028020,0.15,2.08,0.09,-274.54,-128.11,457.28
292,1747402028030,0.15,2.08,0.09,-274.54,-128.11,457.28
293,1747402028040,0.21,2.135,0.055,-263.765,-99.70000000000002,457.215
294,1747402028050,0.27,2.19,0.02,-252.99,-71.29,457.15
295,1747402028060,0.27,2.19,0.02,-252.99,-71.29,457.15
296,1747402028070,0.27,2.19,0.02,-252.99,-71.29,457.15
297,1747402028080,0.2,2.2,0.22,-247.19,0.06,451.42
298,1747402028090,0.2,2.2,0.22,-247.19,0.06,451.42
299,1747402028100,0.2,2.2,0.22,-247.19,0.06,451.42
300,1747402028110,0.2,2.2,0.22,-247.19,0.06,451.42
301,1747402028120,0.05,1.72,0.12,-235.66,-58.04,453.19
302,1747402028130,0.05,1.72,0.12,-235.66,-58.04,453.19
303,1747402028140,0.05,1.72,0.12,-235.66,-58.04,453.19
304,1747402028150,-0.185,1.3,-0.185,-235.66,-58.04,453.19
305,1747402028160,-0.42,0.88,-0.49,-183.04,-67.38,393.55
306,1747402028170,-0.42,0.88,-0.49,-183.04,-67.38,393.55
307,1747402028180,-0.42,0.88,-0.49,-183.04,-67.38,393.55
308,1747402028190,-1.49,0.03,-0.85,-164.365,-56.58,322.96500000000003
309,1747402028200,-2.56,-0.82,-1.21,-145.69,-45.78,252.38
310,1747402028210,-2.56,-0.82,-1.21,-145.69,-45.78,252.38
311,1747402028220,-2.56,-0.82,-1.21,-145.69,-45.78,252.38
312,1747402028230,-2.56,-0.82,-1.21,-145.69,-45.78,252.38
313,1747402028240,-3.56,-0.25,-1.64,-0.92,41.81,29.54
314,1747402028250,-3.56,-0.25,-1.64,-0.92,41.81,29.54
315,1747402028260,-3.56,-0.25,-1.64,-0.92,41.81,29.54
316,1747402028270,-3.33,-0.89,-1.57,-0.92,41.81,29.54
317,1747402028280,-3.33,-0.89,-1.57,8.54,91.06,-123.66
318,1747402028290,-3.33,-0.89,-1.57,8.54,91.06,-123.66
319,1747402028300,-3.33,-0.89,-1.57,8.54,91.06,-123.66
320,1747402028310,-1.89,-0.14,-1.12,8.54,91.06,-123.66
321,1747402028320,-1.89,-0.14,-1.12,44.46,77.785,-176.45499999999998
322,1747402028330,-1.89,-0.14,-1.12,80.38,64.51,-229.25
323,1747402028340,-1.89,-0.14,-1.12,80.38,64.51,-229.25
324,1747402028350,-0.83,0.59,-0.67,181.7,48.83,-350.52
325,1747402028360,-0.83,0.59,-0.67,181.7,48.83,-350.52
326,1747402028370,-0.83,0.59,-0.67,181.7,48.83,-350.52
327,1747402028380,-0.83,0.59,-0.67,181.7,48.83,-350.52
328,1747402028390,0.14,1.7,-0.13,276.37,17.58,-367.0
329,1747402028400,0.14,1.7,-0.13,276.37,17.58,-367.0
330,1747402028410,0.14,1.7,-0.13,276.37,17.58,-367.0
331,1747402028420,0.445,1.925,0.0549999999999999,250.03,-0.7000000000000011,-360.93
332,1747402028430,0.75,2.15,0.24,223.69,-18.98,-354.86
333,1747402028440,0.75,2.15,0.24,223.69,-18.98,-354.86
334,1747402028450,0.75,2.15,0.24,223.69,-18.98,-354.86
335,1747402028460,0.75,2.15,0.24,223.69,-18.98,-354.86
336,1747402028470,0.22,1.73,0.25,215.15,-8.48,-331.85
337,1747402028480,0.22,1.73,0.25,215.15,-8.48,-331.85
338,1747402028490,0.22,1.73,0.25,215.15,-8.48,-331.85
339,1747402028500,0.39,1.78,0.175,220.645,-51.145,-319.94500000000005
340,1747402028510,0.56,1.83,0.1,226.14,-93.81,-308.04
341,1747402028520,0.56,1.83,0.1,226.14,-93.81,-308.04
342,1747402028530,0.56,1.83,0.1,226.14,-93.81,-308.04
343,1747402028540,0.52,1.61,0.1,187.01,34.97,-359.5
344,1747402028550,0.52,1.61,0.1,187.01,34.97,-359.5
345,1747402028560,0.52,1.61,0.1,187.01,34.97,-359.5
346,1747402028570,0.52,1.61,0.1,187.01,34.97,-359.5
347,1747402028580,0.77,1.93,0.6,214.05,17.15,-376.95
348,1747402028590,0.77,1.93,0.6,214.05,17.15,-376.95
349,1747402028600,0.77,1.93,0.6,214.05,17.15,-376.95
350,1747402028610,0.77,1.93,0.6,214.05,17.15,-376.95
351,1747402028620,2.78,1.31,1.04,127.14,-56.76,-351.14
352,1747402028630,2.78,1.31,1.04,127.14,-56.76,-351.14
353,1747402028640,2.78,1.31,1.04,127.14,-56.76,-351.14
354,1747402028650,3.56,1.525,1.365,134.95,-44.19,-307.01
355,1747402028660,4.34,1.74,1.69,142.76,-31.62,-262.88
356,1747402028670,4.34,1.74,1.69,142.76,-31.62,-262.88
357,1747402028680,4.34,1.74,1.69,142.76,-31.62,-262.88
358,1747402028690,5.17,1.91,1.82,78.155,-115.45,-191.59
359,1747402028700,6.0,2.08,1.95,13.55,-199.28,-120.3
360,1747402028710,6.0,2.08,1.95,13.55,-199.28,-120.3
361,1747402028720,6.0,2.08,1.95,13.55,-199.28,-120.3
362,1747402028730,5.8,2.36,0.69,7.32,26.0,134.83
363,1747402028740,5.8,2.36,0.69,7.32,26.0,134.83
364,1747402028750,5.8,2.36,0.69,7.32,26.0,134.83
365,1747402028760,5.8,2.36,0.69,7.32,26.0,134.83
366,1747402028770,2.09,1.51,1.4,-94.42,249.57,203.8
367,1747402028780,2.09,1.51,1.4,-94.42,249.57,203.8
368,1747402028790,2.09,1.51,1.4,-94.42,249.57,203.8
369,1747402028800,1.645,1.565,1.17,-160.855,172.73,251.77
370,1747402028810,1.2,1.62,0.94,-227.29,95.89,299.74
371,1747402028820,1.2,1.62,0.94,-227.29,95.89,299.74
372,1747402028830,1.2,1.62,0.94,-227.29,95.89,299.74
373,1747402028840,1.2,1.62,0.94,-227.29,95.89,299.74
374,1747402028850,0.52,1.8,0.23,-288.57,29.42,365.6
375,1747402028860,0.52,1.8,0.23,-288.57,29.42,365.6
376,1747402028870,0.52,1.8,0.23,-288.57,29.42,365.6
377,1747402028880,0.19,2.04,0.08,-288.57,29.42,365.6
378,1747402028890,0.19,2.04,0.08,-266.6,-67.75,411.5
379,1747402028900,0.19,2.04,0.08,-266.6,-67.75,411.5
380,1747402028910,0.19,2.04,0.08,-266.6,-67.75,411.5
381,1747402028920,0.19,2.04,0.08,-266.6,-67.75,411.5
382,1747402028930,0.19,2.04,0.08,-266.6,-67.75,411.5
383,1747402028940,0.49,2.29,-0.09,-266.6,-67.75,411.5
384,1747402028950,0.49,2.29,-0.09,-263.31,-48.1,473.45
385,1747402028960,0.32,2.13,0.0,-253.42,35.34,448.43
386,1747402028970,0.32,2.13,0.0,-253.42,35.34,448.43
387,1747402028980,0.32,2.13,0.0,-253.42,35.34,448.43
388,1747402028990,0.32,2.13,0.0,-253.42,35.34,448.43
389,1747402029000,0.245,1.905,-0.065,-255.95,29.57,438.725
390,1747402029010,0.17,1.68,-0.13,-258.48,23.8,429.02
391,1747402029020,0.17,1.68,-0.13,-258.48,23.8,429.02
392,1747402029030,0.17,1.68,-0.13,-258.48,23.8,429.02
393,1747402029040,-0.49,0.85,-0.71,-246.89,65.37,366.52
394,1747402029050,-0.49,0.85,-0.71,-246.89,65.37,366.52
395,1747402029060,-0.49,0.85,-0.71,-246.89,65.37,366.52
396,1747402029070,-1.23,0.255,-0.98,-192.05,26.855000000000004,320.835
397,1747402029080,-1.97,-0.34,-1.25,-137.21,-11.66,275.15
398,1747402029090,-1.97,-0.34,-1.25,-137.21,-11.66,275.15
399,1747402029100,-1.97,-0.34,-1.25,-137.21,-11.66,275.15
400,1747402029110,-2.615,-0.27,-1.665,-89.295,56.855,173.27999999999997
401,1747402029120,-3.26,-0.2,-2.08,-41.38,125.37,71.41
402,1747402029130,-3.26,-0.2,-2.08,-41.38,125.37,71.41
403,1747402029140,-3.26,-0.2,-2.08,-41.38,125.37,71.41
404,1747402029150,-3.43,-0.83,-2.165,-37.625,111.24,-28.960000000000008
405,1747402029160,-3.6,-1.46,-2.25,-33.87,97.11,-129.33
406,1747402029170,-3.6,-1.46,-2.25,-33.87,97.11,-129.33
407,1747402029180,-3.6,-1.46,-2.25,-33.87,97.11,-129.33
408,1747402029190,-2.18,-0.56,-1.77,142.4,32.59,-279.42
409,1747402029200,-2.18,-0.56,-1.77,142.4,32.59,-279.42
410,1747402029210,-2.18,-0.56,-1.77,142.4,32.59,-279.42
411,1747402029220,-2.18,-0.56,-1.77,142.4,32.59,-279.42
412,1747402029230,-0.99,0.74,-1.08,283.26,2.56,-380.13
413,1747402029240,-0.99,0.74,-1.08,283.26,2.56,-380.13
414,1747402029250,-0.99,0.74,-1.08,283.26,2.56,-380.13
415,1747402029260,-0.99,0.74,-1.08,283.26,2.56,-380.13
416,1747402029270,0.54,2.75,-0.07,393.68,-64.88,-353.39
417,1747402029280,0.54,2.75,-0.07,393.68,-64.88,-353.39
418,1747402029290,0.54,2.75,-0.07,393.68,-64.88,-353.39
419,1747402029300,0.54,2.75,-0.07,393.68,-64.88,-353.39
420,1747402029310,1.03,2.33,0.4,209.78,-41.5,-315.67
421,1747402029320,1.03,2.33,0.4,209.78,-41.5,-315.67
422,1747402029330,1.03,2.33,0.4,209.78,-41.5,-315.67
423,1747402029340,0.77,1.945,0.365,189.82,-19.955,-309.385
424,1747402029350,0.51,1.56,0.33,169.86,1.59,-303.1
425,1747402029360,0.51,1.56,0.33,169.86,1.59,-303.1
426,1747402029370,0.51,1.56,0.33,169.86,1.59,-303.1
427,1747402029380,0.4,1.4,0.205,186.86,-3.875,-301.57500000000005
428,1747402029390,0.29,1.24,0.08,203.86,-9.34,-300.05
429,1747402029400,0.29,1.24,0.08,203.86,-9.34,-300.05
430,1747402029410,0.29,1.24,0.08,203.86,-9.34,-300.05
431,1747402029420,0.56,1.32,0.07,213.87,4.88,-286.5
432,1747402029430,0.56,1.32,0.07,213.87,4.88,-286.5
433,1747402029440,0.56,1.32,0.07,213.87,4.88,-286.5
434,1747402029450,0.615,1.2200000000000002,0.255,213.87,4.88,-286.5
435,1747402029460,0.67,1.12,0.44,219.48,0.92,-229.49
436,1747402029470,0.67,1.12,0.44,219.48,0.92,-229.49
437,1747402029480,0.67,1.12,0.44,219.48,0.92,-229.49
438,1747402029490,0.67,1.12,0.44,219.48,0.92,-229.49
439,1747402029500,2.26,1.23,1.16,182.01,-18.8,-333.07
440,1747402029510,2.26,1.23,1.16,182.01,-18.8,-333.07
441,1747402029520,2.26,1.23,1.16,182.01,-18.8,-333.07
442,1747402029530,2.26,1.23,1.16,182.01,-18.8,-333.07
443,1747402029540,4.46,1.51,2.06,186.86,26.03,-327.18
444,1747402029550,4.46,1.51,2.06,191.71,70.86,-321.29
445,1747402029560,4.46,1.51,2.06,191.71,70.86,-321.29
446,1747402029570,5.71,2.79,3.22,60.85,-54.99,-234.62
447,1747402029580,5.71,2.79,3.22,60.85,-54.99,-234.62
448,1747402029590,5.71,2.79,3.22,60.85,-54.99,-234.62
449,1747402029600,5.71,2.79,3.22,60.85,-54.99,-234.62
450,1747402029610,5.12,2.66,1.73,28.595,-79.375,26.794999999999987
451,1747402029620,5.12,2.66,1.73,-3.66,-103.76,288.21
452,1747402029630,5.12,2.66,1.73,-3.66,-103.76,288.21
453,1747402029640,5.12,2.66,1.73,-3.66,-103.76,288.21
454,1747402029650,1.94,1.49,1.53,-156.8,255.8,184.08
455,1747402029660,1.94,1.49,1.53,-156.8,255.8,184.08
456,1747402029670,1.94,1.49,1.53,-156.8,255.8,184.08
457,1747402029680,1.35,1.44,1.265,-211.975,168.46,230.895
458,1747402029690,0.76,1.39,1.0,-267.15,81.12,277.71
459,1747402029700,0.76,1.39,1.0,-267.15,81.12,277.71
460,1747402029710,0.76,1.39,1.0,-267.15,81.12,277.71
461,1747402029720,0.665,1.44,0.5700000000000001,-279.04999999999995,32.535000000000004,315.155
462,1747402029730,0.57,1.49,0.14,-290.95,-16.05,352.6
463,1747402029740,0.57,1.49,0.14,-290.95,-16.05,352.6
464,1747402029750,0.57,1.49,0.14,-290.95,-16.05,352.6
465,1747402029760,0.4499999999999999,1.685,0.11,-285.305,-9.305,350.435
466,1747402029770,0.33,1.88,0.08,-279.66,-2.56,348.27
467,1747402029780,0.33,1.88,0.08,-279.66,-2.56,348.27
468,1747402029790,0.33,1.88,0.08,-279.66,-2.56,348.27
469,1747402029800,0.38,2.11,0.12,-320.25,-11.72,382.93
470,1747402029810,0.38,2.11,0.12,-320.25,-11.72,382.93
471,1747402029820,0.38,2.11,0.12,-320.25,-11.72,382.93
472,1747402029830,0.38,2.11,0.12,-320.25,-11.72,382.93
473,1747402029840,0.315,2.195,0.1649999999999999,-304.38,-4.180000000000001,398.955
474,1747402029850,0.25,2.28,0.21,-288.51,3.36,414.98
475,1747402029860,0.25,2.28,0.21,-288.51,3.36,414.98
476,1747402029870,0.25,2.28,0.21,-288.51,3.36,414.98
477,1747402029880,-0.01,1.75,0.08,-296.475,-23.925,417.755
478,1747402029890,-0.01,1.75,0.08,-304.44,-51.21,420.53
479,1747402029900,-0.01,1.75,0.08,-304.44,-51.21,420.53
480,1747402029910,-0.355,1.2,-0.215,-304.44,-51.21,420.53
481,1747402029920,-0.7,0.65,-0.51,-237.18,-72.33,382.93
482,1747402029930,-0.7,0.65,-0.51,-237.18,-72.33,382.93
483,1747402029940,-0.7,0.65,-0.51,-237.18,-72.33,382.93
484,1747402029950,-1.79,0.05,-1.2,-161.62,-26.73,274.54
485,1747402029960,-1.79,0.05,-1.2,-161.62,-26.73,274.54
486,1747402029970,-1.79,0.05,-1.2,-161.62,-26.73,274.54
487,1747402029980,-1.79,0.05,-1.2,-161.62,-26.73,274.54
488,1747402029990,-1.79,0.05,-1.2,-161.62,-26.73,274.54
489,1747402030000,-3.89,-0.32,-2.14,-105.41,130.13,14.4
490,1747402030010,-3.89,-0.32,-2.14,-105.41,130.13,14.4
491,1747402030020,-3.89,-0.32,-2.14,-105.41,130.13,14.4
492,1747402030030,-3.81,-0.95,-2.2750000000000004,-59.665,79.16499999999999,-29.755
493,1747402030040,-3.73,-1.58,-2.41,-13.92,28.2,-73.91
494,1747402030050,-3.73,-1.58,-2.41,-13.92,28.2,-73.91
495,1747402030060,-3.73,-1.58,-2.41,-13.92,28.2,-73.91
496,1747402030070,-2.39,-0.38,-1.61,153.81,-18.37,-269.65
497,1747402030080,-2.39,-0.38,-1.61,153.81,-18.37,-269.65
498,1747402030090,-2.39,-0.38,-1.61,153.81,-18.37,-269.65
499,1747402030100,-2.39,-0.38,-1.61,153.81,-18.37,-269.65
500,1747402030110,-0.68,1.33,-0.69,258.54,-43.03,-385.56
501,1747402030120,-0.68,1.33,-0.69,258.54,-43.03,-385.56
502,1747402030130,-0.68,1.33,-0.69,258.54,-43.03,-385.56
503,1747402030140,0.2,2.045,-0.1799999999999999,258.54,-43.03,-385.56
504,1747402030150,1.08,2.76,0.33,312.13,-92.53,-380.92
505,1747402030160,1.08,2.76,0.33,312.13,-92.53,-380.92
506,1747402030170,1.08,2.76,0.33,312.13,-92.53,-380.92
507,1747402030180,1.08,2.76,0.33,312.13,-92.53,-380.92
508,1747402030190,1.4,2.21,0.51,161.62,-103.15,-323.24
509,1747402030200,1.4,2.21,0.51,161.62,-103.15,-323.24
510,1747402030210,1.4,2.21,0.51,161.62,-103.15,-323.24
511,1747402030220,1.155,1.875,0.45,137.145,-65.92,-318.6
512,1747402030230,0.91,1.54,0.39,112.67,-28.69,-313.96
513,1747402030240,0.91,1.54,0.39,112.67,-28.69,-313.96
514,1747402030250,0.91,1.54,0.39,112.67,-28.69,-313.96
515,1747402030260,0.55,1.12,0.34,113.77,34.12,-333.01
516,1747402030270,0.55,1.12,0.34,113.77,34.12,-333.01
517,1747402030280,0.55,1.12,0.34,113.77,34.12,-333.01
518,1747402030290,0.55,1.12,0.34,113.77,34.12,-333.01
519,1747402030300,0.405,1.09,0.31,133.085,53.895,-346.865
520,1747402030310,0.26,1.06,0.28,152.4,73.67,-360.72
521,1747402030320,0.26,1.06,0.28,152.4,73.67,-360.72
522,1747402030330,0.26,1.06,0.28,152.4,73.67,-360.72
523,1747402030340,1.31,1.38,0.56,138.37,95.64,-418.03
524,1747402030350,1.31,1.38,0.56,138.37,95.64,-418.03
525,1747402030360,1.31,1.38,0.56,138.37,95.64,-418.03
526,1747402030370,1.31,1.38,0.56,138.37,95.64,-418.03
527,1747402030380,2.55,0.16,1.59,105.71,101.62,-367.98
528,1747402030390,2.55,0.16,1.59,105.71,101.62,-367.98
529,1747402030400,2.55,0.16,1.59,105.71,101.62,-367.98
530,1747402030410,2.55,0.16,1.59,105.71,101.62,-367.98
531,1747402030420,4.72,1.21,1.84,80.08,-146.24,-253.97
532,1747402030430,4.72,1.21,1.84,80.08,-146.24,-253.97
533,1747402030440,4.72,1.21,1.84,80.08,-146.24,-253.97
534,1747402030450,6.45,1.81,1.06,80.08,-146.24,-253.97
535,1747402030460,6.45,1.81,1.06,-28.75,-96.37,-43.58
536,1747402030470,6.45,1.81,1.06,-28.75,-96.37,-43.58
537,1747402030480,6.45,1.81,1.06,-28.75,-96.37,-43.58
538,1747402030490,4.58,2.11,1.24,44.8,186.58,137.7
539,1747402030500,4.58,2.11,1.24,44.8,186.58,137.7
540,1747402030510,4.58,2.11,1.24,44.8,186.58,137.7
541,1747402030520,4.58,2.11,1.24,44.8,186.58,137.7
542,1747402030530,1.71,1.54,1.74,-70.68,178.04,213.44
543,1747402030540,1.71,1.54,1.74,-70.68,178.04,213.44
544,1747402030550,1.71,1.54,1.74,-70.68,178.04,213.44
545,1747402030560,1.71,1.54,1.74,-70.68,178.04,213.44
546,1747402030570,1.03,1.35,1.09,-188.54,7.14,305.6
547,1747402030580,1.03,1.35,1.09,-188.54,7.14,305.6
548,1747402030590,1.03,1.35,1.09,-188.54,7.14,305.6
549,1747402030600,0.775,1.395,0.73,-226.015,-12.39,333.19
550,1747402030610,0.52,1.44,0.37,-263.49,-31.92,360.78
551,1747402030620,0.52,1.44,0.37,-263.49,-31.92,360.78
552,1747402030630,0.52,1.44,0.37,-263.49,-31.92,360.78
553,1747402030640,0.33,1.49,0.285,-263.49,-31.92,360.78
554,1747402030650,0.14,1.54,0.2,-254.88,-36.99,380.49
555,1747402030660,0.14,1.54,0.2,-254.88,-36.99,380.49
556,1747402030670,0.14,1.54,0.2,-254.88,-36.99,380.49
557,1747402030680,0.155,1.685,0.255,-235.84,-39.185,393.37
558,1747402030690,0.17,1.83,0.31,-216.8,-41.38,406.25
559,1747402030700,0.17,1.83,0.31,-216.8,-41.38,406.25
560,1747402030710,0.17,1.83,0.31,-216.8,-41.38,406.25
561,1747402030720,0.195,1.855,0.29,-236.145,-30.305,406.86
562,1747402030730,0.22,1.88,0.27,-255.49,-19.23,407.47
563,1747402030740,0.22,1.88,0.27,-255.49,-19.23,407.47
564,1747402030750,0.22,1.88,0.27,-255.49,-19.23,407.47
565,1747402030760,0.04,1.46,0.17,-253.905,-6.165,398.405
566,1747402030770,0.04,1.46,0.17,-252.32,6.9,389.34
567,1747402030780,0.04,1.46,0.17,-252.32,6.9,389.34
568,1747402030790,0.04,1.46,0.17,-252.32,6.9,389.34
569,1747402030800,-0.25,0.96,-0.21,-191.59,-57.86,341.13
570,1747402030810,-0.25,0.96,-0.21,-191.59,-57.86,341.13
571,1747402030820,-0.25,0.96,-0.21,-191.59,-57.86,341.13
572,1747402030830,-0.25,0.96,-0.21,-191.59,-57.86,341.13
573,1747402030840,-1.62,0.03,-0.94,-160.28,-11.54,283.75
574,1747402030850,-1.62,0.03,-0.94,-160.28,-11.54,283.75
575,1747402030860,-1.62,0.03,-0.94,-160.28,-11.54,283.75
576,1747402030870,-2.4850000000000003,-0.175,-1.37,-160.28,-11.54,283.75
577,1747402030880,-3.35,-0.38,-1.8,-68.66,-22.16,122.5
578,1747402030890,-3.35,-0.38,-1.8,-68.66,-22.16,122.5
579,1747402030900,-3.35,-0.38,-1.8,-68.66,-22.16,122.5
580,1747402030910,-3.43,-0.8400000000000001,-1.885,-64.115,36.315000000000005,8.515
581,1747402030920,-3.51,-1.3,-1.97,-59.57,94.79,-105.47
582,1747402030930,-3.51,-1.3,-1.97,-59.57,94.79,-105.47
583,1747402030940,-3.51,-1.3,-1.97,-59.57,94.79,-105.47
584,1747402030950,-2.33,-0.9,-1.85,59.75,87.1,-303.47
585,1747402030960,-2.33,-0.9,-1.85,59.75,87.1,-303.47
586,1747402030970,-2.33,-0.9,-1.85,59.75,87.1,-303.47
587,1747402030980,-2.33,-0.9,-1.85,59.75,87.1,-303.47
588,1747402030990,-1.19,0.27,-1.21,216.67,112.73,-419.43
589,1747402031000,-1.19,0.27,-1.21,216.67,112.73,-419.43
590,1747402031010,-1.19,0.27,-1.21,216.67,112.73,-419.43
591,1747402031020,-1.19,0.27,-1.21,216.67,112.73,-419.43
592,1747402031030,0.51,2.7,0.18,305.42,89.445,-406.49
593,1747402031040,0.51,2.7,0.18,394.17,66.16,-393.55
594,1747402031050,0.51,2.7,0.18,394.17,66.16,-393.55
595,1747402031060,0.945,2.715,0.53,394.17,66.16,-393.55
596,1747402031070,1.38,2.73,0.88,274.96,10.74,-301.03
597,1747402031080,1.38,2.73,0.88,274.96,10.74,-301.03
598,1747402031090,1.38,2.73,0.88,274.96,10.74,-301.03
599,1747402031100,1.04,2.135,0.8400000000000001,227.355,25.205,-293.61
600,1747402031110,0.7,1.54,0.8,179.75,39.67,-286.19
601,1747402031120,0.7,1.54,0.8,179.75,39.67,-286.19
602,1747402031130,0.7,1.54,0.8,179.75,39.67,-286.19
603,1747402031140,0.46,1.16,0.51,179.75,39.67,-286.19
604,1747402031150,0.46,1.16,0.51,211.0,36.62,-271.36
605,1747402031160,0.46,1.16,0.51,211.0,36.62,-271.36
606,1747402031170,0.46,1.16,0.51,211.0,36.62,-271.36
607,1747402031180,0.345,0.995,0.42,208.8,64.78999999999999,-287.445
608,1747402031190,0.23,0.83,0.33,206.6,92.96,-303.53
609,1747402031200,0.23,0.83,0.33,206.6,92.96,-303.53
610,1747402031210,0.23,0.83,0.33,206.6,92.96,-303.53
611,1747402031220,0.53,0.77,0.99,242.07,166.32,-342.22
612,1747402031230,0.53,0.77,0.99,242.07,166.32,-342.22
613,1747402031240,0.53,0.77,0.99,242.07,166.32,-342.22
614,1747402031250,0.53,0.77,0.99,242.07,166.32,-342.22
615,1747402031260,1.81,0.59,2.21,186.89,122.955,-317.32000000000005
616,1747402031270,1.81,0.59,2.21,131.71,79.59,-292.42
617,1747402031280,1.81,0.59,2.21,131.71,79.59,-292.42
618,1747402031290,1.81,0.59,2.21,131.71,79.59,-292.42
619,1747402031300,4.04,1.26,2.87,125.12,-50.84,-163.51
620,1747402031310,4.04,1.26,2.87,125.12,-50.84,-163.51
621,1747402031320,4.04,1.26,2.87,125.12,-50.84,-163.51
622,1747402031330,4.529999999999999,1.65,2.89,75.99000000000001,-40.13,-79.8
623,1747402031340,5.02,2.04,2.91,26.86,-29.42,3.91
624,1747402031350,5.02,2.04,2.91,26.86,-29.42,3.91
625,1747402031360,5.02,2.04,2.91,26.86,-29.42,3.91
626,1747402031370,4.279999999999999,2.205,2.685,26.86,-29.42,3.91
627,1747402031380,3.54,2.37,2.46,-34.67,97.78,149.05
628,1747402031390,3.54,2.37,2.46,-34.67,97.78,149.05
629,1747402031400,3.54,2.37,2.46,-34.67,97.78,149.05
630,1747402031410,2.535,1.835,2.125,-87.91999999999999,73.67,193.115
631,1747402031420,1.53,1.3,1.79,-141.17,49.56,237.18
632,1747402031430,1.53,1.3,1.79,-141.17,49.56,237.18
633,1747402031440,1.53,1.3,1.79,-141.17,49.56,237.18
634,1747402031450,1.19,1.12,1.42,-166.225,-2.469999999999999,259.55
635,1747402031460,0.85,0.94,1.05,-191.28,-54.5,281.92
636,1747402031470,0.85,0.94,1.05,-191.28,-54.5,281.92
637,1747402031480,0.85,0.94,1.05,-191.28,-54.5,281.92
638,1747402031490,0.44,1.09,0.46,-216.915,-54.045,297.88
639,1747402031500,0.44,1.09,0.46,-242.55,-53.59,313.84
640,1747402031510,0.44,1.09,0.46,-242.55,-53.59,313.84
641,1747402031520,0.44,1.09,0.46,-242.55,-53.59,313.84
642,1747402031530,-0.01,1.38,0.49,-247.25,-70.31,332.82
643,1747402031540,-0.01,1.38,0.49,-247.25,-70.31,332.82
644,1747402031550,-0.01,1.38,0.49,-247.25,-70.31,332.82
645,1747402031560,0.06,1.73,0.58,-247.25,-70.31,332.82
646,1747402031570,0.06,1.73,0.58,-246.77,-118.29,369.75
647,1747402031580,0.06,1.73,0.58,-246.77,-118.29,369.75
648,1747402031590,0.06,1.73,0.58,-246.77,-118.29,369.75
649,1747402031600,0.125,1.8,0.5449999999999999,-256.045,-107.485,372.19
650,1747402031610,0.19,1.87,0.51,-265.32,-96.68,374.63
651,1747402031620,0.19,1.87,0.51,-265.32,-96.68,374.63
652,1747402031630,0.19,1.87,0.51,-265.32,-96.68,374.63
653,1747402031640,0.145,1.725,0.445,-267.09000000000003,-88.015,368.895
654,1747402031650,0.1,1.58,0.38,-268.86,-79.35,363.16
655,1747402031660,0.1,1.58,0.38,-268.86,-79.35,363.16
656,1747402031670,0.1,1.58,0.38,-268.86,-79.35,363.16
657,1747402031680,-0.0999999999999999,1.26,0.13,-242.28,-94.67,369.265
658,1747402031690,-0.3,0.94,-0.12,-215.7,-109.99,375.37
659,1747402031700,-0.3,0.94,-0.12,-215.7,-109.99,375.37
660,1747402031710,-0.3,0.94,-0.12,-215.7,-109.99,375.37
661,1747402031720,-1.28,0.11,-1.24,-109.44,-18.86,318.18
662,1747402031730,-1.28,0.11,-1.24,-109.44,-18.86,318.18
663,1747402031740,-1.28,0.11,-1.24,-109.44,-18.86,318.18
664,1747402031750,-1.28,0.11,-1.24,-109.44,-18.86,318.18
665,1747402031760,-3.58,-0.74,-2.17,-72.63,86.12,57.8
666,1747402031770,-3.58,-0.74,-2.17,-72.63,86.12,57.8
667,1747402031780,-3.58,-0.74,-2.17,-72.63,86.12,57.8
668,1747402031790,-3.58,-0.74,-2.17,-72.63,86.12,57.8
669,1747402031800,-3.77,-1.81,-2.49,-22.58,118.04,-100.65
670,1747402031810,-3.77,-1.81,-2.49,-22.58,118.04,-100.65
671,1747402031820,-3.77,-1.81,-2.49,-22.58,118.04,-100.65
672,1747402031830,-3.145,-1.365,-2.225,75.625,109.345,-199.92
673,1747402031840,-2.52,-0.92,-1.96,173.83,100.65,-299.19
674,1747402031850,-2.52,-0.92,-1.96,173.83,100.65,-299.19
675,1747402031860,-2.52,-0.92,-1.96,173.83,100.65,-299.19
676,1747402031870,-1.94,-0.045,-1.52,255.09500000000003,80.57000000000001,-343.96000000000004
677,1747402031880,-1.36,0.83,-1.08,336.36,60.49,-388.73
678,1747402031890,-1.36,0.83,-1.08,336.36,60.49,-388.73
679,1747402031900,-1.36,0.83,-1.08,336.36,60.49,-388.73
680,1747402031910,-1.36,0.83,-1.08,336.36,60.49,-388.73
681,1747402031920,-1.36,0.83,-1.08,336.36,60.49,-388.73
682,1747402031930,0.44,3.16,0.05,410.16,-53.22,-336.61
683,1747402031940,0.44,3.16,0.05,410.16,-53.22,-336.61
684,1747402031950,1.12,2.49,0.34,218.14,-80.08,-299.38
685,1747402031960,1.12,2.49,0.34,218.14,-80.08,-299.38
686,1747402031970,1.12,2.49,0.34,218.14,-80.08,-299.38
687,1747402031980,1.12,2.49,0.34,218.14,-80.08,-299.38
688,1747402031990,0.49,1.7,0.23,160.4,-42.6,-299.8
689,1747402032000,0.49,1.7,0.23,160.4,-42.6,-299.8
690,1747402032010,0.49,1.7,0.23,160.4,-42.6,-299.8
691,1747402032020,0.49,1.7,0.23,160.4,-42.6,-299.8
692,1747402032030,0.36,1.42,0.03,171.33,-36.99,-293.7
693,1747402032040,0.36,1.42,0.03,171.33,-36.99,-293.7
694,1747402032050,0.36,1.42,0.03,171.33,-36.99,-293.7
695,1747402032060,0.4,1.41,0.045,176.485,12.084999999999996,-324.065
696,1747402032070,0.44,1.4,0.06,181.64,61.16,-354.43
697,1747402032080,0.44,1.4,0.06,181.64,61.16,-354.43
698,1747402032090,0.44,1.4,0.06,181.64,61.16,-354.43
699,1747402032100,0.545,1.575,0.275,186.4,77.75999999999999,-368.925
700,1747402032110,0.65,1.75,0.49,191.16,94.36,-383.42
701,1747402032120,0.65,1.75,0.49,191.16,94.36,-383.42
702,1747402032130,0.65,1.75,0.49,191.16,94.36,-383.42
703,1747402032140,1.94,1.37,1.24,191.89,39.12,-320.92
704,1747402032150,1.94,1.37,1.24,191.89,39.12,-320.92
705,1747402032160,1.94,1.37,1.24,191.89,39.12,-320.92
706,1747402032170,1.94,1.37,1.24,191.89,39.12,-320.92
707,1747402032180,3.52,1.95,2.65,197.02,65.73,-321.59
708,1747402032190,3.52,1.95,2.65,197.02,65.73,-321.59
709,1747402032200,3.52,1.95,2.65,197.02,65.73,-321.59
710,1747402032210,3.52,1.95,2.65,197.02,65.73,-321.59
711,1747402032220,5.92,3.77,2.57,19.29,-139.22,-112.3
712,1747402032230,5.92,3.77,2.57,19.29,-139.22,-112.3
713,1747402032240,5.92,3.77,2.57,19.29,-139.22,-112.3
714,1747402032250,5.92,3.77,2.57,19.29,-139.22,-112.3
715,1747402032260,4.52,3.42,1.91,-21.15666666666667,-20.2,112.83333333333331
716,1747402032270,4.52,3.42,1.91,-41.38,39.31,225.4
717,1747402032280,4.52,3.42,1.91,-41.38,39.31,225.4
718,1747402032290,4.52,3.42,1.91,-41.38,39.31,225.4
719,1747402032300,1.14,1.9,1.71,-224.67,231.57,157.29
720,1747402032310,1.14,1.9,1.71,-224.67,231.57,157.29
721,1747402032320,1.14,1.9,1.71,-224.67,231.57,157.29
722,1747402032330,0.7799999999999999,1.645,1.36,-253.205,97.385,219.88
723,1747402032340,0.42,1.39,1.01,-281.74,-36.8,282.47
724,1747402032350,0.42,1.39,1.01,-281.74,-36.8,282.47
725,1747402032360,0.42,1.39,1.01,-281.74,-36.8,282.47
726,1747402032370,0.3399999999999999,1.37,0.625,-276.095,-83.83000000000001,309.295
727,1747402032380,0.26,1.35,0.24,-270.45,-130.86,336.12
728,1747402032390,0.26,1.35,0.24,-270.45,-130.86,336.12
729,1747402032400,0.26,1.35,0.24,-270.45,-130.86,336.12
730,1747402032410,-0.03,1.72,0.19,-262.88,-115.3,321.17
731,1747402032420,-0.03,1.72,0.19,-262.88,-115.3,321.17
732,1747402032430,-0.03,1.72,0.19,-262.88,-115.3,321.17
733,1747402032440,-0.03,1.72,0.19,-262.88,-115.3,321.17
734,1747402032450,0.03,1.875,0.19,-269.83500000000004,-128.51,355.56
735,1747402032460,0.09,2.03,0.19,-276.79,-141.72,389.95
736,1747402032470,0.09,2.03,0.19,-276.79,-141.72,389.95
737,1747402032480,0.09,2.03,0.19,-276.79,-141.72,389.95
738,1747402032490,0.17,1.95,0.17,-245.42,-84.23,429.2
739,1747402032500,0.17,1.95,0.17,-245.42,-84.23,429.2
740,1747402032510,0.17,1.95,0.17,-245.42,-84.23,429.2
741,1747402032520,0.105,1.865,0.18,-258.515,-62.41,407.87
742,1747402032530,0.04,1.78,0.19,-271.61,-40.59,386.54
743,1747402032540,0.04,1.78,0.19,-271.61,-40.59,386.54
744,1747402032550,0.04,1.78,0.19,-271.61,-40.59,386.54
745,1747402032560,-0.105,1.46,0.005,-257.54,-49.165000000000006,381.745
746,1747402032570,-0.25,1.14,-0.18,-243.47,-57.74,376.95
747,1747402032580,-0.25,1.14,-0.18,-243.47,-57.74,376.95
748,1747402032590,-0.25,1.14,-0.18,-243.47,-57.74,376.95
749,1747402032600,-0.25,1.14,-0.18,-243.47,-57.74,376.95
750,1747402032610,-1.34,-0.14,-1.28,-179.99,-68.42,330.57
751,1747402032620,-1.34,-0.14,-1.28,-179.99,-68.42,330.57
752,1747402032630,-1.34,-0.14,-1.28,-179.99,-68.42,330.57
753,1747402032640,-3.35,-0.85,-2.17,-41.26,61.83,181.76
754,1747402032650,-3.35,-0.85,-2.17,-41.26,61.83,181.76
755,1747402032660,-3.35,-0.85,-2.17,-41.26,61.83,181.76
756,1747402032670,-3.35,-0.85,-2.17,-41.26,61.83,181.76
757,1747402032680,-3.585,-1.315,-2.27,-21.88,79.62,57.55499999999999
758,1747402032690,-3.82,-1.78,-2.37,-2.5,97.41,-66.65
759,1747402032700,-3.82,-1.78,-2.37,-2.5,97.41,-66.65
760,1747402032710,-3.82,-1.78,-2.37,-2.5,97.41,-66.65
761,1747402032720,-2.6,-0.96,-1.82,124.15,115.23,-325.87
762,1747402032730,-2.6,-0.96,-1.82,124.15,115.23,-325.87
763,1747402032740,-2.6,-0.96,-1.82,124.15,115.23,-325.87
764,1747402032750,-2.06,-0.1499999999999999,-1.41,211.335,102.355,-365.055
765,1747402032760,-1.52,0.66,-1.0,298.52,89.48,-404.24
766,1747402032770,-1.52,0.66,-1.0,298.52,89.48,-404.24
767,1747402032780,-1.52,0.66,-1.0,298.52,89.48,-404.24
768,1747402032790,-1.52,0.66,-1.0,298.52,89.48,-404.24
769,1747402032800,0.13,3.08,-0.09,416.81,-82.4,-371.7
770,1747402032810,0.13,3.08,-0.09,416.81,-82.4,-371.7
771,1747402032820,0.13,3.08,-0.09,416.81,-82.4,-371.7
772,1747402032830,0.635,2.98,0.125,324.58500000000004,-62.53,-364.195
773,1747402032840,1.14,2.88,0.34,232.36,-42.66,-356.69
774,1747402032850,1.14,2.88,0.34,232.36,-42.66,-356.69
775,1747402032860,1.14,2.88,0.34,232.36,-42.66,-356.69
776,1747402032870,0.7999999999999999,2.365,0.315,196.9,-18.25,-340.605
777,1747402032880,0.46,1.85,0.29,161.44,6.16,-324.52
778,1747402032890,0.46,1.85,0.29,161.44,6.16,-324.52
779,1747402032900,0.46,1.85,0.29,161.44,6.16,-324.52
780,1747402032910,0.28,1.56,0.07,169.25,38.45,-319.64
781,1747402032920,0.28,1.56,0.07,169.25,38.45,-319.64
782,1747402032930,0.28,1.56,0.07,169.25,38.45,-319.64
783,1747402032940,0.28,1.56,0.07,169.25,38.45,-319.64
784,1747402032950,0.42,1.51,0.05,207.15,108.03,-351.81
785,1747402032960,0.42,1.51,0.05,207.15,108.03,-351.81
786,1747402032970,0.42,1.51,0.05,207.15,108.03,-351.81
787,1747402032980,0.42,1.51,0.05,207.15,108.03,-351.81
788,1747402032990,0.81,1.59,0.53,208.62,112.12,-360.23
789,1747402033000,0.81,1.59,0.53,208.62,112.12,-360.23
790,1747402033010,0.81,1.59,0.53,208.62,112.12,-360.23
791,1747402033020,1.3050000000000002,1.265,0.94,212.615,91.035,-316.47
792,1747402033030,1.8,0.94,1.35,216.61,69.95,-272.71
793,1747402033040,1.8,0.94,1.35,216.61,69.95,-272.71
794,1747402033050,1.8,0.94,1.35,216.61,69.95,-272.71
795,1747402033060,3.45,1.99,3.39,233.95,80.08,-330.32
796,1747402033070,3.45,1.99,3.39,233.95,80.08,-330.32
797,1747402033080,3.45,1.99,3.39,233.95,80.08,-330.32
798,1747402033090,3.45,1.99,3.39,233.95,80.08,-330.32
799,1747402033100,5.55,4.16,3.06,28.26,-80.57,-9.89
800,1747402033110,5.55,4.16,3.06,28.26,-80.57,-9.89
801,1747402033120,5.55,4.16,3.06,28.26,-80.57,-9.89
802,1747402033130,5.55,4.16,3.06,28.26,-80.57,-9.89
803,1747402033140,3.71,3.3,2.14,28.26,-80.57,-9.89
804,1747402033150,3.71,3.3,2.14,-112.55,62.81,233.09
805,1747402033160,3.71,3.3,2.14,-112.55,62.81,233.09
806,1747402033170,3.71,3.3,2.14,-112.55,62.81,233.09
807,1747402033180,1.17,2.06,1.86,-207.7,167.72,177.49
808,1747402033190,1.17,2.06,1.86,-207.7,167.72,177.49
809,1747402033200,1.17,2.06,1.86,-207.7,167.72,177.49
810,1747402033210,0.915,1.775,1.515,-244.995,59.905,214.845
811,1747402033220,0.66,1.49,1.17,-282.29,-47.91,252.2
812,1747402033230,0.66,1.49,1.17,-282.29,-47.91,252.2
813,1747402033240,0.66,1.49,1.17,-282.29,-47.91,252.2
814,1747402033250,0.6000000000000001,1.545,0.74,-296.265,-77.025,275.08500000000004
815,1747402033260,0.54,1.6,0.31,-310.24,-106.14,297.97
816,1747402033270,0.54,1.6,0.31,-310.24,-106.14,297.97
817,1747402033280,0.54,1.6,0.31,-310.24,-106.14,297.97
818,1747402033290,-0.07,1.75,0.12,-326.11,-103.82,330.69
819,1747402033300,-0.07,1.75,0.12,-326.11,-103.82,330.69
820,1747402033310,-0.07,1.75,0.12,-326.11,-103.82,330.69
821,1747402033320,-0.07,1.75,0.12,-326.11,-103.82,330.69
822,1747402033330,-0.155,1.81,0.13,-310.945,-136.78,349.795
823,1747402033340,-0.24,1.87,0.14,-295.78,-169.74,368.9
824,1747402033350,-0.24,1.87,0.14,-295.78,-169.74,368.9
825,1747402033360,-0.24,1.87,0.14,-295.78,-169.74,368.9
826,1747402033370,-0.03,1.95,0.12,-291.325,-150.145,393.585
827,1747402033380,-0.03,1.95,0.12,-286.87,-130.55,418.27
828,1747402033390,-0.03,1.95,0.12,-286.87,-130.55,418.27
829,1747402033400,-0.105,1.795,0.155,-286.87,-130.55,418.27
830,1747402033410,-0.18,1.64,0.19,-257.2,-102.6,413.27
831,1747402033420,-0.18,1.64,0.19,-257.2,-102.6,413.27
832,1747402033430,-0.18,1.64,0.19,-257.2,-102.6,413.27
833,1747402033440,-0.225,1.4,0.07,-239.96,-101.87,393.555
834,1747402033450,-0.27,1.16,-0.05,-222.72,-101.14,373.84
835,1747402033460,-0.27,1.16,-0.05,-222.72,-101.14,373.84
836,1747402033470,-0.27,1.16,-0.05,-222.72,-101.14,373.84
837,1747402033480,-0.5900000000000001,0.8799999999999999,-0.945,-222.72,-101.14,373.84
838,1747402033490,-0.91,0.6,-1.84,-323.73,71.66,315.67
839,1747402033500,-0.91,0.6,-1.84,-323.73,71.66,315.67
840,1747402033510,-0.91,0.6,-1.84,-323.73,71.66,315.67
841,1747402033520,-3.04,-0.89,-3.28,-152.4,391.97,41.26
842,1747402033530,-3.04,-0.89,-3.28,-152.4,391.97,41.26
843,1747402033540,-3.04,-0.89,-3.28,-152.4,391.97,41.26
844,1747402033550,-3.04,-0.89,-3.28,-152.4,391.97,41.26
845,1747402033560,-2.57,-1.14,-3.55,-36.895,220.615,36.47
846,1747402033570,-2.57,-1.14,-3.55,78.61,49.26,31.68
847,1747402033580,-2.57,-1.14,-3.55,78.61,49.26,31.68
848,1747402033590,-2.57,-1.14,-3.55,78.61,49.26,31.68
849,1747402033600,-1.88,-0.62,-2.3,290.34,99.67,-165.83
850,1747402033610,-1.88,-0.62,-2.3,290.34,99.67,-165.83
851,1747402033620,-1.88,-0.62,-2.3,290.34,99.67,-165.83
852,1747402033630,-1.88,-0.62,-2.3,290.34,99.67,-165.83
853,1747402033640,-1.23,0.63,-1.02,437.13,64.39,-280.82
854,1747402033650,-1.23,0.63,-1.02,437.13,64.39,-280.82
855,1747402033660,-1.23,0.63,-1.02,437.13,64.39,-280.82
856,1747402033670,-0.7949999999999999,1.71,-0.285,500.82,1.8599999999999997,-278.015
857,1747402033680,-0.36,2.79,0.45,564.51,-60.67,-275.21
858,1747402033690,-0.36,2.79,0.45,564.51,-60.67,-275.21
859,1747402033700,-0.36,2.79,0.45,564.51,-60.67,-275.21
860,1747402033710,0.52,2.83,0.97,345.03,-108.46,-316.59
861,1747402033720,0.52,2.83,0.97,345.03,-108.46,-316.59
862,1747402033730,0.52,2.83,0.97,345.03,-108.46,-316.59
863,1747402033740,0.52,2.83,0.97,345.03,-108.46,-316.59
864,1747402033750,0.41,2.26,0.87,251.04,-40.83,-326.35
865,1747402033760,0.41,2.26,0.87,251.04,-40.83,-326.35
866,1747402033770,0.41,2.26,0.87,251.04,-40.83,-326.35
867,1747402033780,0.41,2.26,0.87,251.04,-40.83,-326.35
868,1747402033790,0.25,1.66,0.54,205.63,-17.64,-306.09
869,1747402033800,0.25,1.66,0.54,205.63,-17.64,-306.09
870,1747402033810,0.25,1.66,0.54,205.63,-17.64,-306.09
871,1747402033820,0.25,1.66,0.54,205.63,-17.64,-306.09
872,1747402033830,0.32,1.36,0.36,215.03,42.97,-295.78
873,1747402033840,0.32,1.36,0.36,215.03,42.97,-295.78
874,1747402033850,0.32,1.36,0.36,215.03,42.97,-295.78
875,1747402033860,0.32,1.36,0.36,215.03,42.97,-295.78
876,1747402033870,0.8,1.59,0.97,194.4,-2.14,-280.88
877,1747402033880,0.8,1.59,0.97,194.4,-2.14,-280.88
878,1747402033890,0.8,1.59,0.97,194.4,-2.14,-280.88
879,1747402033900,1.5950000000000002,1.175,1.1749999999999998,172.79000000000002,-10.04,-251.095
880,1747402033910,2.39,0.76,1.38,151.18,-17.94,-221.31
881,1747402033920,2.39,0.76,1.38,151.18,-17.94,-221.31
882,1747402033930,2.39,0.76,1.38,151.18,-17.94,-221.31
883,1747402033940,2.39,0.76,1.38,151.18,-17.94,-221.31
884,1747402033950,3.71,1.46,2.84,128.23,-17.4,-310.91
885,1747402033960,3.71,1.46,2.84,128.23,-17.4,-310.91
886,1747402033970,3.71,1.46,2.84,128.23,-17.4,-310.91
887,1747402033980,4.83,2.455,2.425,52.88499999999999,-70.07,-160.245
888,1747402033990,5.95,3.45,2.01,-22.46,-122.74,-9.58
889,1747402034000,5.95,3.45,2.01,-22.46,-122.74,-9.58
890,1747402034010,5.95,3.45,2.01,-22.46,-122.74,-9.58
891,1747402034020,4.07,2.83,1.64,-40.65,133.18,208.92
892,1747402034030,4.07,2.83,1.64,-40.65,133.18,208.92
893,1747402034040,4.07,2.83,1.64,-40.65,133.18,208.92
894,1747402034050,4.07,2.83,1.64,-40.65,133.18,208.92
895,1747402034060,1.23,1.73,1.65,-137.08,212.04,192.26
896,1747402034070,1.23,1.73,1.65,-137.08,212.04,192.26
897,1747402034080,1.23,1.73,1.65,-137.08,212.04,192.26
898,1747402034090,0.905,1.5,1.4,-137.08,212.04,192.26
899,1747402034100,0.58,1.27,1.15,-192.87,-0.18,288.09
900,1747402034110,0.58,1.27,1.15,-192.87,-0.18,288.09
901,1747402034120,0.58,1.27,1.15,-192.87,-0.18,288.09
902,1747402034130,0.41,1.255,0.7799999999999999,-209.44,-27.31,296.725
903,1747402034140,0.24,1.24,0.41,-226.01,-54.44,305.36
904,1747402034150,0.24,1.24,0.41,-226.01,-54.44,305.36
905,1747402034160,0.24,1.24,0.41,-226.01,-54.44,305.36
906,1747402034170,0.045,1.34,0.31,-229.98,-62.405,308.105
907,1747402034180,-0.15,1.44,0.21,-233.95,-70.37,310.85
908,1747402034190,-0.15,1.44,0.21,-233.95,-70.37,310.85
909,1747402034200,-0.15,1.44,0.21,-233.95,-70.37,310.85
910,1747402034210,0.04,1.73,0.16,-233.83,-105.9,346.86
911,1747402034220,0.04,1.73,0.16,-233.83,-105.9,346.86
912,1747402034230,0.04,1.73,0.16,-233.83,-105.9,346.86
913,1747402034240,0.04,1.73,0.16,-233.83,-105.9,346.86
914,1747402034250,0.06,1.94,0.24,-250.125,-69.61500000000001,354.92
915,1747402034260,0.06,1.94,0.24,-266.42,-33.33,362.98
916,1747402034270,0.06,1.94,0.24,-266.42,-33.33,362.98
917,1747402034280,0.06,1.94,0.24,-266.42,-33.33,362.98
918,1747402034290,-0.11,1.68,0.22,-277.83,-47.18,361.57
919,1747402034300,-0.11,1.68,0.22,-277.83,-47.18,361.57
920,1747402034310,-0.11,1.68,0.22,-277.83,-47.18,361.57
921,1747402034320,-0.14,1.46,0.105,-260.495,-44.615,348.905
922,1747402034330,-0.17,1.24,-0.01,-243.16,-42.05,336.24
923,1747402034340,-0.17,1.24,-0.01,-243.16,-42.05,336.24
924,1747402034350,-0.17,1.24,-0.01,-243.16,-42.05,336.24
925,1747402034360,-0.5,0.7,-0.44,-224.7,-34.97,320.405
926,1747402034370,-0.83,0.16,-0.87,-206.24,-27.89,304.57
927,1747402034380,-0.83,0.16,-0.87,-206.24,-27.89,304.57
928,1747402034390,-0.83,0.16,-0.87,-206.24,-27.89,304.57
929,1747402034400,-1.71,-0.61,-1.375,-145.755,-8.635000000000002,251.74
930,1747402034410,-2.59,-1.38,-1.88,-85.27,10.62,198.91
931,1747402034420,-2.59,-1.38,-1.88,-85.27,10.62,198.91
932,1747402034430,-2.59,-1.38,-1.88,-85.27,10.62,198.91
933,1747402034440,-3.25,-1.86,-2.3,-53.71,86.79,-22.95
934,1747402034450,-3.25,-1.86,-2.3,-53.71,86.79,-22.95
935,1747402034460,-3.25,-1.86,-2.3,-53.71,86.79,-22.95
936,1747402034470,-3.25,-1.86,-2.3,-53.71,86.79,-22.95
937,1747402034480,-2.55,-1.91,-2.27,75.13,95.4,-268.13
938,1747402034490,-2.55,-1.91,-2.27,75.13,95.4,-268.13
939,1747402034500,-2.55,-1.91,-2.27,75.13,95.4,-268.13
940,1747402034510,-2.085,-1.085,-1.885,155.485,92.96,-315.25
941,1747402034520,-1.62,-0.26,-1.5,235.84,90.52,-362.37
942,1747402034530,-1.62,-0.26,-1.5,235.84,90.52,-362.37
943,1747402034540,-1.62,-0.26,-1.5,235.84,90.52,-362.37
944,1747402034550,-1.62,-0.26,-1.5,235.84,90.52,-362.37
945,1747402034560,-0.39,2.47,-0.3,441.22,-13.92,-279.66
946,1747402034570,-0.39,2.47,-0.3,441.22,-13.92,-279.66
947,1747402034580,-0.39,2.47,-0.3,441.22,-13.92,-279.66
948,1747402034590,0.2249999999999999,2.62,0.07,368.16,-37.72,-261.20000000000005
949,1747402034600,0.84,2.77,0.44,295.1,-61.52,-242.74
950,1747402034610,0.84,2.77,0.44,295.1,-61.52,-242.74
951,1747402034620,0.84,2.77,0.44,295.1,-61.52,-242.74
952,1747402034630,0.55,2.225,0.33,219.78500000000005,-7.780000000000001,-263.795
953,1747402034640,0.26,1.68,0.22,144.47,45.96,-284.85
954,1747402034650,0.26,1.68,0.22,144.47,45.96,-284.85
955,1747402034660,0.26,1.68,0.22,144.47,45.96,-284.85
956,1747402034670,0.0,1.38,0.09,179.26,26.58,-265.93
957,1747402034680,0.0,1.38,0.09,214.05,7.2,-247.01
958,1747402034690,0.0,1.38,0.09,214.05,7.2,-247.01
959,1747402034700,0.0,1.38,0.09,214.05,7.2,-247.01
960,1747402034710,0.06,1.35,0.07,222.075,7.140000000000001,-258.79
961,1747402034720,0.06,1.35,0.07,230.1,7.08,-270.57
962,1747402034730,0.06,1.35,0.07,230.1,7.08,-270.57
963,1747402034740,0.06,1.35,0.07,230.1,7.08,-270.57
964,1747402034750,0.55,1.65,0.28,198.43,24.05,-338.13
965,1747402034760,0.55,1.65,0.28,198.43,24.05,-338.13
966,1747402034770,0.55,1.65,0.28,198.43,24.05,-338.13
967,1747402034780,0.55,1.65,0.28,198.43,24.05,-338.13
968,1747402034790,2.0,1.18,0.97,167.6,46.63,-296.63
969,1747402034800,2.0,1.18,0.97,167.6,46.63,-296.63
970,1747402034810,2.0,1.18,0.97,167.6,46.63,-296.63
971,1747402034820,2.6,1.21,1.705,158.505,37.05,-288.82
972,1747402034830,3.2,1.24,2.44,149.41,27.47,-281.01
973,1747402034840,3.2,1.24,2.44,149.41,27.47,-281.01
974,1747402034850,3.2,1.24,2.44,149.41,27.47,-281.01
975,1747402034860,3.2,1.24,2.44,149.41,27.47,-281.01
976,1747402034870,5.6,2.98,2.42,34.67,-65.67,-116.82
977,1747402034880,5.6,2.98,2.42,34.67,-65.67,-116.82
978,1747402034890,5.6,2.98,2.42,34.67,-65.67,-116.82
979,1747402034900,4.11,3.47,2.74,33.02,71.35,137.45
980,1747402034910,4.11,3.47,2.74,33.02,71.35,137.45
981,1747402034920,4.11,3.47,2.74,33.02,71.35,137.45
982,1747402034930,4.11,3.47,2.74,33.02,71.35,137.45
983,1747402034940,1.64,2.24,2.33,-156.74,154.97,161.56
984,1747402034950,1.64,2.24,2.33,-156.74,154.97,161.56
985,1747402034960,1.64,2.24,2.33,-156.74,154.97,161.56
986,1747402034970,1.64,2.24,2.33,-156.74,154.97,161.56
987,1747402034980,0.67,1.35,1.57,-251.28,-23.56,229.13
988,1747402034990,0.67,1.35,1.57,-251.28,-23.56,229.13
989,1747402035000,0.67,1.35,1.57,-251.28,-23.56,229.13
990,1747402035010,0.67,1.35,1.57,-251.28,-23.56,229.13
991,1747402035020,0.38,1.31,0.72,-297.91,-141.05,272.58
992,1747402035030,0.38,1.31,0.72,-297.91,-141.05,272.58
993,1747402035040,0.38,1.31,0.72,-297.91,-141.05,272.58
994,1747402035050,0.175,1.455,0.485,-319.12,-148.01,298.185
995,1747402035060,-0.03,1.6,0.25,-340.33,-154.97,323.79
996,1747402035070,-0.03,1.6,0.25,-340.33,-154.97,323.79
997,1747402035080,-0.03,1.6,0.25,-340.33,-154.97,323.79
998,1747402035090,-0.06,1.62,0.11,-338.075,-150.3,345.245
999,1747402035100,-0.06,1.62,0.11,-335.82,-145.63,366.7
