id,timestamp,acc_x,acc_y,acc_z,gyro_x,gyro_y,gyro_z
0,1747401335180,0.12,0.17,-1.05,4.58,-18.62,-0.06
1,1747401335190,0.15,0.09,-1.11,8.48,-36.99,14.34
2,1747401335200,0.15,0.09,-1.11,8.48,-36.99,14.34
3,1747401335210,0.15,0.09,-1.11,8.48,-36.99,14.34
4,1747401335220,0.15,0.09,-1.11,8.48,-36.99,14.34
5,1747401335230,0.16,0.07,-1.04,41.81,-17.64,2.38
6,1747401335240,0.16,0.07,-1.04,41.81,-17.64,2.38
7,1747401335250,0.16,0.07,-1.04,41.81,-17.64,2.38
8,1747401335260,0.16,0.06,-1.11,41.81,-17.64,2.38
9,1747401335270,0.16,0.06,-1.11,74.22,12.08,-9.89
10,1747401335280,0.16,0.06,-1.11,74.22,12.08,-9.89
11,1747401335290,0.16,0.12,-1.11,66.83,-29.11,-3.91
12,1747401335300,0.16,0.12,-1.11,66.83,-29.11,-3.91
13,1747401335310,0.16,0.12,-1.11,66.83,-29.11,-3.91
14,1747401335320,0.16,0.12,-1.11,66.83,-29.11,-3.91
15,1747401335330,0.13,0.01,-0.96,60.36,-9.77,-21.36
16,1747401335340,0.13,0.01,-0.96,60.36,-9.77,-21.36
17,1747401335350,0.13,0.01,-0.96,60.36,-9.77,-21.36
18,1747401335360,0.13,0.01,-0.96,60.36,-9.77,-21.36
19,1747401335370,0.19,0.03,-0.94,20.2,62.81,-42.05
20,1747401335380,0.19,0.03,-0.94,20.2,62.81,-42.05
21,1747401335390,0.19,0.03,-0.94,20.2,62.81,-42.05
22,1747401335400,0.19,0.03,-0.94,20.2,62.81,-42.05
23,1747401335410,0.3,-0.07,-1.14,44.68,20.14,-24.48
24,1747401335420,0.3,-0.07,-1.14,44.68,20.14,-24.48
25,1747401335430,0.3,-0.07,-1.14,44.68,20.14,-24.48
26,1747401335440,0.295,-0.06,-1.03,27.985,12.33,-7.970000000000001
27,1747401335450,0.29,-0.05,-0.92,11.29,4.52,8.54
28,1747401335460,0.29,-0.05,-0.92,11.29,4.52,8.54
29,1747401335470,0.29,-0.05,-0.92,11.29,4.52,8.54
30,1747401335480,0.295,-0.06,-0.965,2.135,10.805,6.68
31,1747401335490,0.3,-0.07,-1.01,-7.02,17.09,4.82
32,1747401335500,0.3,-0.07,-1.01,-7.02,17.09,4.82
33,1747401335510,0.3,-0.07,-1.01,-7.02,17.09,4.82
34,1747401335520,0.15,-0.14,-0.88,13.31,41.14,11.66
35,1747401335530,0.15,-0.14,-0.88,13.31,41.14,11.66
36,1747401335540,0.15,-0.14,-0.88,13.31,41.14,11.66
37,1747401335550,0.1649999999999999,-0.115,-0.935,13.31,41.14,11.66
38,1747401335560,0.18,-0.09,-0.99,-7.63,22.77,7.26
39,1747401335570,0.18,-0.09,-0.99,-7.63,22.77,7.26
40,1747401335580,0.18,-0.09,-0.99,-7.63,22.77,7.26
41,1747401335590,0.0249999999999999,-0.1,-0.98,7.475,0.9499999999999992,-11.81
42,1747401335600,-0.13,-0.11,-0.97,22.58,-20.87,-30.88
43,1747401335610,-0.13,-0.11,-0.97,22.58,-20.87,-30.88
44,1747401335620,-0.13,-0.11,-0.97,22.58,-20.87,-30.88
45,1747401335630,-0.13,-0.11,-0.97,22.58,-20.87,-30.88
46,1747401335640,-0.08,-0.1,-0.87,22.28,5.13,-16.48
47,1747401335650,-0.08,-0.1,-0.87,22.28,5.13,-16.48
48,1747401335660,-0.08,-0.1,-0.87,22.28,5.13,-16.48
49,1747401335670,-0.06,-0.21,-0.9,-17.4,-17.58,3.97
50,1747401335680,-0.06,-0.21,-0.9,-17.4,-17.58,3.97
51,1747401335690,-0.06,-0.21,-0.9,-17.4,-17.58,3.97
52,1747401335700,-0.06,-0.21,-0.9,-17.4,-17.58,3.97
53,1747401335710,-0.06,-0.21,-0.9,-17.4,-17.58,3.97
54,1747401335720,-0.16,-0.01,-1.08,57.74,24.05,-28.08
55,1747401335730,-0.16,-0.01,-1.08,57.74,24.05,-28.08
56,1747401335740,-0.16,-0.01,-1.08,57.74,24.05,-28.08
57,1747401335750,-0.14,-0.24,-0.9,-24.9,49.44,23.19
58,1747401335760,-0.14,-0.24,-0.9,-24.9,49.44,23.19
59,1747401335770,-0.14,-0.24,-0.9,-24.9,49.44,23.19
60,1747401335780,-0.14,-0.24,-0.9,-24.9,49.44,23.19
61,1747401335790,-0.14,-0.29,-1.0,-4.03,64.27,15.44
62,1747401335800,-0.14,-0.29,-1.0,-4.03,64.27,15.44
63,1747401335810,-0.14,-0.29,-1.0,-4.03,64.27,15.44
64,1747401335820,-0.155,-0.245,-1.005,1.4949999999999997,58.805,14.405
65,1747401335830,-0.17,-0.2,-1.01,7.02,53.34,13.37
66,1747401335840,-0.17,-0.2,-1.01,7.02,53.34,13.37
67,1747401335850,-0.17,-0.2,-1.01,7.02,53.34,13.37
68,1747401335860,-0.2,-0.28,-1.11,0.98,38.88,-7.14
69,1747401335870,-0.2,-0.28,-1.11,0.98,38.88,-7.14
70,1747401335880,-0.2,-0.28,-1.11,0.98,38.88,-7.14
71,1747401335890,-0.2,-0.28,-1.11,0.98,38.88,-7.14
72,1747401335900,-0.29,-0.32,-1.25,-7.14,4.09,-12.45
73,1747401335910,-0.29,-0.32,-1.25,-7.14,4.09,-12.45
74,1747401335920,-0.29,-0.32,-1.25,-7.14,4.09,-12.45
75,1747401335930,-0.29,-0.32,-1.25,-7.14,4.09,-12.45
76,1747401335940,-0.23,-0.32,-1.28,2.6250000000000004,8.515,-3.875
77,1747401335950,-0.23,-0.32,-1.28,12.39,12.94,4.7
78,1747401335960,-0.23,-0.32,-1.28,12.39,12.94,4.7
79,1747401335970,-0.23,-0.32,-1.28,12.39,12.94,4.7
80,1747401335980,-0.23,-0.32,-1.28,12.39,12.94,4.7
81,1747401335990,-0.19,-0.34,-1.27,24.66,6.35,1.89
82,1747401336000,-0.19,-0.34,-1.27,24.66,6.35,1.89
83,1747401336010,-0.19,-0.34,-1.27,24.66,6.35,1.89
84,1747401336020,-0.19,-0.35,-1.24,2.62,18.13,7.26
85,1747401336030,-0.19,-0.35,-1.24,2.62,18.13,7.26
86,1747401336040,-0.19,-0.35,-1.24,2.62,18.13,7.26
87,1747401336050,-0.19,-0.35,-1.24,2.62,18.13,7.26
88,1747401336060,-0.21,-0.39,-1.22,-23.62,21.48,23.86
89,1747401336070,-0.21,-0.39,-1.22,-23.62,21.48,23.86
90,1747401336080,-0.21,-0.39,-1.22,-23.62,21.48,23.86
91,1747401336090,-0.255,-0.305,-1.205,-7.295000000000001,7.505000000000001,7.87
92,1747401336100,-0.3,-0.22,-1.19,9.03,-6.47,-8.12
93,1747401336110,-0.3,-0.22,-1.19,9.03,-6.47,-8.12
94,1747401336120,-0.3,-0.22,-1.19,9.03,-6.47,-8.12
95,1747401336130,-0.2249999999999999,-0.255,-1.16,4.359999999999999,-20.995,0.0
96,1747401336140,-0.15,-0.29,-1.13,-0.31,-35.52,8.12
97,1747401336150,-0.15,-0.29,-1.13,-0.31,-35.52,8.12
98,1747401336160,-0.15,-0.29,-1.13,-0.31,-35.52,8.12
99,1747401336170,-0.18,-0.24,-1.08,0.575,-29.630000000000003,3.2949999999999995
100,1747401336180,-0.18,-0.24,-1.08,1.46,-23.74,-1.53
101,1747401336190,,,,,,
102,1747401336200,-0.18,-0.24,-1.08,1.46,-23.74,-1.53
103,1747401336210,-0.1,-0.28,-1.17,11.35,-27.95,-9.77
104,1747401336220,-0.1,-0.28,-1.17,11.35,-27.95,-9.77
105,1747401336230,-0.1,-0.28,-1.17,11.35,-27.95,-9.77
106,1747401336240,-0.1,-0.28,-1.17,11.35,-27.95,-9.77
107,1747401336250,-0.12,-0.21,-1.1,-47.3,-40.1,17.88
108,1747401336260,-0.12,-0.21,-1.1,-47.3,-40.1,17.88
109,1747401336270,-0.12,-0.21,-1.1,-47.3,-40.1,17.88
110,1747401336280,-0.09,-0.14,-1.05,-47.3,-40.1,17.88
111,1747401336290,-0.09,-0.14,-1.05,-1.28,-33.02,19.23
112,1747401336300,-0.09,-0.14,-1.05,-1.28,-33.02,19.23
113,1747401336310,-0.09,-0.14,-1.05,-1.28,-33.02,19.23
114,1747401336320,-0.08,-0.18,-1.0,-1.28,-33.02,19.23
115,1747401336330,-0.08,-0.18,-1.0,-40.34,-21.42,18.98
116,1747401336340,-0.08,-0.18,-1.0,-40.34,-21.42,18.98
117,1747401336350,-0.08,-0.18,-1.0,-40.34,-21.42,18.98
118,1747401336360,-0.06,-0.2,-1.01,-19.23,-5.31,-10.99
119,1747401336370,-0.06,-0.2,-1.01,-19.23,-5.31,-10.99
120,1747401336380,-0.06,-0.2,-1.01,-19.23,-5.31,-10.99
121,1747401336390,-0.06,-0.2,-1.01,-19.23,-5.31,-10.99
122,1747401336400,-0.05,-0.13,-0.97,-7.75,-12.02,-2.08
123,1747401336410,-0.05,-0.13,-0.97,-7.75,-12.02,-2.08
124,1747401336420,-0.05,-0.13,-0.97,-7.75,-12.02,-2.08
125,1747401336430,-0.05,-0.13,-0.97,-7.75,-12.02,-2.08
126,1747401336440,0.0,-0.14,-0.91,-18.49,-1.83,-21.73
127,1747401336450,0.0,-0.14,-0.91,-18.49,-1.83,-21.73
128,1747401336460,0.0,-0.14,-0.91,-18.49,-1.83,-21.73
129,1747401336470,0.0,-0.14,-0.91,-18.49,-1.83,-21.73
130,1747401336480,0.05,-0.15,-0.94,-21.42,-5.98,-3.72
131,1747401336490,0.05,-0.15,-0.94,-21.42,-5.98,-3.72
132,1747401336500,0.05,-0.15,-0.94,-21.42,-5.98,-3.72
133,1747401336510,0.05,-0.105,-0.905,-21.42,-5.98,-3.72
134,1747401336520,0.05,-0.06,-0.87,-25.15,-0.98,0.24
135,1747401336530,0.05,-0.06,-0.87,-25.15,-0.98,0.24
136,1747401336540,0.05,-0.06,-0.87,-25.15,-0.98,0.24
137,1747401336550,0.09,-0.07,-0.88,-16.36,-2.2,-6.135
138,1747401336560,0.13,-0.08,-0.89,-7.57,-3.42,-12.51
139,1747401336570,0.13,-0.08,-0.89,-7.57,-3.42,-12.51
140,1747401336580,0.13,-0.08,-0.89,-7.57,-3.42,-12.51
141,1747401336590,0.13,-0.08,-0.89,-7.57,-3.42,-12.51
142,1747401336600,0.21,-0.01,-0.81,-19.9,3.36,-1.46
143,1747401336610,0.21,-0.01,-0.81,-19.9,3.36,-1.46
144,1747401336620,0.18,-0.08,-0.81,-35.89,25.7,-15.63
145,1747401336630,0.18,-0.08,-0.81,-35.89,25.7,-15.63
146,1747401336640,0.18,-0.08,-0.81,-35.89,25.7,-15.63
147,1747401336650,0.18,-0.08,-0.81,-35.89,25.7,-15.63
148,1747401336660,0.18,-0.04,-0.92,-38.94,8.42,-11.96
149,1747401336670,0.18,-0.04,-0.92,-38.94,8.42,-11.96
150,1747401336680,0.18,-0.04,-0.92,-38.94,8.42,-11.96
151,1747401336690,0.235,-0.01,-0.94,-38.94,8.42,-11.96
152,1747401336700,0.29,0.02,-0.96,-43.27,12.82,-48.22
153,1747401336710,0.29,0.02,-0.96,-43.27,12.82,-48.22
154,1747401336720,0.29,0.02,-0.96,-43.27,12.82,-48.22
155,1747401336730,0.29,0.02,-0.96,-43.27,12.82,-48.22
156,1747401336740,0.36,-0.03,-1.05,6.65,35.22,-56.76
157,1747401336750,0.36,-0.03,-1.05,6.65,35.22,-56.76
158,1747401336760,0.36,-0.03,-1.05,6.65,35.22,-56.76
159,1747401336770,0.36,-0.03,-1.05,6.65,35.22,-56.76
160,1747401336780,0.48,0.05,-0.97,19.17,8.79,-70.01
161,1747401336790,0.48,0.05,-0.97,19.17,8.79,-70.01
162,1747401336800,0.48,0.05,-0.97,19.17,8.79,-70.01
163,1747401336810,0.47,-0.04,-1.06,-5.55,23.25,-47.61
164,1747401336820,0.47,-0.04,-1.06,-5.55,23.25,-47.61
165,1747401336830,0.47,-0.04,-1.06,-5.55,23.25,-47.61
166,1747401336840,0.47,-0.04,-1.06,-5.55,23.25,-47.61
167,1747401336850,0.47,-0.01,-1.16,-9.305,20.11,-32.99
168,1747401336860,0.47,-0.01,-1.16,-13.06,16.97,-18.37
169,1747401336870,0.47,-0.01,-1.16,-13.06,16.97,-18.37
170,1747401336880,0.47,-0.01,-1.16,-13.06,16.97,-18.37
171,1747401336890,0.46,-0.01,-1.16,7.32,18.55,-16.24
172,1747401336900,0.46,-0.01,-1.16,7.32,18.55,-16.24
173,1747401336910,0.46,-0.01,-1.16,7.32,18.55,-16.24
174,1747401336920,0.46,-0.01,-1.16,7.32,18.55,-16.24
175,1747401336930,0.45,0.08,-1.13,22.64,18.37,-3.11
176,1747401336940,0.45,0.08,-1.13,22.64,18.37,-3.11
177,1747401336950,0.45,0.08,-1.13,22.64,18.37,-3.11
178,1747401336960,0.45,0.1149999999999999,-1.16,22.64,18.37,-3.11
179,1747401336970,0.45,0.15,-1.19,-5.92,10.25,-0.73
180,1747401336980,0.45,0.15,-1.19,-5.92,10.25,-0.73
181,1747401336990,0.45,0.15,-1.19,-5.92,10.25,-0.73
182,1747401337000,0.45,0.15,-1.19,-5.92,10.25,-0.73
183,1747401337010,0.49,0.12,-1.15,-3.48,-9.95,-11.66
184,1747401337020,0.49,0.12,-1.15,-3.48,-9.95,-11.66
185,1747401337030,0.49,0.12,-1.15,-3.48,-9.95,-11.66
186,1747401337040,0.525,0.1,-1.12,-11.355,-5.92,-11.23
187,1747401337050,0.56,0.08,-1.09,-19.23,-1.89,-10.8
188,1747401337060,0.56,0.08,-1.09,-19.23,-1.89,-10.8
189,1747401337070,0.56,0.08,-1.09,-19.23,-1.89,-10.8
190,1747401337080,0.51,0.04,-1.0950000000000002,-7.48,0.8550000000000001,4.0
191,1747401337090,0.46,0.0,-1.1,4.27,3.6,18.8
192,1747401337100,0.46,0.0,-1.1,4.27,3.6,18.8
193,1747401337110,0.47,0.065,-1.0750000000000002,4.27,3.6,18.8
194,1747401337120,0.48,0.13,-1.05,-15.08,-39.61,26.43
195,1747401337130,0.48,0.13,-1.05,-15.08,-39.61,26.43
196,1747401337140,0.48,0.13,-1.05,-15.08,-39.61,26.43
197,1747401337150,0.48,0.13,-1.05,-15.08,-39.61,26.43
198,1747401337160,0.37,-0.06,-0.95,5.25,-19.41,30.58
199,1747401337170,0.37,-0.06,-0.95,5.25,-19.41,30.58
200,1747401337180,0.37,-0.06,-0.95,5.25,-19.41,30.58
201,1747401337190,0.37,-0.06,-0.95,5.25,-19.41,30.58
202,1747401337200,0.35,0.07,-0.92,20.63,-19.78,41.32
203,1747401337210,0.35,0.07,-0.92,20.63,-19.78,41.32
204,1747401337220,0.35,0.07,-0.92,20.63,-19.78,41.32
205,1747401337230,0.265,0.01,-0.935,6.194999999999999,-17.765,34.76
206,1747401337240,0.18,-0.05,-0.95,-8.24,-15.75,28.2
207,1747401337250,0.18,-0.05,-0.95,-8.24,-15.75,28.2
208,1747401337260,0.18,-0.05,-0.95,-8.24,-15.75,28.2
209,1747401337270,0.19,0.01,-0.99,-33.08,-28.44,35.77
210,1747401337280,0.19,0.01,-0.99,-33.08,-28.44,35.77
211,1747401337290,0.19,0.01,-0.99,-33.08,-28.44,35.77
212,1747401337300,0.19,0.01,-0.99,-33.08,-28.44,35.77
213,1747401337310,0.18,-0.02,-0.995,-24.75,-21.515,24.845
214,1747401337320,0.17,-0.05,-1.0,-16.42,-14.59,13.92
215,1747401337330,0.17,-0.05,-1.0,-16.42,-14.59,13.92
216,1747401337340,0.17,-0.05,-1.0,-16.42,-14.59,13.92
217,1747401337350,0.12,-0.12,-1.0,6.71,-8.85,18.68
218,1747401337360,0.12,-0.12,-1.0,6.71,-8.85,18.68
219,1747401337370,0.12,-0.12,-1.0,6.71,-8.85,18.68
220,1747401337380,0.12,-0.12,-1.0,6.71,-8.85,18.68
221,1747401337390,0.12,-0.12,-1.0,6.71,-8.85,18.68
222,1747401337400,0.09,-0.04,-0.97,23.44,12.57,2.56
223,1747401337410,0.09,-0.04,-0.97,23.44,12.57,2.56
224,1747401337420,0.095,-0.065,-0.96,18.1,-0.3700000000000001,2.35
225,1747401337430,0.1,-0.09,-0.95,12.76,-13.31,2.14
226,1747401337440,0.1,-0.09,-0.95,12.76,-13.31,2.14
227,1747401337450,0.1,-0.09,-0.95,12.76,-13.31,2.14
228,1747401337460,0.07,-0.095,-0.93,15.14,-7.325,-0.24
229,1747401337470,0.04,-0.1,-0.91,17.52,-1.34,-2.62
230,1747401337480,0.04,-0.1,-0.91,17.52,-1.34,-2.62
231,1747401337490,0.04,-0.1,-0.91,17.52,-1.34,-2.62
232,1747401337500,0.005,-0.105,-0.905,9.705,-0.09,-1.155
233,1747401337510,-0.03,-0.11,-0.9,1.89,1.16,0.31
234,1747401337520,-0.03,-0.11,-0.9,1.89,1.16,0.31
235,1747401337530,-0.03,-0.11,-0.9,1.89,1.16,0.31
236,1747401337540,-0.08,-0.13,-0.93,4.73,9.155,-0.975
237,1747401337550,-0.08,-0.13,-0.93,7.57,17.15,-2.26
238,1747401337560,-0.08,-0.13,-0.93,7.57,17.15,-2.26
239,1747401337570,-0.08,-0.13,-0.93,7.57,17.15,-2.26
240,1747401337580,-0.15,-0.1,-0.97,3.48,16.3,2.01
241,1747401337590,-0.15,-0.1,-0.97,3.48,16.3,2.01
242,1747401337600,-0.15,-0.1,-0.97,3.48,16.3,2.01
243,1747401337610,-0.105,-0.095,-0.98,3.48,16.3,2.01
244,1747401337620,-0.06,-0.09,-0.99,2.75,-3.05,-20.51
245,1747401337630,-0.06,-0.09,-0.99,2.75,-3.05,-20.51
246,1747401337640,-0.06,-0.09,-0.99,2.75,-3.05,-20.51
247,1747401337650,-0.06,-0.09,-0.99,2.75,-3.05,-20.51
248,1747401337660,-0.07,-0.21,-1.02,2.14,-12.27,-29.91
249,1747401337670,-0.07,-0.21,-1.02,2.14,-12.27,-29.91
250,1747401337680,-0.07,-0.21,-1.02,2.14,-12.27,-29.91
251,1747401337690,-0.065,-0.22,-1.04,12.91,-10.68,-27.835
252,1747401337700,-0.06,-0.23,-1.06,23.68,-9.09,-25.76
253,1747401337710,-0.06,-0.23,-1.06,23.68,-9.09,-25.76
254,1747401337720,-0.06,-0.23,-1.06,23.68,-9.09,-25.76
255,1747401337730,-0.045,-0.21,-1.0750000000000002,19.195,-10.1,-37.265
256,1747401337740,-0.03,-0.19,-1.09,14.71,-11.11,-48.77
257,1747401337750,-0.03,-0.19,-1.09,14.71,-11.11,-48.77
258,1747401337760,-0.03,-0.19,-1.09,14.71,-11.11,-48.77
259,1747401337770,-0.05,-0.24,-1.01,42.91,-3.97,-43.09
260,1747401337780,-0.05,-0.24,-1.01,42.91,-3.97,-43.09
261,1747401337790,-0.05,-0.24,-1.01,42.91,-3.97,-43.09
262,1747401337800,-0.05,-0.24,-1.01,42.91,-3.97,-43.09
263,1747401337810,-0.23,-0.3,-0.95,83.56,52.31,-54.99
264,1747401337820,-0.23,-0.3,-0.95,83.56,52.31,-54.99
265,1747401337830,-0.23,-0.3,-0.95,83.56,52.31,-54.99
266,1747401337840,-0.345,-0.3249999999999999,-0.995,83.56,52.31,-54.99
267,1747401337850,-0.46,-0.35,-1.04,55.36,39.18,-55.73
268,1747401337860,-0.46,-0.35,-1.04,55.36,39.18,-55.73
269,1747401337870,-0.46,-0.35,-1.04,55.36,39.18,-55.73
270,1747401337880,-0.43,-0.39,-1.08,55.36,39.18,-55.73
271,1747401337890,-0.4,-0.43,-1.12,9.16,1.65,-51.94
272,1747401337900,-0.4,-0.43,-1.12,9.16,1.65,-51.94
273,1747401337910,-0.4,-0.43,-1.12,9.16,1.65,-51.94
274,1747401337920,-0.37,-0.47,-1.13,3.97,7.295,-48.155
275,1747401337930,-0.34,-0.51,-1.14,-1.22,12.94,-44.37
276,1747401337940,-0.34,-0.51,-1.14,-1.22,12.94,-44.37
277,1747401337950,-0.34,-0.51,-1.14,-1.22,12.94,-44.37
278,1747401337960,-0.23,-0.53,-1.21,-10.77,5.34,-32.04
279,1747401337970,-0.23,-0.53,-1.21,-20.32,-2.26,-19.71
280,1747401337980,-0.23,-0.53,-1.21,-20.32,-2.26,-19.71
281,1747401337990,-0.23,-0.53,-1.21,-20.32,-2.26,-19.71
282,1747401338000,-0.175,-0.55,-1.23,-28.47,-15.595,-6.040000000000001
283,1747401338010,-0.12,-0.57,-1.25,-36.62,-28.93,7.63
284,1747401338020,-0.12,-0.57,-1.25,-36.62,-28.93,7.63
285,1747401338030,-0.12,-0.57,-1.25,-36.62,-28.93,7.63
286,1747401338040,-0.17,-0.52,-1.21,-2.75,-15.38,37.78
287,1747401338050,-0.17,-0.52,-1.21,-2.75,-15.38,37.78
288,1747401338060,-0.17,-0.52,-1.21,-2.75,-15.38,37.78
289,1747401338070,-0.17,-0.52,-1.21,-2.75,-15.38,37.78
290,1747401338080,-0.26,-0.43,-1.17,-10.44,-30.27,46.88
291,1747401338090,-0.26,-0.43,-1.17,-10.44,-30.27,46.88
292,1747401338100,-0.26,-0.43,-1.17,-10.44,-30.27,46.88
293,1747401338110,-0.285,-0.43,-1.12,-10.44,-30.27,46.88
294,1747401338120,-0.31,-0.43,-1.07,-14.77,-36.38,52.55
295,1747401338130,-0.31,-0.43,-1.07,-14.77,-36.38,52.55
296,1747401338140,-0.31,-0.43,-1.07,-14.77,-36.38,52.55
297,1747401338150,-0.305,-0.41,-1.015,-4.395,-23.62,48.035
298,1747401338160,-0.3,-0.39,-0.96,5.98,-10.86,43.52
299,1747401338170,-0.3,-0.39,-0.96,5.98,-10.86,43.52
300,1747401338180,-0.3,-0.39,-0.96,5.98,-10.86,43.52
301,1747401338190,-0.23,-0.4,-0.93,-13.155,-13.15,36.865
302,1747401338200,-0.23,-0.4,-0.93,-32.29,-15.44,30.21
303,1747401338210,-0.23,-0.4,-0.93,-32.29,-15.44,30.21
304,1747401338220,-0.23,-0.4,-0.93,-32.29,-15.44,30.21
305,1747401338230,-0.215,-0.425,-0.965,-42.815,-23.435,40.74
306,1747401338240,-0.2,-0.45,-1.0,-53.34,-31.43,51.27
307,1747401338250,-0.2,-0.45,-1.0,-53.34,-31.43,51.27
308,1747401338260,-0.2,-0.45,-1.0,-53.34,-31.43,51.27
309,1747401338270,-0.18,-0.355,-0.97,-27.83,-8.42,45.35
310,1747401338280,-0.16,-0.26,-0.94,-2.32,14.59,39.43
311,1747401338290,-0.16,-0.26,-0.94,-2.32,14.59,39.43
312,1747401338300,-0.175,-0.25,-0.965,-7.11,20.355,39.825
313,1747401338310,-0.19,-0.24,-0.99,-11.9,26.12,40.22
314,1747401338320,-0.19,-0.24,-0.99,-11.9,26.12,40.22
315,1747401338330,-0.19,-0.24,-0.99,-11.9,26.12,40.22
316,1747401338340,-0.19,-0.24,-0.99,-11.9,26.12,40.22
317,1747401338350,-0.14,-0.16,-0.94,-3.85,0.12,51.45
318,1747401338360,-0.14,-0.16,-0.94,-3.85,0.12,51.45
319,1747401338370,-0.14,-0.16,-0.94,-3.85,0.12,51.45
320,1747401338380,-0.08,-0.09,-0.89,-6.41,8.97,36.62
321,1747401338390,-0.08,-0.09,-0.89,-6.41,8.97,36.62
322,1747401338400,-0.08,-0.09,-0.89,-6.41,8.97,36.62
323,1747401338410,-0.08,-0.09,-0.89,-6.41,8.97,36.62
324,1747401338420,0.01,-0.14,-0.91,-37.41,-22.89,79.65
325,1747401338430,0.01,-0.14,-0.91,-37.41,-22.89,79.65
326,1747401338440,0.01,-0.14,-0.91,-37.41,-22.89,79.65
327,1747401338450,0.01,-0.14,-0.91,-37.41,-22.89,79.65
328,1747401338460,0.08,-0.07,-0.88,-4.82,35.16,31.8
329,1747401338470,0.08,-0.07,-0.88,-4.82,35.16,31.8
330,1747401338480,0.08,-0.07,-0.88,-4.82,35.16,31.8
331,1747401338490,0.08,-0.07,-0.88,-4.82,35.16,31.8
332,1747401338500,0.055,-0.075,-0.91,-6.99,25.575,25.725
333,1747401338510,0.03,-0.08,-0.94,-9.16,15.99,19.65
334,1747401338520,0.03,-0.08,-0.94,-9.16,15.99,19.65
335,1747401338530,0.08,-0.05,-0.8999999999999999,-9.16,15.99,19.65
336,1747401338540,0.13,-0.02,-0.86,-23.25,4.46,13.24
337,1747401338550,0.13,-0.02,-0.86,-23.25,4.46,13.24
338,1747401338560,0.13,-0.02,-0.86,-23.25,4.46,13.24
339,1747401338570,0.16,-0.02,-0.88,-23.25,4.46,13.24
340,1747401338580,0.19,-0.02,-0.9,-27.4,14.65,-11.6
341,1747401338590,0.19,-0.02,-0.9,-27.4,14.65,-11.6
342,1747401338600,0.19,-0.02,-0.9,-27.4,14.65,-11.6
343,1747401338610,0.225,-0.05,-0.935,-27.4,14.65,-11.6
344,1747401338620,0.26,-0.08,-0.97,-55.54,-11.41,-15.14
345,1747401338630,0.26,-0.08,-0.97,-55.54,-11.41,-15.14
346,1747401338640,0.26,-0.08,-0.97,-55.54,-11.41,-15.14
347,1747401338650,0.27,-0.095,-0.955,-29.875,10.105,-26.735
348,1747401338660,0.28,-0.11,-0.94,-4.21,31.62,-38.33
349,1747401338670,0.28,-0.11,-0.94,-4.21,31.62,-38.33
350,1747401338680,0.28,-0.11,-0.94,-4.21,31.62,-38.33
351,1747401338690,0.25,-0.04,-0.965,5.890000000000001,34.15,-38.145
352,1747401338700,0.22,0.03,-0.99,15.99,36.68,-37.96
353,1747401338710,0.22,0.03,-0.99,15.99,36.68,-37.96
354,1747401338720,0.22,0.03,-0.99,15.99,36.68,-37.96
355,1747401338730,0.3,0.02,-0.96,7.69,16.6,-48.58
356,1747401338740,0.3,0.02,-0.96,7.69,16.6,-48.58
357,1747401338750,0.3,0.02,-0.96,7.69,16.6,-48.58
358,1747401338760,0.3,0.02,-0.96,7.69,16.6,-48.58
359,1747401338770,0.36,0.01,-0.98,6.960000000000001,20.200000000000003,-49.805
360,1747401338780,0.36,0.01,-0.98,6.23,23.8,-51.03
361,1747401338790,0.36,0.01,-0.98,6.23,23.8,-51.03
362,1747401338800,0.36,0.01,-0.98,6.23,23.8,-51.03
363,1747401338810,0.49,0.1,-1.07,-39.73,8.3,-62.56
364,1747401338820,0.49,0.1,-1.07,-39.73,8.3,-62.56
365,1747401338830,0.49,0.1,-1.07,-39.73,8.3,-62.56
366,1747401338840,0.495,0.015,-1.11,-39.73,8.3,-62.56
367,1747401338850,0.5,-0.07,-1.15,-56.09,11.78,-63.78
368,1747401338860,0.5,-0.07,-1.15,-56.09,11.78,-63.78
369,1747401338870,0.5,-0.07,-1.15,-56.09,11.78,-63.78
370,1747401338880,0.54,-0.1,-1.19,-26.98,20.94,-38.82
371,1747401338890,0.54,-0.1,-1.19,-26.98,20.94,-38.82
372,1747401338900,0.54,-0.1,-1.19,-26.98,20.94,-38.82
373,1747401338910,0.55,0.01,-1.24,0.79,33.33,-16.91
374,1747401338920,0.55,0.01,-1.24,0.79,33.33,-16.91
375,1747401338930,0.55,0.01,-1.24,0.79,33.33,-16.91
376,1747401338940,0.55,0.01,-1.24,0.79,33.33,-16.91
377,1747401338950,0.46,0.05,-1.23,-6.41,-15.32,6.29
378,1747401338960,0.46,0.05,-1.23,-6.41,-15.32,6.29
379,1747401338970,0.46,0.05,-1.23,-6.41,-15.32,6.29
380,1747401338980,0.46,0.05,-1.23,-6.41,-15.32,6.29
381,1747401338990,0.5,0.17,-1.12,-5.92,-23.32,16.97
382,1747401339000,0.5,0.17,-1.12,-5.92,-23.32,16.97
383,1747401339010,0.5,0.17,-1.12,-5.92,-23.32,16.97
384,1747401339020,0.445,0.205,-1.09,-10.16,-15.9,10.345
385,1747401339030,0.39,0.24,-1.06,-14.4,-8.48,3.72
386,1747401339040,0.39,0.24,-1.06,-14.4,-8.48,3.72
387,1747401339050,0.39,0.24,-1.06,-14.4,-8.48,3.72
388,1747401339060,0.375,0.205,-1.01,-17.7,-10.86,-2.5649999999999995
389,1747401339070,0.36,0.17,-0.96,-21.0,-13.24,-8.85
390,1747401339080,0.36,0.17,-0.96,-21.0,-13.24,-8.85
391,1747401339090,0.36,0.17,-0.96,-21.0,-13.24,-8.85
392,1747401339100,0.37,0.175,-0.995,-29.85,-16.265,-3.63
393,1747401339110,0.38,0.18,-1.03,-38.7,-19.29,1.59
394,1747401339120,0.38,0.18,-1.03,-38.7,-19.29,1.59
395,1747401339130,0.38,0.18,-1.03,-38.7,-19.29,1.59
396,1747401339140,0.375,0.11,-1.02,-22.83,-21.67,1.71
397,1747401339150,0.37,0.04,-1.01,-6.96,-24.05,1.83
398,1747401339160,0.37,0.04,-1.01,-6.96,-24.05,1.83
399,1747401339170,0.37,0.04,-1.01,-6.96,-24.05,1.83
400,1747401339180,0.39,0.09,-0.99,11.23,-15.655,10.835
401,1747401339190,0.39,0.09,-0.99,29.42,-7.26,19.84
402,1747401339200,0.39,0.09,-0.99,29.42,-7.26,19.84
403,1747401339210,0.39,0.09,-0.99,29.42,-7.26,19.84
404,1747401339220,0.29,0.09,-1.01,13.43,-2.69,25.51
405,1747401339230,,,,,,
406,1747401339240,0.29,0.09,-1.01,13.43,-2.69,25.51
407,1747401339250,0.29,0.09,-1.01,13.43,-2.69,25.51
408,1747401339260,0.19,0.03,-0.99,21.97,-2.75,16.17
409,1747401339270,0.19,0.03,-0.99,21.97,-2.75,16.17
410,1747401339280,0.19,0.03,-0.99,21.97,-2.75,16.17
411,1747401339290,0.165,0.0099999999999999,-1.005,6.59,-8.24,20.05
412,1747401339300,0.14,-0.01,-1.02,-8.79,-13.73,23.93
413,1747401339310,0.14,-0.01,-1.02,-8.79,-13.73,23.93
414,1747401339320,0.14,-0.01,-1.02,-8.79,-13.73,23.93
415,1747401339330,0.07,0.03,-0.99,7.32,-1.53,10.07
416,1747401339340,0.07,0.03,-0.99,7.32,-1.53,10.07
417,1747401339350,0.07,0.03,-0.99,7.32,-1.53,10.07
418,1747401339360,0.07,0.03,-0.99,7.32,-1.53,10.07
419,1747401339370,-0.02,-0.04,-1.01,-18.19,-10.68,16.3
420,1747401339380,-0.02,-0.04,-1.01,-18.19,-10.68,16.3
421,1747401339390,-0.02,-0.04,-1.01,-18.19,-10.68,16.3
422,1747401339400,-0.02,-0.04,-1.01,-18.19,-10.68,16.3
423,1747401339410,-0.01,-0.02,-1.01,6.9,5.92,11.35
424,1747401339420,-0.01,-0.02,-1.01,6.9,5.92,11.35
425,1747401339430,-0.01,-0.02,-1.01,6.9,5.92,11.35
426,1747401339440,-0.01,-0.02,-1.01,6.9,5.92,11.35
427,1747401339450,-0.01,-0.02,-0.93,35.89,8.06,-5.0
428,1747401339460,-0.01,-0.02,-0.93,35.89,8.06,-5.0
429,1747401339470,-0.01,-0.02,-0.93,35.89,8.06,-5.0
430,1747401339480,-0.01,-0.02,-0.93,35.89,8.06,-5.0
431,1747401339490,-0.05,-0.1,-0.9,15.56,7.69,-6.59
432,1747401339500,-0.05,-0.1,-0.9,15.56,7.69,-6.59
433,1747401339510,-0.05,-0.1,-0.9,15.56,7.69,-6.59
434,1747401339520,-0.05,-0.1,-0.9,15.56,7.69,-6.59
435,1747401339530,0.03,-0.03,-0.91,13.61,20.02,-2.01
436,1747401339540,0.03,-0.03,-0.91,13.61,20.02,-2.01
437,1747401339550,0.03,-0.03,-0.91,13.61,20.02,-2.01
438,1747401339560,-0.005,-0.07,-0.955,3.66,12.88,0.0650000000000001
439,1747401339570,-0.04,-0.11,-1.0,-6.29,5.74,2.14
440,1747401339580,-0.04,-0.11,-1.0,-6.29,5.74,2.14
441,1747401339590,-0.04,-0.11,-1.0,-6.29,5.74,2.14
442,1747401339600,0.02,-0.08,-0.97,12.845,9.49,2.015
443,1747401339610,0.02,-0.08,-0.97,31.98,13.24,1.89
444,1747401339620,0.02,-0.08,-0.97,31.98,13.24,1.89
445,1747401339630,0.02,-0.08,-0.97,31.98,13.24,1.89
446,1747401339640,-0.04,-0.03,-0.92,46.75,27.34,-15.75
447,1747401339650,-0.04,-0.03,-0.92,46.75,27.34,-15.75
448,1747401339660,-0.04,-0.03,-0.92,46.75,27.34,-15.75
449,1747401339670,0.03,-0.03,-0.94,46.75,27.34,-15.75
450,1747401339680,0.1,-0.03,-0.96,5.43,-3.85,-28.38
451,1747401339690,0.1,-0.03,-0.96,5.43,-3.85,-28.38
452,1747401339700,0.1,-0.03,-0.96,5.43,-3.85,-28.38
453,1747401339710,0.1,-0.03,-0.96,5.43,-3.85,-28.38
454,1747401339720,-0.14,-0.3,-0.96,-9.95,-25.21,-38.45
455,1747401339730,-0.14,-0.3,-0.96,-9.95,-25.21,-38.45
456,1747401339740,-0.14,-0.3,-0.96,-9.95,-25.21,-38.45
457,1747401339750,-0.38,-0.26,-0.97,-9.95,-25.21,-38.45
458,1747401339760,-0.38,-0.26,-0.97,37.41,68.97,-6.35
459,1747401339770,-0.38,-0.26,-0.97,37.41,68.97,-6.35
460,1747401339780,-0.38,-0.26,-0.97,37.41,68.97,-6.35
461,1747401339790,-0.67,-0.27,-1.06,6.1,78.43,-18.25
462,1747401339800,-0.67,-0.27,-1.06,6.1,78.43,-18.25
463,1747401339810,-0.67,-0.27,-1.06,6.1,78.43,-18.25
464,1747401339820,-0.67,-0.27,-1.06,6.1,78.43,-18.25
465,1747401339830,-0.3,-0.21,-1.32,-61.89,27.89,-54.26
466,1747401339840,-0.3,-0.21,-1.32,-61.89,27.89,-54.26
467,1747401339850,-0.3,-0.21,-1.32,-61.89,27.89,-54.26
468,1747401339860,-0.3,-0.21,-1.32,-61.89,27.89,-54.26
469,1747401339870,-0.12,-0.35,-1.42,-33.39,46.81,-32.1
470,1747401339880,-0.12,-0.35,-1.42,-33.39,46.81,-32.1
471,1747401339890,-0.12,-0.35,-1.42,-33.39,46.81,-32.1
472,1747401339900,-0.12,-0.35,-1.42,-33.39,46.81,-32.1
473,1747401339910,-0.02,-0.39,-1.42,-18.19,-18.49,-15.2
474,1747401339920,-0.02,-0.39,-1.42,-18.19,-18.49,-15.2
475,1747401339930,-0.02,-0.39,-1.42,-18.19,-18.49,-15.2
476,1747401339940,-0.02,-0.39,-1.42,-18.19,-18.49,-15.2
477,1747401339950,0.0,-0.33,-1.3,24.05,-15.69,18.92
478,1747401339960,0.0,-0.33,-1.3,24.05,-15.69,18.92
479,1747401339970,0.0,-0.33,-1.3,24.05,-15.69,18.92
480,1747401339980,0.0,-0.33,-1.3,24.05,-15.69,18.92
481,1747401339990,-0.08,-0.23,-1.23,37.9,-0.49,35.22
482,1747401340000,-0.08,-0.23,-1.23,37.9,-0.49,35.22
483,1747401340010,-0.08,-0.23,-1.23,37.9,-0.49,35.22
484,1747401340020,-0.11,-0.265,-1.26,21.21,-20.875,32.195
485,1747401340030,-0.14,-0.3,-1.29,4.52,-41.26,29.17
486,1747401340040,-0.14,-0.3,-1.29,4.52,-41.26,29.17
487,1747401340050,-0.14,-0.3,-1.29,4.52,-41.26,29.17
488,1747401340060,-0.12,-0.32,-1.22,16.27,-49.01,34.055
489,1747401340070,-0.12,-0.32,-1.22,28.02,-56.76,38.94
490,1747401340080,-0.12,-0.32,-1.22,28.02,-56.76,38.94
491,1747401340090,-0.12,-0.32,-1.22,28.02,-56.76,38.94
492,1747401340100,-0.2,-0.28,-1.04,50.48,-4.88,43.52
493,1747401340110,-0.2,-0.28,-1.04,50.48,-4.88,43.52
494,1747401340120,-0.2,-0.28,-1.04,50.48,-4.88,43.52
495,1747401340130,-0.2,-0.28,-1.04,50.48,-4.88,43.52
496,1747401340140,-0.24,-0.35,-1.06,24.23,-21.12,47.3
497,1747401340150,-0.24,-0.35,-1.06,24.23,-21.12,47.3
498,1747401340160,-0.24,-0.35,-1.06,24.23,-21.12,47.3
499,1747401340170,-0.24,-0.35,-1.06,24.23,-21.12,47.3
500,1747401340180,-0.13,-0.32,-1.0,27.22,-57.92,38.45
501,1747401340190,-0.13,-0.32,-1.0,27.22,-57.92,38.45
502,1747401340200,-0.13,-0.32,-1.0,27.22,-57.92,38.45
503,1747401340210,-0.13,-0.32,-1.0,27.22,-57.92,38.45
504,1747401340220,-0.09,-0.29,-0.92,6.1,-17.7,31.86
505,1747401340230,-0.09,-0.29,-0.92,6.1,-17.7,31.86
506,1747401340240,-0.09,-0.29,-0.92,6.1,-17.7,31.86
507,1747401340250,-0.115,-0.285,-0.965,6.1,-17.7,31.86
508,1747401340260,-0.14,-0.28,-1.01,-20.26,-40.77,62.38
509,1747401340270,-0.14,-0.28,-1.01,-20.26,-40.77,62.38
510,1747401340280,-0.14,-0.28,-1.01,-20.26,-40.77,62.38
511,1747401340290,-0.14,-0.2,-0.95,-9.61,-34.150000000000006,38.115
512,1747401340300,-0.14,-0.12,-0.89,1.04,-27.53,13.85
513,1747401340310,-0.14,-0.12,-0.89,1.04,-27.53,13.85
514,1747401340320,-0.14,-0.12,-0.89,1.04,-27.53,13.85
515,1747401340330,0.01,-0.16,-0.86,-18.49,-20.175,17.3
516,1747401340340,0.01,-0.16,-0.86,-38.02,-12.82,20.75
517,1747401340350,0.01,-0.16,-0.86,-38.02,-12.82,20.75
518,1747401340360,0.01,-0.16,-0.86,-38.02,-12.82,20.75
519,1747401340370,0.05,-0.13,-0.96,-21.97,-16.05,32.35
520,1747401340380,0.05,-0.13,-0.96,-21.97,-16.05,32.35
521,1747401340390,0.05,-0.13,-0.96,-21.97,-16.05,32.35
522,1747401340400,0.05,-0.13,-0.96,-21.97,-16.05,32.35
523,1747401340410,-0.01,-0.1,-0.91,3.54,35.28,-7.57
524,1747401340420,-0.01,-0.1,-0.91,3.54,35.28,-7.57
525,1747401340430,-0.01,-0.1,-0.91,3.54,35.28,-7.57
526,1747401340440,-0.01,-0.1,-0.91,3.54,35.28,-7.57
527,1747401340450,0.04,-0.15,-0.9,-17.33,23.25,15.99
528,1747401340460,0.04,-0.15,-0.9,-17.33,23.25,15.99
529,1747401340470,0.04,-0.15,-0.9,-17.33,23.25,15.99
530,1747401340480,0.04,-0.15,-0.9,-17.33,23.25,15.99
531,1747401340490,,,,,,
532,1747401340500,-0.06,-0.08,-0.9,-4.7,41.75,20.51
533,1747401340510,-0.06,-0.08,-0.9,-4.7,41.75,20.51
534,1747401340520,-0.06,-0.08,-0.9,-4.7,41.75,20.51
535,1747401340530,0.04,-0.06,-0.88,-25.82,25.7,9.58
536,1747401340540,0.04,-0.06,-0.88,-25.82,25.7,9.58
537,1747401340550,0.04,-0.06,-0.88,-25.82,25.7,9.58
538,1747401340560,0.2,-0.13,-0.88,-22.89,34.0,43.7
539,1747401340570,0.2,-0.13,-0.88,-22.89,34.0,43.7
540,1747401340580,0.2,-0.13,-0.88,-22.89,34.0,43.7
541,1747401340590,0.2,-0.13,-0.88,-22.89,34.0,43.7
542,1747401340600,0.17,-0.07,-0.94,4.82,66.41,26.25
543,1747401340610,0.17,-0.07,-0.94,4.82,66.41,26.25
544,1747401340620,0.17,-0.07,-0.94,4.82,66.41,26.25
545,1747401340630,0.17,-0.07,-0.94,4.82,66.41,26.25
546,1747401340640,0.26,-0.1,-0.99,-35.28,17.33,18.62
547,1747401340650,0.26,-0.1,-0.99,-35.28,17.33,18.62
548,1747401340660,0.26,-0.1,-0.99,-35.28,17.33,18.62
549,1747401340670,0.32,-0.145,-1.0,-35.28,17.33,18.62
550,1747401340680,0.38,-0.19,-1.01,-3.23,31.43,-28.5
551,1747401340690,0.38,-0.19,-1.01,-3.23,31.43,-28.5
552,1747401340700,0.38,-0.19,-1.01,-3.23,31.43,-28.5
553,1747401340710,0.38,-0.19,-1.01,-3.23,31.43,-28.5
554,1747401340720,0.37,-0.16,-1.01,18.68,16.05,-36.74
555,1747401340730,0.37,-0.16,-1.01,18.68,16.05,-36.74
556,1747401340740,0.37,-0.16,-1.01,18.68,16.05,-36.74
557,1747401340750,0.37,-0.16,-1.01,18.68,16.05,-36.74
558,1747401340760,0.47,-0.14,-0.93,25.33,16.91,-34.36
559,1747401340770,0.47,-0.14,-0.93,25.33,16.91,-34.36
560,1747401340780,0.47,-0.14,-0.93,25.33,16.91,-34.36
561,1747401340790,0.4399999999999999,-0.115,-0.96,25.33,16.91,-34.36
562,1747401340800,0.41,-0.09,-0.99,6.84,11.17,-33.2
563,1747401340810,0.41,-0.09,-0.99,6.84,11.17,-33.2
564,1747401340820,0.41,-0.09,-0.99,6.84,11.17,-33.2
565,1747401340830,0.435,-0.1,-1.0,-1.5549999999999995,8.055,-23.01
566,1747401340840,0.46,-0.11,-1.01,-9.95,4.94,-12.82
567,1747401340850,0.46,-0.11,-1.01,-9.95,4.94,-12.82
568,1747401340860,0.46,-0.11,-1.01,-9.95,4.94,-12.82
569,1747401340870,0.43,-0.07,-1.07,-7.81,26.49,-22.64
570,1747401340880,0.43,-0.07,-1.07,-7.81,26.49,-22.64
571,1747401340890,0.43,-0.07,-1.07,-7.81,26.49,-22.64
572,1747401340900,0.43,-0.07,-1.07,-7.81,26.49,-22.64
573,1747401340910,0.53,-0.08,-1.14,-32.29,6.65,-17.33
574,1747401340920,0.53,-0.08,-1.14,-32.29,6.65,-17.33
575,1747401340930,0.53,-0.08,-1.14,-32.29,6.65,-17.33
576,1747401340940,0.53,-0.08,-1.14,-32.29,6.65,-17.33
577,1747401340950,0.6,-0.08,-1.16,-14.28,15.63,-14.53
578,1747401340960,0.6,-0.08,-1.16,-14.28,15.63,-14.53
579,1747401340970,0.6,-0.08,-1.16,-14.28,15.63,-14.53
580,1747401340980,0.635,-0.09,-1.185,-9.275,19.44,-5.404999999999999
581,1747401340990,0.67,-0.1,-1.21,-4.27,23.25,3.72
582,1747401341000,0.67,-0.1,-1.21,-4.27,23.25,3.72
583,1747401341010,0.67,-0.1,-1.21,-4.27,23.25,3.72
584,1747401341020,0.67,-0.1,-1.21,-4.27,23.25,3.72
585,1747401341030,0.6,-0.1,-1.15,56.82,27.71,25.7
586,1747401341040,0.6,-0.1,-1.15,56.82,27.71,25.7
587,1747401341050,0.6,-0.1,-1.15,56.82,27.71,25.7
588,1747401341060,0.72,-0.12,-0.99,71.35,43.76,26.61
589,1747401341070,0.72,-0.12,-0.99,71.35,43.76,26.61
590,1747401341080,0.72,-0.12,-0.99,71.35,43.76,26.61
591,1747401341090,0.72,-0.12,-0.99,71.35,43.76,26.61
592,1747401341100,0.62,-0.17,-0.96,41.81,50.78,38.39
593,1747401341110,0.62,-0.17,-0.96,41.81,50.78,38.39
594,1747401341120,0.62,-0.17,-0.96,41.81,50.78,38.39
595,1747401341130,0.62,-0.17,-0.96,41.81,50.78,38.39
596,1747401341140,0.57,-0.12,-0.91,-36.44,3.91,10.25
597,1747401341150,0.57,-0.12,-0.91,-36.44,3.91,10.25
598,1747401341160,0.57,-0.12,-0.91,-36.44,3.91,10.25
599,1747401341170,0.6299999999999999,-0.2,-0.96,-51.3,-10.985,15.255
600,1747401341180,0.69,-0.28,-1.01,-66.16,-25.88,20.26
601,1747401341190,0.69,-0.28,-1.01,-66.16,-25.88,20.26
602,1747401341200,0.69,-0.28,-1.01,-66.16,-25.88,20.26
603,1747401341210,0.585,-0.215,-0.925,-66.16,-25.88,20.26
604,1747401341220,0.48,-0.15,-0.84,0.92,1.59,10.44
605,1747401341230,0.48,-0.15,-0.84,0.92,1.59,10.44
606,1747401341240,0.48,-0.15,-0.84,0.92,1.59,10.44
607,1747401341250,0.53,-0.16,-0.8200000000000001,-16.845,-6.955,18.92
608,1747401341260,0.58,-0.17,-0.8,-34.61,-15.5,27.4
609,1747401341270,0.58,-0.17,-0.8,-34.61,-15.5,27.4
610,1747401341280,0.58,-0.17,-0.8,-34.61,-15.5,27.4
611,1747401341290,0.43,-0.195,-0.8,-7.48,4.425000000000001,30.3
612,1747401341300,0.28,-0.22,-0.8,19.65,24.35,33.2
613,1747401341310,0.28,-0.22,-0.8,19.65,24.35,33.2
614,1747401341320,0.28,-0.22,-0.8,19.65,24.35,33.2
615,1747401341330,0.27,-0.04,-0.87,-1.53,8.3,37.54
616,1747401341340,0.27,-0.04,-0.87,-1.53,8.3,37.54
617,1747401341350,0.27,-0.04,-0.87,-1.53,8.3,37.54
618,1747401341360,0.27,-0.04,-0.87,-1.53,8.3,37.54
619,1747401341370,0.1,-0.13,-0.83,-3.265,-5.494999999999999,21.27
620,1747401341380,0.1,-0.13,-0.83,-5.0,-19.29,5.0
621,1747401341390,0.1,-0.13,-0.83,-5.0,-19.29,5.0
622,1747401341400,0.1,-0.13,-0.83,-5.0,-19.29,5.0
623,1747401341410,0.135,-0.14,-0.8200000000000001,-9.275,-33.695,3.845
624,1747401341420,0.17,-0.15,-0.81,-13.55,-48.1,2.69
625,1747401341430,0.17,-0.15,-0.81,-13.55,-48.1,2.69
626,1747401341440,0.17,-0.15,-0.81,-13.55,-48.1,2.69
627,1747401341450,0.14,-0.12,-0.83,-9.46,-15.5,-11.96
628,1747401341460,0.14,-0.12,-0.83,-9.46,-15.5,-11.96
629,1747401341470,0.14,-0.12,-0.83,-9.46,-15.5,-11.96
630,1747401341480,0.14,-0.12,-0.83,-9.46,-15.5,-11.96
631,1747401341490,0.06,-0.22,-0.89,-25.21,-24.96,-7.08
632,1747401341500,0.06,-0.22,-0.89,-25.21,-24.96,-7.08
633,1747401341510,0.06,-0.22,-0.89,-25.21,-24.96,-7.08
634,1747401341520,0.05,-0.2,-0.9,-7.02,-10.07,-4.94
635,1747401341530,0.05,-0.2,-0.9,-7.02,-10.07,-4.94
636,1747401341540,0.05,-0.2,-0.9,-7.02,-10.07,-4.94
637,1747401341550,0.05,-0.2,-0.9,-7.02,-10.07,-4.94
638,1747401341560,0.07,-0.19,-0.96,15.38,7.26,-5.07
639,1747401341570,0.07,-0.19,-0.96,15.38,7.26,-5.07
640,1747401341580,0.07,-0.19,-0.96,15.38,7.26,-5.07
641,1747401341590,0.07,-0.19,-0.96,15.38,7.26,-5.07
642,1747401341600,0.07,-0.28,-1.04,15.38,7.26,-5.07
643,1747401341610,0.07,-0.28,-1.04,-11.72,-22.22,-4.58
644,1747401341620,0.07,-0.28,-1.04,-11.72,-22.22,-4.58
645,1747401341630,0.07,-0.28,-1.04,-11.72,-22.22,-4.58
646,1747401341640,0.11,-0.31,-1.07,45.29,7.87,-1.46
647,1747401341650,0.11,-0.31,-1.07,45.29,7.87,-1.46
648,1747401341660,0.11,-0.31,-1.07,45.29,7.87,-1.46
649,1747401341670,0.06,-0.26,-1.05,31.375,-0.98,-6.16
650,1747401341680,0.01,-0.21,-1.03,17.46,-9.83,-10.86
651,1747401341690,0.01,-0.21,-1.03,17.46,-9.83,-10.86
652,1747401341700,0.01,-0.21,-1.03,17.46,-9.83,-10.86
653,1747401341710,0.01,-0.21,-1.03,17.46,-9.83,-10.86
654,1747401341720,0.0,-0.28,-1.1,9.58,-10.93,-9.22
655,1747401341730,0.0,-0.28,-1.1,9.58,-10.93,-9.22
656,1747401341740,0.0,-0.28,-1.1,9.58,-10.93,-9.22
657,1747401341750,-0.1,-0.26,-1.09,45.47,5.31,-12.51
658,1747401341760,-0.1,-0.26,-1.09,45.47,5.31,-12.51
659,1747401341770,-0.1,-0.26,-1.09,45.47,5.31,-12.51
660,1747401341780,-0.1,-0.26,-1.09,45.47,5.31,-12.51
661,1747401341790,-0.15,-0.23,-1.05,41.75,14.4,-24.96
662,1747401341800,-0.15,-0.23,-1.05,41.75,14.4,-24.96
663,1747401341810,-0.15,-0.23,-1.05,41.75,14.4,-24.96
664,1747401341820,-0.15,-0.23,-1.05,41.75,14.4,-24.96
665,1747401341830,-0.2,-0.35,-1.11,27.1,-1.22,-43.82
666,1747401341840,-0.2,-0.35,-1.11,27.1,-1.22,-43.82
667,1747401341850,-0.2,-0.35,-1.11,27.1,-1.22,-43.82
668,1747401341860,-0.2,-0.435,-1.1,37.935,-1.65,-45.165
669,1747401341870,-0.2,-0.52,-1.09,48.77,-2.08,-46.51
670,1747401341880,-0.2,-0.52,-1.09,48.77,-2.08,-46.51
671,1747401341890,-0.2,-0.52,-1.09,48.77,-2.08,-46.51
672,1747401341900,-0.215,-0.515,-1.11,37.875,7.229999999999999,-36.135
673,1747401341910,-0.23,-0.51,-1.13,26.98,16.54,-25.76
674,1747401341920,-0.23,-0.51,-1.13,26.98,16.54,-25.76
675,1747401341930,-0.23,-0.51,-1.13,26.98,16.54,-25.76
676,1747401341940,-0.215,-0.49,-1.21,7.66,9.065,-10.895
677,1747401341950,-0.2,-0.47,-1.29,-11.66,1.59,3.97
678,1747401341960,-0.2,-0.47,-1.29,-11.66,1.59,3.97
679,1747401341970,-0.2,-0.47,-1.29,-11.66,1.59,3.97
680,1747401341980,-0.215,-0.425,-1.29,-4.0600000000000005,8.455,12.76
681,1747401341990,-0.23,-0.38,-1.29,3.54,15.32,21.55
682,1747401342000,-0.23,-0.38,-1.29,3.54,15.32,21.55
683,1747401342010,-0.23,-0.38,-1.29,3.54,15.32,21.55
684,1747401342020,-0.25,-0.34,-1.24,-30.46,-21.67,15.01
685,1747401342030,-0.25,-0.34,-1.24,-30.46,-21.67,15.01
686,1747401342040,-0.25,-0.34,-1.24,-30.46,-21.67,15.01
687,1747401342050,-0.25,-0.34,-1.24,-30.46,-21.67,15.01
688,1747401342060,-0.2,-0.4,-1.22,-36.38,-28.385,13.945
689,1747401342070,-0.2,-0.4,-1.22,-42.3,-35.1,12.88
690,1747401342080,-0.2,-0.4,-1.22,-42.3,-35.1,12.88
691,1747401342090,-0.2,-0.4,-1.22,-42.3,-35.1,12.88
692,1747401342100,-0.22,-0.4,-1.13,-28.32,-33.87,20.45
693,1747401342110,-0.22,-0.4,-1.13,-28.32,-33.87,20.45
694,1747401342120,-0.22,-0.4,-1.13,-28.32,-33.87,20.45
695,1747401342130,-0.22,-0.4,-1.13,-28.32,-33.87,20.45
696,1747401342140,-0.22,-0.4,-1.05,-18.25,-8.54,29.48
697,1747401342150,-0.22,-0.4,-1.05,-18.25,-8.54,29.48
698,1747401342160,-0.22,-0.4,-1.05,-18.25,-8.54,29.48
699,1747401342170,-0.24,-0.425,-1.045,-19.805,-13.73,31.74
700,1747401342180,-0.26,-0.45,-1.04,-21.36,-18.92,34.0
701,1747401342190,-0.26,-0.45,-1.04,-21.36,-18.92,34.0
702,1747401342200,-0.26,-0.45,-1.04,-21.36,-18.92,34.0
703,1747401342210,-0.16,-0.45,-1.01,5.13,-16.05,27.47
704,1747401342220,-0.16,-0.45,-1.01,5.13,-16.05,27.47
705,1747401342230,-0.16,-0.45,-1.01,5.13,-16.05,27.47
706,1747401342240,-0.16,-0.45,-1.01,5.13,-16.05,27.47
707,1747401342250,-0.15,-0.39,-1.0,-2.015,-13.61,22.34
708,1747401342260,-0.14,-0.33,-0.99,-9.16,-11.17,17.21
709,1747401342270,-0.14,-0.33,-0.99,-9.16,-11.17,17.21
710,1747401342280,-0.14,-0.33,-0.99,-9.16,-11.17,17.21
711,1747401342290,-0.09,-0.42,-1.02,-24.17,-26.49,25.57
712,1747401342300,-0.09,-0.42,-1.02,-24.17,-26.49,25.57
713,1747401342310,-0.09,-0.42,-1.02,-24.17,-26.49,25.57
714,1747401342320,-0.09,-0.345,-0.955,-24.17,-26.49,25.57
715,1747401342330,-0.09,-0.27,-0.89,-6.990000000000001,-6.989999999999999,19.07
716,1747401342340,-0.09,-0.27,-0.89,10.19,12.51,12.57
717,1747401342350,-0.09,-0.27,-0.89,10.19,12.51,12.57
718,1747401342360,-0.09,-0.27,-0.89,10.19,12.51,12.57
719,1747401342370,-0.12,-0.21,-0.94,-40.16,5.86,8.18
720,1747401342380,-0.12,-0.21,-0.94,-40.16,5.86,8.18
721,1747401342390,-0.12,-0.21,-0.94,-40.16,5.86,8.18
722,1747401342400,-0.0199999999999999,-0.255,-0.93,-30.61,-5.950000000000001,16.634999999999998
723,1747401342410,0.08,-0.3,-0.92,-21.06,-17.76,25.09
724,1747401342420,0.08,-0.3,-0.92,-21.06,-17.76,25.09
725,1747401342430,0.08,-0.3,-0.92,-21.06,-17.76,25.09
726,1747401342440,0.065,-0.19,-0.87,-7.449999999999999,13.095,12.21
727,1747401342450,0.05,-0.08,-0.82,6.16,43.95000000000001,-0.67
728,1747401342460,0.05,-0.08,-0.82,6.16,43.95,-0.67
729,1747401342470,0.05,-0.08,-0.82,6.16,43.95,-0.67
730,1747401342480,0.13,-0.18,-0.89,-34.91,-1.4,1.28
731,1747401342490,0.13,-0.18,-0.89,-34.91,-1.4,1.28
732,1747401342500,0.13,-0.18,-0.89,-34.91,-1.4,1.28
733,1747401342510,0.13,-0.18,-0.89,-34.91,-1.4,1.28
734,1747401342520,0.21,-0.15,-0.79,-32.53,-0.4249999999999999,0.455
735,1747401342530,0.21,-0.15,-0.79,-30.15,0.55,-0.37
736,1747401342540,0.21,-0.15,-0.79,-30.15,0.55,-0.37
737,1747401342550,0.22,-0.15,-0.8,-23.255,9.825,-21.09
738,1747401342560,0.23,-0.15,-0.81,-16.36,19.1,-41.81
739,1747401342570,0.23,-0.15,-0.81,-16.36,19.1,-41.81
740,1747401342580,0.23,-0.15,-0.81,-16.36,19.1,-41.81
741,1747401342590,0.24,-0.12,-0.825,-28.655,6.010000000000001,-41.505
742,1747401342600,0.25,-0.09,-0.84,-40.95,-7.08,-41.2
743,1747401342610,0.25,-0.09,-0.84,-40.95,-7.08,-41.2
744,1747401342620,0.25,-0.09,-0.84,-40.95,-7.08,-41.2
745,1747401342630,0.325,-0.095,-0.8899999999999999,-40.95,-7.08,-41.2
746,1747401342640,0.4,-0.1,-0.94,-43.95,-0.06,-43.82
747,1747401342650,0.4,-0.1,-0.94,-43.95,-0.06,-43.82
748,1747401342660,0.4,-0.1,-0.94,-43.95,-0.06,-43.82
749,1747401342670,0.4,-0.1,-0.94,-43.95,-0.06,-43.82
750,1747401342680,0.36,-0.05,-1.0,-35.58,-3.36,-40.53
751,1747401342690,0.36,-0.05,-1.0,-35.58,-3.36,-40.53
752,1747401342700,0.36,-0.05,-1.0,-35.58,-3.36,-40.53
753,1747401342710,0.43,-0.01,-1.05,-56.76,-31.25,-32.53
754,1747401342720,0.43,-0.01,-1.05,-56.76,-31.25,-32.53
755,1747401342730,0.43,-0.01,-1.05,-56.76,-31.25,-32.53
756,1747401342740,0.43,-0.01,-1.05,-56.76,-31.25,-32.53
757,1747401342750,0.53,-0.02,-1.1,-68.12,-11.41,-33.75
758,1747401342760,0.53,-0.02,-1.1,-68.12,-11.41,-33.75
759,1747401342770,0.53,-0.02,-1.1,-68.12,-11.41,-33.75
760,1747401342780,0.53,-0.02,-1.1,-68.12,-11.41,-33.75
761,1747401342790,0.48,-0.03,-1.13,-26.06,-2.08,-27.83
762,1747401342800,0.48,-0.03,-1.13,-26.06,-2.08,-27.83
763,1747401342810,0.48,-0.03,-1.13,-26.06,-2.08,-27.83
764,1747401342820,0.4599999999999999,0.015,-1.09,-11.93,7.899999999999999,-28.5
765,1747401342830,0.44,0.06,-1.05,2.2,17.88,-29.17
766,1747401342840,0.44,0.06,-1.05,2.2,17.88,-29.17
767,1747401342850,0.44,0.06,-1.05,2.2,17.88,-29.17
768,1747401342860,0.435,0.065,-1.0550000000000002,7.385,15.93,-25.115
769,1747401342870,0.43,0.07,-1.06,12.57,13.98,-21.06
770,1747401342880,0.43,0.07,-1.06,12.57,13.98,-21.06
771,1747401342890,0.43,0.07,-1.06,12.57,13.98,-21.06
772,1747401342900,0.43,0.07,-1.06,12.57,13.98,-21.06
773,1747401342910,0.38,0.16,-1.06,-7.14,30.09,-15.87
774,1747401342920,0.38,0.16,-1.06,-7.14,30.09,-15.87
775,1747401342930,0.38,0.16,-1.06,-7.14,30.09,-15.87
776,1747401342940,0.405,0.165,-1.145,-21.025,22.645,-8.055
777,1747401342950,0.43,0.17,-1.23,-34.91,15.2,-0.24
778,1747401342960,0.43,0.17,-1.23,-34.91,15.2,-0.24
779,1747401342970,0.43,0.17,-1.23,-34.91,15.2,-0.24
780,1747401342980,0.47,0.1,-1.27,-22.37,6.529999999999999,0.4599999999999999
781,1747401342990,0.47,0.1,-1.27,-9.83,-2.14,1.16
782,1747401343000,0.47,0.1,-1.27,-9.83,-2.14,1.16
783,1747401343010,0.48,0.1266666666666666,-1.25,-7.386666666666667,-0.7966666666666669,2.6666666666666665
784,1747401343020,0.5,0.18,-1.21,-2.5,1.89,5.68
785,1747401343030,0.5,0.18,-1.21,-2.5,1.89,5.68
786,1747401343040,0.5,0.18,-1.21,-2.5,1.89,5.68
787,1747401343050,0.5,0.18,-1.21,-2.5,1.89,5.68
788,1747401343060,0.54,0.06,-1.18,-9.77,-21.73,8.91
789,1747401343070,0.54,0.06,-1.18,-9.77,-21.73,8.91
790,1747401343080,0.54,0.06,-1.18,-9.77,-21.73,8.91
791,1747401343090,0.52,0.09,-1.1,1.1550000000000002,-31.83,13.61
792,1747401343100,0.5,0.12,-1.02,12.08,-41.93,18.31
793,1747401343110,0.5,0.12,-1.02,12.08,-41.93,18.31
794,1747401343120,0.5,0.12,-1.02,12.08,-41.93,18.31
795,1747401343130,0.505,0.0699999999999999,-0.955,23.555,-24.08,17.79
796,1747401343140,0.51,0.02,-0.89,35.03,-6.23,17.27
797,1747401343150,0.51,0.02,-0.89,35.03,-6.23,17.27
798,1747401343160,0.51,0.02,-0.89,35.03,-6.23,17.27
799,1747401343170,0.51,0.02,-0.89,35.03,-6.23,17.27
800,1747401343180,0.23,0.09,-0.83,29.97,-6.84,30.4
801,1747401343190,0.23,0.09,-0.83,29.97,-6.84,30.4
802,1747401343200,0.23,0.09,-0.83,29.97,-6.84,30.4
803,1747401343210,0.3,0.06,-0.92,-23.38,-31.13,28.69
804,1747401343220,0.3,0.06,-0.92,-23.38,-31.13,28.69
805,1747401343230,0.3,0.06,-0.92,-23.38,-31.13,28.69
806,1747401343240,0.3,0.06,-0.92,-23.38,-31.13,28.69
807,1747401343250,0.11,-0.03,-0.96,-10.895,-29.605,26.095
808,1747401343260,0.11,-0.03,-0.96,1.59,-28.08,23.5
809,1747401343270,0.11,-0.03,-0.96,1.59,-28.08,23.5
810,1747401343280,0.16,0.08,-0.99,3.91,-16.36,16.3
811,1747401343290,0.16,0.08,-0.99,3.91,-16.36,16.3
812,1747401343300,0.16,0.08,-0.99,3.91,-16.36,16.3
813,1747401343310,0.11,0.055,-1.01,-1.6149999999999998,-12.025,6.380000000000001
814,1747401343320,0.06,0.03,-1.03,-7.14,-7.69,-3.54
815,1747401343330,0.06,0.03,-1.03,-7.14,-7.69,-3.54
816,1747401343340,0.06,0.03,-1.03,-7.14,-7.69,-3.54
817,1747401343350,0.08,0.0049999999999999,-1.005,-10.285,-10.375,-1.07
818,1747401343360,0.1,-0.02,-0.98,-13.43,-13.06,1.4
819,1747401343370,0.1,-0.02,-0.98,-13.43,-13.06,1.4
820,1747401343380,0.1,-0.02,-0.98,-13.43,-13.06,1.4
821,1747401343390,0.075,-0.005,-0.95,0.0,7.935,-5.25
822,1747401343400,0.05,0.01,-0.92,13.43,28.93,-11.9
823,1747401343410,0.05,0.01,-0.92,13.43,28.93,-11.9
824,1747401343420,0.05,0.01,-0.92,13.43,28.93,-11.9
825,1747401343430,0.04,-0.03,-0.93,-25.45,-8.67,4.46
826,1747401343440,0.04,-0.03,-0.93,-25.45,-8.67,4.46
827,1747401343450,0.04,-0.03,-0.93,-25.45,-8.67,4.46
828,1747401343460,0.04,-0.03,-0.93,-25.45,-8.67,4.46
829,1747401343470,-0.02,-0.08,-0.93,-7.75,24.72,-12.76
830,1747401343480,-0.02,-0.08,-0.93,-7.75,24.72,-12.76
831,1747401343490,-0.02,-0.08,-0.93,-7.75,24.72,-12.76
832,1747401343500,-0.02,-0.07,-0.93,-14.25,18.555,-9.645
833,1747401343510,-0.02,-0.06,-0.93,-20.75,12.39,-6.53
834,1747401343520,-0.02,-0.06,-0.93,-20.75,12.39,-6.53
835,1747401343530,-0.02,-0.06,-0.93,-20.75,12.39,-6.53
836,1747401343540,-0.05,-0.0849999999999999,-0.94,-2.56,23.925,-7.535
837,1747401343550,-0.08,-0.11,-0.95,15.63,35.46,-8.54
838,1747401343560,-0.08,-0.11,-0.95,15.63,35.46,-8.54
839,1747401343570,-0.08,-0.11,-0.95,15.63,35.46,-8.54
840,1747401343580,-0.14,-0.1,-1.03,19.96,21.79,-14.71
841,1747401343590,-0.14,-0.1,-1.03,19.96,21.79,-14.71
842,1747401343600,-0.14,-0.1,-1.03,19.96,21.79,-14.71
843,1747401343610,-0.14,-0.1,-1.03,19.96,21.79,-14.71
844,1747401343620,-0.07,-0.1,-1.06,15.41,4.975,-21.94
845,1747401343630,-0.07,-0.1,-1.06,10.86,-11.84,-29.17
846,1747401343640,-0.07,-0.1,-1.06,10.86,-11.84,-29.17
847,1747401343650,-0.07,-0.1,-1.06,10.86,-11.84,-29.17
848,1747401343660,0.02,-0.17,-1.01,15.44,4.58,-29.91
849,1747401343670,0.02,-0.17,-1.01,15.44,4.58,-29.91
850,1747401343680,0.02,-0.17,-1.01,15.44,4.58,-29.91
851,1747401343690,0.02,-0.17,-1.01,15.44,4.58,-29.91
852,1747401343700,-0.06,-0.21,-1.07,23.99,12.08,-24.35
853,1747401343710,-0.06,-0.21,-1.07,23.99,12.08,-24.35
854,1747401343720,-0.06,-0.21,-1.07,23.99,12.08,-24.35
855,1747401343730,-0.08,-0.215,-1.07,18.525,4.515000000000001,-24.685
856,1747401343740,-0.1,-0.22,-1.07,13.06,-3.05,-25.02
857,1747401343750,-0.1,-0.22,-1.07,13.06,-3.05,-25.02
858,1747401343760,-0.1,-0.22,-1.07,13.06,-3.05,-25.02
859,1747401343770,-0.1,-0.22,-1.07,13.06,-3.05,-25.02
860,1747401343780,-0.13,-0.23,-1.06,23.32,12.57,-25.88
861,1747401343790,-0.13,-0.23,-1.06,23.32,12.57,-25.88
862,1747401343800,-0.13,-0.23,-1.06,23.32,12.57,-25.88
863,1747401343810,-0.165,-0.22,-1.095,17.795,8.94,-29.025
864,1747401343820,-0.2,-0.21,-1.13,12.27,5.31,-32.17
865,1747401343830,-0.2,-0.21,-1.13,12.27,5.31,-32.17
866,1747401343840,-0.2,-0.21,-1.13,12.27,5.31,-32.17
867,1747401343850,-0.24,-0.29,-1.14,10.285,-5.83,-27.07
868,1747401343860,-0.28,-0.37,-1.15,8.3,-16.97,-21.97
869,1747401343870,-0.28,-0.37,-1.15,8.3,-16.97,-21.97
870,1747401343880,-0.28,-0.37,-1.15,8.3,-16.97,-21.97
871,1747401343890,-0.32,-0.29,-1.1,62.19,24.78,18.55
872,1747401343900,-0.32,-0.29,-1.1,62.19,24.78,18.55
873,1747401343910,-0.32,-0.29,-1.1,62.19,24.78,18.55
874,1747401343920,-0.375,-0.275,-1.11,62.19,24.78,18.55
875,1747401343930,-0.43,-0.26,-1.12,25.76,21.12,19.47
876,1747401343940,-0.43,-0.26,-1.12,25.76,21.12,19.47
877,1747401343950,-0.43,-0.26,-1.12,25.76,21.12,19.47
878,1747401343960,-0.445,-0.31,-1.14,25.76,21.12,19.47
879,1747401343970,-0.46,-0.36,-1.16,17.27,15.08,41.93
880,1747401343980,-0.46,-0.36,-1.16,17.27,15.08,41.93
881,1747401343990,-0.46,-0.36,-1.16,17.27,15.08,41.93
882,1747401344000,-0.46,-0.36,-1.16,17.27,15.08,41.93
883,1747401344010,-0.46,-0.24,-1.17,18.01,43.7,47.18
884,1747401344020,-0.46,-0.24,-1.17,18.01,43.7,47.18
885,1747401344030,-0.46,-0.24,-1.17,18.01,43.7,47.18
886,1747401344040,-0.42,-0.26,-1.22,-20.17,20.965,32.29
887,1747401344050,-0.38,-0.28,-1.27,-58.35,-1.77,17.4
888,1747401344060,-0.38,-0.28,-1.27,-58.35,-1.77,17.4
889,1747401344070,-0.38,-0.28,-1.27,-58.35,-1.77,17.4
890,1747401344080,-0.305,-0.325,-1.265,-41.72,-8.85,22.465
891,1747401344090,-0.23,-0.37,-1.26,-25.09,-15.93,27.53
892,1747401344100,-0.23,-0.37,-1.26,-25.09,-15.93,27.53
893,1747401344110,-0.23,-0.37,-1.26,-25.09,-15.93,27.53
894,1747401344120,-0.12,-0.27,-1.11,0.92,17.88,26.37
895,1747401344130,-0.12,-0.27,-1.11,0.92,17.88,26.37
896,1747401344140,-0.12,-0.27,-1.11,0.92,17.88,26.37
897,1747401344150,-0.0849999999999999,-0.3,-1.135,0.92,17.88,26.37
898,1747401344160,-0.05,-0.33,-1.16,-60.12,-13.06,24.11
899,1747401344170,-0.05,-0.33,-1.16,-60.12,-13.06,24.11
900,1747401344180,-0.05,-0.33,-1.16,-60.12,-13.06,24.11
901,1747401344190,-0.05,-0.33,-1.16,-60.12,-13.06,24.11
902,1747401344200,-0.05,-0.32,-1.1,-22.09,-5.19,40.16
903,1747401344210,-0.05,-0.32,-1.1,-22.09,-5.19,40.16
904,1747401344220,-0.05,-0.32,-1.1,-22.09,-5.19,40.16
905,1747401344230,-0.05,-0.26,-1.06,-20.29,7.109999999999999,39.58
906,1747401344240,-0.05,-0.2,-1.02,-18.49,19.41,39.0
907,1747401344250,-0.05,-0.2,-1.02,-18.49,19.41,39.0
908,1747401344260,-0.05,-0.2,-1.02,-18.49,19.41,39.0
909,1747401344270,-0.05,-0.2,-1.02,-18.49,19.41,39.0
910,1747401344280,-0.12,-0.23,-1.04,-37.54,-21.36,54.63
911,1747401344290,-0.12,-0.23,-1.04,-37.54,-21.36,54.63
912,1747401344300,-0.12,-0.23,-1.04,-37.54,-21.36,54.63
913,1747401344310,-0.12,-0.23,-1.04,-37.54,-21.36,54.63
914,1747401344320,-0.07,-0.11,-0.9,-12.02,-18.98,62.38
915,1747401344330,-0.07,-0.11,-0.9,-12.02,-18.98,62.38
916,1747401344340,-0.07,-0.11,-0.9,-12.02,-18.98,62.38
917,1747401344350,-0.06,-0.04,-0.86,-22.34,-14.34,60.73
918,1747401344360,-0.06,-0.04,-0.86,-22.34,-14.34,60.73
919,1747401344370,-0.06,-0.04,-0.86,-22.34,-14.34,60.73
920,1747401344380,-0.06,-0.04,-0.86,-22.34,-14.34,60.73
921,1747401344390,0.06,-0.08,-0.93,-17.82,-6.71,51.39
922,1747401344400,0.06,-0.08,-0.93,-17.82,-6.71,51.39
923,1747401344410,0.06,-0.08,-0.93,-17.82,-6.71,51.39
924,1747401344420,0.06,-0.08,-0.93,-17.82,-6.71,51.39
925,1747401344430,0.03,0.01,-0.88,-19.44,3.725,37.870000000000005
926,1747401344440,0.03,0.01,-0.88,-21.06,14.16,24.35
927,1747401344450,0.03,0.01,-0.88,-21.06,14.16,24.35
928,1747401344460,0.03,0.01,-0.88,-21.06,14.16,24.35
929,1747401344470,0.07,-0.02,-0.92,-25.33,10.25,-18.92
930,1747401344480,0.07,-0.02,-0.92,-25.33,10.25,-18.92
931,1747401344490,0.07,-0.02,-0.92,-25.33,10.25,-18.92
932,1747401344500,0.07,-0.02,-0.92,-25.33,10.25,-18.92
933,1747401344510,0.17,0.04,-0.91,-23.56,-5.86,-23.01
934,1747401344520,0.17,0.04,-0.91,-23.56,-5.86,-23.01
935,1747401344530,0.17,0.04,-0.91,-23.56,-5.86,-23.01
936,1747401344540,0.18,0.015,-0.9,-17.58,7.6,-32.805
937,1747401344550,0.19,-0.01,-0.89,-11.6,21.06,-42.6
938,1747401344560,0.19,-0.01,-0.89,-11.6,21.06,-42.6
939,1747401344570,0.19,-0.01,-0.89,-11.6,21.06,-42.6
940,1747401344580,0.235,0.015,-0.88,-11.6,21.06,-42.6
941,1747401344590,0.28,0.04,-0.87,2.56,13.18,-35.28
942,1747401344600,0.28,0.04,-0.87,2.56,13.18,-35.28
943,1747401344610,0.28,0.04,-0.87,2.56,13.18,-35.28
944,1747401344620,0.33,0.01,-0.86,5.31,18.43,-47.73
945,1747401344630,0.33,0.01,-0.86,5.31,18.43,-47.73
946,1747401344640,0.33,0.01,-0.86,5.31,18.43,-47.73
947,1747401344650,0.325,0.025,-0.875,5.31,18.43,-47.73
948,1747401344660,0.32,0.04,-0.89,7.75,5.43,-32.9
949,1747401344670,0.32,0.04,-0.89,7.75,5.43,-32.9
950,1747401344680,0.32,0.04,-0.89,7.75,5.43,-32.9
951,1747401344690,0.3399999999999999,0.03,-0.92,7.75,5.43,-32.9
952,1747401344700,0.36,0.02,-0.95,-14.83,5.37,-28.2
953,1747401344710,0.36,0.02,-0.95,-14.83,5.37,-28.2
954,1747401344720,0.36,0.02,-0.95,-14.83,5.37,-28.2
955,1747401344730,0.36,0.02,-0.95,-14.83,5.37,-28.2
956,1747401344740,0.4,0.07,-1.03,-10.86,5.49,-26.55
957,1747401344750,0.4,0.07,-1.03,-10.86,5.49,-26.55
958,1747401344760,0.4,0.07,-1.03,-10.86,5.49,-26.55
959,1747401344770,0.41,0.07,-1.04,-21.175,6.1,-27.925
960,1747401344780,0.42,0.07,-1.05,-31.49,6.71,-29.3
961,1747401344790,0.42,0.07,-1.05,-31.49,6.71,-29.3
962,1747401344800,0.42,0.07,-1.05,-31.49,6.71,-29.3
963,1747401344810,0.4599999999999999,0.07,-1.08,-31.28,14.495,-30.215
964,1747401344820,0.5,0.07,-1.11,-31.07,22.28,-31.13
965,1747401344830,0.5,0.07,-1.11,-31.07,22.28,-31.13
966,1747401344840,0.5,0.07,-1.11,-31.07,22.28,-31.13
967,1747401344850,0.485,0.07,-1.135,-25.575,21.79,-27.435
968,1747401344860,0.47,0.07,-1.16,-20.08,21.3,-23.74
969,1747401344870,0.47,0.07,-1.16,-20.08,21.3,-23.74
970,1747401344880,0.47,0.07,-1.16,-20.08,21.3,-23.74
971,1747401344890,0.57,0.1,-1.18,-1.28,18.68,-17.76
972,1747401344900,0.57,0.1,-1.18,-1.28,18.68,-17.76
973,1747401344910,0.57,0.1,-1.18,-1.28,18.68,-17.76
974,1747401344920,0.57,0.1,-1.18,-1.28,18.68,-17.76
975,1747401344930,0.58,0.11,-1.16,9.125,27.59,-18.340000000000003
976,1747401344940,0.58,0.11,-1.16,19.53,36.5,-18.92
977,1747401344950,0.58,0.11,-1.16,19.53,36.5,-18.92
978,1747401344960,0.58,0.13,-1.18,18.125,25.575,-11.93
979,1747401344970,0.58,0.15,-1.2,16.72,14.65,-4.94
980,1747401344980,0.58,0.15,-1.2,16.72,14.65,-4.94
981,1747401344990,0.58,0.15,-1.2,16.72,14.65,-4.94
982,1747401345000,0.58,0.15,-1.2,16.72,14.65,-4.94
983,1747401345010,0.52,0.12,-1.17,5.25,2.75,-4.39
984,1747401345020,0.52,0.12,-1.17,5.25,2.75,-4.39
985,1747401345030,0.52,0.12,-1.17,5.25,2.75,-4.39
986,1747401345040,0.5700000000000001,0.105,-1.11,8.025,0.0949999999999999,-1.1549999999999998
987,1747401345050,0.62,0.09,-1.05,10.8,-2.56,2.08
988,1747401345060,0.62,0.09,-1.05,10.8,-2.56,2.08
989,1747401345070,0.62,0.09,-1.05,10.8,-2.56,2.08
990,1747401345080,0.56,0.0499999999999999,-1.045,11.655,-12.205,17.945
991,1747401345090,0.5,0.01,-1.04,12.51,-21.85,33.81
992,1747401345100,0.5,0.01,-1.04,12.51,-21.85,33.81
993,1747401345110,0.5,0.01,-1.04,12.51,-21.85,33.81
994,1747401345120,0.48,0.075,-1.03,0.3650000000000002,-28.015,36.285
995,1747401345130,0.46,0.14,-1.02,-11.78,-34.18,38.76
996,1747401345140,0.46,0.14,-1.02,-11.78,-34.18,38.76
997,1747401345150,0.46,0.14,-1.02,-11.78,-34.18,38.76
998,1747401345160,0.45,0.07,-1.07,-72.33,-52.06,22.46
999,1747401345170,0.45,0.07,-1.07,-72.33,-52.06,22.46
