id,timestamp,acc_x,acc_y,acc_z,gyro_x,gyro_y,gyro_z
0,1747402605750,1.01,-0.17,0.23,10.44,11.72,-7.93
1,1747402605760,1.01,-0.17,0.23,10.44,11.72,-7.93
2,1747402605770,0.92,-0.13,0.28,0.79,-1.65,-5.74
3,1747402605780,0.92,-0.13,0.28,0.79,-1.65,-5.74
4,1747402605790,0.92,-0.13,0.28,0.79,-1.65,-5.74
5,1747402605800,0.92,-0.13,0.28,0.79,-1.65,-5.74
6,1747402605810,0.96,-0.145,0.29,4.055,-6.105,-8.21
7,1747402605820,1.0,-0.16,0.3,7.32,-10.56,-10.68
8,1747402605830,1.0,-0.16,0.3,7.32,-10.56,-10.68
9,1747402605840,0.93,-0.14,0.23,20.81,-22.71,-2.5
10,1747402605850,0.93,-0.14,0.23,20.81,-22.71,-2.5
11,1747402605860,0.93,-0.14,0.23,20.81,-22.71,-2.5
12,1747402605870,0.93,-0.14,0.23,20.81,-22.71,-2.5
13,1747402605880,1.04,-0.05,0.22,-8.18,-67.38,10.01
14,1747402605890,1.04,-0.05,0.22,-8.18,-67.38,10.01
15,1747402605900,1.04,-0.05,0.22,-8.18,-67.38,10.01
16,1747402605910,1.04,-0.05,0.22,-8.18,-67.38,10.01
17,1747402605920,1.12,-0.13,0.2,-6.045,-37.29,4.545
18,1747402605930,1.12,-0.13,0.2,-3.91,-7.2,-0.92
19,1747402605940,1.12,-0.13,0.2,-3.91,-7.2,-0.92
20,1747402605950,1.12,-0.13,0.2,-3.91,-7.2,-0.92
21,1747402605960,1.09,-0.12,0.2,8.24,10.07,7.69
22,1747402605970,1.09,-0.12,0.2,8.24,10.07,7.69
23,1747402605980,1.09,-0.12,0.2,8.24,10.07,7.69
24,1747402605990,1.135,-0.12,0.215,3.39,-12.114999999999998,21.395
25,1747402606000,1.18,-0.12,0.23,-1.46,-34.3,35.1
26,1747402606010,1.18,-0.12,0.23,-1.46,-34.3,35.1
27,1747402606020,1.18,-0.12,0.23,-1.46,-34.3,35.1
28,1747402606030,1.18,-0.12,0.23,-1.46,-34.3,35.1
29,1747402606040,1.24,-0.14,0.23,-7.45,-23.38,47.67
30,1747402606050,1.24,-0.14,0.23,-7.45,-23.38,47.67
31,1747402606060,1.24,-0.14,0.23,-7.45,-23.38,47.67
32,1747402606070,1.24,-0.14,0.23,-7.45,-23.38,47.67
33,1747402606080,1.25,-0.15,0.235,-7.45,-23.38,47.67
34,1747402606090,1.26,-0.16,0.24,-7.45,1.95,63.11
35,1747402606100,1.26,-0.16,0.24,-7.45,1.95,63.11
36,1747402606110,1.25,-0.18,0.21,-7.45,1.95,63.11
37,1747402606120,1.25,-0.18,0.21,-16.48,-5.68,79.96
38,1747402606130,1.25,-0.18,0.21,-16.48,-5.68,79.96
39,1747402606140,1.2,-0.21,0.185,-20.205,-0.6749999999999998,90.76
40,1747402606150,1.15,-0.24,0.16,-23.93,4.33,101.56
41,1747402606160,1.15,-0.24,0.16,-23.93,4.33,101.56
42,1747402606170,1.15,-0.24,0.16,-23.93,4.33,101.56
43,1747402606180,1.15,-0.24,0.16,-23.93,4.33,101.56
44,1747402606190,1.07,-0.31,0.14,-23.44,20.26,111.21
45,1747402606200,1.07,-0.31,0.14,-23.44,20.26,111.21
46,1747402606210,1.07,-0.31,0.14,-23.44,20.26,111.21
47,1747402606220,0.96,-0.34,0.11,-17.94,19.04,111.15
48,1747402606230,0.96,-0.34,0.11,-17.94,19.04,111.15
49,1747402606240,0.96,-0.34,0.11,-17.94,19.04,111.15
50,1747402606250,0.96,-0.34,0.11,-17.94,19.04,111.15
51,1747402606260,0.93,-0.375,0.12,-22.945,9.095,118.96
52,1747402606270,0.9,-0.41,0.13,-27.95,-0.85,126.77
53,1747402606280,0.9,-0.41,0.13,-27.95,-0.85,126.77
54,1747402606290,0.9,-0.41,0.13,-27.95,-0.85,126.77
55,1747402606300,0.85,-0.48,0.12,-22.22,2.38,124.51
56,1747402606310,0.85,-0.48,0.12,-22.22,2.38,124.51
57,1747402606320,0.85,-0.48,0.12,-22.22,2.38,124.51
58,1747402606330,0.79,-0.495,0.125,-18.525,9.765,118.59
59,1747402606340,0.73,-0.51,0.13,-14.83,17.15,112.67
60,1747402606350,0.73,-0.51,0.13,-14.83,17.15,112.67
61,1747402606360,0.73,-0.51,0.13,-14.83,17.15,112.67
62,1747402606370,0.73,-0.51,0.13,-14.83,17.15,112.67
63,1747402606380,0.67,-0.57,0.11,-19.84,4.27,116.03
64,1747402606390,0.67,-0.57,0.11,-19.84,4.27,116.03
65,1747402606400,,,,,,
66,1747402606410,0.67,-0.57,0.11,-19.84,4.27,116.03
67,1747402606420,0.62,-0.63,0.12,-21.48,-1.16,122.56
68,1747402606430,0.62,-0.63,0.12,-21.48,-1.16,122.56
69,1747402606440,0.62,-0.63,0.12,-21.48,-1.16,122.56
70,1747402606450,0.55,-0.69,0.09,-16.36,16.91,115.54
71,1747402606460,0.55,-0.69,0.09,-16.36,16.91,115.54
72,1747402606470,0.55,-0.69,0.09,-16.36,16.91,115.54
73,1747402606480,0.55,-0.69,0.09,-16.36,16.91,115.54
74,1747402606490,0.55,-0.69,0.09,-16.36,16.91,115.54
75,1747402606500,,,,,,
76,1747402606510,0.47,-0.7,0.11,-17.94,13.55,119.93
77,1747402606520,0.47,-0.7,0.11,-17.94,13.55,119.93
78,1747402606530,0.4,-0.79,0.1,-20.87,8.67,115.23
79,1747402606540,0.4,-0.79,0.1,-20.87,8.67,115.23
80,1747402606550,0.4,-0.79,0.1,-20.87,8.67,115.23
81,1747402606560,0.4,-0.79,0.1,-20.87,8.67,115.23
82,1747402606570,0.34,-0.82,0.09,-18.31,23.19,97.11
83,1747402606580,0.34,-0.82,0.09,-18.31,23.19,97.11
84,1747402606590,0.34,-0.82,0.09,-18.31,23.19,97.11
85,1747402606600,0.34,-0.82,0.09,-18.31,23.19,97.11
86,1747402606610,0.25,-0.84,0.11,-22.34,17.09,77.21
87,1747402606620,0.25,-0.84,0.11,-22.34,17.09,77.21
88,1747402606630,0.25,-0.84,0.11,-22.34,17.09,77.21
89,1747402606640,0.27,-0.865,0.1149999999999999,-23.41,-1.4949999999999992,71.535
90,1747402606650,0.29,-0.89,0.12,-24.48,-20.08,65.86
91,1747402606660,0.29,-0.89,0.12,-24.48,-20.08,65.86
92,1747402606670,0.29,-0.89,0.12,-24.48,-20.08,65.86
93,1747402606680,0.29,-0.92,0.11,-24.48,-20.08,65.86
94,1747402606690,0.29,-0.92,0.11,-24.96,-30.4,68.48
95,1747402606700,0.29,-0.92,0.11,-24.96,-30.4,68.48
96,1747402606710,0.29,-0.92,0.11,-24.96,-30.4,68.48
97,1747402606720,0.23,-0.93,0.04,-32.41,-18.86,69.64
98,1747402606730,0.23,-0.93,0.04,-32.41,-18.86,69.64
99,1747402606740,0.23,-0.93,0.04,-32.41,-18.86,69.64
100,1747402606750,0.23,-0.93,0.04,-32.41,-18.86,69.64
101,1747402606760,0.1,-0.97,-0.01,-30.52,-15.44,72.75
102,1747402606770,0.1,-0.97,-0.01,-30.52,-15.44,72.75
103,1747402606780,0.1,-0.97,-0.01,-30.52,-15.44,72.75
104,1747402606790,,,,,,
105,1747402606800,-0.13,-0.93,-0.05,-26.61,-22.16,77.27
106,1747402606810,-0.13,-0.93,-0.05,-26.61,-22.16,77.27
107,1747402606820,-0.13,-0.93,-0.05,-26.61,-22.16,77.27
108,1747402606830,-0.13,-0.93,-0.05,-26.61,-22.16,77.27
109,1747402606840,-0.21,-0.98,-0.06,-30.21,-96.19,58.47
110,1747402606850,-0.21,-0.98,-0.06,-30.21,-96.19,58.47
111,1747402606860,-0.21,-0.98,-0.06,-30.21,-96.19,58.47
112,1747402606870,-0.02,-1.0,-0.05,3.66,-79.83,24.78
113,1747402606880,-0.02,-1.0,-0.05,3.66,-79.83,24.78
114,1747402606890,-0.02,-1.0,-0.05,3.66,-79.83,24.78
115,1747402606900,-0.02,-1.0,-0.05,3.66,-79.83,24.78
116,1747402606910,-0.01,-0.96,0.09,12.08,-15.32,0.0
117,1747402606920,-0.01,-0.96,0.09,12.08,-15.32,0.0
118,1747402606930,-0.01,-0.96,0.09,12.08,-15.32,0.0
119,1747402606940,-0.01,-0.96,0.09,12.08,-15.32,0.0
120,1747402606950,,,,,,
121,1747402606960,0.04,-0.99,0.09,-0.18,-5.98,-5.68
122,1747402606970,0.04,-0.99,0.09,-0.18,-5.98,-5.68
123,1747402606980,0.04,-0.99,0.09,-0.18,-5.98,-5.68
124,1747402606990,0.07,-1.02,0.04,0.43,8.06,-10.07
125,1747402607000,0.07,-1.02,0.04,0.43,8.06,-10.07
126,1747402607010,0.07,-1.02,0.04,0.43,8.06,-10.07
127,1747402607020,0.05,-1.04,0.0,0.43,8.06,-10.07
128,1747402607030,0.05,-1.04,0.0,0.31,5.43,-2.08
129,1747402607040,0.05,-1.04,0.0,0.31,5.43,-2.08
130,1747402607050,0.05,-1.04,0.0,0.31,5.43,-2.08
131,1747402607060,0.05,-1.04,0.0,0.31,5.43,-2.08
132,1747402607070,0.06,-1.02,0.01,-2.69,1.53,-3.42
133,1747402607080,0.06,-1.02,0.01,-2.69,1.53,-3.42
134,1747402607090,0.06,-1.02,0.01,-2.69,1.53,-3.42
135,1747402607100,0.08,-1.0,0.02,-2.69,1.53,-3.42
136,1747402607110,0.08,-1.0,0.02,-2.5,0.31,0.0
137,1747402607120,0.08,-1.0,0.02,-2.5,0.31,0.0
138,1747402607130,0.08,-1.0,0.02,-2.5,0.31,0.0
139,1747402607140,0.05,-1.0,0.02,-3.85,0.18,2.2
140,1747402607150,0.05,-1.0,0.02,-3.85,0.18,2.2
141,1747402607160,0.05,-1.0,0.02,-3.85,0.18,2.2
142,1747402607170,0.05,-1.0,0.02,-3.85,0.18,2.2
143,1747402607180,,,,,,
144,1747402607190,0.06,-0.98,0.02,-6.23,-0.92,-4.46
145,1747402607200,0.06,-0.98,0.02,-6.23,-0.92,-4.46
146,1747402607210,0.06,-0.98,0.02,-6.23,-0.92,-4.46
147,1747402607220,0.08,-1.0,0.0,-6.35,2.5,-3.91
148,1747402607230,0.08,-1.0,0.0,-6.35,2.5,-3.91
149,1747402607240,0.08,-1.0,0.0,-6.35,2.5,-3.91
150,1747402607250,0.07,-1.0,0.01,-6.1,-0.92,-5.43
151,1747402607260,0.07,-1.0,0.01,-6.1,-0.92,-5.43
152,1747402607270,0.07,-1.0,0.01,-6.1,-0.92,-5.43
153,1747402607280,0.07,-1.0,0.01,-6.1,-0.92,-5.43
154,1747402607290,0.09,-1.0,0.02,-5.86,-1.4,-5.19
155,1747402607300,0.09,-1.0,0.02,-5.86,-1.4,-5.19
156,1747402607310,0.09,-1.0,0.02,-5.86,-1.4,-5.19
157,1747402607320,0.09,-1.0,0.02,-5.86,-1.4,-5.19
158,1747402607330,0.05,-0.99,-0.01,-5.86,-1.4,-5.19
159,1747402607340,0.05,-0.99,-0.01,-10.25,-14.95,0.06
160,1747402607350,0.05,-0.99,-0.01,-10.25,-14.95,0.06
161,1747402607360,0.01,-0.99,-0.01,-14.65,-27.59,-6.41
162,1747402607370,0.01,-0.99,-0.01,-14.65,-27.59,-6.41
163,1747402607380,0.01,-0.99,-0.01,-14.65,-27.59,-6.41
164,1747402607390,0.01,-0.99,-0.01,-14.65,-27.59,-6.41
165,1747402607400,0.01,-0.99,-0.01,-14.65,-27.59,-6.41
166,1747402607410,0.04,-1.0,-0.03,-14.83,-33.45,-13.79
167,1747402607420,0.04,-1.0,-0.03,-14.83,-33.45,-13.79
168,1747402607430,0.04,-1.0,-0.03,-14.83,-33.45,-13.79
169,1747402607440,0.05,-0.98,0.0,-5.0,-3.72,-22.89
170,1747402607450,0.05,-0.98,0.0,-5.0,-3.72,-22.89
171,1747402607460,0.05,-0.98,0.0,-5.0,-3.72,-22.89
172,1747402607470,0.05,-0.98,0.0,-5.0,-3.72,-22.89
173,1747402607480,0.04,-0.97,-0.01,-5.0,-3.72,-22.89
174,1747402607490,0.04,-0.97,-0.01,-5.68,16.97,-30.21
175,1747402607500,0.04,-0.97,-0.01,-5.68,16.97,-30.21
176,1747402607510,0.04,-0.97,-0.01,-5.68,16.97,-30.21
177,1747402607520,0.0,-0.98,-0.05,-0.24,36.74,-37.72
178,1747402607530,0.0,-0.98,-0.05,-0.24,36.74,-37.72
179,1747402607540,0.0,-0.98,-0.05,-0.24,36.74,-37.72
180,1747402607550,0.0,-0.98,-0.05,-0.24,36.74,-37.72
181,1747402607560,0.0,-0.98,-0.05,-0.24,36.74,-37.72
182,1747402607570,0.0,-0.93,0.03,11.47,43.64,-63.29
183,1747402607580,0.0,-0.93,0.03,11.47,43.64,-63.29
184,1747402607590,0.18,-0.95,0.04,2.38,19.84,-89.6
185,1747402607600,0.18,-0.95,0.04,2.38,19.84,-89.6
186,1747402607610,0.18,-0.95,0.04,2.38,19.84,-89.6
187,1747402607620,0.18,-0.95,0.04,2.38,19.84,-89.6
188,1747402607630,0.28,-0.95,0.04,2.38,19.84,-89.6
189,1747402607640,0.28,-0.95,0.04,9.46,23.38,-86.3
190,1747402607650,0.28,-0.95,0.04,9.46,23.38,-86.3
191,1747402607660,0.28,-0.95,0.04,9.46,23.38,-86.3
192,1747402607670,0.25,-0.9,0.01,6.96,41.5,-79.77
193,1747402607680,0.25,-0.9,0.01,6.96,41.5,-79.77
194,1747402607690,0.25,-0.9,0.01,6.96,41.5,-79.77
195,1747402607700,0.25,-0.9,0.01,6.96,41.5,-79.77
196,1747402607710,0.31,-0.88,0.0,2.62,17.15,-85.57
197,1747402607720,0.31,-0.88,0.0,2.62,17.15,-85.57
198,1747402607730,0.31,-0.88,0.0,2.62,17.15,-85.57
199,1747402607740,0.4,-0.87,-0.03,12.57,20.81,-70.5
200,1747402607750,0.4,-0.87,-0.03,12.57,20.81,-70.5
201,1747402607760,0.4,-0.87,-0.03,12.57,20.81,-70.5
202,1747402607770,0.4,-0.87,-0.03,12.57,20.81,-70.5
203,1747402607780,0.39,-0.76,0.06,14.16,32.04,-88.38
204,1747402607790,0.39,-0.76,0.06,14.16,32.04,-88.38
205,1747402607800,0.39,-0.76,0.06,14.16,32.04,-88.38
206,1747402607810,0.39,-0.76,0.06,14.16,32.04,-88.38
207,1747402607820,0.59,-0.81,0.07,4.33,-21.85,-77.45
208,1747402607830,0.59,-0.81,0.07,4.33,-21.85,-77.45
209,1747402607840,0.59,-0.81,0.07,4.33,-21.85,-77.45
210,1747402607850,0.59,-0.81,0.07,4.33,-21.85,-77.45
211,1747402607860,0.61,-0.75,0.03,13.12,10.5,-61.4
212,1747402607870,0.61,-0.75,0.03,13.12,10.5,-61.4
213,1747402607880,0.61,-0.75,0.03,13.12,10.5,-61.4
214,1747402607890,0.61,-0.75,0.03,13.12,10.5,-61.4
215,1747402607900,0.61,-0.75,0.03,13.12,10.5,-61.4
216,1747402607910,0.67,-0.69,0.13,8.73,25.7,-91.61
217,1747402607920,0.67,-0.69,0.13,8.73,25.7,-91.61
218,1747402607930,0.67,-0.69,0.13,8.73,25.7,-91.61
219,1747402607940,0.7,-0.75,0.09,7.69,4.64,-58.11
220,1747402607950,0.7,-0.75,0.09,7.69,4.64,-58.11
221,1747402607960,0.7,-0.75,0.09,7.69,4.64,-58.11
222,1747402607970,0.7,-0.75,0.09,7.69,4.64,-58.11
223,1747402607980,0.73,-0.63,0.17,21.06,34.61,-83.92
224,1747402607990,0.73,-0.63,0.17,21.06,34.61,-83.92
225,1747402608000,0.73,-0.63,0.17,21.06,34.61,-83.92
226,1747402608010,0.85,-0.65,0.19,21.06,34.61,-83.92
227,1747402608020,0.85,-0.65,0.19,-5.55,-29.24,-80.14
228,1747402608030,0.85,-0.65,0.19,-5.55,-29.24,-80.14
229,1747402608040,0.85,-0.65,0.19,-5.55,-29.24,-80.14
230,1747402608050,0.75,-0.69,0.03,-3.97,-5.92,-40.83
231,1747402608060,0.75,-0.69,0.03,-3.97,-5.92,-40.83
232,1747402608070,0.75,-0.69,0.03,-3.97,-5.92,-40.83
233,1747402608080,0.75,-0.69,0.03,-3.97,-5.92,-40.83
234,1747402608090,0.64,-0.6,0.03,8.61,50.78,-74.1
235,1747402608100,0.64,-0.6,0.03,8.61,50.78,-74.1
236,1747402608110,0.64,-0.6,0.03,8.61,50.78,-74.1
237,1747402608120,0.64,-0.6,0.03,8.61,50.78,-74.1
238,1747402608130,0.79,-0.55,0.12,11.6,-2.38,-75.01
239,1747402608140,0.79,-0.55,0.12,11.6,-2.38,-75.01
240,1747402608150,0.79,-0.55,0.12,11.6,-2.38,-75.01
241,1747402608160,0.79,-0.55,0.12,11.6,-2.38,-75.01
242,1747402608170,0.81,-0.53,0.1,15.99,-8.54,-56.4
243,1747402608180,0.81,-0.53,0.1,15.99,-8.54,-56.4
244,1747402608190,0.81,-0.53,0.1,15.99,-8.54,-56.4
245,1747402608200,0.78,-0.48,0.12,18.095,6.35,-69.885
246,1747402608210,0.75,-0.43,0.14,20.2,21.24,-83.37
247,1747402608220,0.75,-0.43,0.14,20.2,21.24,-83.37
248,1747402608230,0.75,-0.43,0.14,20.2,21.24,-83.37
249,1747402608240,0.8200000000000001,-0.425,0.145,14.22,4.424999999999999,-82.15
250,1747402608250,0.89,-0.42,0.15,8.24,-12.39,-80.93
251,1747402608260,0.89,-0.42,0.15,8.24,-12.39,-80.93
252,1747402608270,0.89,-0.42,0.15,8.24,-12.39,-80.93
253,1747402608280,0.97,-0.35,0.17,15.75,25.02,-75.38
254,1747402608290,0.97,-0.35,0.17,15.75,25.02,-75.38
255,1747402608300,0.97,-0.35,0.17,15.75,25.02,-75.38
256,1747402608310,0.97,-0.35,0.17,15.75,25.02,-75.38
257,1747402608320,0.98,-0.3,0.17,11.84,29.36,-91.86
258,1747402608330,0.98,-0.3,0.17,11.84,29.36,-91.86
259,1747402608340,0.98,-0.3,0.17,11.84,29.36,-91.86
260,1747402608350,0.98,-0.3,0.17,11.84,29.36,-91.86
261,1747402608360,1.14,-0.21,0.24,26.12,-21.91,-66.16
262,1747402608370,1.14,-0.21,0.24,26.12,-21.91,-66.16
263,1747402608380,1.14,-0.21,0.24,26.12,-21.91,-66.16
264,1747402608390,1.14,-0.21,0.24,26.12,-21.91,-66.16
265,1747402608400,1.29,-0.21,0.27,11.6,-23.99,-57.25
266,1747402608410,1.29,-0.21,0.27,11.6,-23.99,-57.25
267,1747402608420,1.29,-0.21,0.27,11.6,-23.99,-57.25
268,1747402608430,1.265,-0.215,0.265,5.92,-9.735,-48.095
269,1747402608440,1.24,-0.22,0.26,0.24,4.52,-38.94
270,1747402608450,1.24,-0.22,0.26,0.24,4.52,-38.94
271,1747402608460,1.24,-0.22,0.26,0.24,4.52,-38.94
272,1747402608470,1.13,-0.26,0.19,-1.28,-7.2,-18.01
273,1747402608480,1.13,-0.26,0.19,-1.28,-7.2,-18.01
274,1747402608490,1.13,-0.26,0.19,-1.28,-7.2,-18.01
275,1747402608500,1.13,-0.26,0.19,-1.28,-7.2,-18.01
276,1747402608510,1.12,-0.26,0.16,-2.595,-4.545,-14.435
277,1747402608520,1.12,-0.26,0.16,-3.91,-1.89,-10.86
278,1747402608530,,,,,,
279,1747402608540,1.12,-0.26,0.16,-3.91,-1.89,-10.86
280,1747402608550,1.01,-0.25,0.14,-0.31,-2.5,-0.92
281,1747402608560,1.01,-0.25,0.14,-0.31,-2.5,-0.92
282,1747402608570,1.01,-0.25,0.14,-0.31,-2.5,-0.92
283,1747402608580,0.98,-0.235,0.145,-0.31,-2.5,-0.92
284,1747402608590,0.95,-0.22,0.15,-0.73,-4.58,-0.79
285,1747402608600,0.95,-0.22,0.15,-0.73,-4.58,-0.79
286,1747402608610,0.95,-0.22,0.15,-0.73,-4.58,-0.79
287,1747402608620,0.985,-0.205,0.16,-0.73,-4.58,-0.79
288,1747402608630,1.02,-0.19,0.17,-0.43,-7.45,-3.48
289,1747402608640,1.02,-0.19,0.17,-0.43,-7.45,-3.48
290,1747402608650,1.02,-0.19,0.17,-0.43,-7.45,-3.48
291,1747402608660,1.03,-0.18,0.18,-0.43,-7.45,-3.48
292,1747402608670,1.04,-0.17,0.19,-0.37,-8.42,-0.49
293,1747402608680,1.04,-0.17,0.19,-0.37,-8.42,-0.49
294,1747402608690,1.04,-0.17,0.19,-0.37,-8.42,-0.49
295,1747402608700,1.04,-0.18,0.18,-0.37,-8.42,-0.49
296,1747402608710,1.04,-0.18,0.18,-2.2,-1.53,1.95
297,1747402608720,1.04,-0.18,0.18,-2.2,-1.53,1.95
298,1747402608730,1.04,-0.18,0.18,-2.2,-1.53,1.95
299,1747402608740,0.99,-0.19,0.15,-3.48,0.3350000000000001,2.38
300,1747402608750,0.99,-0.19,0.15,-4.76,2.2,2.81
301,1747402608760,0.99,-0.19,0.15,-4.76,2.2,2.81
302,1747402608770,0.99,-0.19,0.15,-4.76,2.2,2.81
303,1747402608780,0.99,-0.195,0.15,-4.64,-0.0599999999999998,3.085
304,1747402608790,0.99,-0.2,0.15,-4.52,-2.32,3.36
305,1747402608800,0.99,-0.2,0.15,-4.52,-2.32,3.36
306,1747402608810,0.99,-0.2,0.15,-4.52,-2.32,3.36
307,1747402608820,1.01,-0.21,0.11,-4.39,-4.39,3.85
308,1747402608830,1.01,-0.21,0.11,-4.39,-4.39,3.85
309,1747402608840,1.01,-0.21,0.11,-4.39,-4.39,3.85
310,1747402608850,1.01,-0.21,0.11,-4.39,-4.39,3.85
311,1747402608860,0.99,-0.22,0.13,-2.2,0.0,4.03
312,1747402608870,0.99,-0.22,0.13,-2.2,0.0,4.03
313,1747402608880,0.99,-0.22,0.13,-2.2,0.0,4.03
314,1747402608890,0.99,-0.22,0.135,-2.045,-0.245,3.755
315,1747402608900,0.99,-0.22,0.14,-1.89,-0.49,3.48
316,1747402608910,0.99,-0.22,0.14,-1.89,-0.49,3.48
317,1747402608920,0.99,-0.22,0.14,-1.89,-0.49,3.48
318,1747402608930,0.97,-0.22,0.13,-3.11,0.98,2.44
319,1747402608940,0.97,-0.22,0.13,-3.11,0.98,2.44
320,1747402608950,0.97,-0.22,0.13,-3.11,0.98,2.44
321,1747402608960,0.97,-0.22,0.13,-3.11,0.98,2.44
322,1747402608970,0.99,-0.21,0.135,-1.645,1.8,2.225
323,1747402608980,1.01,-0.2,0.14,-0.18,2.62,2.01
324,1747402608990,1.01,-0.2,0.14,-0.18,2.62,2.01
325,1747402609000,1.01,-0.2,0.14,-0.18,2.62,2.01
326,1747402609010,1.07,-0.2,0.16,-0.67,0.43,5.19
327,1747402609020,1.07,-0.2,0.16,-0.67,0.43,5.19
328,1747402609030,1.07,-0.2,0.16,-0.67,0.43,5.19
329,1747402609040,1.07,-0.2,0.16,-0.67,0.43,5.19
330,1747402609050,1.11,-0.2,0.17,-0.55,0.79,11.29
331,1747402609060,1.11,-0.2,0.17,-0.55,0.79,11.29
332,1747402609070,1.11,-0.2,0.17,-0.55,0.79,11.29
333,1747402609080,1.11,-0.2,0.17,-0.55,0.79,11.29
334,1747402609090,1.125,-0.205,0.175,-1.62,0.61,15.805
335,1747402609100,1.14,-0.21,0.18,-2.69,0.43,20.32
336,1747402609110,1.14,-0.21,0.18,-2.69,0.43,20.32
337,1747402609120,1.14,-0.21,0.18,-2.69,0.43,20.32
338,1747402609130,1.14,-0.24,0.17,-6.71,1.46,33.51
339,1747402609140,1.14,-0.24,0.17,-6.71,1.46,33.51
340,1747402609150,1.14,-0.24,0.17,-6.71,1.46,33.51
341,1747402609160,1.13,-0.26,0.16,-7.625,3.05,37.965
342,1747402609170,1.12,-0.28,0.15,-8.54,4.64,42.42
343,1747402609180,1.12,-0.28,0.15,-8.54,4.64,42.42
344,1747402609190,1.12,-0.28,0.15,-8.54,4.64,42.42
345,1747402609200,1.11,-0.28,0.16,-8.235,2.105,47.425
346,1747402609210,1.1,-0.28,0.17,-7.93,-0.43,52.43
347,1747402609220,1.1,-0.28,0.17,-7.93,-0.43,52.43
348,1747402609230,1.1,-0.28,0.17,-7.93,-0.43,52.43
349,1747402609240,1.08,-0.32,0.15,-10.01,-2.56,63.9
350,1747402609250,1.08,-0.32,0.15,-10.01,-2.56,63.9
351,1747402609260,1.08,-0.32,0.15,-10.01,-2.56,63.9
352,1747402609270,1.065,-0.325,0.155,-10.01,-2.56,63.9
353,1747402609280,1.05,-0.33,0.16,-10.44,-1.59,67.87
354,1747402609290,1.05,-0.33,0.16,-10.44,-1.59,67.87
355,1747402609300,1.05,-0.33,0.16,-10.44,-1.59,67.87
356,1747402609310,1.05,-0.33,0.16,-10.44,-1.59,67.87
357,1747402609320,1.05,-0.37,0.14,-14.95,-19.84,83.68
358,1747402609330,1.05,-0.37,0.14,-14.95,-19.84,83.68
359,1747402609340,1.05,-0.37,0.14,-14.95,-19.84,83.68
360,1747402609350,1.04,-0.39,0.135,-13.515,-10.255,87.13
361,1747402609360,1.03,-0.41,0.13,-12.08,-0.67,90.58
362,1747402609370,1.03,-0.41,0.13,-12.08,-0.67,90.58
363,1747402609380,1.03,-0.41,0.13,-12.08,-0.67,90.58
364,1747402609390,0.88,-0.47,0.12,-12.08,-0.67,90.58
365,1747402609400,0.88,-0.47,0.12,-16.72,16.78,97.9
366,1747402609410,0.88,-0.47,0.12,-16.72,16.78,97.9
367,1747402609420,0.88,-0.47,0.12,-16.72,16.78,97.9
368,1747402609430,0.825,-0.5,0.11,-18.185,11.135000000000002,100.98
369,1747402609440,0.77,-0.53,0.1,-19.65,5.49,104.06
370,1747402609450,0.77,-0.53,0.1,-19.65,5.49,104.06
371,1747402609460,0.74,-0.55,0.09,-14.95,6.35,96.8
372,1747402609470,0.74,-0.55,0.09,-14.95,6.35,96.8
373,1747402609480,0.74,-0.55,0.09,-14.95,6.35,96.8
374,1747402609490,0.74,-0.55,0.09,-14.95,6.35,96.8
375,1747402609500,0.72,-0.59,0.1,-16.78,3.42,91.67
376,1747402609510,0.72,-0.59,0.1,-16.78,3.42,91.67
377,1747402609520,0.72,-0.59,0.1,-16.78,3.42,91.67
378,1747402609530,0.72,-0.59,0.1,-16.78,3.42,91.67
379,1747402609540,0.69,-0.615,0.1,-16.6,4.55,92.19
380,1747402609550,0.66,-0.64,0.1,-16.42,5.68,92.71
381,1747402609560,0.66,-0.64,0.1,-16.42,5.68,92.71
382,1747402609570,0.59,-0.68,0.11,-16.42,5.68,92.71
383,1747402609580,0.59,-0.68,0.11,-15.56,0.0,83.19
384,1747402609590,0.59,-0.68,0.11,-15.56,0.0,83.19
385,1747402609600,0.59,-0.68,0.11,-15.56,0.0,83.19
386,1747402609610,0.61,-0.73,0.09,-15.56,0.0,83.19
387,1747402609620,0.61,-0.73,0.09,-15.81,-1.46,82.76
388,1747402609630,0.61,-0.73,0.09,-15.81,-1.46,82.76
389,1747402609640,0.61,-0.73,0.09,-15.81,-1.46,82.76
390,1747402609650,0.54,-0.76,0.1,-13.49,-1.59,86.36
391,1747402609660,0.54,-0.76,0.1,-13.49,-1.59,86.36
392,1747402609670,0.54,-0.76,0.1,-13.49,-1.59,86.36
393,1747402609680,0.515,-0.785,0.085,-13.49,-1.59,86.36
394,1747402609690,0.49,-0.81,0.07,-17.52,0.55,90.45
395,1747402609700,0.49,-0.81,0.07,-17.52,0.55,90.45
396,1747402609710,0.49,-0.81,0.07,-17.52,0.55,90.45
397,1747402609720,0.4499999999999999,-0.825,0.05,-18.8,2.105,83.525
398,1747402609730,0.41,-0.84,0.03,-20.08,3.66,76.6
399,1747402609740,0.41,-0.84,0.03,-20.08,3.66,76.6
400,1747402609750,0.41,-0.84,0.03,-20.08,3.66,76.6
401,1747402609760,0.395,-0.855,0.025,-15.595,5.765000000000001,72.57
402,1747402609770,0.38,-0.87,0.02,-11.11,7.87,68.54
403,1747402609780,0.38,-0.87,0.02,-11.11,7.87,68.54
404,1747402609790,0.38,-0.87,0.02,-11.11,7.87,68.54
405,1747402609800,0.38,-0.87,0.02,-11.11,7.87,68.54
406,1747402609810,0.32,-0.88,0.04,-9.95,-1.1,71.78
407,1747402609820,0.32,-0.88,0.04,-9.95,-1.1,71.78
408,1747402609830,0.32,-0.88,0.04,-9.95,-1.1,71.78
409,1747402609840,0.31,-0.895,0.04,-7.08,-3.845,65.065
410,1747402609850,0.3,-0.91,0.04,-4.21,-6.59,58.35
411,1747402609860,0.3,-0.91,0.04,-4.21,-6.59,58.35
412,1747402609870,0.3,-0.91,0.04,-4.21,-6.59,58.35
413,1747402609880,0.32,-0.93,0.08,-2.32,-17.33,56.46
414,1747402609890,0.32,-0.93,0.08,-2.32,-17.33,56.46
415,1747402609900,0.32,-0.93,0.08,-2.32,-17.33,56.46
416,1747402609910,0.32,-0.925,0.075,-2.32,-17.33,56.46
417,1747402609920,0.32,-0.92,0.07,-7.14,-16.78,58.11
418,1747402609930,0.32,-0.92,0.07,-7.14,-16.78,58.11
419,1747402609940,0.32,-0.92,0.07,-7.14,-16.78,58.11
420,1747402609950,0.28,-0.935,0.06,-9.58,-8.97,57.805
421,1747402609960,0.24,-0.95,0.05,-12.02,-1.16,57.5
422,1747402609970,0.24,-0.95,0.05,-12.02,-1.16,57.5
423,1747402609980,0.24,-0.95,0.05,-12.02,-1.16,57.5
424,1747402609990,0.22,-0.955,0.04,-10.77,-1.31,55.39
425,1747402610000,0.2,-0.96,0.03,-9.52,-1.46,53.28
426,1747402610010,0.2,-0.96,0.03,-9.52,-1.46,53.28
427,1747402610020,0.2,-0.96,0.03,-9.52,-1.46,53.28
428,1747402610030,0.17,-0.97,0.05,-7.505,-6.285,54.075
429,1747402610040,0.17,-0.97,0.05,-5.49,-11.11,54.87
430,1747402610050,0.17,-0.97,0.05,-5.49,-11.11,54.87
431,1747402610060,0.17,-0.97,0.05,-5.49,-11.11,54.87
432,1747402610070,0.155,-0.97,0.06,-5.37,-14.895,54.75
433,1747402610080,0.14,-0.97,0.07,-5.25,-18.68,54.63
434,1747402610090,0.14,-0.97,0.07,-5.25,-18.68,54.63
435,1747402610100,0.14,-0.97,0.07,-5.25,-18.68,54.63
436,1747402610110,0.04,-0.97,0.06,-9.89,-2.69,49.74
437,1747402610120,0.04,-0.97,0.06,-9.89,-2.69,49.74
438,1747402610130,0.04,-0.97,0.06,-9.89,-2.69,49.74
439,1747402610140,0.04,-0.97,0.06,-9.89,-2.69,49.74
440,1747402610150,-0.05,-0.97,0.03,-10.86,-4.7,37.78
441,1747402610160,-0.05,-0.97,0.03,-10.86,-4.7,37.78
442,1747402610170,-0.04,-0.975,0.02,-11.78,-10.53,34.85
443,1747402610180,-0.03,-0.98,0.01,-12.7,-16.36,31.92
444,1747402610190,-0.03,-0.98,0.01,-12.7,-16.36,31.92
445,1747402610200,-0.03,-0.98,0.01,-12.7,-16.36,31.92
446,1747402610210,-0.03,-0.98,0.01,-12.7,-16.36,31.92
447,1747402610220,-0.06,-0.97,0.01,-5.92,-5.74,29.97
448,1747402610230,-0.06,-0.97,0.01,-5.92,-5.74,29.97
449,1747402610240,-0.06,-0.97,0.01,-5.92,-5.74,29.97
450,1747402610250,-0.06,-0.98,0.01,-5.92,-5.74,29.97
451,1747402610260,-0.06,-0.98,0.01,-5.68,-13.49,14.77
452,1747402610270,-0.06,-0.98,0.01,-5.68,-13.49,14.77
453,1747402610280,-0.06,-0.98,0.01,-5.68,-13.49,14.77
454,1747402610290,-0.03,-0.99,0.0,0.55,-8.61,5.68
455,1747402610300,-0.03,-0.99,0.0,0.55,-8.61,5.68
456,1747402610310,-0.03,-0.99,0.0,0.55,-8.61,5.68
457,1747402610320,-0.03,-0.99,0.0,0.55,-8.61,5.68
458,1747402610330,-0.04,-0.99,0.02,2.62,-2.81,5.37
459,1747402610340,-0.04,-0.99,0.02,2.62,-2.81,5.37
460,1747402610350,-0.04,-0.99,0.02,2.62,-2.81,5.37
461,1747402610360,-0.04,-0.99,0.02,2.62,-2.81,5.37
462,1747402610370,0.02,-1.0,0.03,2.93,-10.19,-2.01
463,1747402610380,0.02,-1.0,0.03,2.93,-10.19,-2.01
464,1747402610390,0.02,-1.0,0.03,2.93,-10.19,-2.01
465,1747402610400,0.025,-1.0,0.025,2.93,-10.19,-2.01
466,1747402610410,0.03,-1.0,0.02,-1.04,-3.3,0.43
467,1747402610420,0.03,-1.0,0.02,-1.04,-3.3,0.43
468,1747402610430,0.03,-1.0,0.02,-1.04,-3.3,0.43
469,1747402610440,0.025,-1.005,0.02,-1.22,-2.415,-0.64
470,1747402610450,0.02,-1.01,0.02,-1.4,-1.53,-1.71
471,1747402610460,0.02,-1.01,0.02,-1.4,-1.53,-1.71
472,1747402610470,0.02,-1.01,0.02,-1.4,-1.53,-1.71
473,1747402610480,0.02,-1.005,0.02,-0.73,-2.69,-0.735
474,1747402610490,0.02,-1.0,0.02,-0.06,-3.85,0.24
475,1747402610500,0.02,-1.0,0.02,-0.06,-3.85,0.24
476,1747402610510,0.02,-1.0,0.02,-0.06,-3.85,0.24
477,1747402610520,0.025,-1.005,0.03,-0.06,-2.75,0.79
478,1747402610530,0.03,-1.01,0.04,-0.06,-1.65,1.34
479,1747402610540,0.03,-1.01,0.04,-0.06,-1.65,1.34
480,1747402610550,0.03,-1.01,0.04,-0.06,-1.65,1.34
481,1747402610560,0.02,-1.0,0.04,-1.86,0.945,0.7000000000000001
482,1747402610570,0.01,-0.99,0.04,-3.66,3.54,0.06
483,1747402610580,0.01,-0.99,0.04,-3.66,3.54,0.06
484,1747402610590,0.01,-0.99,0.04,-3.66,3.54,0.06
485,1747402610600,0.03,-1.0,0.03,-3.48,-0.24,-0.12
486,1747402610610,0.03,-1.0,0.03,-3.48,-0.24,-0.12
487,1747402610620,0.03,-1.0,0.03,-3.48,-0.24,-0.12
488,1747402610630,0.0,-0.99,0.03,-3.48,-0.24,-0.12
489,1747402610640,0.0,-0.99,0.03,-3.48,4.15,2.01
490,1747402610650,0.0,-0.99,0.03,-3.48,4.15,2.01
491,1747402610660,0.0,-0.99,0.03,-3.48,4.15,2.01
492,1747402610670,0.005,-0.99,0.03,-3.205,3.205,-0.8550000000000002
493,1747402610680,0.01,-0.99,0.03,-2.93,2.26,-3.72
494,1747402610690,0.01,-0.99,0.03,-2.93,2.26,-3.72
495,1747402610700,0.01,-0.99,0.03,-2.93,2.26,-3.72
496,1747402610710,0.03,-1.0,0.04,-2.56,2.87,-2.81
497,1747402610720,0.03,-1.0,0.04,-2.56,2.87,-2.81
498,1747402610730,0.03,-1.0,0.04,-2.56,2.87,-2.81
499,1747402610740,0.03,-1.0,0.04,-2.56,2.87,-2.81
500,1747402610750,0.0,-0.99,0.03,-5.92,3.11,-4.21
501,1747402610760,0.0,-0.99,0.03,-5.92,3.11,-4.21
502,1747402610770,0.0,-0.99,0.03,-5.92,3.11,-4.21
503,1747402610780,0.0,-0.99,0.03,-5.92,3.11,-4.21
504,1747402610790,-0.04,-0.99,0.0,-3.78,7.87,-12.51
505,1747402610800,-0.04,-0.99,0.0,-3.78,7.87,-12.51
506,1747402610810,-0.04,-0.99,0.0,-3.78,7.87,-12.51
507,1747402610820,-0.04,-0.985,0.01,-1.25,10.555,-17.21
508,1747402610830,-0.04,-0.98,0.02,1.28,13.24,-21.91
509,1747402610840,-0.04,-0.98,0.02,1.28,13.24,-21.91
510,1747402610850,-0.04,-0.98,0.02,1.28,13.24,-21.91
511,1747402610860,-0.045,-0.975,0.025,1.28,13.24,-21.91
512,1747402610870,-0.05,-0.97,0.03,3.97,20.69,-30.09
513,1747402610880,-0.05,-0.97,0.03,3.97,20.69,-30.09
514,1747402610890,-0.07,-0.97,0.02,4.0600000000000005,26.735,-34.455
515,1747402610900,-0.09,-0.97,0.01,4.15,32.78,-38.82
516,1747402610910,-0.09,-0.97,0.01,4.15,32.78,-38.82
517,1747402610920,-0.09,-0.97,0.01,4.15,32.78,-38.82
518,1747402610930,-0.13,-0.93,0.0,7.75,40.1,-48.095
519,1747402610940,-0.13,-0.93,0.0,11.35,47.42,-57.37
520,1747402610950,-0.13,-0.93,0.0,11.35,47.42,-57.37
521,1747402610960,-0.13,-0.93,0.0,11.35,47.42,-57.37
522,1747402610970,-0.07,-0.9,0.03,9.16,12.7,-85.08
523,1747402610980,-0.07,-0.9,0.03,9.16,12.7,-85.08
524,1747402610990,-0.07,-0.9,0.03,9.16,12.7,-85.08
525,1747402611000,0.045,-0.905,0.04,13.34,6.29,-83.68
526,1747402611010,0.16,-0.91,0.05,17.52,-0.12,-82.28
527,1747402611020,0.16,-0.91,0.05,17.52,-0.12,-82.28
528,1747402611030,0.16,-0.91,0.05,17.52,-0.12,-82.28
529,1747402611040,0.16,-0.91,0.05,17.52,-0.12,-82.28
530,1747402611050,0.17,-0.87,0.12,25.76,34.79,-91.37
531,1747402611060,0.17,-0.87,0.12,25.76,34.79,-91.37
532,1747402611070,0.17,-0.87,0.12,25.76,34.79,-91.37
533,1747402611080,0.24,-0.85,0.14,18.28,14.86,-98.54
534,1747402611090,0.31,-0.83,0.16,10.8,-5.07,-105.71
535,1747402611100,0.31,-0.83,0.16,10.8,-5.07,-105.71
536,1747402611110,0.31,-0.83,0.16,10.8,-5.07,-105.71
537,1747402611120,0.365,-0.86,0.125,6.805000000000001,3.875,-94.45
538,1747402611130,0.42,-0.89,0.09,2.81,12.82,-83.19
539,1747402611140,0.42,-0.89,0.09,2.81,12.82,-83.19
540,1747402611150,0.42,-0.89,0.09,2.81,12.82,-83.19
541,1747402611160,0.39,-0.8400000000000001,0.115,9.83,15.78,-89.6
542,1747402611170,0.36,-0.79,0.14,16.85,18.74,-96.01
543,1747402611180,0.36,-0.79,0.14,16.85,18.74,-96.01
544,1747402611190,0.36,-0.79,0.14,16.85,18.74,-96.01
545,1747402611200,0.58,-0.78,0.15,-0.43,-36.99,-97.84
546,1747402611210,0.58,-0.78,0.15,-0.43,-36.99,-97.84
547,1747402611220,0.58,-0.78,0.15,-0.43,-36.99,-97.84
548,1747402611230,0.58,-0.78,0.15,-0.43,-36.99,-97.84
549,1747402611240,,,,,,
550,1747402611250,0.58,-0.79,0.06,7.57,9.46,-79.9
551,1747402611260,0.58,-0.79,0.06,7.57,9.46,-79.9
552,1747402611270,0.58,-0.79,0.06,7.57,9.46,-79.9
553,1747402611280,0.6,-0.69,0.16,15.08,5.86,-113.46
554,1747402611290,0.6,-0.69,0.16,15.08,5.86,-113.46
555,1747402611300,0.6,-0.69,0.16,15.08,5.86,-113.46
556,1747402611310,0.6,-0.69,0.16,15.08,5.86,-113.46
557,1747402611320,0.84,-0.69,0.14,0.92,-24.23,-85.75
558,1747402611330,0.84,-0.69,0.14,0.92,-24.23,-85.75
559,1747402611340,0.84,-0.69,0.14,0.92,-24.23,-85.75
560,1747402611350,0.64,-0.63,0.1,5.22,6.8050000000000015,-83.95
561,1747402611360,0.64,-0.63,0.1,9.52,37.84,-82.15
562,1747402611370,0.64,-0.63,0.1,9.52,37.84,-82.15
563,1747402611380,0.64,-0.63,0.1,9.52,37.84,-82.15
564,1747402611390,0.83,-0.56,0.16,4.15,-11.84,-104.25
565,1747402611400,0.83,-0.56,0.16,4.15,-11.84,-104.25
566,1747402611410,0.83,-0.56,0.16,4.15,-11.84,-104.25
567,1747402611420,0.83,-0.56,0.16,4.15,-11.84,-104.25
568,1747402611430,0.87,-0.59,0.11,6.29,6.65,-61.1
569,1747402611440,0.87,-0.59,0.11,6.29,6.65,-61.1
570,1747402611450,0.87,-0.59,0.11,6.29,6.65,-61.1
571,1747402611460,0.87,-0.59,0.11,6.29,6.65,-61.1
572,1747402611470,0.74,-0.46,0.17,18.19,31.92,-88.87
573,1747402611480,0.74,-0.46,0.17,18.19,31.92,-88.87
574,1747402611490,0.74,-0.46,0.17,18.19,31.92,-88.87
575,1747402611500,0.74,-0.46,0.17,18.19,31.92,-88.87
576,1747402611510,1.04,-0.49,0.19,5.8,-33.26,-71.11
577,1747402611520,1.04,-0.49,0.19,5.8,-33.26,-71.11
578,1747402611530,1.04,-0.49,0.19,5.8,-33.26,-71.11
579,1747402611540,0.975,-0.495,0.16,7.845000000000001,-2.6849999999999987,-66.715
580,1747402611550,0.91,-0.5,0.13,9.89,27.89,-62.32
581,1747402611560,0.91,-0.5,0.13,9.89,27.89,-62.32
582,1747402611570,0.91,-0.5,0.13,9.89,27.89,-62.32
583,1747402611580,0.92,-0.425,0.1699999999999999,10.195,11.75,-72.88
584,1747402611590,0.93,-0.35,0.21,10.5,-4.39,-83.44
585,1747402611600,0.93,-0.35,0.21,10.5,-4.39,-83.44
586,1747402611610,0.93,-0.35,0.21,10.5,-4.39,-83.44
587,1747402611620,1.13,-0.42,0.18,6.47,-17.849999999999998,-66.62
588,1747402611630,1.13,-0.42,0.18,2.44,-31.31,-49.8
589,1747402611640,1.13,-0.42,0.18,2.44,-31.31,-49.8
590,1747402611650,1.13,-0.42,0.18,2.44,-31.31,-49.8
591,1747402611660,0.95,-0.37,0.17,5.98,25.63,-57.56
592,1747402611670,0.95,-0.37,0.17,5.98,25.63,-57.56
593,1747402611680,0.95,-0.37,0.17,5.98,25.63,-57.56
594,1747402611690,0.96,-0.355,0.175,5.98,25.63,-57.56
595,1747402611700,0.97,-0.34,0.18,2.62,-6.65,-51.09
596,1747402611710,0.97,-0.34,0.18,2.62,-6.65,-51.09
597,1747402611720,0.97,-0.34,0.18,2.62,-6.65,-51.09
598,1747402611730,1.015,-0.325,0.18,5.43,-4.455,-47.64
599,1747402611740,1.06,-0.31,0.18,8.24,-2.26,-44.19
600,1747402611750,1.06,-0.31,0.18,8.24,-2.26,-44.19
601,1747402611760,1.06,-0.31,0.18,8.24,-2.26,-44.19
602,1747402611770,1.06,-0.31,0.18,8.24,-2.26,-44.19
603,1747402611780,0.97,-0.29,0.18,5.37,2.93,-40.71
604,1747402611790,0.97,-0.29,0.18,5.37,2.93,-40.71
605,1747402611800,0.97,-0.29,0.18,5.37,2.93,-40.71
606,1747402611810,0.97,-0.29,0.18,5.37,2.93,-40.71
607,1747402611820,1.09,-0.24,0.2,6.53,-2.87,-38.82
608,1747402611830,1.09,-0.24,0.2,6.53,-2.87,-38.82
609,1747402611840,1.09,-0.24,0.2,6.53,-2.87,-38.82
610,1747402611850,1.1,-0.24,0.21,6.53,-2.87,-38.82
611,1747402611860,1.1,-0.24,0.21,3.11,-7.75,-26.49
612,1747402611870,1.1,-0.24,0.21,3.11,-7.75,-26.49
613,1747402611880,1.1,-0.24,0.21,3.11,-7.75,-26.49
614,1747402611890,1.065,-0.24,0.195,1.465,-1.19,-24.6
615,1747402611900,1.03,-0.24,0.18,-0.18,5.37,-22.71
616,1747402611910,1.03,-0.24,0.18,-0.18,5.37,-22.71
617,1747402611920,1.03,-0.24,0.18,-0.18,5.37,-22.71
618,1747402611930,1.01,-0.22,0.16,-1.83,-7.45,-21.36
619,1747402611940,1.01,-0.22,0.16,-1.83,-7.45,-21.36
620,1747402611950,1.01,-0.22,0.16,-1.83,-7.45,-21.36
621,1747402611960,1.01,-0.22,0.16,-1.83,-7.45,-21.36
622,1747402611970,1.07,-0.19,0.16,-0.37,-8.79,-17.21
623,1747402611980,1.07,-0.19,0.16,-0.37,-8.79,-17.21
624,1747402611990,1.07,-0.19,0.16,-0.37,-8.79,-17.21
625,1747402612000,1.085,-0.175,0.175,1.495,0.4250000000000007,-15.745
626,1747402612010,1.1,-0.16,0.19,3.36,9.64,-14.28
627,1747402612020,1.1,-0.16,0.19,3.36,9.64,-14.28
628,1747402612030,1.1,-0.16,0.19,3.36,9.64,-14.28
629,1747402612040,1.04,-0.17,0.19,0.95,6.5,-9.765
630,1747402612050,1.04,-0.17,0.19,-1.46,3.36,-5.25
631,1747402612060,1.04,-0.17,0.19,-1.46,3.36,-5.25
632,1747402612070,1.04,-0.17,0.19,-1.46,3.36,-5.25
633,1747402612080,1.04,-0.175,0.18,-2.41,2.625,-3.63
634,1747402612090,1.04,-0.18,0.17,-3.36,1.89,-2.01
635,1747402612100,1.04,-0.18,0.17,-3.36,1.89,-2.01
636,1747402612110,1.04,-0.18,0.17,-3.36,1.89,-2.01
637,1747402612120,1.02,-0.16,0.18,-3.6,11.66,-1.1
638,1747402612130,1.02,-0.16,0.18,-3.6,11.66,-1.1
639,1747402612140,1.02,-0.16,0.18,-3.6,11.66,-1.1
640,1747402612150,1.02,-0.16,0.18,-3.6,11.66,-1.1
641,1747402612160,1.01,-0.17,0.18,-4.15,1.34,2.32
642,1747402612170,1.01,-0.17,0.18,-4.15,1.34,2.32
643,1747402612180,1.01,-0.17,0.18,-4.15,1.34,2.32
644,1747402612190,1.015,-0.17,0.185,-4.15,1.34,2.32
645,1747402612200,1.02,-0.17,0.19,-4.64,3.17,3.05
646,1747402612210,1.02,-0.17,0.19,-4.64,3.17,3.05
647,1747402612220,1.005,-0.17,0.18,-4.55,5.765,3.63
648,1747402612230,0.99,-0.17,0.17,-4.46,8.36,4.21
649,1747402612240,0.99,-0.17,0.17,-4.46,8.36,4.21
650,1747402612250,0.99,-0.17,0.17,-4.46,8.36,4.21
651,1747402612260,0.99,-0.17,0.17,-4.46,8.36,4.21
652,1747402612270,0.98,-0.17,0.17,-1.95,2.5,3.48
653,1747402612280,0.98,-0.17,0.17,-1.95,2.5,3.48
654,1747402612290,0.98,-0.17,0.17,-1.95,2.5,3.48
655,1747402612300,0.99,-0.17,0.175,-1.77,0.485,4.09
656,1747402612310,1.0,-0.17,0.18,-1.59,-1.53,4.7
657,1747402612320,1.0,-0.17,0.18,-1.59,-1.53,4.7
658,1747402612330,1.01,-0.17,0.185,-1.59,-1.53,4.7
659,1747402612340,1.02,-0.17,0.19,-0.49,3.11,4.82
660,1747402612350,1.02,-0.17,0.19,-0.49,3.11,4.82
661,1747402612360,1.02,-0.17,0.19,-0.49,3.11,4.82
662,1747402612370,1.02,-0.17,0.19,-0.49,3.11,4.82
663,1747402612380,1.07,-0.17,0.2,-0.98,-1.46,7.08
664,1747402612390,1.07,-0.17,0.2,-0.98,-1.46,7.08
665,1747402612400,1.07,-0.17,0.2,-0.98,-1.46,7.08
666,1747402612410,1.07,-0.17,0.2,-0.98,-1.46,7.08
667,1747402612420,1.1,-0.18,0.21,-3.36,-3.42,14.53
668,1747402612430,1.1,-0.18,0.21,-3.36,-3.42,14.53
669,1747402612440,1.1,-0.18,0.21,-3.36,-3.42,14.53
670,1747402612450,1.11,-0.195,0.205,-4.18,-0.6699999999999999,18.585
671,1747402612460,1.12,-0.21,0.2,-5.0,2.08,22.64
672,1747402612470,1.12,-0.21,0.2,-5.0,2.08,22.64
673,1747402612480,1.12,-0.21,0.2,-5.0,2.08,22.64
674,1747402612490,1.09,-0.23,0.19,-6.1,-0.06,31.31
675,1747402612500,1.09,-0.23,0.19,-6.1,-0.06,31.31
676,1747402612510,1.09,-0.23,0.19,-6.1,-0.06,31.31
677,1747402612520,,,,,,
678,1747402612530,1.11,-0.25,0.2,-5.98,-3.6,43.52
679,1747402612540,1.11,-0.25,0.2,-5.98,-3.6,43.52
680,1747402612550,1.11,-0.25,0.2,-5.98,-3.6,43.52
681,1747402612560,1.11,-0.25,0.2,-5.98,-3.6,43.52
682,1747402612570,1.07,-0.27,0.2,-7.08,8.67,50.42
683,1747402612580,1.07,-0.27,0.2,-7.08,8.67,50.42
684,1747402612590,1.07,-0.27,0.2,-7.08,8.67,50.42
685,1747402612600,1.07,-0.27,0.2,-7.08,8.67,50.42
686,1747402612610,1.06,-0.28,0.21,-8.79,2.87,57.98
687,1747402612620,1.06,-0.28,0.21,-8.79,2.87,57.98
688,1747402612630,1.06,-0.28,0.21,-8.79,2.87,57.98
689,1747402612640,1.0550000000000002,-0.295,0.205,-10.01,0.215,61.49
690,1747402612650,1.05,-0.31,0.2,-11.23,-2.44,65.0
691,1747402612660,1.05,-0.31,0.2,-11.23,-2.44,65.0
692,1747402612670,1.05,-0.31,0.2,-11.23,-2.44,65.0
693,1747402612680,1.035,-0.3299999999999999,0.2,-12.45,-0.76,68.175
694,1747402612690,1.02,-0.35,0.2,-13.67,0.92,71.35
695,1747402612700,1.02,-0.35,0.2,-13.67,0.92,71.35
696,1747402612710,1.02,-0.35,0.2,-13.67,0.92,71.35
697,1747402612720,1.015,-0.365,0.2,-14.16,0.5800000000000001,74.25
698,1747402612730,1.01,-0.38,0.2,-14.65,0.24,77.15
699,1747402612740,1.01,-0.38,0.2,-14.65,0.24,77.15
700,1747402612750,1.01,-0.38,0.2,-14.65,0.24,77.15
701,1747402612760,0.94,-0.43,0.18,-16.78,7.02,85.88
702,1747402612770,0.94,-0.43,0.18,-16.78,7.02,85.88
703,1747402612780,0.94,-0.43,0.18,-16.78,7.02,85.88
704,1747402612790,0.905,-0.4499999999999999,0.175,-16.78,7.02,85.88
705,1747402612800,0.87,-0.47,0.17,-18.8,14.71,85.33
706,1747402612810,0.87,-0.47,0.17,-18.8,14.71,85.33
707,1747402612820,0.87,-0.47,0.17,-18.8,14.71,85.33
708,1747402612830,0.87,-0.47,0.17,-18.8,14.71,85.33
709,1747402612840,0.8,-0.51,0.16,-20.02,10.68,81.05
710,1747402612850,0.8,-0.51,0.16,-20.02,10.68,81.05
711,1747402612860,0.8,-0.51,0.16,-20.02,10.68,81.05
712,1747402612870,0.8,-0.51,0.16,-20.02,10.68,81.05
713,1747402612880,0.77,-0.56,0.13,-19.29,5.92,85.57
714,1747402612890,0.77,-0.56,0.13,-19.29,5.92,85.57
715,1747402612900,0.77,-0.56,0.13,-19.29,5.92,85.57
716,1747402612910,0.77,-0.56,0.13,-19.29,5.92,85.57
717,1747402612920,0.75,-0.6,0.14,-11.41,14.95,88.26
718,1747402612930,0.75,-0.6,0.14,-11.41,14.95,88.26
719,1747402612940,0.75,-0.6,0.14,-11.41,14.95,88.26
720,1747402612950,0.7,-0.615,0.155,-11.41,14.25,86.33500000000001
721,1747402612960,0.65,-0.63,0.17,-11.41,13.55,84.41
722,1747402612970,0.65,-0.63,0.17,-11.41,13.55,84.41
723,1747402612980,0.65,-0.63,0.17,-11.41,13.55,84.41
724,1747402612990,0.6,-0.69,0.16,-18.74,-2.56,83.25
725,1747402613000,0.6,-0.69,0.16,-18.74,-2.56,83.25
726,1747402613010,0.6,-0.69,0.16,-18.74,-2.56,83.25
727,1747402613020,0.6,-0.69,0.16,-18.74,-2.56,83.25
728,1747402613030,0.5800000000000001,-0.705,0.155,-16.845,0.03,78.185
729,1747402613040,0.56,-0.72,0.15,-14.95,2.62,73.12
730,1747402613050,0.56,-0.72,0.15,-14.95,2.62,73.12
731,1747402613060,0.56,-0.72,0.15,-14.95,2.62,73.12
732,1747402613070,0.54,-0.75,0.15,-18.37,-1.4,69.64
733,1747402613080,0.54,-0.75,0.15,-18.37,-1.4,69.64
734,1747402613090,0.54,-0.75,0.15,-18.37,-1.4,69.64
735,1747402613100,0.54,-0.75,0.15,-18.37,-1.4,69.64
736,1747402613110,0.52,-0.79,0.14,-17.46,-5.13,65.92
737,1747402613120,0.52,-0.79,0.14,-17.46,-5.13,65.92
738,1747402613130,0.52,-0.79,0.14,-17.46,-5.13,65.92
739,1747402613140,0.52,-0.79,0.14,-17.46,-5.13,65.92
740,1747402613150,0.46,-0.81,0.12,-16.91,-3.36,64.51
741,1747402613160,0.46,-0.81,0.12,-16.91,-3.36,64.51
742,1747402613170,0.46,-0.81,0.12,-16.91,-3.36,64.51
743,1747402613180,0.46,-0.81,0.12,-16.91,-3.36,64.51
744,1747402613190,0.43,-0.82,0.1,-15.5,-6.16,58.96
745,1747402613200,0.43,-0.82,0.1,-15.5,-6.16,58.96
746,1747402613210,0.43,-0.82,0.1,-15.5,-6.16,58.96
747,1747402613220,0.47,-0.87,0.11,-15.5,-6.16,58.96
748,1747402613230,0.47,-0.87,0.11,-13.24,-7.63,58.53
749,1747402613240,0.47,-0.87,0.11,-13.24,-7.63,58.53
750,1747402613250,0.47,-0.87,0.11,-13.24,-7.63,58.53
751,1747402613260,0.37,-0.9,0.11,-10.19,5.19,62.87
752,1747402613270,0.37,-0.9,0.11,-10.19,5.19,62.87
753,1747402613280,0.37,-0.9,0.11,-10.19,5.19,62.87
754,1747402613290,0.37,-0.9,0.11,-10.19,5.19,62.87
755,1747402613300,0.33,-0.9,0.12,-11.78,-3.3,57.37
756,1747402613310,0.33,-0.9,0.12,-11.78,-3.3,57.37
757,1747402613320,0.33,-0.9,0.12,-11.78,-3.3,57.37
758,1747402613330,0.33,-0.9,0.12,-11.78,-3.3,57.37
759,1747402613340,0.3,-0.91,0.09,-16.97,0.0,51.51
760,1747402613350,0.3,-0.91,0.09,-16.97,0.0,51.51
761,1747402613360,0.3,-0.91,0.09,-16.97,0.0,51.51
762,1747402613370,0.3,-0.91,0.09,-16.97,0.0,51.51
763,1747402613380,0.27,-0.93,0.08,-11.84,-2.56,55.79
764,1747402613390,0.27,-0.93,0.08,-11.84,-2.56,55.79
765,1747402613400,0.27,-0.93,0.08,-11.84,-2.56,55.79
766,1747402613410,0.26,-0.93,0.0849999999999999,-10.74,-2.56,56.335
767,1747402613420,0.25,-0.93,0.09,-9.64,-2.56,56.88
768,1747402613430,0.25,-0.93,0.09,-9.64,-2.56,56.88
769,1747402613440,0.25,-0.93,0.09,-9.64,-2.56,56.88
770,1747402613450,0.22,-0.94,0.09,-9.55,-0.1799999999999999,55.69
771,1747402613460,0.22,-0.94,0.09,-9.46,2.2,54.5
772,1747402613470,0.22,-0.94,0.09,-9.46,2.2,54.5
773,1747402613480,0.22,-0.94,0.09,-9.46,2.2,54.5
774,1747402613490,0.17,-0.96,0.1,-12.39,5.37,51.94
775,1747402613500,0.17,-0.96,0.1,-12.39,5.37,51.94
776,1747402613510,0.17,-0.96,0.1,-12.39,5.37,51.94
777,1747402613520,0.17,-0.96,0.1,-12.39,5.37,51.94
778,1747402613530,0.165,-0.96,0.1,-16.845,-2.81,50.385
779,1747402613540,0.16,-0.96,0.1,-21.3,-10.99,48.83
780,1747402613550,0.16,-0.96,0.1,-21.3,-10.99,48.83
781,1747402613560,0.16,-0.96,0.1,-21.3,-10.99,48.83
782,1747402613570,0.08,-0.99,0.05,-26.31,-18.68,52.61
783,1747402613580,0.08,-0.99,0.05,-26.31,-18.68,52.61
784,1747402613590,0.08,-0.99,0.05,-26.31,-18.68,52.61
785,1747402613600,0.055,-0.985,0.025,-25.73,-11.265,50.385
786,1747402613610,0.03,-0.98,0.0,-25.15,-3.85,48.16
787,1747402613620,0.03,-0.98,0.0,-25.15,-3.85,48.16
788,1747402613630,0.03,-0.98,0.0,-25.15,-3.85,48.16
789,1747402613640,-0.08,-0.97,-0.03,-21.42,7.87,38.82
790,1747402613650,-0.08,-0.97,-0.03,-21.42,7.87,38.82
791,1747402613660,-0.08,-0.97,-0.03,-21.42,7.87,38.82
792,1747402613670,-0.08,-0.97,-0.03,-21.42,7.87,38.82
793,1747402613680,-0.06,-0.98,-0.04,-17.240000000000002,3.63,31.585
794,1747402613690,-0.06,-0.98,-0.04,-13.06,-0.61,24.35
795,1747402613700,-0.06,-0.98,-0.04,-13.06,-0.61,24.35
796,1747402613710,-0.06,-0.98,-0.04,-13.06,-0.61,24.35
797,1747402613720,0.0,-0.98,-0.01,-1.95,-1.04,14.16
798,1747402613730,0.0,-0.98,-0.01,-1.95,-1.04,14.16
799,1747402613740,0.0,-0.98,-0.01,-1.95,-1.04,14.16
800,1747402613750,0.0,-0.985,0.0099999999999999,-0.365,4.27,10.315
801,1747402613760,0.0,-0.99,0.03,1.22,9.58,6.47
802,1747402613770,0.0,-0.99,0.03,1.22,9.58,6.47
803,1747402613780,-0.01,-0.985,0.035,-0.2149999999999999,5.43,6.529999999999999
804,1747402613790,-0.02,-0.98,0.04,-1.65,1.28,6.59
805,1747402613800,-0.02,-0.98,0.04,-1.65,1.28,6.59
806,1747402613810,-0.02,-0.98,0.04,-1.65,1.28,6.59
807,1747402613820,-0.01,-0.99,0.0,-5.68,-5.07,-0.67
808,1747402613830,-0.01,-0.99,0.0,-5.68,-5.07,-0.67
809,1747402613840,-0.01,-0.99,0.0,-5.68,-5.07,-0.67
810,1747402613850,-0.01,-0.99,0.0,-5.68,-5.07,-0.67
811,1747402613860,0.05,-1.01,0.01,-1.1,-0.67,-0.79
812,1747402613870,0.05,-1.01,0.01,-1.1,-0.67,-0.79
813,1747402613880,0.05,-1.01,0.01,-1.1,-0.67,-0.79
814,1747402613890,0.05,-1.01,0.01,-1.1,-0.67,-0.79
815,1747402613900,0.01,-1.0,0.02,-3.91,-0.18,1.22
816,1747402613910,0.01,-1.0,0.02,-3.91,-0.18,1.22
817,1747402613920,0.01,-1.0,0.02,-3.91,-0.18,1.22
818,1747402613930,0.01,-1.0,0.02,-3.91,-0.18,1.22
819,1747402613940,0.04,-1.01,0.01,-5.19,-0.92,-3.85
820,1747402613950,0.04,-1.01,0.01,-5.19,-0.92,-3.85
821,1747402613960,0.04,-1.01,0.01,-5.19,-0.92,-3.85
822,1747402613970,,,,,,
823,1747402613980,0.06,-1.0,0.02,-2.14,-0.37,0.24
824,1747402613990,0.06,-1.0,0.02,-2.14,-0.37,0.24
825,1747402614000,0.06,-1.0,0.02,-2.14,-0.37,0.24
826,1747402614010,0.01,-1.0,0.0,-5.19,2.14,1.1
827,1747402614020,0.01,-1.0,0.0,-5.19,2.14,1.1
828,1747402614030,0.01,-1.0,0.0,-5.19,2.14,1.1
829,1747402614040,0.01,-1.0,0.0,-5.19,2.14,1.1
830,1747402614050,0.03,-1.0,0.01,-5.31,-1.04,-1.77
831,1747402614060,0.03,-1.0,0.01,-5.31,-1.04,-1.77
832,1747402614070,0.025,-1.005,0.02,-5.31,-1.04,-1.77
833,1747402614080,0.02,-1.01,0.03,-3.42,3.78,-3.3
834,1747402614090,0.02,-1.01,0.03,-3.42,3.78,-3.3
835,1747402614100,0.02,-1.01,0.03,-3.42,3.78,-3.3
836,1747402614110,0.01,-1.0,0.025,-4.885,2.685,-3.91
837,1747402614120,0.0,-0.99,0.02,-6.35,1.59,-4.52
838,1747402614130,0.0,-0.99,0.02,-6.35,1.59,-4.52
839,1747402614140,0.0,-0.99,0.02,-6.35,1.59,-4.52
840,1747402614150,-0.04,-1.0,-0.03,-4.09,6.96,-11.41
841,1747402614160,-0.04,-1.0,-0.03,-4.09,6.96,-11.41
842,1747402614170,-0.04,-1.0,-0.03,-4.09,6.96,-11.41
843,1747402614180,-0.04,-1.0,-0.03,-4.09,6.96,-11.41
844,1747402614190,-0.03,-0.99,0.0,1.1,2.5,-22.09
845,1747402614200,-0.03,-0.99,0.0,1.1,2.5,-22.09
846,1747402614210,-0.03,-0.99,0.0,1.1,2.5,-22.09
847,1747402614220,-0.03,-0.99,0.0,1.1,2.5,-22.09
848,1747402614230,0.01,-0.98,0.01,2.87,0.61,-25.94
849,1747402614240,0.01,-0.98,0.01,2.87,0.61,-25.94
850,1747402614250,0.01,-0.98,0.01,2.87,0.61,-25.94
851,1747402614260,0.01,-0.98,0.01,2.87,0.61,-25.94
852,1747402614270,0.0,-0.96,0.01,0.61,-5.0,-36.32
853,1747402614280,0.0,-0.96,0.01,0.61,-5.0,-36.32
854,1747402614290,0.0,-0.96,0.01,0.61,-5.0,-36.32
855,1747402614300,0.015,-0.965,0.015,-2.165,-21.665,-45.685
856,1747402614310,0.03,-0.97,0.02,-4.94,-38.33,-55.05
857,1747402614320,0.03,-0.97,0.02,-4.94,-38.33,-55.05
858,1747402614330,0.03,-0.97,0.02,-4.94,-38.33,-55.05
859,1747402614340,0.16,-0.96,0.0,-5.855,-41.715,-60.575
860,1747402614350,0.16,-0.96,0.0,-6.77,-45.1,-66.1
861,1747402614360,0.16,-0.96,0.0,-6.77,-45.1,-66.1
862,1747402614370,0.16,-0.96,0.0,-6.77,-45.1,-66.1
863,1747402614380,0.1,-0.97,-0.04,-8.79,24.48,-63.48
864,1747402614390,0.1,-0.97,-0.04,-8.79,24.48,-63.48
865,1747402614400,0.1,-0.97,-0.04,-8.79,24.48,-63.48
866,1747402614410,0.1,-0.97,-0.04,-8.79,24.48,-63.48
867,1747402614420,0.04,-0.93,-0.04,-2.01,19.1,-77.27
868,1747402614430,0.04,-0.93,-0.04,-2.01,19.1,-77.27
869,1747402614440,0.04,-0.93,-0.04,-2.01,19.1,-77.27
870,1747402614450,0.04,-0.93,-0.04,-2.01,19.1,-77.27
871,1747402614460,0.23,-0.9,-0.02,-0.55,-14.83,-89.42
872,1747402614470,0.23,-0.9,-0.02,-0.55,-14.83,-89.42
873,1747402614480,0.23,-0.9,-0.02,-0.55,-14.83,-89.42
874,1747402614490,0.27,-0.88,-0.015,2.135,1.13,-90.79
875,1747402614500,0.31,-0.86,-0.01,4.82,17.09,-92.16
876,1747402614510,0.31,-0.86,-0.01,4.82,17.09,-92.16
877,1747402614520,0.31,-0.86,-0.01,4.82,17.09,-92.16
878,1747402614530,0.41,-0.83,0.06,8.545,8.3,-97.535
879,1747402614540,0.41,-0.83,0.06,12.27,-0.49,-102.91
880,1747402614550,0.41,-0.83,0.06,12.27,-0.49,-102.91
881,1747402614560,0.41,-0.83,0.06,12.27,-0.49,-102.91
882,1747402614570,0.55,-0.83,0.03,-0.24,-5.55,-74.89
883,1747402614580,0.55,-0.83,0.03,-0.24,-5.55,-74.89
884,1747402614590,0.55,-0.83,0.03,-0.24,-5.55,-74.89
885,1747402614600,0.55,-0.83,0.03,-0.24,-5.55,-74.89
886,1747402614610,0.51,-0.77,0.05,3.42,4.76,-82.21
887,1747402614620,0.51,-0.77,0.05,3.42,4.76,-82.21
888,1747402614630,0.51,-0.77,0.05,3.42,4.76,-82.21
889,1747402614640,0.51,-0.77,0.05,3.42,4.76,-82.21
890,1747402614650,0.64,-0.79,0.02,-3.72,-28.44,-76.54
891,1747402614660,0.64,-0.79,0.02,-3.72,-28.44,-76.54
892,1747402614670,0.64,-0.79,0.02,-3.72,-28.44,-76.54
893,1747402614680,0.605,-0.775,-0.01,1.1,7.385,-78.83000000000001
894,1747402614690,0.57,-0.76,-0.04,5.92,43.21,-81.12
895,1747402614700,0.57,-0.76,-0.04,5.92,43.21,-81.12
896,1747402614710,0.57,-0.76,-0.04,5.92,43.21,-81.12
897,1747402614720,0.57,-0.72,-0.015,5.92,43.21,-81.12
898,1747402614730,0.57,-0.68,0.01,8.42,1.4,-95.28
899,1747402614740,0.57,-0.68,0.01,8.42,1.4,-95.28
900,1747402614750,0.57,-0.68,0.01,8.42,1.4,-95.28
901,1747402614760,0.71,-0.675,0.025,9.58,-4.975,-87.22
902,1747402614770,0.85,-0.67,0.04,10.74,-11.35,-79.16
903,1747402614780,0.85,-0.67,0.04,10.74,-11.35,-79.16
904,1747402614790,0.85,-0.67,0.04,10.74,-11.35,-79.16
905,1747402614800,0.76,-0.61,0.06,10.13,29.24,-66.65
906,1747402614810,0.76,-0.61,0.06,10.13,29.24,-66.65
907,1747402614820,0.76,-0.61,0.06,10.13,29.24,-66.65
908,1747402614830,0.76,-0.61,0.06,10.13,29.24,-66.65
909,1747402614840,0.89,-0.58,0.09,8.3,-8.18,-84.11
910,1747402614850,0.89,-0.58,0.09,8.3,-8.18,-84.11
911,1747402614860,0.89,-0.58,0.09,8.3,-8.18,-84.11
912,1747402614870,0.95,-0.585,0.09,8.3,-8.18,-84.11
913,1747402614880,1.01,-0.59,0.09,7.51,9.58,-56.7
914,1747402614890,1.01,-0.59,0.09,7.51,9.58,-56.7
915,1747402614900,1.01,-0.59,0.09,7.51,9.58,-56.7
916,1747402614910,1.01,-0.59,0.09,7.51,9.58,-56.7
917,1747402614920,0.82,-0.58,0.08,-0.55,36.07,-46.45
918,1747402614930,0.82,-0.58,0.08,-0.55,36.07,-46.45
919,1747402614940,0.82,-0.58,0.08,-0.55,36.07,-46.45
920,1747402614950,0.82,-0.58,0.08,-0.55,36.07,-46.45
921,1747402614960,0.95,-0.49,0.11,7.51,-9.03,-62.87
922,1747402614970,0.95,-0.49,0.11,7.51,-9.03,-62.87
923,1747402614980,0.95,-0.49,0.11,7.51,-9.03,-62.87
924,1747402614990,1.0,-0.53,0.1,7.51,-9.03,-62.87
925,1747402615000,1.0,-0.53,0.1,-0.92,-1.59,-39.92
926,1747402615010,1.0,-0.53,0.1,-0.92,-1.59,-39.92
927,1747402615020,1.0,-0.53,0.1,-0.92,-1.59,-39.92
928,1747402615030,0.83,-0.5,0.07,-0.215,6.985,-41.385000000000005
929,1747402615040,0.83,-0.5,0.07,0.49,15.56,-42.85
930,1747402615050,0.83,-0.5,0.07,0.49,15.56,-42.85
931,1747402615060,0.83,-0.5,0.07,0.49,15.56,-42.85
932,1747402615070,0.93,-0.43,0.1,5.62,-18.74,-49.8
933,1747402615080,0.93,-0.43,0.1,5.62,-18.74,-49.8
934,1747402615090,0.93,-0.43,0.1,5.62,-18.74,-49.8
935,1747402615100,0.93,-0.43,0.1,5.62,-18.74,-49.8
936,1747402615110,0.97,-0.42,0.12,7.51,2.08,-47.12
937,1747402615120,0.97,-0.42,0.12,7.51,2.08,-47.12
938,1747402615130,0.97,-0.42,0.12,7.51,2.08,-47.12
939,1747402615140,0.97,-0.42,0.12,7.51,2.08,-47.12
940,1747402615150,0.78,-0.35,0.14,5.07,22.83,-56.09
941,1747402615160,0.78,-0.35,0.14,5.07,22.83,-56.09
942,1747402615170,0.78,-0.35,0.14,5.07,22.83,-56.09
943,1747402615180,0.8300000000000001,-0.36,0.11,-1.19,-1.1900000000000013,-53.650000000000006
944,1747402615190,0.88,-0.37,0.08,-7.45,-25.21,-51.21
945,1747402615200,0.88,-0.37,0.08,-7.45,-25.21,-51.21
946,1747402615210,0.88,-0.37,0.08,-7.45,-25.21,-51.21
947,1747402615220,0.88,-0.37,0.08,-7.45,-25.21,-51.21
948,1747402615230,,,,,,
949,1747402615240,0.93,-0.31,0.07,0.73,7.93,-55.85
950,1747402615250,0.93,-0.31,0.07,0.73,7.93,-55.85
951,1747402615260,0.98,-0.23,0.08,-0.43,-17.58,-69.15
952,1747402615270,0.98,-0.23,0.08,-0.43,-17.58,-69.15
953,1747402615280,0.98,-0.23,0.08,-0.43,-17.58,-69.15
954,1747402615290,0.98,-0.23,0.08,-0.43,-17.58,-69.15
955,1747402615300,1.08,-0.25,0.06,3.91,-7.02,-50.6
956,1747402615310,1.08,-0.25,0.06,3.91,-7.02,-50.6
957,1747402615320,1.08,-0.25,0.06,3.91,-7.02,-50.6
958,1747402615330,1.08,-0.25,0.06,3.91,-7.02,-50.6
959,1747402615340,0.99,-0.2,0.05,8.3,6.96,-53.83
960,1747402615350,0.99,-0.2,0.05,8.3,6.96,-53.83
961,1747402615360,0.99,-0.2,0.05,8.3,6.96,-53.83
962,1747402615370,0.99,-0.2,0.05,8.3,6.96,-53.83
963,1747402615380,1.16,-0.16,0.07,9.83,-16.05,-49.93
964,1747402615390,1.16,-0.16,0.07,9.83,-16.05,-49.93
965,1747402615400,1.16,-0.16,0.07,9.83,-16.05,-49.93
966,1747402615410,1.16,-0.16,0.07,9.83,-16.05,-49.93
967,1747402615420,1.19,-0.13,0.09,9.09,-3.05,-36.01
968,1747402615430,1.19,-0.13,0.09,9.09,-3.05,-36.01
969,1747402615440,1.19,-0.13,0.09,9.09,-3.05,-36.01
970,1747402615450,1.15,-0.14,0.09,3.815,1.525,-32.989999999999995
971,1747402615460,1.11,-0.15,0.09,-1.46,6.1,-29.97
972,1747402615470,1.11,-0.15,0.09,-1.46,6.1,-29.97
973,1747402615480,1.11,-0.15,0.09,-1.46,6.1,-29.97
974,1747402615490,1.125,-0.135,0.0849999999999999,-1.495,-0.7650000000000001,-27.13
975,1747402615500,1.14,-0.12,0.08,-1.53,-7.63,-24.29
976,1747402615510,1.14,-0.12,0.08,-1.53,-7.63,-24.29
977,1747402615520,1.14,-0.12,0.08,-1.53,-7.63,-24.29
978,1747402615530,1.2,-0.12,0.08,-2.32,-4.58,-9.46
979,1747402615540,1.2,-0.12,0.08,-2.32,-4.58,-9.46
980,1747402615550,1.2,-0.12,0.08,-2.32,-4.58,-9.46
981,1747402615560,1.2,-0.12,0.08,-2.32,-4.58,-9.46
982,1747402615570,1.11,-0.14,0.08,-2.5,12.21,-3.11
983,1747402615580,1.11,-0.14,0.08,-2.5,12.21,-3.11
984,1747402615590,1.11,-0.14,0.08,-2.5,12.21,-3.11
985,1747402615600,1.085,-0.125,0.0849999999999999,-1.77,10.135000000000002,-0.4849999999999999
986,1747402615610,1.06,-0.11,0.09,-1.04,8.06,2.14
987,1747402615620,1.06,-0.11,0.09,-1.04,8.06,2.14
988,1747402615630,1.06,-0.11,0.09,-1.04,8.06,2.14
989,1747402615640,1.05,-0.11,0.0849999999999999,-1.04,8.06,2.14
990,1747402615650,1.04,-0.11,0.08,-5.31,-0.85,5.0
991,1747402615660,1.04,-0.11,0.08,-5.31,-0.85,5.0
992,1747402615670,1.04,-0.11,0.08,-5.31,-0.85,5.0
993,1747402615680,1.025,-0.11,0.075,-5.035,2.75,5.46
994,1747402615690,1.01,-0.11,0.07,-4.76,6.35,5.92
995,1747402615700,1.01,-0.11,0.07,-4.76,6.35,5.92
996,1747402615710,1.01,-0.11,0.07,-4.76,6.35,5.92
997,1747402615720,1.0,-0.1,0.07,-1.28,-1.4,5.49
998,1747402615730,1.0,-0.1,0.07,-1.28,-1.4,5.49
999,1747402615740,1.0,-0.1,0.07,-1.28,-1.4,5.49
