id,timestamp,acc_x,acc_y,acc_z,gyro_x,gyro_y,gyro_z
0,1747402578020,0.99,-0.1,0.25,-2.75,4.52,-3.17
1,1747402578030,,,,,,
2,1747402578040,1.0,-0.09,0.25,-2.75,4.52,-3.17
3,1747402578050,1.0,-0.09,0.25,5.31,6.96,4.27
4,1747402578060,1.0,-0.09,0.25,5.31,6.96,4.27
5,1747402578070,1.0,-0.09,0.25,5.31,6.96,4.27
6,1747402578080,1.0,-0.09,0.25,5.31,6.96,4.27
7,1747402578090,1.01,-0.07,0.26,7.2,-13.18,5.0
8,1747402578100,1.01,-0.07,0.26,7.2,-13.18,5.0
9,1747402578110,1.005,-0.105,0.26,4.575,-14.89,1.31
10,1747402578120,1.0,-0.14,0.26,1.95,-16.6,-2.38
11,1747402578130,1.0,-0.14,0.26,1.95,-16.6,-2.38
12,1747402578140,1.0,-0.14,0.26,1.95,-16.6,-2.38
13,1747402578150,0.975,-0.11,0.235,9.735,-14.68,-4.395
14,1747402578160,0.95,-0.08,0.21,17.52,-12.76,-6.41
15,1747402578170,0.95,-0.08,0.21,17.52,-12.76,-6.41
16,1747402578180,0.95,-0.08,0.21,17.52,-12.76,-6.41
17,1747402578190,0.96,-0.075,0.19,11.11,-17.305,-3.48
18,1747402578200,0.97,-0.07,0.17,4.7,-21.85,-0.55
19,1747402578210,0.97,-0.07,0.17,4.7,-21.85,-0.55
20,1747402578220,1.01,-0.11,0.19,5.859999999999999,-20.08,-0.09
21,1747402578230,1.01,-0.11,0.19,7.02,-18.31,0.37
22,1747402578240,1.01,-0.11,0.19,7.02,-18.31,0.37
23,1747402578250,1.01,-0.11,0.19,7.02,-18.31,0.37
24,1747402578260,1.09,-0.09,0.23,9.52,-10.435,-3.14
25,1747402578270,1.09,-0.09,0.23,12.02,-2.56,-6.65
26,1747402578280,1.09,-0.09,0.23,12.02,-2.56,-6.65
27,1747402578290,1.09,-0.09,0.23,12.02,-2.56,-6.65
28,1747402578300,1.11,-0.06,0.25,15.775,-2.1950000000000003,-3.325
29,1747402578310,1.11,-0.06,0.25,19.53,-1.83,0.0
30,1747402578320,1.11,-0.06,0.25,19.53,-1.83,0.0
31,1747402578330,1.11,-0.06,0.25,19.53,-1.83,0.0
32,1747402578340,1.29,-0.06,0.26,-3.72,-29.24,24.78
33,1747402578350,1.29,-0.06,0.26,-3.72,-29.24,24.78
34,1747402578360,1.29,-0.06,0.26,-3.72,-29.24,24.78
35,1747402578370,1.27,-0.11,0.22,-7.26,-11.05,38.94
36,1747402578380,1.27,-0.11,0.22,-7.26,-11.05,38.94
37,1747402578390,1.27,-0.11,0.22,-7.26,-11.05,38.94
38,1747402578400,1.27,-0.11,0.22,-7.26,-11.05,38.94
39,1747402578410,1.33,-0.1,0.24,9.4,5.86,43.95
40,1747402578420,1.33,-0.1,0.24,9.4,5.86,43.95
41,1747402578430,1.33,-0.1,0.24,9.4,5.86,43.95
42,1747402578440,1.33,-0.1,0.24,9.4,5.86,43.95
43,1747402578450,1.32,-0.1,0.22,-20.45,6.41,85.39
44,1747402578460,1.32,-0.1,0.22,-20.45,6.41,85.39
45,1747402578470,1.32,-0.1,0.22,-20.45,6.41,85.39
46,1747402578480,1.32,-0.1,0.22,-20.45,6.41,85.39
47,1747402578490,1.17,-0.16,0.19,-17.15,16.6,112.79
48,1747402578500,1.17,-0.16,0.19,-17.15,16.6,112.79
49,1747402578510,1.17,-0.16,0.19,-17.15,16.6,112.79
50,1747402578520,1.17,-0.16,0.19,-17.15,16.6,112.79
51,1747402578530,1.07,-0.19,0.19,-13.55,19.47,114.32
52,1747402578540,1.07,-0.19,0.19,-13.55,19.47,114.32
53,1747402578550,1.07,-0.19,0.19,-13.55,19.47,114.32
54,1747402578560,1.03,-0.225,0.205,-13.55,19.47,114.32
55,1747402578570,0.99,-0.26,0.22,-24.9,21.97,131.77
56,1747402578580,0.99,-0.26,0.22,-24.9,21.97,131.77
57,1747402578590,0.99,-0.26,0.22,-24.9,21.97,131.77
58,1747402578600,0.84,-0.34,0.2,-31.43,11.66,132.08
59,1747402578610,0.84,-0.34,0.2,-31.43,11.66,132.08
60,1747402578620,0.84,-0.34,0.2,-31.43,11.66,132.08
61,1747402578630,0.84,-0.34,0.2,-31.43,11.66,132.08
62,1747402578640,0.76,-0.41,0.15,-25.63,-3.78,125.12
63,1747402578650,0.76,-0.41,0.15,-25.63,-3.78,125.12
64,1747402578660,0.76,-0.41,0.15,-25.63,-3.78,125.12
65,1747402578670,0.76,-0.41,0.15,-25.63,-3.78,125.12
66,1747402578680,0.73,-0.48,0.16,-23.32,-1.59,117.37
67,1747402578690,0.73,-0.48,0.16,-23.32,-1.59,117.37
68,1747402578700,0.73,-0.48,0.16,-23.32,-1.59,117.37
69,1747402578710,0.73,-0.48,0.16,-23.32,-1.59,117.37
70,1747402578720,0.65,-0.54,0.14,-24.17,11.66,115.54
71,1747402578730,0.65,-0.54,0.14,-24.17,11.66,115.54
72,1747402578740,0.65,-0.54,0.14,-24.17,11.66,115.54
73,1747402578750,0.65,-0.54,0.14,-24.17,11.66,115.54
74,1747402578760,0.53,-0.61,0.13,-22.83,3.36,97.6
75,1747402578770,0.53,-0.61,0.13,-22.83,3.36,97.6
76,1747402578780,0.53,-0.61,0.13,-22.83,3.36,97.6
77,1747402578790,0.5700000000000001,-0.64,0.13,-22.95,0.1849999999999998,103.395
78,1747402578800,0.61,-0.67,0.13,-23.07,-2.99,109.19
79,1747402578810,0.61,-0.67,0.13,-23.07,-2.99,109.19
80,1747402578820,0.61,-0.67,0.13,-23.07,-2.99,109.19
81,1747402578830,0.535,-0.69,0.13,-23.345,0.3049999999999999,104.155
82,1747402578840,0.46,-0.71,0.13,-23.62,3.6,99.12
83,1747402578850,0.46,-0.71,0.13,-23.62,3.6,99.12
84,1747402578860,0.46,-0.71,0.13,-23.62,3.6,99.12
85,1747402578870,0.51,-0.74,0.12,-24.29,-3.85,82.09
86,1747402578880,0.51,-0.74,0.12,-24.29,-3.85,82.09
87,1747402578890,0.51,-0.74,0.12,-24.29,-3.85,82.09
88,1747402578900,0.51,-0.74,0.12,-24.29,-3.85,82.09
89,1747402578910,0.52,-0.81,0.11,-25.7,3.36,103.15
90,1747402578920,0.52,-0.81,0.11,-25.7,3.36,103.15
91,1747402578930,0.52,-0.81,0.11,-25.7,3.36,103.15
92,1747402578940,,,,,,
93,1747402578950,0.4,-0.84,0.08,-25.94,-5.555000000000001,105.865
94,1747402578960,0.4,-0.84,0.08,-26.18,-14.47,108.58
95,1747402578970,0.4,-0.84,0.08,-26.18,-14.47,108.58
96,1747402578980,0.4,-0.84,0.08,-26.18,-14.47,108.58
97,1747402578990,0.41,-0.88,0.08,-21.85,-16.11,102.66
98,1747402579000,0.41,-0.88,0.08,-21.85,-16.11,102.66
99,1747402579010,0.41,-0.88,0.08,-21.85,-16.11,102.66
100,1747402579020,0.41,-0.88,0.08,-21.85,-16.11,102.66
101,1747402579030,0.27,-0.92,0.08,-23.74,-31.37,100.34
102,1747402579040,0.27,-0.92,0.08,-23.74,-31.37,100.34
103,1747402579050,0.27,-0.92,0.08,-23.74,-31.37,100.34
104,1747402579060,0.215,-0.925,0.055,-26.67,-23.04,94.235
105,1747402579070,0.16,-0.93,0.03,-29.6,-14.71,88.13
106,1747402579080,0.16,-0.93,0.03,-29.6,-14.71,88.13
107,1747402579090,0.16,-0.93,0.03,-29.6,-14.71,88.13
108,1747402579100,0.1,-0.95,0.01,-26.365,-18.675,75.5
109,1747402579110,0.1,-0.95,0.01,-23.13,-22.64,62.87
110,1747402579120,0.1,-0.95,0.01,-23.13,-22.64,62.87
111,1747402579130,0.1,-0.95,0.01,-23.13,-22.64,62.87
112,1747402579140,0.06,-0.95,0.0,-17.67,-19.59,63.45
113,1747402579150,0.06,-0.95,0.0,-12.21,-16.54,64.03
114,1747402579160,0.06,-0.95,0.0,-12.21,-16.54,64.03
115,1747402579170,0.06,-0.95,0.0,-12.21,-16.54,64.03
116,1747402579180,-0.08,-0.94,0.0,-9.52,-25.33,49.44
117,1747402579190,-0.08,-0.94,0.0,-9.52,-25.33,49.44
118,1747402579200,-0.08,-0.94,0.0,-9.52,-25.33,49.44
119,1747402579210,-0.08,-0.94,0.0,-9.52,-25.33,49.44
120,1747402579220,-0.08,-0.96,0.0,-6.59,-7.26,19.04
121,1747402579230,-0.08,-0.96,0.0,-6.59,-7.26,19.04
122,1747402579240,-0.08,-0.96,0.0,-6.59,-7.26,19.04
123,1747402579250,-0.08,-0.96,0.0,-6.59,-7.26,19.04
124,1747402579260,-0.06,-0.98,0.04,4.58,-8.67,1.59
125,1747402579270,-0.06,-0.98,0.04,4.58,-8.67,1.59
126,1747402579280,-0.06,-0.98,0.04,4.58,-8.67,1.59
127,1747402579290,-0.06,-0.98,0.04,4.58,-8.67,1.59
128,1747402579300,0.05,-0.98,0.07,2.81,-24.17,-2.87
129,1747402579310,0.05,-0.98,0.07,2.81,-24.17,-2.87
130,1747402579320,0.05,-0.98,0.07,2.81,-24.17,-2.87
131,1747402579330,0.08,-1.0,0.065,-0.2449999999999998,-18.19,-3.115
132,1747402579340,0.11,-1.02,0.06,-3.3,-12.21,-3.36
133,1747402579350,0.11,-1.02,0.06,-3.3,-12.21,-3.36
134,1747402579360,0.11,-1.02,0.06,-3.3,-12.21,-3.36
135,1747402579370,0.08,-1.01,0.05,-1.46,0.12,-1.65
136,1747402579380,0.08,-1.01,0.05,-1.46,0.12,-1.65
137,1747402579390,0.08,-1.01,0.05,-1.46,0.12,-1.65
138,1747402579400,0.08,-1.01,0.05,-1.46,0.12,-1.65
139,1747402579410,0.1,-1.01,0.04,-7.08,-6.65,-0.79
140,1747402579420,0.1,-1.01,0.04,-7.08,-6.65,-0.79
141,1747402579430,0.1,-1.01,0.04,-7.08,-6.65,-0.79
142,1747402579440,0.11,-1.02,0.02,-7.08,-6.65,-0.79
143,1747402579450,0.11,-1.02,0.02,-7.51,-0.55,0.43
144,1747402579460,0.11,-1.02,0.02,-7.51,-0.55,0.43
145,1747402579470,0.11,-1.02,0.02,-7.51,-0.55,0.43
146,1747402579480,0.09,-0.99,0.02,-3.48,4.88,-0.85
147,1747402579490,0.09,-0.99,0.02,-3.48,4.88,-0.85
148,1747402579500,0.09,-0.99,0.02,-3.48,4.88,-0.85
149,1747402579510,0.09,-0.99,0.02,-3.48,4.88,-0.85
150,1747402579520,0.06,-0.98,0.01,-9.52,-0.92,-6.1
151,1747402579530,0.06,-0.98,0.01,-9.52,-0.92,-6.1
152,1747402579540,0.06,-0.98,0.01,-9.52,-0.92,-6.1
153,1747402579550,0.06,-0.98,0.01,-9.52,-0.92,-6.1
154,1747402579560,0.09,-0.99,-0.01,-6.59,-2.32,-4.82
155,1747402579570,0.09,-0.99,-0.01,-6.59,-2.32,-4.82
156,1747402579580,0.09,-0.99,-0.01,-6.59,-2.32,-4.82
157,1747402579590,0.09,-0.99,-0.01,-6.59,-2.32,-4.82
158,1747402579600,0.05,-0.99,0.0,-3.17,2.44,-12.39
159,1747402579610,0.05,-0.99,0.0,-3.17,2.44,-12.39
160,1747402579620,0.05,-0.99,0.0,-3.17,2.44,-12.39
161,1747402579630,0.05,-0.99,0.0,-3.17,2.44,-12.39
162,1747402579640,0.05,-0.98,0.01,3.91,3.78,-23.93
163,1747402579650,0.05,-0.98,0.01,3.91,3.78,-23.93
164,1747402579660,0.05,-0.98,0.01,3.91,3.78,-23.93
165,1747402579670,0.05,-0.98,0.01,3.91,3.78,-23.93
166,1747402579680,0.06,-0.96,0.01,0.85,-2.26,-31.56
167,1747402579690,0.06,-0.96,0.01,0.85,-2.26,-31.56
168,1747402579700,0.06,-0.96,0.01,0.85,-2.26,-31.56
169,1747402579710,0.07,-0.965,0.015,1.125,4.3950000000000005,-37.72
170,1747402579720,0.08,-0.97,0.02,1.4,11.05,-43.88
171,1747402579730,0.08,-0.97,0.02,1.4,11.05,-43.88
172,1747402579740,0.08,-0.97,0.02,1.4,11.05,-43.88
173,1747402579750,0.0849999999999999,-0.955,0.025,3.17,22.645000000000003,-52.03
174,1747402579760,0.09,-0.94,0.03,4.94,34.24,-60.18
175,1747402579770,0.09,-0.94,0.03,4.94,34.24,-60.18
176,1747402579780,0.09,-0.94,0.03,4.94,34.24,-60.18
177,1747402579790,0.07,-0.91,0.04,8.42,57.43,-62.5
178,1747402579800,0.07,-0.91,0.04,8.42,57.43,-62.5
179,1747402579810,0.07,-0.91,0.04,8.42,57.43,-62.5
180,1747402579820,0.07,-0.91,0.04,8.42,57.43,-62.5
181,1747402579830,0.08,-0.85,0.05,10.62,25.51,-90.39
182,1747402579840,0.08,-0.85,0.05,10.62,25.51,-90.39
183,1747402579850,0.08,-0.85,0.05,10.62,25.51,-90.39
184,1747402579860,0.08,-0.85,0.05,10.62,25.51,-90.39
185,1747402579870,0.31,-0.89,0.0,0.73,-18.92,-81.6
186,1747402579880,0.31,-0.89,0.0,0.73,-18.92,-81.6
187,1747402579890,0.31,-0.89,0.0,0.73,-18.92,-81.6
188,1747402579900,,,,,,
189,1747402579910,0.32,-0.85,0.03,12.7,29.17,-87.22
190,1747402579920,0.32,-0.85,0.03,12.7,29.17,-87.22
191,1747402579930,0.32,-0.85,0.03,12.7,29.17,-87.22
192,1747402579940,0.37,-0.8300000000000001,0.03,11.415,18.855,-99.49
193,1747402579950,0.42,-0.81,0.03,10.13,8.54,-111.76
194,1747402579960,0.42,-0.81,0.03,10.13,8.54,-111.76
195,1747402579970,0.42,-0.81,0.03,10.13,8.54,-111.76
196,1747402579980,0.58,-0.82,0.07,15.38,-3.115,-105.135
197,1747402579990,0.58,-0.82,0.07,20.63,-14.77,-98.51
198,1747402580000,0.58,-0.82,0.07,20.63,-14.77,-98.51
199,1747402580010,0.58,-0.82,0.07,20.63,-14.77,-98.51
200,1747402580020,0.56,-0.75,0.1,15.08,6.53,-101.68
201,1747402580030,0.56,-0.75,0.1,15.08,6.53,-101.68
202,1747402580040,0.56,-0.75,0.1,15.08,6.53,-101.68
203,1747402580050,0.56,-0.75,0.1,15.08,6.53,-101.68
204,1747402580060,0.68,-0.71,0.12,13.12,-19.59,-103.03
205,1747402580070,0.68,-0.71,0.12,13.12,-19.59,-103.03
206,1747402580080,0.68,-0.71,0.12,13.12,-19.59,-103.03
207,1747402580090,0.68,-0.71,0.12,13.12,-19.59,-103.03
208,1747402580100,0.72,-0.69,0.11,16.05,4.39,-73.18
209,1747402580110,0.72,-0.69,0.11,16.05,4.39,-73.18
210,1747402580120,0.72,-0.69,0.11,16.05,4.39,-73.18
211,1747402580130,0.72,-0.69,0.11,16.05,4.39,-73.18
212,1747402580140,0.64,-0.61,0.13,11.47,29.3,-98.94
213,1747402580150,0.64,-0.61,0.13,11.47,29.3,-98.94
214,1747402580160,0.64,-0.61,0.13,11.47,29.3,-98.94
215,1747402580170,0.64,-0.61,0.13,11.47,29.3,-98.94
216,1747402580180,0.83,-0.58,0.17,10.99,21.24,-87.59
217,1747402580190,0.83,-0.58,0.17,10.99,21.24,-87.59
218,1747402580200,0.83,-0.58,0.17,10.99,21.24,-87.59
219,1747402580210,0.7749999999999999,-0.56,0.165,8.85,17.335,-82.58500000000001
220,1747402580220,0.72,-0.54,0.16,6.71,13.43,-77.58
221,1747402580230,0.72,-0.54,0.16,6.71,13.43,-77.58
222,1747402580240,0.72,-0.54,0.16,6.71,13.43,-77.58
223,1747402580250,0.77,-0.495,0.165,11.29,12.145,-86.09
224,1747402580260,0.82,-0.45,0.17,15.87,10.86,-94.6
225,1747402580270,0.82,-0.45,0.17,15.87,10.86,-94.6
226,1747402580280,0.82,-0.45,0.17,15.87,10.86,-94.6
227,1747402580290,0.91,-0.43,0.18,16.509999999999998,-2.015000000000001,-86.515
228,1747402580300,0.91,-0.43,0.18,17.15,-14.89,-78.43
229,1747402580310,0.91,-0.43,0.18,17.15,-14.89,-78.43
230,1747402580320,0.91,-0.43,0.18,17.15,-14.89,-78.43
231,1747402580330,0.96,-0.39,0.16,21.79,27.83,-87.4
232,1747402580340,0.96,-0.39,0.16,21.79,27.83,-87.4
233,1747402580350,0.96,-0.39,0.16,21.79,27.83,-87.4
234,1747402580360,0.96,-0.39,0.16,21.79,27.83,-87.4
235,1747402580370,1.0,-0.31,0.23,18.62,7.93,-79.53
236,1747402580380,1.0,-0.31,0.23,18.62,7.93,-79.53
237,1747402580390,1.0,-0.31,0.23,18.62,7.93,-79.53
238,1747402580400,0.99,-0.32,0.22,18.770000000000003,16.935000000000002,-78.28
239,1747402580410,0.98,-0.33,0.21,18.92,25.94,-77.03
240,1747402580420,0.98,-0.33,0.21,18.92,25.94,-77.03
241,1747402580430,0.98,-0.33,0.21,18.92,25.94,-77.03
242,1747402580440,0.95,-0.31,0.2,19.01,19.835,-72.33
243,1747402580450,0.92,-0.29,0.19,19.1,13.73,-67.63
244,1747402580460,0.92,-0.29,0.19,19.1,13.73,-67.63
245,1747402580470,0.92,-0.29,0.19,19.1,13.73,-67.63
246,1747402580480,0.92,-0.29,0.19,19.1,13.73,-67.63
247,1747402580490,0.97,-0.19,0.21,23.38,-2.75,-78.31
248,1747402580500,0.97,-0.19,0.21,23.38,-2.75,-78.31
249,1747402580510,0.97,-0.19,0.21,23.38,-2.75,-78.31
250,1747402580520,1.24,-0.08,0.33,23.32,-23.62,-68.24
251,1747402580530,1.24,-0.08,0.33,23.32,-23.62,-68.24
252,1747402580540,1.24,-0.08,0.33,23.32,-23.62,-68.24
253,1747402580550,1.24,-0.08,0.33,23.32,-23.62,-68.24
254,1747402580560,1.34,-0.07,0.36,23.32,-23.62,-68.24
255,1747402580570,1.34,-0.07,0.36,8.48,-9.16,-50.96
256,1747402580580,1.34,-0.07,0.36,8.48,-9.16,-50.96
257,1747402580590,1.34,-0.07,0.36,8.48,-9.16,-50.96
258,1747402580600,1.24,-0.12,0.29,-2.75,-4.7,-27.34
259,1747402580610,1.24,-0.12,0.29,-2.75,-4.7,-27.34
260,1747402580620,1.24,-0.12,0.29,-2.75,-4.7,-27.34
261,1747402580630,1.19,-0.15,0.24,-5.07,-6.71,-4.09
262,1747402580640,1.19,-0.15,0.24,-5.07,-6.71,-4.09
263,1747402580650,1.19,-0.15,0.24,-5.07,-6.71,-4.09
264,1747402580660,1.19,-0.15,0.24,-5.07,-6.71,-4.09
265,1747402580670,1.15,-0.15,0.2299999999999999,-6.84,0.8249999999999997,-0.395
266,1747402580680,1.11,-0.15,0.22,-8.61,8.36,3.3
267,1747402580690,1.11,-0.15,0.22,-8.61,8.36,3.3
268,1747402580700,1.11,-0.15,0.22,-8.61,8.36,3.3
269,1747402580710,1.0,-0.16,0.19,-5.68,2.38,10.8
270,1747402580720,1.0,-0.16,0.19,-5.68,2.38,10.8
271,1747402580730,1.0,-0.16,0.19,-5.68,2.38,10.8
272,1747402580740,1.0,-0.16,0.19,-5.68,2.38,10.8
273,1747402580750,0.99,-0.13,0.2,-5.55,-7.69,10.99
274,1747402580760,0.99,-0.13,0.2,-5.55,-7.69,10.99
275,1747402580770,0.99,-0.13,0.2,-5.55,-7.69,10.99
276,1747402580780,0.97,-0.12,0.21,-5.19,2.75,7.69
277,1747402580790,0.97,-0.12,0.21,-5.19,2.75,7.69
278,1747402580800,0.97,-0.12,0.21,-5.19,2.75,7.69
279,1747402580810,0.945,-0.12,0.205,-5.065,0.825,6.225
280,1747402580820,0.92,-0.12,0.2,-4.94,-1.1,4.76
281,1747402580830,0.92,-0.12,0.2,-4.94,-1.1,4.76
282,1747402580840,0.92,-0.12,0.2,-4.94,-1.1,4.76
283,1747402580850,0.93,-0.125,0.19,-5.215,-4.245,3.355
284,1747402580860,0.94,-0.13,0.18,-5.49,-7.39,1.95
285,1747402580870,0.94,-0.13,0.18,-5.49,-7.39,1.95
286,1747402580880,0.94,-0.13,0.18,-5.49,-7.39,1.95
287,1747402580890,0.94,-0.13,0.18,-5.49,-7.39,1.95
288,1747402580900,0.97,-0.14,0.17,-2.14,-6.35,-1.16
289,1747402580910,0.97,-0.14,0.17,-2.14,-6.35,-1.16
290,1747402580920,0.97,-0.14,0.17,-2.14,-6.35,-1.16
291,1747402580930,0.99,-0.135,0.18,0.24,-6.225,-1.19
292,1747402580940,1.01,-0.13,0.19,2.62,-6.1,-1.22
293,1747402580950,1.01,-0.13,0.19,2.62,-6.1,-1.22
294,1747402580960,1.01,-0.13,0.19,2.62,-6.1,-1.22
295,1747402580970,1.03,-0.11,0.22,2.32,1.53,0.31
296,1747402580980,1.03,-0.11,0.22,2.32,1.53,0.31
297,1747402580990,1.03,-0.11,0.22,2.32,1.53,0.31
298,1747402581000,1.03,-0.11,0.22,2.32,1.53,0.31
299,1747402581010,1.03,-0.12,0.23,-3.54,3.85,1.16
300,1747402581020,1.03,-0.12,0.23,-3.54,3.85,1.16
301,1747402581030,1.03,-0.12,0.23,-3.54,3.85,1.16
302,1747402581040,1.01,-0.13,0.21,-5.07,1.71,2.32
303,1747402581050,1.01,-0.13,0.21,-5.07,1.71,2.32
304,1747402581060,1.01,-0.13,0.21,-5.07,1.71,2.32
305,1747402581070,1.015,-0.135,0.2,-4.945,0.125,1.86
306,1747402581080,1.02,-0.14,0.19,-4.82,-1.46,1.4
307,1747402581090,1.02,-0.14,0.19,-4.82,-1.46,1.4
308,1747402581100,1.02,-0.14,0.19,-4.82,-1.46,1.4
309,1747402581110,1.02,-0.14,0.19,-4.82,-1.46,1.4
310,1747402581120,1.1,-0.13,0.22,-2.2,-2.99,8.67
311,1747402581130,1.1,-0.13,0.22,-2.2,-2.99,8.67
312,1747402581140,1.1,-0.13,0.22,-2.2,-2.99,8.67
313,1747402581150,1.12,-0.15,0.23,-6.65,-4.39,15.75
314,1747402581160,1.12,-0.15,0.23,-6.65,-4.39,15.75
315,1747402581170,1.12,-0.15,0.23,-6.65,-4.39,15.75
316,1747402581180,1.12,-0.15,0.23,-6.65,-4.39,15.75
317,1747402581190,1.15,-0.16,0.21,-7.63,-2.225,21.12
318,1747402581200,1.15,-0.16,0.21,-8.61,-0.06,26.49
319,1747402581210,1.15,-0.16,0.21,-8.61,-0.06,26.49
320,1747402581220,1.15,-0.16,0.21,-8.61,-0.06,26.49
321,1747402581230,1.15,-0.17,0.2,-8.48,-15.87,37.29
322,1747402581240,1.15,-0.17,0.2,-8.48,-15.87,37.29
323,1747402581250,1.15,-0.17,0.2,-8.48,-15.87,37.29
324,1747402581260,1.18,-0.21,0.18,-8.48,-15.87,37.29
325,1747402581270,1.18,-0.21,0.18,-12.08,-19.84,49.13
326,1747402581280,1.18,-0.21,0.18,-12.08,-19.84,49.13
327,1747402581290,1.18,-0.21,0.18,-12.08,-19.84,49.13
328,1747402581300,1.1749999999999998,-0.22,0.18,-11.99,-14.07,52.06
329,1747402581310,1.17,-0.23,0.18,-11.9,-8.3,54.99
330,1747402581320,1.17,-0.23,0.18,-11.9,-8.3,54.99
331,1747402581330,1.17,-0.23,0.18,-11.9,-8.3,54.99
332,1747402581340,1.17,-0.23,0.18,-11.9,-8.3,54.99
333,1747402581350,1.15,-0.24,0.18,-11.47,-11.6,69.4
334,1747402581360,1.15,-0.24,0.18,-11.47,-11.6,69.4
335,1747402581370,1.15,-0.24,0.18,-11.47,-11.6,69.4
336,1747402581380,1.13,-0.3,0.17,-14.77,-5.13,86.98
337,1747402581390,1.13,-0.3,0.17,-14.77,-5.13,86.98
338,1747402581400,1.13,-0.3,0.17,-14.77,-5.13,86.98
339,1747402581410,1.13,-0.3,0.17,-14.77,-5.13,86.98
340,1747402581420,1.02,-0.32,0.15,-17.64,25.15,91.31
341,1747402581430,1.02,-0.32,0.15,-17.64,25.15,91.31
342,1747402581440,1.02,-0.32,0.15,-17.64,25.15,91.31
343,1747402581450,1.02,-0.32,0.15,-17.64,25.15,91.31
344,1747402581460,0.93,-0.37,0.15,-21.73,12.33,102.97
345,1747402581470,0.93,-0.37,0.15,-21.73,12.33,102.97
346,1747402581480,0.93,-0.37,0.15,-21.73,12.33,102.97
347,1747402581490,0.895,-0.4,0.145,-21.3,6.135,106.785
348,1747402581500,0.86,-0.43,0.14,-20.87,-0.06,110.6
349,1747402581510,0.86,-0.43,0.14,-20.87,-0.06,110.6
350,1747402581520,0.86,-0.43,0.14,-20.87,-0.06,110.6
351,1747402581530,0.86,-0.43,0.14,-20.87,-0.06,110.6
352,1747402581540,0.8,-0.48,0.14,-18.31,8.67,106.63
353,1747402581550,0.8,-0.48,0.14,-18.31,8.67,106.63
354,1747402581560,0.8,-0.48,0.14,-18.31,8.67,106.63
355,1747402581570,0.76,-0.505,0.135,-18.19,8.64,106.08
356,1747402581580,0.72,-0.53,0.13,-18.07,8.61,105.53
357,1747402581590,0.72,-0.53,0.13,-18.07,8.61,105.53
358,1747402581600,0.72,-0.53,0.13,-18.07,8.61,105.53
359,1747402581610,0.68,-0.58,0.13,-18.31,5.55,100.22
360,1747402581620,0.68,-0.58,0.13,-18.31,5.55,100.22
361,1747402581630,0.68,-0.58,0.13,-18.31,5.55,100.22
362,1747402581640,0.68,-0.58,0.13,-18.31,5.55,100.22
363,1747402581650,0.63,-0.63,0.14,-18.25,-5.8,98.45
364,1747402581660,0.63,-0.63,0.14,-18.25,-5.8,98.45
365,1747402581670,0.63,-0.63,0.14,-18.25,-5.8,98.45
366,1747402581680,0.63,-0.63,0.14,-18.25,-5.8,98.45
367,1747402581690,0.58,-0.69,0.11,-20.75,-9.64,97.72
368,1747402581700,0.58,-0.69,0.11,-20.75,-9.64,97.72
369,1747402581710,0.58,-0.69,0.11,-20.75,-9.64,97.72
370,1747402581720,0.58,-0.69,0.11,-20.75,-9.64,97.72
371,1747402581730,0.53,-0.72,0.09,-18.675,-6.07,97.045
372,1747402581740,0.53,-0.72,0.09,-16.6,-2.5,96.37
373,1747402581750,0.53,-0.72,0.09,-16.6,-2.5,96.37
374,1747402581760,0.505,-0.75,0.08,-17.21,-1.645,92.285
375,1747402581770,0.48,-0.78,0.07,-17.82,-0.79,88.2
376,1747402581780,0.48,-0.78,0.07,-17.82,-0.79,88.2
377,1747402581790,0.48,-0.78,0.07,-17.82,-0.79,88.2
378,1747402581800,0.42,-0.81,0.06,-15.805,-5.369999999999999,83.955
379,1747402581810,0.42,-0.81,0.06,-13.79,-9.95,79.71
380,1747402581820,0.42,-0.81,0.06,-13.79,-9.95,79.71
381,1747402581830,0.42,-0.81,0.06,-13.79,-9.95,79.71
382,1747402581840,0.41,-0.85,0.06,-9.4,-23.62,82.28
383,1747402581850,0.41,-0.85,0.06,-9.4,-23.62,82.28
384,1747402581860,0.41,-0.85,0.06,-9.4,-23.62,82.28
385,1747402581870,0.385,-0.86,0.06,-9.52,-17.240000000000002,78.065
386,1747402581880,0.36,-0.87,0.06,-9.64,-10.86,73.85
387,1747402581890,0.36,-0.87,0.06,-9.64,-10.86,73.85
388,1747402581900,0.36,-0.87,0.06,-9.64,-10.86,73.85
389,1747402581910,0.36,-0.87,0.06,-9.64,-10.86,73.85
390,1747402581920,0.33,-0.9,0.06,-8.54,5.13,67.08
391,1747402581930,0.33,-0.9,0.06,-8.54,5.13,67.08
392,1747402581940,0.33,-0.9,0.06,-8.54,5.13,67.08
393,1747402581950,0.33,-0.9,0.06,-8.54,5.13,67.08
394,1747402581960,0.32,-0.91,0.09,-9.83,-12.33,70.74
395,1747402581970,0.32,-0.91,0.09,-9.83,-12.33,70.74
396,1747402581980,0.32,-0.91,0.09,-9.83,-12.33,70.74
397,1747402581990,0.32,-0.91,0.09,-9.83,-12.33,70.74
398,1747402582000,0.31,-0.94,0.07,-17.03,-18.68,76.17
399,1747402582010,0.31,-0.94,0.07,-17.03,-18.68,76.17
400,1747402582020,0.31,-0.94,0.07,-17.03,-18.68,76.17
401,1747402582030,0.23,-0.95,0.03,-17.33,-3.42,81.91
402,1747402582040,0.23,-0.95,0.03,-17.33,-3.42,81.91
403,1747402582050,0.23,-0.95,0.03,-17.33,-3.42,81.91
404,1747402582060,0.23,-0.95,0.03,-17.33,-3.42,81.91
405,1747402582070,0.12,-0.95,0.01,-15.81,13.55,77.94
406,1747402582080,0.12,-0.95,0.01,-15.81,13.55,77.94
407,1747402582090,0.12,-0.95,0.01,-15.81,13.55,77.94
408,1747402582100,0.075,-0.96,-0.015,-19.075,10.53,80.475
409,1747402582110,0.03,-0.97,-0.04,-22.34,7.51,83.01
410,1747402582120,0.03,-0.97,-0.04,-22.34,7.51,83.01
411,1747402582130,0.03,-0.97,-0.04,-22.34,7.51,83.01
412,1747402582140,-0.045,-0.96,-0.035,-17.245,0.52,75.135
413,1747402582150,-0.12,-0.95,-0.03,-12.15,-6.47,67.26
414,1747402582160,-0.12,-0.95,-0.03,-12.15,-6.47,67.26
415,1747402582170,-0.12,-0.95,-0.03,-12.15,-6.47,67.26
416,1747402582180,-0.12,-0.95,-0.03,-12.15,-6.47,67.26
417,1747402582190,-0.12,-0.95,-0.03,-12.15,-6.47,67.26
418,1747402582200,-0.06,-0.96,-0.02,-4.46,5.92,44.92
419,1747402582210,-0.06,-0.96,-0.02,-4.46,5.92,44.92
420,1747402582220,-0.14,-0.97,0.02,0.0899999999999998,8.455,34.97
421,1747402582230,-0.14,-0.97,0.02,4.64,10.99,25.02
422,1747402582240,-0.14,-0.97,0.02,4.64,10.99,25.02
423,1747402582250,-0.14,-0.97,0.02,4.64,10.99,25.02
424,1747402582260,-0.14,-0.965,0.03,2.29,-0.6699999999999999,15.56
425,1747402582270,-0.14,-0.96,0.04,-0.06,-12.33,6.1
426,1747402582280,-0.14,-0.96,0.04,-0.06,-12.33,6.1
427,1747402582290,-0.14,-0.96,0.04,-0.06,-12.33,6.1
428,1747402582300,-0.04,-0.99,0.04,-5.0,-6.35,-3.3
429,1747402582310,-0.04,-0.99,0.04,-5.0,-6.35,-3.3
430,1747402582320,-0.04,-0.99,0.04,-5.0,-6.35,-3.3
431,1747402582330,-0.02,-0.985,0.04,-3.2,-2.41,-6.32
432,1747402582340,0.0,-0.98,0.04,-1.4,1.53,-9.34
433,1747402582350,0.0,-0.98,0.04,-1.4,1.53,-9.34
434,1747402582360,0.0,-0.98,0.04,-1.4,1.53,-9.34
435,1747402582370,0.025,-1.0,0.025,-5.825,-0.7599999999999999,-6.96
436,1747402582380,0.05,-1.02,0.01,-10.25,-3.05,-4.58
437,1747402582390,0.05,-1.02,0.01,-10.25,-3.05,-4.58
438,1747402582400,0.05,-1.02,0.01,-10.25,-3.05,-4.58
439,1747402582410,0.0,-1.02,-0.02,-5.86,4.33,-0.55
440,1747402582420,0.0,-1.02,-0.02,-5.86,4.33,-0.55
441,1747402582430,0.0,-1.02,-0.02,-5.86,4.33,-0.55
442,1747402582440,0.0,-1.02,-0.02,-5.86,4.33,-0.55
443,1747402582450,0.05,-1.01,0.0,-2.01,3.11,0.73
444,1747402582460,0.05,-1.01,0.0,-2.01,3.11,0.73
445,1747402582470,0.05,-1.01,0.0,-2.01,3.11,0.73
446,1747402582480,0.02,-1.0,0.0,-2.805,2.715,3.815
447,1747402582490,-0.01,-0.99,0.0,-3.6,2.32,6.9
448,1747402582500,-0.01,-0.99,0.0,-3.6,2.32,6.9
449,1747402582510,-0.01,-0.99,0.0,-3.6,2.32,6.9
450,1747402582520,-0.03,-0.99,0.01,-3.6,2.32,6.9
451,1747402582530,-0.03,-0.99,0.01,-0.18,2.01,-4.03
452,1747402582540,-0.03,-0.99,0.01,-0.18,2.01,-4.03
453,1747402582550,-0.03,-0.99,0.01,-0.18,2.01,-4.03
454,1747402582560,0.0,-0.985,0.02,-1.16,-1.835,-4.0
455,1747402582570,0.03,-0.98,0.03,-2.14,-5.68,-3.97
456,1747402582580,0.03,-0.98,0.03,-2.14,-5.68,-3.97
457,1747402582590,0.03,-0.98,0.03,-2.14,-5.68,-3.97
458,1747402582600,0.01,-1.0,0.02,-2.14,-5.68,-3.97
459,1747402582610,0.01,-1.0,0.02,-2.14,-5.68,-3.97
460,1747402582620,0.01,-1.0,0.02,-5.86,1.65,-7.87
461,1747402582630,0.04,-1.0,0.02,-8.36,3.66,-11.17
462,1747402582640,0.04,-1.0,0.02,-8.36,3.66,-11.17
463,1747402582650,0.04,-1.0,0.02,-8.36,3.66,-11.17
464,1747402582660,0.04,-1.0,0.02,-8.36,3.66,-11.17
465,1747402582670,0.04,-1.02,-0.03,-4.7,7.2,-2.81
466,1747402582680,0.04,-1.02,-0.03,-4.7,7.2,-2.81
467,1747402582690,0.04,-1.02,-0.03,-4.7,7.2,-2.81
468,1747402582700,0.04,-1.02,-0.03,-4.7,7.2,-2.81
469,1747402582710,-0.02,-1.0,-0.04,1.59,14.22,-3.97
470,1747402582720,-0.02,-1.0,-0.04,1.59,14.22,-3.97
471,1747402582730,-0.02,-1.0,-0.04,1.59,14.22,-3.97
472,1747402582740,-0.14,-0.97,-0.04,8.06,21.42,-13.43
473,1747402582750,-0.14,-0.97,-0.04,8.06,21.42,-13.43
474,1747402582760,-0.14,-0.97,-0.04,8.06,21.42,-13.43
475,1747402582770,-0.14,-0.97,-0.04,8.06,21.42,-13.43
476,1747402582780,-0.23,-0.93,-0.02,16.48,34.24,-33.94
477,1747402582790,-0.23,-0.93,-0.02,16.48,34.24,-33.94
478,1747402582800,-0.23,-0.93,-0.02,16.48,34.24,-33.94
479,1747402582810,-0.23,-0.93,-0.02,16.48,34.24,-33.94
480,1747402582820,-0.22,-0.905,0.015,19.745,18.31,-48.615
481,1747402582830,-0.21,-0.88,0.05,23.01,2.38,-63.29
482,1747402582840,-0.21,-0.88,0.05,23.01,2.38,-63.29
483,1747402582850,-0.0999999999999999,-0.875,0.065,23.01,2.38,-63.29
484,1747402582860,0.01,-0.87,0.08,18.68,-35.52,-81.54
485,1747402582870,0.01,-0.87,0.08,18.68,-35.52,-81.54
486,1747402582880,0.01,-0.87,0.08,18.68,-35.52,-81.54
487,1747402582890,0.085,-0.875,0.075,17.46,-13.885000000000002,-83.16
488,1747402582900,0.16,-0.88,0.07,16.24,7.75,-84.78
489,1747402582910,0.16,-0.88,0.07,16.24,7.75,-84.78
490,1747402582920,0.16,-0.88,0.07,16.24,7.75,-84.78
491,1747402582930,0.16,-0.88,0.07,16.24,7.75,-84.78
492,1747402582940,0.15,-0.86,0.09,18.25,23.19,-100.04
493,1747402582950,0.15,-0.86,0.09,18.25,23.19,-100.04
494,1747402582960,0.15,-0.86,0.09,18.25,23.19,-100.04
495,1747402582970,0.2249999999999999,-0.86,0.08,12.48,2.01,-103.425
496,1747402582980,0.3,-0.86,0.07,6.71,-19.17,-106.81
497,1747402582990,0.3,-0.86,0.07,6.71,-19.17,-106.81
498,1747402583000,0.3,-0.86,0.07,6.71,-19.17,-106.81
499,1747402583010,0.42,-0.85,0.08,15.87,20.2,-100.46
500,1747402583020,0.42,-0.85,0.08,15.87,20.2,-100.46
501,1747402583030,0.42,-0.85,0.08,15.87,20.2,-100.46
502,1747402583040,0.42,-0.85,0.08,15.87,20.2,-100.46
503,1747402583050,0.42,-0.78,0.12,12.36,8.665,-106.015
504,1747402583060,0.42,-0.78,0.12,8.85,-2.87,-111.57
505,1747402583070,0.42,-0.78,0.12,8.85,-2.87,-111.57
506,1747402583080,0.42,-0.78,0.12,8.85,-2.87,-111.57
507,1747402583090,0.6,-0.81,0.08,7.14,-14.28,-95.15
508,1747402583100,0.6,-0.81,0.08,7.14,-14.28,-95.15
509,1747402583110,0.6,-0.81,0.08,7.14,-14.28,-95.15
510,1747402583120,0.6,-0.81,0.08,7.14,-14.28,-95.15
511,1747402583130,0.52,-0.7,0.14,13.43,7.39,-107.54
512,1747402583140,0.52,-0.7,0.14,13.43,7.39,-107.54
513,1747402583150,0.52,-0.7,0.14,13.43,7.39,-107.54
514,1747402583160,0.52,-0.7,0.14,13.43,7.39,-107.54
515,1747402583170,0.75,-0.68,0.15,-3.17,-46.51,-100.28
516,1747402583180,0.75,-0.68,0.15,-3.17,-46.51,-100.28
517,1747402583190,0.75,-0.68,0.15,-3.17,-46.51,-100.28
518,1747402583200,0.75,-0.68,0.15,-3.17,-46.51,-100.28
519,1747402583210,0.64,-0.7,0.07,0.37,16.78,-91.13
520,1747402583220,0.64,-0.7,0.07,0.37,16.78,-91.13
521,1747402583230,0.64,-0.7,0.07,0.37,16.78,-91.13
522,1747402583240,0.69,-0.6499999999999999,0.1,-0.3949999999999999,5.58,-104.005
523,1747402583250,0.74,-0.6,0.13,-1.16,-5.62,-116.88
524,1747402583260,0.74,-0.6,0.13,-1.16,-5.62,-116.88
525,1747402583270,0.74,-0.6,0.13,-1.16,-5.62,-116.88
526,1747402583280,0.95,-0.61,0.1,7.69,-9.89,-91.31
527,1747402583290,0.95,-0.61,0.1,7.69,-9.89,-91.31
528,1747402583300,0.95,-0.61,0.1,7.69,-9.89,-91.31
529,1747402583310,0.95,-0.61,0.1,7.69,-9.89,-91.31
530,1747402583320,0.8899999999999999,-0.5700000000000001,0.11,6.745,6.895,-96.01
531,1747402583330,0.83,-0.53,0.12,5.8,23.68,-100.71
532,1747402583340,0.83,-0.53,0.12,5.8,23.68,-100.71
533,1747402583350,0.83,-0.53,0.12,5.8,23.68,-100.71
534,1747402583360,1.04,-0.5,0.12,6.1,-20.75,-79.1
535,1747402583370,1.04,-0.5,0.12,6.1,-20.75,-79.1
536,1747402583380,1.04,-0.5,0.12,6.1,-20.75,-79.1
537,1747402583390,1.04,-0.5,0.12,6.1,-20.75,-79.1
538,1747402583400,0.94,-0.47,0.12,13.73,22.09,-71.04
539,1747402583410,0.94,-0.47,0.12,13.73,22.09,-71.04
540,1747402583420,0.94,-0.47,0.12,13.73,22.09,-71.04
541,1747402583430,0.95,-0.4449999999999999,0.1149999999999999,10.465,9.825,-75.775
542,1747402583440,0.96,-0.42,0.11,7.2,-2.44,-80.51
543,1747402583450,0.96,-0.42,0.11,7.2,-2.44,-80.51
544,1747402583460,0.96,-0.42,0.11,7.2,-2.44,-80.51
545,1747402583470,1.04,-0.395,0.12,12.36,-4.15,-69.245
546,1747402583480,1.12,-0.37,0.13,17.52,-5.86,-57.98
547,1747402583490,1.12,-0.37,0.13,17.52,-5.86,-57.98
548,1747402583500,1.12,-0.37,0.13,17.52,-5.86,-57.98
549,1747402583510,1.05,-0.36,0.14,12.145,2.3799999999999994,-61.42999999999999
550,1747402583520,0.98,-0.35,0.15,6.77,10.62,-64.88
551,1747402583530,0.98,-0.35,0.15,6.77,10.62,-64.88
552,1747402583540,0.98,-0.35,0.15,6.77,10.62,-64.88
553,1747402583550,1.08,-0.32,0.17,10.13,-7.87,-51.88
554,1747402583560,1.08,-0.32,0.17,10.13,-7.87,-51.88
555,1747402583570,1.08,-0.32,0.17,10.13,-7.87,-51.88
556,1747402583580,1.08,-0.305,0.175,9.52,-8.025,-46.995000000000005
557,1747402583590,1.08,-0.29,0.18,8.91,-8.18,-42.11
558,1747402583600,1.08,-0.29,0.18,8.91,-8.18,-42.11
559,1747402583610,1.08,-0.29,0.18,8.91,-8.18,-42.11
560,1747402583620,1.08,-0.29,0.18,8.91,-8.18,-42.11
561,1747402583630,1.09,-0.29,0.16,8.91,-8.18,-42.11
562,1747402583640,1.09,-0.29,0.16,3.2350000000000003,-6.32,-41.195
563,1747402583650,1.0750000000000002,-0.29,0.15,-0.245,-5.404999999999999,-32.715
564,1747402583660,1.06,-0.29,0.14,1.95,-6.35,-25.15
565,1747402583670,1.06,-0.29,0.14,1.95,-6.35,-25.15
566,1747402583680,1.06,-0.29,0.14,1.95,-6.35,-25.15
567,1747402583690,1.06,-0.25,0.14,2.865,-2.1049999999999995,-27.345
568,1747402583700,1.06,-0.25,0.14,3.78,2.14,-29.54
569,1747402583710,1.06,-0.25,0.14,3.78,2.14,-29.54
570,1747402583720,1.06,-0.25,0.14,3.78,2.14,-29.54
571,1747402583730,1.12,-0.22,0.18,-2.2,-12.76,-21.42
572,1747402583740,1.12,-0.22,0.18,-2.2,-12.76,-21.42
573,1747402583750,1.12,-0.22,0.18,-2.2,-12.76,-21.42
574,1747402583760,1.1150000000000002,-0.225,0.1649999999999999,-2.2,-12.76,-21.42
575,1747402583770,1.11,-0.23,0.15,-5.55,-1.77,-7.75
576,1747402583780,1.11,-0.23,0.15,-5.55,-1.77,-7.75
577,1747402583790,1.11,-0.23,0.15,-5.55,-1.77,-7.75
578,1747402583800,1.11,-0.23,0.15,-5.55,-1.77,-7.75
579,1747402583810,1.02,-0.23,0.11,-8.67,4.58,-6.29
580,1747402583820,1.02,-0.23,0.11,-8.67,4.58,-6.29
581,1747402583830,1.02,-0.23,0.11,-8.67,4.58,-6.29
582,1747402583840,1.03,-0.23,0.095,-7.48,-0.395,-2.475
583,1747402583850,1.04,-0.23,0.08,-6.29,-5.37,1.34
584,1747402583860,1.04,-0.23,0.08,-6.29,-5.37,1.34
585,1747402583870,1.04,-0.23,0.08,-6.29,-5.37,1.34
586,1747402583880,1.02,-0.21,0.1,-6.29,-5.37,1.34
587,1747402583890,1.02,-0.21,0.1,-3.17,4.88,0.73
588,1747402583900,1.02,-0.21,0.1,-3.17,4.88,0.73
589,1747402583910,1.02,-0.21,0.1,-3.17,4.88,0.73
590,1747402583920,1.0,-0.21,0.12,-3.265,2.045,1.675
591,1747402583930,1.0,-0.21,0.12,-3.36,-0.79,2.62
592,1747402583940,1.0,-0.21,0.12,-3.36,-0.79,2.62
593,1747402583950,1.0,-0.21,0.12,-3.36,-0.79,2.62
594,1747402583960,0.99,-0.2,0.12,-3.42,-1.4,3.48
595,1747402583970,0.99,-0.2,0.12,-3.42,-1.4,3.48
596,1747402583980,0.99,-0.2,0.12,-3.42,-1.4,3.48
597,1747402583990,0.97,-0.2,0.12,-3.42,-1.4,3.48
598,1747402584000,0.95,-0.2,0.12,-5.74,-0.49,0.55
599,1747402584010,0.95,-0.2,0.12,-5.74,-0.49,0.55
600,1747402584020,0.95,-0.2,0.12,-5.74,-0.49,0.55
601,1747402584030,0.955,-0.2,0.1149999999999999,-5.74,-0.49,0.55
602,1747402584040,0.96,-0.2,0.11,-5.25,-9.52,0.12
603,1747402584050,0.96,-0.2,0.11,-5.25,-9.52,0.12
604,1747402584060,0.99,-0.2,0.105,-4.12,-6.5,0.09
605,1747402584070,1.02,-0.2,0.1,-2.99,-3.48,0.06
606,1747402584080,1.02,-0.2,0.1,-2.99,-3.48,0.06
607,1747402584090,1.02,-0.2,0.1,-2.99,-3.48,0.06
608,1747402584100,1.01,-0.205,0.1,-2.715,0.885,-0.06
609,1747402584110,1.0,-0.21,0.1,-2.44,5.25,-0.18
610,1747402584120,1.0,-0.21,0.1,-2.44,5.25,-0.18
611,1747402584130,1.0,-0.21,0.1,-2.44,5.25,-0.18
612,1747402584140,1.01,-0.21,0.11,-1.89,1.65,0.8250000000000001
613,1747402584150,1.01,-0.21,0.11,-1.34,-1.95,1.83
614,1747402584160,1.01,-0.21,0.11,-1.34,-1.95,1.83
615,1747402584170,1.01,-0.21,0.11,-1.34,-1.95,1.83
616,1747402584180,1.05,-0.23,0.1,-3.42,-3.78,3.72
617,1747402584190,1.05,-0.23,0.1,-3.42,-3.78,3.72
618,1747402584200,1.05,-0.23,0.1,-3.42,-3.78,3.72
619,1747402584210,1.0550000000000002,-0.23,0.11,-3.665,0.215,4.575
620,1747402584220,1.06,-0.23,0.12,-3.91,4.21,5.43
621,1747402584230,1.06,-0.23,0.12,-3.91,4.21,5.43
622,1747402584240,1.06,-0.23,0.12,-3.91,4.21,5.43
623,1747402584250,1.1,-0.24,0.12,-3.91,4.21,5.43
624,1747402584260,1.1,-0.24,0.12,-4.64,1.95,11.6
625,1747402584270,1.1,-0.24,0.12,-4.64,1.95,11.6
626,1747402584280,1.1,-0.24,0.12,-4.64,1.95,11.6
627,1747402584290,1.12,-0.245,0.12,-3.935,4.85,15.445
628,1747402584300,1.14,-0.25,0.12,-3.23,7.75,19.29
629,1747402584310,1.14,-0.25,0.12,-3.23,7.75,19.29
630,1747402584320,1.14,-0.25,0.12,-3.23,7.75,19.29
631,1747402584330,1.14,-0.26,0.13,-1.95,12.02,28.02
632,1747402584340,1.14,-0.26,0.13,-1.95,12.02,28.02
633,1747402584350,1.14,-0.26,0.13,-1.95,12.02,28.02
634,1747402584360,1.14,-0.26,0.13,-1.95,12.02,28.02
635,1747402584370,1.15,-0.27,0.16,-6.35,4.76,39.55
636,1747402584380,1.15,-0.27,0.16,-6.35,4.76,39.55
637,1747402584390,1.15,-0.27,0.16,-6.35,4.76,39.55
638,1747402584400,1.145,-0.28,0.16,-6.35,4.76,39.55
639,1747402584410,1.14,-0.29,0.16,-12.21,3.23,49.8
640,1747402584420,1.14,-0.29,0.16,-12.21,3.23,49.8
641,1747402584430,1.14,-0.29,0.16,-12.21,3.23,49.8
642,1747402584440,1.14,-0.29,0.16,-12.21,3.23,49.8
643,1747402584450,1.12,-0.33,0.13,-17.58,-2.87,60.67
644,1747402584460,1.12,-0.33,0.13,-17.58,-2.87,60.67
645,1747402584470,1.12,-0.335,0.12,-15.93,-0.03,65.55000000000001
646,1747402584480,1.12,-0.34,0.11,-14.28,2.81,70.43
647,1747402584490,1.12,-0.34,0.11,-14.28,2.81,70.43
648,1747402584500,1.12,-0.34,0.11,-14.28,2.81,70.43
649,1747402584510,1.1,-0.355,0.12,-14.34,7.0200000000000005,74.765
650,1747402584520,1.08,-0.37,0.13,-14.4,11.23,79.1
651,1747402584530,1.08,-0.37,0.13,-14.4,11.23,79.1
652,1747402584540,1.08,-0.37,0.13,-14.4,11.23,79.1
653,1747402584550,1.06,-0.39,0.13,-14.77,10.56,87.675
654,1747402584560,1.04,-0.41,0.13,-15.14,9.89,96.25
655,1747402584570,1.04,-0.41,0.13,-15.14,9.89,96.25
656,1747402584580,1.04,-0.41,0.13,-15.14,9.89,96.25
657,1747402584590,0.92,-0.45,0.12,-17.27,10.13,105.83
658,1747402584600,0.92,-0.45,0.12,-17.27,10.13,105.83
659,1747402584610,0.92,-0.45,0.12,-17.27,10.13,105.83
660,1747402584620,0.92,-0.45,0.12,-17.27,10.13,105.83
661,1747402584630,0.86,-0.5,0.11,-15.69,4.52,109.86
662,1747402584640,0.86,-0.5,0.11,-15.69,4.52,109.86
663,1747402584650,0.86,-0.5,0.11,-15.69,4.52,109.86
664,1747402584660,0.8,-0.52,0.1,-15.9,2.14,114.59
665,1747402584670,0.74,-0.54,0.09,-16.11,-0.24,119.32
666,1747402584680,0.74,-0.54,0.09,-16.11,-0.24,119.32
667,1747402584690,0.74,-0.54,0.09,-16.11,-0.24,119.32
668,1747402584700,0.71,-0.5700000000000001,0.08,-15.775,-0.365,118.65
669,1747402584710,0.68,-0.6,0.07,-15.44,-0.49,117.98
670,1747402584720,0.68,-0.6,0.07,-15.44,-0.49,117.98
671,1747402584730,0.68,-0.6,0.07,-15.44,-0.49,117.98
672,1747402584740,0.6,-0.62,0.1,-13.0,4.88,105.1
673,1747402584750,0.6,-0.62,0.1,-13.0,4.88,105.1
674,1747402584760,0.6,-0.62,0.1,-13.0,4.88,105.1
675,1747402584770,0.595,-0.65,0.105,-13.0,4.88,105.1
676,1747402584780,0.59,-0.68,0.11,-21.61,-3.17,99.61
677,1747402584790,0.59,-0.68,0.11,-21.61,-3.17,99.61
678,1747402584800,0.59,-0.68,0.11,-21.61,-3.17,99.61
679,1747402584810,0.59,-0.68,0.11,-21.61,-3.17,99.61
680,1747402584820,0.575,-0.7150000000000001,0.0849999999999999,-21.82,-1.465,97.105
681,1747402584830,0.56,-0.75,0.06,-22.03,0.24,94.6
682,1747402584840,0.56,-0.75,0.06,-22.03,0.24,94.6
683,1747402584850,0.56,-0.75,0.06,-22.03,0.24,94.6
684,1747402584860,0.47,-0.78,0.04,-15.38,8.0,92.83
685,1747402584870,0.47,-0.78,0.04,-15.38,8.0,92.83
686,1747402584880,0.47,-0.78,0.04,-15.38,8.0,92.83
687,1747402584890,0.47,-0.78,0.04,-15.38,8.0,92.83
688,1747402584900,0.39,-0.82,0.04,-10.68,4.64,85.75
689,1747402584910,0.39,-0.82,0.04,-10.68,4.64,85.75
690,1747402584920,0.39,-0.82,0.04,-10.68,4.64,85.75
691,1747402584930,0.37,-0.85,0.04,-9.16,3.6,84.35
692,1747402584940,0.37,-0.85,0.04,-9.16,3.6,84.35
693,1747402584950,0.37,-0.85,0.04,-9.16,3.6,84.35
694,1747402584960,0.37,-0.85,0.04,-9.16,3.6,84.35
695,1747402584970,0.27,-0.86,0.04,-7.93,-0.67,82.21
696,1747402584980,0.27,-0.86,0.04,-7.93,-0.67,82.21
697,1747402584990,0.27,-0.86,0.04,-7.93,-0.67,82.21
698,1747402585000,0.27,-0.86,0.04,-7.93,-0.67,82.21
699,1747402585010,0.23,-0.88,0.04,-10.74,-9.03,70.37
700,1747402585020,0.23,-0.88,0.04,-10.74,-9.03,70.37
701,1747402585030,0.23,-0.88,0.04,-10.74,-9.03,70.37
702,1747402585040,0.23,-0.88,0.04,-10.74,-9.03,70.37
703,1747402585050,0.21,-0.93,0.03,-6.71,-6.53,64.39
704,1747402585060,0.21,-0.93,0.03,-6.71,-6.53,64.39
705,1747402585070,0.21,-0.93,0.03,-6.71,-6.53,64.39
706,1747402585080,0.19,-0.925,0.045,-4.12,-6.99,59.785
707,1747402585090,0.17,-0.92,0.06,-1.53,-7.45,55.18
708,1747402585100,0.17,-0.92,0.06,-1.53,-7.45,55.18
709,1747402585110,0.17,-0.92,0.06,-1.53,-7.45,55.18
710,1747402585120,0.15,-0.94,0.09,-3.575,-7.02,48.1
711,1747402585130,0.15,-0.94,0.09,-5.62,-6.59,41.02
712,1747402585140,0.15,-0.94,0.09,-5.62,-6.59,41.02
713,1747402585150,0.15,-0.94,0.09,-5.62,-6.59,41.02
714,1747402585160,0.16,-0.945,0.1,-5.28,-9.305,34.67
715,1747402585170,0.17,-0.95,0.11,-4.94,-12.02,28.32
716,1747402585180,0.17,-0.95,0.11,-4.94,-12.02,28.32
717,1747402585190,0.17,-0.96,0.1,-7.08,-18.28,32.195
718,1747402585200,0.17,-0.96,0.1,-9.22,-24.54,36.07
719,1747402585210,0.17,-0.96,0.1,-9.22,-24.54,36.07
720,1747402585220,0.17,-0.96,0.1,-9.22,-24.54,36.07
721,1747402585230,0.05,-0.98,0.04,-11.72,-3.66,43.03
722,1747402585240,0.05,-0.98,0.04,-11.72,-3.66,43.03
723,1747402585250,0.05,-0.98,0.04,-11.72,-3.66,43.03
724,1747402585260,0.05,-0.98,0.04,-11.72,-3.66,43.03
725,1747402585270,-0.02,-0.98,-0.02,-13.24,23.25,22.83
726,1747402585280,-0.02,-0.98,-0.02,-13.24,23.25,22.83
727,1747402585290,-0.02,-0.98,-0.02,-13.24,23.25,22.83
728,1747402585300,-0.05,-0.99,-0.02,-10.8,21.82,18.25
729,1747402585310,-0.08,-1.0,-0.02,-8.36,20.39,13.67
730,1747402585320,-0.08,-1.0,-0.02,-8.36,20.39,13.67
731,1747402585330,-0.08,-1.0,-0.02,-8.36,20.39,13.67
732,1747402585340,-0.06,-0.97,-0.02,-0.92,16.3,-3.42
733,1747402585350,-0.06,-0.97,-0.02,-0.92,16.3,-3.42
734,1747402585360,-0.06,-0.97,-0.02,-0.92,16.3,-3.42
735,1747402585370,-0.06,-0.97,-0.02,-0.92,16.3,-3.42
736,1747402585380,0.03,-0.97,0.02,2.01,-7.87,-16.42
737,1747402585390,0.03,-0.97,0.02,2.01,-7.87,-16.42
738,1747402585400,0.03,-0.97,0.02,2.01,-7.87,-16.42
739,1747402585410,0.095,-0.98,0.04,2.01,-7.87,-16.42
740,1747402585420,0.16,-0.99,0.06,7.08,-14.77,-12.51
741,1747402585430,0.16,-0.99,0.06,7.08,-14.77,-12.51
742,1747402585440,0.16,-0.99,0.06,7.08,-14.77,-12.51
743,1747402585450,0.16,-0.99,0.06,7.08,-14.77,-12.51
744,1747402585460,0.18,-0.99,0.06,6.16,0.31,-4.88
745,1747402585470,0.18,-0.99,0.06,6.16,0.31,-4.88
746,1747402585480,0.18,-0.99,0.06,6.16,0.31,-4.88
747,1747402585490,0.16,-1.01,0.06,6.16,0.31,-4.88
748,1747402585500,0.16,-1.01,0.06,4.82,10.07,-3.48
749,1747402585510,0.16,-1.01,0.06,4.82,10.07,-3.48
750,1747402585520,0.16,-1.01,0.06,4.82,10.07,-3.48
751,1747402585530,0.15,-1.01,0.065,3.0500000000000003,4.640000000000001,-0.3349999999999999
752,1747402585540,0.14,-1.01,0.07,1.28,-0.79,2.81
753,1747402585550,0.14,-1.01,0.07,1.28,-0.79,2.81
754,1747402585560,0.14,-1.01,0.07,1.28,-0.79,2.81
755,1747402585570,0.14,-1.01,0.06,1.28,-0.79,2.81
756,1747402585580,0.14,-1.01,0.06,-3.72,-2.56,2.56
757,1747402585590,0.14,-1.01,0.06,-3.72,-2.56,2.56
758,1747402585600,0.14,-1.01,0.06,-3.72,-2.56,2.56
759,1747402585610,0.13,-1.0,0.055,-4.025,-0.305,2.38
760,1747402585620,0.12,-0.99,0.05,-4.33,1.95,2.2
761,1747402585630,0.12,-0.99,0.05,-4.33,1.95,2.2
762,1747402585640,0.12,-0.99,0.05,-4.33,1.95,2.2
763,1747402585650,0.11,-0.99,0.05,-5.62,9.28,-1.53
764,1747402585660,0.11,-0.99,0.05,-5.62,9.28,-1.53
765,1747402585670,0.11,-0.99,0.05,-5.62,9.28,-1.53
766,1747402585680,0.11,-0.99,0.05,-5.62,9.28,-1.53
767,1747402585690,0.11,-0.98,0.07,-1.89,21.97,-9.46
768,1747402585700,0.11,-0.98,0.07,-1.89,21.97,-9.46
769,1747402585710,0.11,-0.98,0.07,-1.89,21.97,-9.46
770,1747402585720,0.12,-0.975,0.065,-3.11,13.245,-7.845000000000001
771,1747402585730,0.13,-0.97,0.06,-4.33,4.52,-6.23
772,1747402585740,0.13,-0.97,0.06,-4.33,4.52,-6.23
773,1747402585750,0.13,-0.97,0.06,-4.33,4.52,-6.23
774,1747402585760,0.14,-0.98,0.05,-4.3,3.97,-5.3100000000000005
775,1747402585770,0.15,-0.99,0.04,-4.27,3.42,-4.39
776,1747402585780,0.15,-0.99,0.04,-4.27,3.42,-4.39
777,1747402585790,0.15,-0.99,0.04,-4.27,3.42,-4.39
778,1747402585800,0.1,-0.99,0.04,-0.98,17.21,-6.9
779,1747402585810,0.1,-0.99,0.04,-0.98,17.21,-6.9
780,1747402585820,0.1,-0.99,0.04,-0.98,17.21,-6.9
781,1747402585830,0.1,-0.99,0.04,-0.98,17.21,-6.9
782,1747402585840,0.06,-0.97,0.04,0.37,21.36,-14.47
783,1747402585850,0.06,-0.97,0.04,0.37,21.36,-14.47
784,1747402585860,0.06,-0.97,0.04,0.37,21.36,-14.47
785,1747402585870,0.06,-0.97,0.04,0.37,21.36,-14.47
786,1747402585880,0.05,-0.97,0.03,-0.73,38.09,-25.51
787,1747402585890,0.05,-0.97,0.03,-0.73,38.09,-25.51
788,1747402585900,0.05,-0.97,0.03,-0.73,38.09,-25.51
789,1747402585910,0.05,-0.96,0.04,6.23,65.43,-41.38
790,1747402585920,0.05,-0.96,0.04,6.23,65.43,-41.38
791,1747402585930,0.05,-0.96,0.04,6.23,65.43,-41.38
792,1747402585940,0.08,-0.945,0.075,9.125,47.85,-50.260000000000005
793,1747402585950,0.11,-0.93,0.11,12.02,30.27,-59.14
794,1747402585960,0.11,-0.93,0.11,12.02,30.27,-59.14
795,1747402585970,0.11,-0.93,0.11,12.02,30.27,-59.14
796,1747402585980,0.25,-0.95,0.1,8.48,-20.02,-47.49
797,1747402585990,0.25,-0.95,0.1,8.48,-20.02,-47.49
798,1747402586000,0.25,-0.95,0.1,8.48,-20.02,-47.49
799,1747402586010,0.25,-0.95,0.1,8.48,-20.02,-47.49
800,1747402586020,0.24,-0.94,0.1,13.73,41.38,-46.81
801,1747402586030,0.24,-0.94,0.1,13.73,41.38,-46.81
802,1747402586040,0.24,-0.94,0.1,13.73,41.38,-46.81
803,1747402586050,0.175,-0.905,0.125,13.73,41.38,-46.81
804,1747402586060,0.11,-0.87,0.15,15.26,49.01,-65.25
805,1747402586070,0.11,-0.87,0.15,15.26,49.01,-65.25
806,1747402586080,0.11,-0.87,0.15,15.26,49.01,-65.25
807,1747402586090,0.16,-0.875,0.13,15.26,49.01,-65.25
808,1747402586100,0.21,-0.88,0.11,0.85,-15.32,-69.52
809,1747402586110,0.21,-0.88,0.11,0.85,-15.32,-69.52
810,1747402586120,0.21,-0.88,0.11,0.85,-15.32,-69.52
811,1747402586130,0.24,-0.87,0.1,5.705,-14.74,-74.435
812,1747402586140,0.27,-0.86,0.09,10.56,-14.16,-79.35
813,1747402586150,0.27,-0.86,0.09,10.56,-14.16,-79.35
814,1747402586160,0.27,-0.86,0.09,10.56,-14.16,-79.35
815,1747402586170,0.315,-0.8200000000000001,0.125,14.345,-27.525,-93.08
816,1747402586180,0.36,-0.78,0.16,18.13,-40.89,-106.81
817,1747402586190,0.36,-0.78,0.16,18.13,-40.89,-106.81
818,1747402586200,0.36,-0.78,0.16,18.13,-40.89,-106.81
819,1747402586210,0.51,-0.74,0.11,7.994999999999999,-45.075,-106.78
820,1747402586220,0.51,-0.74,0.11,-2.14,-49.26,-106.75
821,1747402586230,0.51,-0.74,0.11,-2.14,-49.26,-106.75
822,1747402586240,0.51,-0.74,0.11,-2.14,-49.26,-106.75
823,1747402586250,0.5449999999999999,-0.73,0.095,-2.1100000000000003,-33.94,-112.0
824,1747402586260,0.58,-0.72,0.08,-2.08,-18.62,-117.25
825,1747402586270,0.58,-0.72,0.08,-2.08,-18.62,-117.25
826,1747402586280,0.58,-0.72,0.08,-2.08,-18.62,-117.25
827,1747402586290,0.61,-0.7,0.065,-5.495,-19.29,-113.985
828,1747402586300,0.64,-0.68,0.05,-8.91,-19.96,-110.72
829,1747402586310,0.64,-0.68,0.05,-8.91,-19.96,-110.72
830,1747402586320,0.64,-0.68,0.05,-8.91,-19.96,-110.72
831,1747402586330,0.7,-0.68,-0.01,-7.63,-8.0,-83.13
832,1747402586340,0.7,-0.68,-0.01,-7.63,-8.0,-83.13
833,1747402586350,0.7,-0.68,-0.01,-7.63,-8.0,-83.13
834,1747402586360,0.7,-0.68,-0.01,-7.63,-8.0,-83.13
835,1747402586370,0.69,-0.57,0.05,10.07,8.73,-85.08
836,1747402586380,0.69,-0.57,0.05,10.07,8.73,-85.08
837,1747402586390,0.69,-0.57,0.05,10.07,8.73,-85.08
838,1747402586400,0.7549999999999999,-0.56,0.055,2.745,-4.76,-85.35499999999999
839,1747402586410,0.82,-0.55,0.06,-4.58,-18.25,-85.63
840,1747402586420,0.82,-0.55,0.06,-4.58,-18.25,-85.63
841,1747402586430,0.82,-0.55,0.06,-4.58,-18.25,-85.63
842,1747402586440,0.94,-0.51,0.07,10.19,13.55,-94.48
843,1747402586450,0.94,-0.51,0.07,10.19,13.55,-94.48
844,1747402586460,0.94,-0.51,0.07,10.19,13.55,-94.48
845,1747402586470,0.94,-0.51,0.07,10.19,13.55,-94.48
846,1747402586480,0.99,-0.45,0.14,6.59,6.745,-86.64
847,1747402586490,0.99,-0.45,0.14,2.99,-0.06,-78.8
848,1747402586500,0.99,-0.45,0.14,2.99,-0.06,-78.8
849,1747402586510,0.99,-0.45,0.14,2.99,-0.06,-78.8
850,1747402586520,1.01,-0.51,0.05,2.75,11.84,-60.42
851,1747402586530,1.01,-0.51,0.05,2.75,11.84,-60.42
852,1747402586540,1.01,-0.51,0.05,2.75,11.84,-60.42
853,1747402586550,1.01,-0.51,0.05,2.75,11.84,-60.42
854,1747402586560,0.95,-0.4,0.15,15.32,56.4,-72.75
855,1747402586570,0.95,-0.4,0.15,15.32,56.4,-72.75
856,1747402586580,0.95,-0.4,0.15,15.32,56.4,-72.75
857,1747402586590,0.98,-0.415,0.13,15.32,56.4,-72.75
858,1747402586600,1.01,-0.43,0.11,12.39,-6.59,-55.6
859,1747402586610,1.01,-0.43,0.11,12.39,-6.59,-55.6
860,1747402586620,1.01,-0.43,0.11,12.39,-6.59,-55.6
861,1747402586630,1.01,-0.43,0.11,12.39,-6.59,-55.6
862,1747402586640,1.05,-0.32,0.2,21.73,26.49,-58.72
863,1747402586650,1.05,-0.32,0.2,21.73,26.49,-58.72
864,1747402586660,1.05,-0.32,0.2,21.73,26.49,-58.72
865,1747402586670,1.035,-0.325,0.18,16.055,8.36,-49.870000000000005
866,1747402586680,1.02,-0.33,0.16,10.38,-9.77,-41.02
867,1747402586690,1.02,-0.33,0.16,10.38,-9.77,-41.02
868,1747402586700,1.02,-0.33,0.16,10.38,-9.77,-41.02
869,1747402586710,1.02,-0.33,0.16,10.38,-9.77,-41.02
870,1747402586720,1.05,-0.32,0.17,20.32,27.34,-39.98
871,1747402586730,1.05,-0.32,0.17,20.32,27.34,-39.98
872,1747402586740,1.05,-0.32,0.17,20.32,27.34,-39.98
873,1747402586750,0.93,-0.28,0.17,16.445,19.59,-40.315
874,1747402586760,0.93,-0.28,0.17,12.57,11.84,-40.65
875,1747402586770,0.93,-0.28,0.17,12.57,11.84,-40.65
876,1747402586780,0.93,-0.28,0.17,12.57,11.84,-40.65
877,1747402586790,1.06,-0.25,0.18,20.69,-26.79,-32.53
878,1747402586800,1.06,-0.25,0.18,20.69,-26.79,-32.53
879,1747402586810,1.06,-0.25,0.18,20.69,-26.79,-32.53
880,1747402586820,1.06,-0.25,0.18,20.69,-26.79,-32.53
881,1747402586830,1.02,-0.21,0.21,14.95,5.74,-34.48
882,1747402586840,1.02,-0.21,0.21,14.95,5.74,-34.48
883,1747402586850,1.02,-0.21,0.21,14.95,5.74,-34.48
884,1747402586860,1.02,-0.21,0.21,14.95,5.74,-34.48
885,1747402586870,0.99,-0.21,0.19,10.99,-12.21,-34.12
886,1747402586880,0.99,-0.21,0.19,10.99,-12.21,-34.12
887,1747402586890,0.99,-0.21,0.19,10.99,-12.21,-34.12
888,1747402586900,1.08,-0.16,0.22,11.17,-27.71,-33.69
889,1747402586910,1.08,-0.16,0.22,11.17,-27.71,-33.69
890,1747402586920,1.08,-0.16,0.22,11.17,-27.71,-33.69
891,1747402586930,1.08,-0.16,0.22,11.17,-27.71,-33.69
892,1747402586940,1.16,-0.16,0.21,11.17,-27.71,-33.69
893,1747402586950,1.16,-0.16,0.21,2.56,-24.23,-24.9
894,1747402586960,1.16,-0.16,0.21,2.56,-24.23,-24.9
895,1747402586970,1.16,-0.16,0.21,2.56,-24.23,-24.9
896,1747402586980,1.1,-0.17,0.18,1.31,-12.39,-22.885
897,1747402586990,1.1,-0.17,0.18,0.06,-0.55,-20.87
898,1747402587000,1.1,-0.17,0.18,0.06,-0.55,-20.87
899,1747402587010,1.1,-0.17,0.1699999999999999,0.06,-0.55,-20.87
900,1747402587020,1.1,-0.17,0.16,0.06,-0.55,-20.87
901,1747402587030,,,,,,
902,1747402587040,1.1,-0.17,0.16,-2.44,-6.9,-9.09
903,1747402587050,1.09,-0.17,0.15,-2.44,-6.9,-9.09
904,1747402587060,1.09,-0.17,0.15,-1.65,-7.81,-1.22
905,1747402587070,1.09,-0.17,0.15,-1.65,-7.81,-1.22
906,1747402587080,1.09,-0.17,0.15,-1.65,-7.81,-1.22
907,1747402587090,1.06,-0.17,0.14,-2.535,0.6750000000000003,0.155
908,1747402587100,1.03,-0.17,0.13,-3.42,9.16,1.53
909,1747402587110,1.03,-0.17,0.13,-3.42,9.16,1.53
910,1747402587120,1.03,-0.17,0.13,-3.42,9.16,1.53
911,1747402587130,1.02,-0.165,0.13,-2.2,4.425,2.96
912,1747402587140,1.01,-0.16,0.13,-0.98,-0.31,4.39
913,1747402587150,1.01,-0.16,0.13,-0.98,-0.31,4.39
914,1747402587160,1.01,-0.16,0.13,-0.98,-0.31,4.39
915,1747402587170,1.01,-0.13,0.15,-1.865,0.21,3.935
916,1747402587180,1.01,-0.13,0.15,-2.75,0.73,3.48
917,1747402587190,1.01,-0.13,0.15,-2.75,0.73,3.48
918,1747402587200,1.01,-0.13,0.15,-2.75,0.73,3.48
919,1747402587210,0.99,-0.14,0.13,-2.87,2.105,3.695
920,1747402587220,0.99,-0.14,0.13,-2.99,3.48,3.91
921,1747402587230,0.99,-0.14,0.13,-2.99,3.48,3.91
922,1747402587240,0.985,-0.135,0.13,-2.99,3.48,3.91
923,1747402587250,0.98,-0.13,0.13,-1.16,1.59,0.85
924,1747402587260,0.98,-0.13,0.13,-1.16,1.59,0.85
925,1747402587270,0.98,-0.13,0.13,-1.16,1.59,0.85
926,1747402587280,0.98,-0.13,0.13,-1.16,1.59,0.85
927,1747402587290,0.99,-0.13,0.15,-2.08,1.89,0.98
928,1747402587300,0.99,-0.13,0.15,-2.08,1.89,0.98
929,1747402587310,0.99,-0.13,0.15,-2.08,1.89,0.98
930,1747402587320,0.995,-0.135,0.14,-2.385,0.945,1.255
931,1747402587330,1.0,-0.14,0.13,-2.69,0.0,1.53
932,1747402587340,1.0,-0.14,0.13,-2.69,0.0,1.53
933,1747402587350,1.0,-0.14,0.13,-2.69,0.0,1.53
934,1747402587360,1.0,-0.145,0.13,-1.59,-0.06,2.415
935,1747402587370,1.0,-0.15,0.13,-0.49,-0.12,3.3
936,1747402587380,1.0,-0.15,0.13,-0.49,-0.12,3.3
937,1747402587390,1.0,-0.15,0.13,-0.49,-0.12,3.3
938,1747402587400,1.01,-0.15,0.14,-1.59,1.28,2.38
939,1747402587410,1.01,-0.15,0.14,-1.59,1.28,2.38
940,1747402587420,1.01,-0.15,0.14,-1.59,1.28,2.38
941,1747402587430,1.01,-0.15,0.14,-1.59,1.28,2.38
942,1747402587440,1.02,-0.14,0.15,-0.49,-2.56,3.97
943,1747402587450,1.02,-0.14,0.15,-0.49,-2.56,3.97
944,1747402587460,1.02,-0.14,0.15,-0.49,-2.56,3.97
945,1747402587470,1.02,-0.14,0.15,-0.49,-2.56,3.97
946,1747402587480,1.04,-0.16,0.15,-1.04,-2.26,6.41
947,1747402587490,1.04,-0.16,0.15,-1.04,-2.26,6.41
948,1747402587500,1.04,-0.16,0.15,-1.04,-2.26,6.41
949,1747402587510,1.04,-0.16,0.15,-1.04,-2.26,6.41
950,1747402587520,1.04,-0.16,0.15,-2.5,4.82,6.96
951,1747402587530,1.04,-0.16,0.15,-2.5,4.82,6.96
952,1747402587540,1.04,-0.16,0.15,-2.5,4.82,6.96
953,1747402587550,1.08,-0.15,0.14,-2.5,4.82,6.96
954,1747402587560,1.08,-0.15,0.14,-3.48,-3.97,11.47
955,1747402587570,1.08,-0.15,0.14,-3.48,-3.97,11.47
956,1747402587580,1.08,-0.15,0.14,-3.48,-3.97,11.47
957,1747402587590,1.15,-0.16,0.16,-3.17,8.61,17.76
958,1747402587600,1.15,-0.16,0.16,-3.17,8.61,17.76
959,1747402587610,1.15,-0.16,0.16,-3.17,8.61,17.76
960,1747402587620,1.15,-0.16,0.16,-3.17,8.61,17.76
961,1747402587630,1.08,-0.2,0.15,-4.82,15.5,26.43
962,1747402587640,1.08,-0.2,0.15,-4.82,15.5,26.43
963,1747402587650,1.08,-0.2,0.15,-4.82,15.5,26.43
964,1747402587660,1.09,-0.2,0.15,-4.82,15.5,26.43
965,1747402587670,1.1,-0.2,0.15,-3.97,5.98,32.59
966,1747402587680,1.1,-0.2,0.15,-3.97,5.98,32.59
967,1747402587690,1.1,-0.2,0.15,-3.97,5.98,32.59
968,1747402587700,1.115,-0.215,0.16,-4.855,1.4650000000000003,38.115
969,1747402587710,1.13,-0.23,0.17,-5.74,-3.05,43.64
970,1747402587720,1.13,-0.23,0.17,-5.74,-3.05,43.64
971,1747402587730,1.13,-0.23,0.17,-5.74,-3.05,43.64
972,1747402587740,1.115,-0.235,0.17,-5.74,-3.05,43.64
973,1747402587750,1.1,-0.24,0.17,-9.95,0.31,48.95
974,1747402587760,1.1,-0.24,0.17,-9.95,0.31,48.95
975,1747402587770,1.1,-0.24,0.17,-9.95,0.31,48.95
976,1747402587780,1.11,-0.28,0.17,-9.825,-4.94,53.405
977,1747402587790,1.11,-0.28,0.17,-9.7,-10.19,57.86
978,1747402587800,1.11,-0.28,0.17,-9.7,-10.19,57.86
979,1747402587810,1.11,-0.28,0.17,-9.7,-10.19,57.86
980,1747402587820,1.12,-0.32,0.17,-12.02,5.68,68.91
981,1747402587830,1.12,-0.32,0.17,-12.02,5.68,68.91
982,1747402587840,1.12,-0.32,0.17,-12.02,5.68,68.91
983,1747402587850,1.07,-0.3349999999999999,0.17,-13.79,8.64,71.655
984,1747402587860,1.02,-0.35,0.17,-15.56,11.6,74.4
985,1747402587870,1.02,-0.35,0.17,-15.56,11.6,74.4
986,1747402587880,1.02,-0.35,0.17,-15.56,11.6,74.4
987,1747402587890,1.015,-0.365,0.175,-16.415,5.25,78.67500000000001
988,1747402587900,1.01,-0.38,0.18,-17.27,-1.1,82.95
989,1747402587910,1.01,-0.38,0.18,-17.27,-1.1,82.95
990,1747402587920,1.01,-0.38,0.18,-17.27,-1.1,82.95
991,1747402587930,0.975,-0.405,0.16,-19.62,-1.59,87.16
992,1747402587940,0.94,-0.43,0.14,-21.97,-2.08,91.37
993,1747402587950,0.94,-0.43,0.14,-21.97,-2.08,91.37
994,1747402587960,0.94,-0.43,0.14,-21.97,-2.08,91.37
995,1747402587970,0.85,-0.47,0.12,-22.4,2.47,92.195
996,1747402587980,0.85,-0.47,0.12,-22.83,7.02,93.02
997,1747402587990,0.85,-0.47,0.12,-22.83,7.02,93.02
998,1747402588000,0.85,-0.47,0.12,-22.83,7.02,93.02
999,1747402588010,0.8,-0.51,0.11,-20.2,3.72,92.1
1000,1747402588020,0.8,-0.51,0.11,-20.2,3.72,92.1
