id,timestamp,acc_x,acc_y,acc_z,gyro_x,gyro_y,gyro_z
0,1747402082000,2.12,1.72,0.33,24.6,146.42,233.83
1,1747402082010,1.51,1.84,1.17,-7.2,56.46,309.33
2,1747402082020,1.51,1.84,1.17,-7.2,56.46,309.33
3,1747402082030,1.51,1.84,1.17,-7.2,56.46,309.33
4,1747402082040,1.51,1.84,1.17,-7.2,56.46,309.33
5,1747402082050,1.3,1.65,1.29,-106.69,-107.73,387.88
6,1747402082060,1.3,1.65,1.29,-106.69,-107.73,387.88
7,1747402082070,1.3,1.65,1.29,-106.69,-107.73,387.88
8,1747402082080,1.3,1.65,1.29,-106.69,-107.73,387.88
9,1747402082090,0.97,1.86,1.2,-137.39,-101.87,406.56
10,1747402082100,0.97,1.86,1.2,-137.39,-101.87,406.56
11,1747402082110,0.97,1.86,1.2,-137.39,-101.87,406.56
12,1747402082120,0.48,2.27,0.87,-137.39,-101.87,406.56
13,1747402082130,0.48,2.27,0.87,-77.15,-155.64,437.07
14,1747402082140,0.48,2.27,0.87,-77.15,-155.64,437.07
15,1747402082150,0.48,2.27,0.87,-77.15,-155.64,437.07
16,1747402082160,0.18,2.17,0.46,-154.3,-118.23,465.33
17,1747402082170,0.18,2.17,0.46,-154.3,-118.23,465.33
18,1747402082180,0.18,2.17,0.46,-154.3,-118.23,465.33
19,1747402082190,0.18,2.17,0.46,-154.3,-118.23,465.33
20,1747402082200,-0.1,1.88,0.46,-130.0,-49.62,483.64
21,1747402082210,-0.1,1.88,0.46,-130.0,-49.62,483.64
22,1747402082220,-0.1,1.88,0.46,-130.0,-49.62,483.64
23,1747402082230,-0.1,1.88,0.46,-130.0,-49.62,483.64
24,1747402082240,-0.53,1.25,0.21,-130.0,-49.62,483.64
25,1747402082250,-0.53,1.25,0.21,-100.34,-55.36,439.82
26,1747402082260,-0.53,1.25,0.21,-100.34,-55.36,439.82
27,1747402082270,-0.53,1.25,0.21,-100.34,-55.36,439.82
28,1747402082280,-0.7250000000000001,0.795,-0.05,-68.33,-64.18,361.085
29,1747402082290,-0.92,0.34,-0.31,-36.32,-73.0,282.35
30,1747402082300,-0.92,0.34,-0.31,-36.32,-73.0,282.35
31,1747402082310,-1.515,0.025,-0.475,-15.2,-59.510000000000005,250.975
32,1747402082320,-2.11,-0.29,-0.64,5.92,-46.02,219.6
33,1747402082330,-2.11,-0.29,-0.64,5.92,-46.02,219.6
34,1747402082340,-2.11,-0.29,-0.64,5.92,-46.02,219.6
35,1747402082350,-2.415,-0.265,-0.72,6.075,30.274999999999995,110.87
36,1747402082360,-2.72,-0.24,-0.8,6.23,106.57,2.14
37,1747402082370,-2.72,-0.24,-0.8,6.23,106.57,2.14
38,1747402082380,-2.72,-0.24,-0.8,6.23,106.57,2.14
39,1747402082390,-2.745,-0.7,-1.04,-12.325,87.91999999999999,-76.50500000000001
40,1747402082400,-2.77,-1.16,-1.28,-30.88,69.27,-155.15
41,1747402082410,-2.77,-1.16,-1.28,-30.88,69.27,-155.15
42,1747402082420,-2.77,-1.16,-1.28,-30.88,69.27,-155.15
43,1747402082430,-1.38,-0.11,-0.83,62.93,106.87,-367.55
44,1747402082440,-1.38,-0.11,-0.83,62.93,106.87,-367.55
45,1747402082450,-1.38,-0.11,-0.83,62.93,106.87,-367.55
46,1747402082460,-1.38,-0.11,-0.83,62.93,106.87,-367.55
47,1747402082470,-0.3,1.64,-0.01,229.19,141.97,-429.5
48,1747402082480,-0.3,1.64,-0.01,229.19,141.97,-429.5
49,1747402082490,-0.3,1.64,-0.01,229.19,141.97,-429.5
50,1747402082500,-0.3,1.64,-0.01,229.19,141.97,-429.5
51,1747402082510,0.97,2.75,0.77,236.69,47.73,-398.74
52,1747402082520,0.97,2.75,0.77,236.69,47.73,-398.74
53,1747402082530,0.97,2.75,0.77,236.69,47.73,-398.74
54,1747402082540,0.97,2.75,0.77,236.69,47.73,-398.74
55,1747402082550,0.5,1.81,0.68,160.46,83.37,-369.2
56,1747402082560,0.5,1.81,0.68,160.46,83.37,-369.2
57,1747402082570,0.5,1.81,0.68,160.46,83.37,-369.2
58,1747402082580,0.5,1.81,0.68,160.46,83.37,-369.2
59,1747402082590,0.41,1.48,0.42,189.27,22.28,-333.8
60,1747402082600,0.41,1.48,0.42,189.27,22.28,-333.8
61,1747402082610,0.41,1.48,0.42,189.27,22.28,-333.8
62,1747402082620,0.56,1.42,0.21,185.0,63.29,-374.39
63,1747402082630,0.56,1.42,0.21,185.0,63.29,-374.39
64,1747402082640,0.56,1.42,0.21,185.0,63.29,-374.39
65,1747402082650,0.56,1.42,0.21,185.0,63.29,-374.39
66,1747402082660,1.17,1.68,0.51,237.67,151.25,-411.13
67,1747402082670,1.17,1.68,0.51,237.67,151.25,-411.13
68,1747402082680,1.17,1.68,0.51,237.67,151.25,-411.13
69,1747402082690,1.17,1.68,0.51,237.67,151.25,-411.13
70,1747402082700,2.19,1.72,1.58,174.38,156.43,-318.97
71,1747402082710,2.19,1.72,1.58,174.38,156.43,-318.97
72,1747402082720,2.19,1.72,1.58,174.38,156.43,-318.97
73,1747402082730,2.19,1.72,1.58,174.38,156.43,-318.97
74,1747402082740,4.0,1.47,2.12,-27.53,-129.27,-217.29
75,1747402082750,4.0,1.47,2.12,-27.53,-129.27,-217.29
76,1747402082760,4.0,1.47,2.12,-27.53,-129.27,-217.29
77,1747402082770,4.0,1.47,2.12,-27.53,-129.27,-217.29
78,1747402082780,6.07,2.19,1.01,-52.0,-121.89,40.34
79,1747402082790,6.07,2.19,1.01,-52.0,-121.89,40.34
80,1747402082800,6.07,2.19,1.01,-52.0,-121.89,40.34
81,1747402082810,6.07,2.19,1.01,-52.0,-121.89,40.34
82,1747402082820,3.86,2.58,1.61,17.58,179.69,178.34
83,1747402082830,3.86,2.58,1.61,17.58,179.69,178.34
84,1747402082840,3.86,2.58,1.61,17.58,179.69,178.34
85,1747402082850,3.86,2.58,1.61,17.58,179.69,178.34
86,1747402082860,2.03,2.71,1.92,-39.12,122.92,262.57
87,1747402082870,2.03,2.71,1.92,-39.12,122.92,262.57
88,1747402082880,2.03,2.71,1.92,-39.12,122.92,262.57
89,1747402082890,1.7,2.325,1.535,-39.12,122.92,262.57
90,1747402082900,1.37,1.94,1.15,-171.87,13.06,349.49
91,1747402082910,1.37,1.94,1.15,-171.87,13.06,349.49
92,1747402082920,1.37,1.94,1.15,-171.87,13.06,349.49
93,1747402082930,0.75,1.76,0.57,-275.45,20.2,368.77
94,1747402082940,0.75,1.76,0.57,-275.45,20.2,368.77
95,1747402082950,0.75,1.76,0.57,-275.45,20.2,368.77
96,1747402082960,0.75,1.76,0.57,-275.45,20.2,368.77
97,1747402082970,0.31,2.12,0.33,-293.52,-58.04,434.02
98,1747402082980,0.31,2.12,0.33,-293.52,-58.04,434.02
99,1747402082990,0.31,2.12,0.33,-293.52,-58.04,434.02
100,1747402083000,0.31,2.12,0.33,-293.52,-58.04,434.02
101,1747402083010,0.21,2.25,0.35,-306.7,-72.2,498.11
102,1747402083020,0.21,2.25,0.35,-306.7,-72.2,498.11
103,1747402083030,0.21,2.25,0.35,-306.7,-72.2,498.11
104,1747402083040,0.21,2.25,0.35,-306.7,-72.2,498.11
105,1747402083050,0.31,2.33,0.45,-278.63,-48.89,490.11
106,1747402083060,0.31,2.33,0.45,-278.63,-48.89,490.11
107,1747402083070,0.31,2.33,0.45,-278.63,-48.89,490.11
108,1747402083080,0.315,2.21,0.445,-276.49,-49.195,493.165
109,1747402083090,0.32,2.09,0.44,-274.35,-49.5,496.22
110,1747402083100,0.32,2.09,0.44,-274.35,-49.5,496.22
111,1747402083110,0.32,2.09,0.44,-274.35,-49.5,496.22
112,1747402083120,0.04,1.64,0.265,-255.49,-73.24000000000001,477.235
113,1747402083130,-0.24,1.19,0.09,-236.63,-96.98,458.25
114,1747402083140,-0.24,1.19,0.09,-236.63,-96.98,458.25
115,1747402083150,-0.24,1.19,0.09,-236.63,-96.98,458.25
116,1747402083160,-0.655,0.86,-0.24,-177.12,-136.565,409.485
117,1747402083170,-1.07,0.53,-0.57,-117.61,-176.15,360.72
118,1747402083180,-1.07,0.53,-0.57,-117.61,-176.15,360.72
119,1747402083190,-1.07,0.53,-0.57,-117.61,-176.15,360.72
120,1747402083200,-3.22,0.36,-1.36,-142.4,15.2,137.82
121,1747402083210,-3.22,0.36,-1.36,-142.4,15.2,137.82
122,1747402083220,-3.22,0.36,-1.36,-142.4,15.2,137.82
123,1747402083230,-3.4000000000000004,0.44,-1.35,-142.4,15.2,137.82
124,1747402083240,-3.58,0.52,-1.34,-47.12,-10.13,17.21
125,1747402083250,-3.58,0.52,-1.34,-47.12,-10.13,17.21
126,1747402083260,-3.58,0.52,-1.34,-47.12,-10.13,17.21
127,1747402083270,-3.4000000000000004,0.13,-1.31,-47.12,-10.13,17.21
128,1747402083280,-3.22,-0.26,-1.28,-29.79,93.26,-204.53
129,1747402083290,-3.22,-0.26,-1.28,-29.79,93.26,-204.53
130,1747402083300,-3.22,-0.26,-1.28,-29.79,93.26,-204.53
131,1747402083310,-1.8,0.08,-1.0,-29.79,93.26,-204.53
132,1747402083320,-1.8,0.08,-1.0,48.77,108.4,-367.19
133,1747402083330,-1.8,0.08,-1.0,48.77,108.4,-367.19
134,1747402083340,-1.8,0.08,-1.0,48.77,108.4,-367.19
135,1747402083350,-0.2,1.34,-0.26,48.77,108.4,-367.19
136,1747402083360,-0.2,1.34,-0.26,199.34,77.39,-454.9
137,1747402083370,-0.2,1.34,-0.26,199.34,77.39,-454.9
138,1747402083380,-0.2,1.34,-0.26,199.34,77.39,-454.9
139,1747402083390,1.4,2.5,0.8,261.29,74.46,-466.92
140,1747402083400,1.4,2.5,0.8,261.29,74.46,-466.92
141,1747402083410,1.4,2.5,0.8,261.29,74.46,-466.92
142,1747402083420,1.4,2.5,0.8,261.29,74.46,-466.92
143,1747402083430,1.4,2.5,0.8,261.29,74.46,-466.92
144,1747402083440,0.51,1.68,0.9,192.5,183.96,-390.2
145,1747402083450,0.51,1.68,0.9,192.5,183.96,-390.2
146,1747402083460,0.51,1.68,0.9,192.5,183.96,-390.2
147,1747402083470,0.01,1.35,0.44,235.53,131.77,-386.47
148,1747402083480,0.01,1.35,0.44,235.53,131.77,-386.47
149,1747402083490,0.01,1.35,0.44,235.53,131.77,-386.47
150,1747402083500,0.01,1.35,0.44,235.53,131.77,-386.47
151,1747402083510,0.44,1.76,0.16,235.53,131.77,-386.47
152,1747402083520,0.44,1.76,0.16,299.56,119.32,-387.88
153,1747402083530,0.44,1.76,0.16,299.56,119.32,-387.88
154,1747402083540,0.44,1.76,0.16,299.56,119.32,-387.88
155,1747402083550,0.39,1.83,0.61,305.18,137.45,-401.67
156,1747402083560,0.39,1.83,0.61,305.18,137.45,-401.67
157,1747402083570,0.39,1.83,0.61,305.18,137.45,-401.67
158,1747402083580,0.39,1.83,0.61,305.18,137.45,-401.67
159,1747402083590,1.53,1.86,0.94,255.55,8.73,-322.14
160,1747402083600,,,,,,
161,1747402083610,1.53,1.86,0.94,255.55,8.73,-322.14
162,1747402083620,3.07,1.79,2.28,216.43,108.22,-353.7
163,1747402083630,3.07,1.79,2.28,216.43,108.22,-353.7
164,1747402083640,3.07,1.79,2.28,216.43,108.22,-353.7
165,1747402083650,3.07,1.79,2.28,216.43,108.22,-353.7
166,1747402083660,3.07,1.79,2.28,216.43,108.22,-353.7
167,1747402083670,5.57,2.77,3.11,43.58,-210.21,-201.97
168,1747402083680,5.57,2.77,3.11,43.58,-210.21,-201.97
169,1747402083690,5.57,2.77,3.11,43.58,-210.21,-201.97
170,1747402083700,5.83,2.8,2.3,-45.53,-3.97,73.12
171,1747402083710,5.83,2.8,2.3,-45.53,-3.97,73.12
172,1747402083720,5.83,2.8,2.3,-45.53,-3.97,73.12
173,1747402083730,3.29,1.98,2.04,-45.53,-3.97,73.12
174,1747402083740,3.29,1.98,2.04,-101.75,122.07,236.88
175,1747402083750,3.29,1.98,2.04,-101.75,122.07,236.88
176,1747402083760,3.29,1.98,2.04,-101.75,122.07,236.88
177,1747402083770,1.37,1.79,1.57,-164.92,29.97,335.82
178,1747402083780,1.37,1.79,1.57,-164.92,29.97,335.82
179,1747402083790,1.37,1.79,1.57,-164.92,29.97,335.82
180,1747402083800,1.37,1.79,1.57,-164.92,29.97,335.82
181,1747402083810,0.92,1.71,0.81,-244.81,-11.11,372.07
182,1747402083820,0.92,1.71,0.81,-244.81,-11.11,372.07
183,1747402083830,0.92,1.71,0.81,-244.81,-11.11,372.07
184,1747402083840,0.25,2.07,0.47,-336.55,12.94,381.9
185,1747402083850,0.25,2.07,0.47,-336.55,12.94,381.9
186,1747402083860,0.25,2.07,0.47,-336.55,12.94,381.9
187,1747402083870,0.25,2.07,0.47,-336.55,12.94,381.9
188,1747402083880,-0.03,2.17,0.28,-345.76,-94.91,424.44
189,1747402083890,-0.03,2.17,0.28,-345.76,-94.91,424.44
190,1747402083900,-0.03,2.17,0.28,-345.76,-94.91,424.44
191,1747402083910,-0.03,2.17,0.28,-345.76,-94.91,424.44
192,1747402083920,0.21,2.23,0.31,-345.76,-94.91,424.44
193,1747402083930,0.21,2.23,0.31,-318.05,-49.93,452.03
194,1747402083940,0.21,2.23,0.31,-318.05,-49.93,452.03
195,1747402083950,0.21,2.23,0.31,-318.05,-49.93,452.03
196,1747402083960,0.1,2.27,0.61,-304.38,-69.09,437.99
197,1747402083970,0.1,2.27,0.61,-304.38,-69.09,437.99
198,1747402083980,0.1,2.27,0.61,-304.38,-69.09,437.99
199,1747402083990,0.03,1.895,0.4549999999999999,-304.38,-69.09,437.99
200,1747402084000,-0.04,1.52,0.3,-283.39,-200.2,475.4
201,1747402084010,-0.04,1.52,0.3,-283.39,-200.2,475.4
202,1747402084020,-0.04,1.52,0.3,-283.39,-200.2,475.4
203,1747402084030,-0.04,1.52,0.3,-283.39,-200.2,475.4
204,1747402084040,-1.23,0.24,-0.64,-115.78,-147.95,390.99
205,1747402084050,-1.23,0.24,-0.64,-115.78,-147.95,390.99
206,1747402084060,-1.23,0.24,-0.64,-115.78,-147.95,390.99
207,1747402084070,-1.23,0.24,-0.64,-115.78,-147.95,390.99
208,1747402084080,-2.81,0.23,-1.65,-159.73,83.56,168.52
209,1747402084090,-2.81,0.23,-1.65,-159.73,83.56,168.52
210,1747402084100,-2.81,0.23,-1.65,-159.73,83.56,168.52
211,1747402084110,-3.575,-0.225,-1.925,-103.27,90.15,73.55000000000001
212,1747402084120,-4.34,-0.68,-2.2,-46.81,96.74,-21.42
213,1747402084130,-4.34,-0.68,-2.2,-46.81,96.74,-21.42
214,1747402084140,-4.34,-0.68,-2.2,-46.81,96.74,-21.42
215,1747402084150,-3.65,-0.605,-1.985,-4.055,92.01,-117.765
216,1747402084160,-2.96,-0.53,-1.77,38.7,87.28,-214.11
217,1747402084170,-2.96,-0.53,-1.77,38.7,87.28,-214.11
218,1747402084180,-2.96,-0.53,-1.77,38.7,87.28,-214.11
219,1747402084190,-1.91,-0.4,-1.43,64.78999999999999,101.045,-296.08000000000004
220,1747402084200,-1.91,-0.4,-1.43,90.88,114.81,-378.05
221,1747402084210,-1.91,-0.4,-1.43,90.88,114.81,-378.05
222,1747402084220,-1.91,-0.4,-1.43,90.88,114.81,-378.05
223,1747402084230,-0.91,1.28,-0.64,283.81,126.4,-459.41
224,1747402084240,-0.91,1.28,-0.64,283.81,126.4,-459.41
225,1747402084250,-0.91,1.28,-0.64,283.81,126.4,-459.41
226,1747402084260,-0.91,1.28,-0.64,283.81,126.4,-459.41
227,1747402084270,0.87,3.22,0.58,345.03,-71.35,-356.63
228,1747402084280,0.87,3.22,0.58,345.03,-71.35,-356.63
229,1747402084290,0.87,3.22,0.58,345.03,-71.35,-356.63
230,1747402084300,0.665,2.68,0.635,247.71,18.40000000000001,-371.89
231,1747402084310,0.46,2.14,0.69,150.39,108.15,-387.15
232,1747402084320,0.46,2.14,0.69,150.39,108.15,-387.15
233,1747402084330,0.46,2.14,0.69,150.39,108.15,-387.15
234,1747402084340,-0.03,1.44,0.37,150.39,108.15,-387.15
235,1747402084350,-0.03,1.44,0.37,176.94,96.01,-347.84
236,1747402084360,-0.03,1.44,0.37,176.94,96.01,-347.84
237,1747402084370,-0.03,1.44,0.37,176.94,96.01,-347.84
238,1747402084380,-0.01,1.41,0.19,217.1,115.05,-345.95
239,1747402084390,-0.01,1.41,0.19,217.1,115.05,-345.95
240,1747402084400,-0.01,1.41,0.19,217.1,115.05,-345.95
241,1747402084410,-0.01,1.41,0.19,217.1,115.05,-345.95
242,1747402084420,0.44,1.88,0.3,217.1,115.05,-345.95
243,1747402084430,0.44,1.88,0.3,268.01,156.62,-391.48
244,1747402084440,0.44,1.88,0.3,268.01,156.62,-391.48
245,1747402084450,0.8099999999999999,1.875,0.855,256.47,135.805,-372.04
246,1747402084460,1.18,1.87,1.41,244.93,114.99,-352.6
247,1747402084470,1.18,1.87,1.41,244.93,114.99,-352.6
248,1747402084480,1.18,1.87,1.41,244.93,114.99,-352.6
249,1747402084490,1.18,1.87,1.41,244.93,114.99,-352.6
250,1747402084500,3.37,1.28,2.19,146.24,106.75,-302.06
251,1747402084510,3.37,1.28,2.19,146.24,106.75,-302.06
252,1747402084520,3.37,1.28,2.19,146.24,106.75,-302.06
253,1747402084530,3.915,1.725,2.915,146.24,106.75,-302.06
254,1747402084540,4.46,2.17,3.64,118.65,25.94,-283.39
255,1747402084550,4.46,2.17,3.64,118.65,25.94,-283.39
256,1747402084560,4.46,2.17,3.64,118.65,25.94,-283.39
257,1747402084570,4.859999999999999,2.765,3.4000000000000004,64.33,-33.325,-73.49
258,1747402084580,5.26,3.36,3.16,10.01,-92.59,136.41
259,1747402084590,5.26,3.36,3.16,10.01,-92.59,136.41
260,1747402084600,5.26,3.36,3.16,10.01,-92.59,136.41
261,1747402084610,3.19,2.19,2.12,-130.68,150.7,235.05
262,1747402084620,3.19,2.19,2.12,-130.68,150.7,235.05
263,1747402084630,3.19,2.19,2.12,-130.68,150.7,235.05
264,1747402084640,3.19,2.19,2.12,-130.68,150.7,235.05
265,1747402084650,1.02,1.58,1.67,-203.0,78.74,297.0
266,1747402084660,1.02,1.58,1.67,-203.0,78.74,297.0
267,1747402084670,1.02,1.58,1.67,-203.0,78.74,297.0
268,1747402084680,1.02,1.58,1.67,-203.0,78.74,297.0
269,1747402084690,0.5,1.49,0.94,-290.89,-49.68,335.82
270,1747402084700,0.5,1.49,0.94,-290.89,-49.68,335.82
271,1747402084710,0.5,1.49,0.94,-290.89,-49.68,335.82
272,1747402084720,0.27,1.605,0.735,-317.165,-54.870000000000005,347.08
273,1747402084730,0.04,1.72,0.53,-343.44,-60.06,358.34
274,1747402084740,0.04,1.72,0.53,-343.44,-60.06,358.34
275,1747402084750,0.04,1.72,0.53,-343.44,-60.06,358.34
276,1747402084760,-0.08,1.88,0.54,-312.26,-148.25,405.4
277,1747402084770,-0.08,1.88,0.54,-312.26,-148.25,405.4
278,1747402084780,-0.08,1.88,0.54,-312.26,-148.25,405.4
279,1747402084790,-0.08,1.88,0.54,-312.26,-148.25,405.4
280,1747402084800,0.26,2.04,0.52,-289.12,-163.94,421.81
281,1747402084810,0.26,2.04,0.52,-289.12,-163.94,421.81
282,1747402084820,0.26,2.04,0.52,-289.12,-163.94,421.81
283,1747402084830,0.26,2.04,0.52,-289.12,-163.94,421.81
284,1747402084840,0.28,1.85,0.39,-282.345,-143.615,427.7
285,1747402084850,0.28,1.85,0.39,-275.57,-123.29,433.59
286,1747402084860,0.28,1.85,0.39,-275.57,-123.29,433.59
287,1747402084870,0.28,1.85,0.39,-275.57,-123.29,433.59
288,1747402084880,-0.07,1.2,0.12,-228.09,-157.04,420.72
289,1747402084890,-0.07,1.2,0.12,-228.09,-157.04,420.72
290,1747402084900,-0.07,1.2,0.12,-228.09,-157.04,420.72
291,1747402084910,-0.07,1.2,0.12,-228.09,-157.04,420.72
292,1747402084920,-0.89,0.34,-0.33,-106.81,-300.78,393.43
293,1747402084930,-0.89,0.34,-0.33,-106.81,-300.78,393.43
294,1747402084940,-0.89,0.34,-0.33,-106.81,-300.78,393.43
295,1747402084950,-2.55,0.15,-1.1,-65.37,-3.72,246.95
296,1747402084960,-2.55,0.15,-1.1,-65.37,-3.72,246.95
297,1747402084970,-2.55,0.15,-1.1,-65.37,-3.72,246.95
298,1747402084980,-2.55,0.15,-1.1,-65.37,-3.72,246.95
299,1747402084990,-2.96,0.14,-1.34,-33.57,56.705,106.69
300,1747402085000,-3.37,0.13,-1.58,-1.77,117.13,-33.57
301,1747402085010,-3.37,0.13,-1.58,-1.77,117.13,-33.57
302,1747402085020,-3.37,0.13,-1.58,-1.77,117.13,-33.57
303,1747402085030,-3.62,-0.66,-1.26,92.47,152.1,-118.47
304,1747402085040,-3.62,-0.66,-1.26,92.47,152.1,-118.47
305,1747402085050,-3.62,-0.66,-1.26,92.47,152.1,-118.47
306,1747402085060,-3.62,-0.66,-1.26,92.47,152.1,-118.47
307,1747402085070,-2.21,-0.14,-0.79,114.99,35.28,-248.96
308,1747402085080,-2.21,-0.14,-0.79,114.99,35.28,-248.96
309,1747402085090,-2.21,-0.14,-0.79,114.99,35.28,-248.96
310,1747402085100,-1.48,0.44,-0.55,155.915,26.4,-324.615
311,1747402085110,-0.75,1.02,-0.31,196.84,17.52,-400.27
312,1747402085120,-0.75,1.02,-0.31,196.84,17.52,-400.27
313,1747402085130,-0.75,1.02,-0.31,196.84,17.52,-400.27
314,1747402085140,-0.75,1.02,-0.31,196.84,17.52,-400.27
315,1747402085150,0.85,2.12,0.48,211.61,-65.92,-394.96
316,1747402085160,0.85,2.12,0.48,211.61,-65.92,-394.96
317,1747402085170,0.85,2.12,0.48,211.61,-65.92,-394.96
318,1747402085180,0.965,2.1,0.61,156.555,-54.445,-389.62
319,1747402085190,1.08,2.08,0.74,101.5,-42.97,-384.28
320,1747402085200,1.08,2.08,0.74,101.5,-42.97,-384.28
321,1747402085210,1.08,2.08,0.74,101.5,-42.97,-384.28
322,1747402085220,0.74,1.63,0.56,66.47,-127.75,-342.96
323,1747402085230,0.74,1.63,0.56,66.47,-127.75,-342.96
324,1747402085240,0.74,1.63,0.56,66.47,-127.75,-342.96
325,1747402085250,0.74,1.63,0.56,66.47,-127.75,-342.96
326,1747402085260,0.86,1.36,0.3,30.88,-28.38,-396.85
327,1747402085270,0.86,1.36,0.3,30.88,-28.38,-396.85
328,1747402085280,0.86,1.36,0.3,30.88,-28.38,-396.85
329,1747402085290,0.86,1.36,0.3,30.88,-28.38,-396.85
330,1747402085300,0.9,1.2,0.28,68.6,114.44,-424.19
331,1747402085310,0.9,1.2,0.28,68.6,114.44,-424.19
332,1747402085320,0.9,1.2,0.28,68.6,114.44,-424.19
333,1747402085330,1.48,1.2,0.415,63.81,138.365,-405.485
334,1747402085340,2.06,1.2,0.55,59.02,162.29,-386.78
335,1747402085350,2.06,1.2,0.55,59.02,162.29,-386.78
336,1747402085360,2.06,1.2,0.55,59.02,162.29,-386.78
337,1747402085370,2.935,0.385,0.86,79.62,170.35,-350.065
338,1747402085380,3.81,-0.43,1.17,100.22,178.41,-313.35
339,1747402085390,3.81,-0.43,1.17,100.22,178.41,-313.35
340,1747402085400,3.81,-0.43,1.17,100.22,178.41,-313.35
341,1747402085410,4.92,0.34,2.29,56.4,69.95,-218.93
342,1747402085420,4.92,0.34,2.29,56.4,69.95,-218.93
343,1747402085430,4.92,0.34,2.29,56.4,69.95,-218.93
344,1747402085440,4.92,0.34,2.29,56.4,69.95,-218.93
345,1747402085450,5.33,0.91,1.94,38.605,5.190000000000001,-104.52
346,1747402085460,5.74,1.48,1.59,20.81,-59.57,9.89
347,1747402085470,5.74,1.48,1.59,20.81,-59.57,9.89
348,1747402085480,5.74,1.48,1.59,20.81,-59.57,9.89
349,1747402085490,3.72,1.69,1.64,-6.1,138.49,226.75
350,1747402085500,3.72,1.69,1.64,-6.1,138.49,226.75
351,1747402085510,3.72,1.69,1.64,-6.1,138.49,226.75
352,1747402085520,2.53,1.33,1.5699999999999998,-65.765,127.41,249.695
353,1747402085530,1.34,0.97,1.5,-125.43,116.33,272.64
354,1747402085540,1.34,0.97,1.5,-125.43,116.33,272.64
355,1747402085550,1.34,0.97,1.5,-125.43,116.33,272.64
356,1747402085560,1.045,1.005,1.22,-156.65,31.735,307.22
357,1747402085570,0.75,1.04,0.94,-187.87,-52.86,341.8
358,1747402085580,0.75,1.04,0.94,-187.87,-52.86,341.8
359,1747402085590,0.75,1.04,0.94,-187.87,-52.86,341.8
360,1747402085600,0.75,1.04,0.94,-187.87,-52.86,341.8
361,1747402085610,0.43,1.38,0.59,-233.89,-49.26,375.92
362,1747402085620,0.43,1.38,0.59,-233.89,-49.26,375.92
363,1747402085630,0.43,1.38,0.59,-233.89,-49.26,375.92
364,1747402085640,0.275,1.5099999999999998,0.605,-235.63,-78.465,397.525
365,1747402085650,0.12,1.64,0.62,-237.37,-107.67,419.13
366,1747402085660,0.12,1.64,0.62,-237.37,-107.67,419.13
367,1747402085670,0.12,1.64,0.62,-237.37,-107.67,419.13
368,1747402085680,0.44,1.82,0.44,-219.79,-93.26,414.67
369,1747402085690,0.44,1.82,0.44,-219.79,-93.26,414.67
370,1747402085700,0.44,1.82,0.44,-219.79,-93.26,414.67
371,1747402085710,0.44,1.82,0.44,-219.79,-93.26,414.67
372,1747402085720,0.3,1.74,0.37,-233.83,-1.71,393.55
373,1747402085730,0.3,1.74,0.37,-233.83,-1.71,393.55
374,1747402085740,0.3,1.74,0.37,-233.83,-1.71,393.55
375,1747402085750,0.3,1.74,0.37,-233.83,-1.71,393.55
376,1747402085760,0.06,1.05,0.02,-216.74,-52.49,391.11
377,1747402085770,0.06,1.05,0.02,-216.74,-52.49,391.11
378,1747402085780,0.06,1.05,0.02,-216.74,-52.49,391.11
379,1747402085790,0.06,1.05,0.02,-216.74,-52.49,391.11
380,1747402085800,-0.86,0.56,-0.72,-172.49,-124.88,388.92
381,1747402085810,-0.86,0.56,-0.72,-172.49,-124.88,388.92
382,1747402085820,-0.86,0.56,-0.72,-172.49,-124.88,388.92
383,1747402085830,-0.86,0.56,-0.72,-172.49,-124.88,388.92
384,1747402085840,-2.38,-0.13,-1.51,-63.66,-105.65,288.94
385,1747402085850,-2.38,-0.13,-1.51,-63.66,-105.65,288.94
386,1747402085860,-2.38,-0.13,-1.51,-63.66,-105.65,288.94
387,1747402085870,-2.93,0.185,-1.505,-14.77,-30.915000000000003,167.695
388,1747402085880,-3.48,0.5,-1.5,34.12,43.82,46.45
389,1747402085890,-3.48,0.5,-1.5,34.12,43.82,46.45
390,1747402085900,-3.48,0.5,-1.5,34.12,43.82,46.45
391,1747402085910,-3.58,-0.015,-1.4449999999999998,31.19,84.87,-49.865
392,1747402085920,-3.68,-0.53,-1.39,28.26,125.92,-146.18
393,1747402085930,-3.68,-0.53,-1.39,28.26,125.92,-146.18
394,1747402085940,-3.68,-0.53,-1.39,28.26,125.92,-146.18
395,1747402085950,-2.42,-0.07,-1.18,120.24,39.49,-298.28
396,1747402085960,-2.42,-0.07,-1.18,120.24,39.49,-298.28
397,1747402085970,-2.42,-0.07,-1.18,120.24,39.49,-298.28
398,1747402085980,-1.54,0.65,-0.8799999999999999,120.24,39.49,-298.28
399,1747402085990,-0.66,1.37,-0.58,224.67,33.63,-442.63
400,1747402086000,-0.66,1.37,-0.58,224.67,33.63,-442.63
401,1747402086010,-0.66,1.37,-0.58,224.67,33.63,-442.63
402,1747402086020,-0.66,1.37,-0.58,224.67,33.63,-442.63
403,1747402086030,1.54,2.92,0.6,283.39,-79.35,-408.26
404,1747402086040,1.54,2.92,0.6,283.39,-79.35,-408.26
405,1747402086050,1.54,2.92,0.6,283.39,-79.35,-408.26
406,1747402086060,1.5,2.49,0.6599999999999999,204.225,-43.275,-385.315
407,1747402086070,1.46,2.06,0.72,125.06,-7.2,-362.37
408,1747402086080,1.46,2.06,0.72,125.06,-7.2,-362.37
409,1747402086090,1.46,2.06,0.72,125.06,-7.2,-362.37
410,1747402086100,1.085,1.74,0.64,121.49,18.71,-359.805
411,1747402086110,0.71,1.42,0.56,117.92,44.62,-357.24
412,1747402086120,0.71,1.42,0.56,117.92,44.62,-357.24
413,1747402086130,0.71,1.42,0.56,117.92,44.62,-357.24
414,1747402086140,0.71,1.42,0.56,117.92,44.62,-357.24
415,1747402086150,0.41,1.24,0.42,150.09,75.5,-367.13
416,1747402086160,0.41,1.24,0.42,150.09,75.5,-367.13
417,1747402086170,0.41,1.24,0.42,150.09,75.5,-367.13
418,1747402086180,0.66,1.35,0.51,208.8,131.53,-421.45
419,1747402086190,0.66,1.35,0.51,208.8,131.53,-421.45
420,1747402086200,0.66,1.35,0.51,208.8,131.53,-421.45
421,1747402086210,0.66,1.35,0.51,208.8,131.53,-421.45
422,1747402086220,1.58,1.31,1.2,189.485,137.45,-415.465
423,1747402086230,1.58,1.31,1.2,170.17,143.37,-409.48
424,1747402086240,1.58,1.31,1.2,170.17,143.37,-409.48
425,1747402086250,2.66,0.615,1.765,170.17,143.37,-409.48
426,1747402086260,3.74,-0.08,2.33,183.72,129.27,-308.96
427,1747402086270,3.74,-0.08,2.33,183.72,129.27,-308.96
428,1747402086280,3.74,-0.08,2.33,183.72,129.27,-308.96
429,1747402086290,4.355,0.645,3.285,110.995,59.63,-271.24
430,1747402086300,4.97,1.37,4.24,38.27,-10.01,-233.52
431,1747402086310,4.97,1.37,4.24,38.27,-10.01,-233.52
432,1747402086320,4.97,1.37,4.24,38.27,-10.01,-233.52
433,1747402086330,,,,,,
434,1747402086340,5.06,2.18,2.87,-62.5,-196.53,189.09
435,1747402086350,5.06,2.18,2.87,-62.5,-196.53,189.09
436,1747402086360,5.06,2.18,2.87,-62.5,-196.53,189.09
437,1747402086370,3.725,1.77,2.405,-96.1,-73.24000000000001,204.01
438,1747402086380,2.39,1.36,1.94,-129.7,50.05,218.93
439,1747402086390,2.39,1.36,1.94,-129.7,50.05,218.93
440,1747402086400,2.39,1.36,1.94,-129.7,50.05,218.93
441,1747402086410,1.845,1.25,1.6949999999999998,-161.62,14.525,235.44
442,1747402086420,1.3,1.14,1.45,-193.54,-21.0,251.95
443,1747402086430,1.3,1.14,1.45,-193.54,-21.0,251.95
444,1747402086440,1.3,1.14,1.45,-193.54,-21.0,251.95
445,1747402086450,0.93,1.12,0.76,-231.595,-40.955,269.83500000000004
446,1747402086460,0.93,1.12,0.76,-269.65,-60.91,287.72
447,1747402086470,0.93,1.12,0.76,-269.65,-60.91,287.72
448,1747402086480,0.93,1.12,0.76,-269.65,-60.91,287.72
449,1747402086490,0.23,1.32,0.47,-291.87,-47.36,338.5
450,1747402086500,0.23,1.32,0.47,-291.87,-47.36,338.5
451,1747402086510,0.23,1.32,0.47,-291.87,-47.36,338.5
452,1747402086520,0.23,1.32,0.47,-291.87,-47.36,338.5
453,1747402086530,-0.03,1.51,0.39,-313.48,-106.02,361.82
454,1747402086540,-0.03,1.51,0.39,-313.48,-106.02,361.82
455,1747402086550,-0.03,1.51,0.39,-313.48,-106.02,361.82
456,1747402086560,0.04,1.53,0.385,-293.67,-106.08,365.665
457,1747402086570,0.11,1.55,0.38,-273.86,-106.14,369.51
458,1747402086580,0.11,1.55,0.38,-273.86,-106.14,369.51
459,1747402086590,0.11,1.55,0.38,-273.86,-106.14,369.51
460,1747402086600,0.04,1.53,0.435,-270.63,-104.795,362.03
461,1747402086610,-0.03,1.51,0.49,-267.4,-103.45,354.55
462,1747402086620,-0.03,1.51,0.49,-267.4,-103.45,354.55
463,1747402086630,-0.03,1.51,0.49,-267.4,-103.45,354.55
464,1747402086640,-0.12,1.07,0.29,-247.47,-124.755,353.79
465,1747402086650,-0.21,0.63,0.09,-227.54,-146.06,353.03
466,1747402086660,-0.21,0.63,0.09,-227.54,-146.06,353.03
467,1747402086670,-0.21,0.63,0.09,-227.54,-146.06,353.03
468,1747402086680,-0.65,0.37,-0.41,-109.56,-253.17,324.95
469,1747402086690,-0.65,0.37,-0.41,-109.56,-253.17,324.95
470,1747402086700,-0.65,0.37,-0.41,-109.56,-253.17,324.95
471,1747402086710,-0.65,0.37,-0.41,-109.56,-253.17,324.95
472,1747402086720,-2.13,-0.11,-1.42,-128.175,-148.04,289.46
473,1747402086730,-2.13,-0.11,-1.42,-146.79,-42.91,253.97
474,1747402086740,-2.13,-0.11,-1.42,-146.79,-42.91,253.97
475,1747402086750,-2.84,0.04,-1.61,-146.79,-42.91,253.97
476,1747402086760,-3.55,0.19,-1.8,-27.22,54.02,43.21
477,1747402086770,-3.55,0.19,-1.8,-27.22,54.02,43.21
478,1747402086780,-3.55,0.19,-1.8,-27.22,54.02,43.21
479,1747402086790,-3.425,-0.24,-1.87,6.865000000000002,62.96000000000001,-31.28
480,1747402086800,-3.3,-0.67,-1.94,40.95,71.9,-105.77
481,1747402086810,-3.3,-0.67,-1.94,40.95,71.9,-105.77
482,1747402086820,-3.3,-0.67,-1.94,40.95,71.9,-105.77
483,1747402086830,-2.585,-0.245,-1.54,93.505,66.74000000000001,-195.31
484,1747402086840,-1.87,0.18,-1.14,146.06,61.58,-284.85
485,1747402086850,-1.87,0.18,-1.14,146.06,61.58,-284.85
486,1747402086860,-1.87,0.18,-1.14,146.06,61.58,-284.85
487,1747402086870,-1.0450000000000002,0.73,-0.61,217.38,79.68,-350.035
488,1747402086880,-0.22,1.28,-0.08,288.7,97.78,-415.22
489,1747402086890,-0.22,1.28,-0.08,288.7,97.78,-415.22
490,1747402086900,-0.22,1.28,-0.08,288.7,97.78,-415.22
491,1747402086910,1.27,2.54,1.34,302.035,164.305,-455.72
492,1747402086920,1.27,2.54,1.34,315.37,230.83,-496.22
493,1747402086930,1.27,2.54,1.34,315.37,230.83,-496.22
494,1747402086940,1.27,2.54,1.34,315.37,230.83,-496.22
495,1747402086950,0.31,1.65,1.26,176.76,43.33,-321.17
496,1747402086960,0.31,1.65,1.26,176.76,43.33,-321.17
497,1747402086970,0.31,1.65,1.26,176.76,43.33,-321.17
498,1747402086980,0.31,1.65,1.26,176.76,43.33,-321.17
499,1747402086990,0.22,1.16,0.64,183.72,-67.81,-286.38
500,1747402087000,0.22,1.16,0.64,183.72,-67.81,-286.38
501,1747402087010,0.22,1.16,0.64,183.72,-67.81,-286.38
502,1747402087020,0.22,1.16,0.64,183.72,-67.81,-286.38
503,1747402087030,0.25,1.13,0.37,194.76,-30.03,-331.36
504,1747402087040,0.25,1.13,0.37,194.76,-30.03,-331.36
505,1747402087050,0.25,1.13,0.37,194.76,-30.03,-331.36
506,1747402087060,0.325,1.1549999999999998,0.25,184.475,35.89,-353.515
507,1747402087070,0.4,1.18,0.13,174.19,101.81,-375.67
508,1747402087080,0.4,1.18,0.13,174.19,101.81,-375.67
509,1747402087090,0.4,1.18,0.13,174.19,101.81,-375.67
510,1747402087100,1.18,1.58,0.69,264.95,265.14,-413.76
511,1747402087110,1.18,1.58,0.69,264.95,265.14,-413.76
512,1747402087120,1.18,1.58,0.69,264.95,265.14,-413.76
513,1747402087130,1.18,1.58,0.69,264.95,265.14,-413.76
514,1747402087140,1.5499999999999998,1.25,1.79,254.94,199.86,-394.195
515,1747402087150,1.92,0.92,2.89,244.93,134.58,-374.63
516,1747402087160,1.92,0.92,2.89,244.93,134.58,-374.63
517,1747402087170,1.92,0.92,2.89,244.93,134.58,-374.63
518,1747402087180,3.995,1.67,2.675,136.475,-38.69999999999999,-323.76
519,1747402087190,6.07,2.42,2.46,28.02,-211.98,-272.89
520,1747402087200,6.07,2.42,2.46,28.02,-211.98,-272.89
521,1747402087210,6.07,2.42,2.46,28.02,-211.98,-272.89
522,1747402087220,6.09,2.1,2.53,34.12,33.39,44.62
523,1747402087230,6.09,2.1,2.53,34.12,33.39,44.62
524,1747402087240,6.09,2.1,2.53,34.12,33.39,44.62
525,1747402087250,6.09,2.1,2.53,34.12,33.39,44.62
526,1747402087260,2.76,1.91,2.35,-68.18,164.43,213.44
527,1747402087270,2.76,1.91,2.35,-68.18,164.43,213.44
528,1747402087280,2.76,1.91,2.35,-68.18,164.43,213.44
529,1747402087290,2.76,1.91,2.35,-68.18,164.43,213.44
530,1747402087300,1.33,1.37,1.49,-156.56,-16.42,315.73
531,1747402087310,1.33,1.37,1.49,-156.56,-16.42,315.73
532,1747402087320,1.33,1.37,1.49,-156.56,-16.42,315.73
533,1747402087330,1.33,1.37,1.49,-156.56,-16.42,315.73
534,1747402087340,0.75,1.6,0.99,-227.05,-71.04,389.83
535,1747402087350,0.75,1.6,0.99,-227.05,-71.04,389.83
536,1747402087360,0.75,1.6,0.99,-227.05,-71.04,389.83
537,1747402087370,0.15,1.78,0.55,-304.2,-97.05,425.66
538,1747402087380,0.15,1.78,0.55,-304.2,-97.05,425.66
539,1747402087390,0.15,1.78,0.55,-304.2,-97.05,425.66
540,1747402087400,0.15,1.78,0.55,-304.2,-97.05,425.66
541,1747402087410,0.0,1.84,0.48,-275.33,-128.17,436.71
542,1747402087420,0.0,1.84,0.48,-275.33,-128.17,436.71
543,1747402087430,0.0,1.84,0.48,-275.33,-128.17,436.71
544,1747402087440,0.0,1.84,0.48,-275.33,-128.17,436.71
545,1747402087450,0.04,1.95,0.55,-289.61,-114.69,436.71
546,1747402087460,0.04,1.95,0.55,-289.61,-114.69,436.71
547,1747402087470,0.04,1.95,0.55,-289.61,-114.69,436.71
548,1747402087480,0.065,1.7,0.515,-289.61,-114.69,436.71
549,1747402087490,0.09,1.45,0.48,-272.83,-111.57,404.05
550,1747402087500,0.09,1.45,0.48,-272.83,-111.57,404.05
551,1747402087510,0.09,1.45,0.48,-272.83,-111.57,404.05
552,1747402087520,0.07,1.26,0.37,-222.995,-102.17,384.735
553,1747402087530,0.05,1.07,0.26,-173.16,-92.77,365.42
554,1747402087540,0.05,1.07,0.26,-173.16,-92.77,365.42
555,1747402087550,0.05,1.07,0.26,-173.16,-92.77,365.42
556,1747402087560,-0.96,0.59,-0.27,-173.16,-92.77,365.42
557,1747402087570,-0.96,0.59,-0.27,-127.26,-117.19,324.22
558,1747402087580,-0.96,0.59,-0.27,-127.26,-117.19,324.22
559,1747402087590,-0.96,0.59,-0.27,-127.26,-117.19,324.22
560,1747402087600,-1.61,-0.04,-1.43,-110.17,-84.75,300.02
561,1747402087610,-1.61,-0.04,-1.43,-93.08,-52.31,275.82
562,1747402087620,-1.61,-0.04,-1.43,-93.08,-52.31,275.82
563,1747402087630,-2.615,0.225,-1.51,-93.08,-52.31,275.82
564,1747402087640,-3.62,0.49,-1.59,-10.13,86.43,61.28
565,1747402087650,-3.62,0.49,-1.59,-10.13,86.43,61.28
566,1747402087660,-3.62,0.49,-1.59,-10.13,86.43,61.28
567,1747402087670,-3.62,0.49,-1.59,-10.13,86.43,61.28
568,1747402087680,-3.59,-0.77,-1.92,11.29,126.53,-161.8
569,1747402087690,-3.59,-0.77,-1.92,11.29,126.53,-161.8
570,1747402087700,-3.59,-0.77,-1.92,11.29,126.53,-161.8
571,1747402087710,-3.59,-0.77,-1.92,11.29,126.53,-161.8
572,1747402087720,-2.02,0.11,-1.29,148.01,51.45,-325.87
573,1747402087730,-2.02,0.11,-1.29,148.01,51.45,-325.87
574,1747402087740,-2.02,0.11,-1.29,148.01,51.45,-325.87
575,1747402087750,-1.12,0.87,-0.8,213.195,45.47,-396.885
576,1747402087760,-0.22,1.63,-0.31,278.38,39.49,-467.9
577,1747402087770,-0.22,1.63,-0.31,278.38,39.49,-467.9
578,1747402087780,-0.22,1.63,-0.31,278.38,39.49,-467.9
579,1747402087790,1.52,2.48,0.46,278.38,39.49,-467.9
580,1747402087800,1.52,2.48,0.46,295.23,-78.19,-416.5
581,1747402087810,1.52,2.48,0.46,295.23,-78.19,-416.5
582,1747402087820,1.52,2.48,0.46,295.23,-78.19,-416.5
583,1747402087830,0.93,1.88,0.44,197.75,32.84,-437.13
584,1747402087840,0.93,1.88,0.44,197.75,32.84,-437.13
585,1747402087850,0.93,1.88,0.44,197.75,32.84,-437.13
586,1747402087860,0.93,1.88,0.44,197.75,32.84,-437.13
587,1747402087870,0.7050000000000001,1.7599999999999998,0.39,208.77,38.150000000000006,-426.085
588,1747402087880,0.48,1.64,0.34,219.79,43.46,-415.04
589,1747402087890,0.48,1.64,0.34,219.79,43.46,-415.04
590,1747402087900,0.48,1.64,0.34,219.79,43.46,-415.04
591,1747402087910,0.8,1.73,0.42,227.29,91.43,-375.67
592,1747402087920,0.8,1.73,0.42,227.29,91.43,-375.67
593,1747402087930,0.8,1.73,0.42,227.29,91.43,-375.67
594,1747402087940,0.54,1.47,0.65,224.12,138.79,-391.05
595,1747402087950,0.54,1.47,0.65,224.12,138.79,-391.05
596,1747402087960,0.54,1.47,0.65,224.12,138.79,-391.05
597,1747402087970,0.54,1.47,0.65,224.12,138.79,-391.05
598,1747402087980,1.09,1.49,1.09,224.12,138.79,-391.05
599,1747402087990,1.64,1.51,1.53,187.74,136.35,-325.93
600,1747402088000,1.64,1.51,1.53,187.74,136.35,-325.93
601,1747402088010,1.64,1.51,1.53,187.74,136.35,-325.93
602,1747402088020,2.705,1.31,2.3,170.47,148.76999999999998,-296.32500000000005
603,1747402088030,3.77,1.11,3.07,153.2,161.19,-266.72
604,1747402088040,3.77,1.11,3.07,153.2,161.19,-266.72
605,1747402088050,3.77,1.11,3.07,153.2,161.19,-266.72
606,1747402088060,4.475,1.5950000000000002,3.43,153.2,161.19,-266.72
607,1747402088070,5.18,2.08,3.79,-1.53,-70.37,-93.02
608,1747402088080,5.18,2.08,3.79,-1.53,-70.37,-93.02
609,1747402088090,5.18,2.08,3.79,-1.53,-70.37,-93.02
610,1747402088100,4.37,2.44,2.74,-80.93,-48.95,209.17
611,1747402088110,4.37,2.44,2.74,-80.93,-48.95,209.17
612,1747402088120,4.37,2.44,2.74,-80.93,-48.95,209.17
613,1747402088130,4.37,2.44,2.74,-80.93,-48.95000000000001,209.17
614,1747402088140,1.97,1.66,2.02,-152.4,107.24,226.81
615,1747402088150,1.97,1.66,2.02,-152.4,107.24,226.81
616,1747402088160,1.97,1.66,2.02,-152.4,107.24,226.81
617,1747402088170,1.97,1.66,2.02,-152.4,107.24,226.81
618,1747402088180,0.82,1.51,1.47,-232.36,-46.69,290.1
619,1747402088190,0.82,1.51,1.47,-232.36,-46.69,290.1
620,1747402088200,0.82,1.51,1.47,-232.36,-46.69,290.1
621,1747402088210,0.75,1.5,1.01,-275.48,-78.88499999999999,330.72
622,1747402088220,0.68,1.49,0.55,-318.6,-111.08,371.34
623,1747402088230,0.68,1.49,0.55,-318.6,-111.08,371.34
624,1747402088240,0.68,1.49,0.55,-318.6,-111.08,371.34
625,1747402088250,0.375,1.5550000000000002,0.46,-326.72,-57.645,362.7
626,1747402088260,0.07,1.62,0.37,-334.84,-4.21,354.06
627,1747402088270,0.07,1.62,0.37,-334.84,-4.21,354.06
628,1747402088280,0.07,1.62,0.37,-334.84,-4.21,354.06
629,1747402088290,-0.01,1.95,0.58,-311.34,-140.01,391.11
630,1747402088300,-0.01,1.95,0.58,-311.34,-140.01,391.11
631,1747402088310,-0.01,1.95,0.58,-311.34,-140.01,391.11
632,1747402088320,-0.01,1.95,0.58,-311.34,-140.01,391.11
633,1747402088330,0.46,1.92,0.43,-293.7,-144.1,425.84
634,1747402088340,0.46,1.92,0.43,-276.06,-148.19,460.57
635,1747402088350,0.46,1.92,0.43,-276.06,-148.19,460.57
636,1747402088360,0.46,1.92,0.43,-276.06,-148.19,460.57
637,1747402088370,0.33,1.72,0.28,-286.44,-49.93,401.25
638,1747402088380,0.33,1.72,0.28,-286.44,-49.93,401.25
639,1747402088390,0.33,1.72,0.28,-286.44,-49.93,401.25
640,1747402088400,0.33,1.72,0.28,-286.44,-49.93,401.25
641,1747402088410,-0.05,1.08,-0.2,-223.82,-106.2,431.34
642,1747402088420,-0.05,1.08,-0.2,-223.82,-106.2,431.34
643,1747402088430,-0.05,1.08,-0.2,-223.82,-106.2,431.34
644,1747402088440,-0.05,1.08,-0.2,-223.82,-106.2,431.34
645,1747402088450,-0.79,0.38,-1.76,-234.37,14.1,347.9
646,1747402088460,-0.79,0.38,-1.76,-234.37,14.1,347.9
647,1747402088470,-0.79,0.38,-1.76,-234.37,14.1,347.9
648,1747402088480,-2.17,0.385,-2.025,-99.85,25.79,272.43
649,1747402088490,-3.55,0.39,-2.29,34.67,37.48,196.96
650,1747402088500,-3.55,0.39,-2.29,34.67,37.48,196.96
651,1747402088510,-3.55,0.39,-2.29,34.67,37.48,196.96
652,1747402088520,-3.675,0.235,-2.23,43.365,74.55499999999999,92.65
653,1747402088530,-3.8,0.08,-2.17,52.06,111.63,-11.66
654,1747402088540,-3.8,0.08,-2.17,52.06,111.63,-11.66
655,1747402088550,-3.8,0.08,-2.17,52.06,111.63,-11.66
656,1747402088560,-3.01,-0.09,-1.62,161.25,13.37,-187.13
657,1747402088570,-3.01,-0.09,-1.62,161.25,13.37,-187.13
658,1747402088580,-3.01,-0.09,-1.62,161.25,13.37,-187.13
659,1747402088590,-3.01,-0.09,-1.62,161.25,13.37,-187.13
660,1747402088600,-1.21,0.99,-0.7,230.29,-19.65,-354.37
661,1747402088610,-1.21,0.99,-0.7,230.29,-19.65,-354.37
662,1747402088620,-1.21,0.99,-0.7,230.29,-19.65,-354.37
663,1747402088630,-1.21,0.99,-0.7,230.29,-19.65,-354.37
664,1747402088640,0.79,2.37,0.49,321.84,-91.13,-404.24
665,1747402088650,0.79,2.37,0.49,321.84,-91.13,-404.24
666,1747402088660,0.79,2.37,0.49,321.84,-91.13,-404.24
667,1747402088670,1.235,2.31,0.735,265.14,-69.97999999999999,-403.69
668,1747402088680,1.68,2.25,0.98,208.44,-48.83,-403.14
669,1747402088690,1.68,2.25,0.98,208.44,-48.83,-403.14
670,1747402088700,1.68,2.25,0.98,208.44,-48.83,-403.14
671,1747402088710,0.84,1.56,0.64,200.13,-2.87,-374.57
672,1747402088720,0.84,1.56,0.64,200.13,-2.87,-374.57
673,1747402088730,0.84,1.56,0.64,200.13,-2.87,-374.57
674,1747402088740,0.84,1.56,0.64,200.13,-2.87,-374.57
675,1747402088750,0.63,1.34,0.35,222.835,9.245,-374.785
676,1747402088760,0.63,1.34,0.35,245.54,21.36,-375.0
677,1747402088770,0.63,1.34,0.35,245.54,21.36,-375.0
678,1747402088780,0.63,1.34,0.35,245.54,21.36,-375.0
679,1747402088790,0.3,1.34,0.18,317.44,86.12,-389.59
680,1747402088800,0.3,1.34,0.18,317.44,86.12,-389.59
681,1747402088810,0.3,1.34,0.18,317.44,86.12,-389.59
682,1747402088820,0.3,1.34,0.18,317.44,86.12,-389.59
683,1747402088830,0.8150000000000001,1.455,0.405,313.595,80.08000000000001,-399.14
684,1747402088840,1.33,1.57,0.63,309.75,74.04,-408.69
685,1747402088850,1.33,1.57,0.63,309.75,74.04,-408.69
686,1747402088860,1.545,1.005,1.68,309.75,74.04,-408.69
687,1747402088870,1.76,0.44,2.73,310.18,118.41,-338.68
688,1747402088880,1.76,0.44,2.73,310.18,118.41,-338.68
689,1747402088890,1.76,0.44,2.73,310.18,118.41,-338.68
690,1747402088900,1.76,0.44,2.73,310.18,118.41,-338.68
691,1747402088910,4.0,1.3,3.56,57.92,-188.23,-309.69
692,1747402088920,4.0,1.3,3.56,57.92,-188.23,-309.69
693,1747402088930,4.0,1.3,3.56,57.92,-188.23,-309.69
694,1747402088940,5.075,1.725,3.12,33.02,-157.805,-137.48
695,1747402088950,6.15,2.15,2.68,8.12,-127.38,34.73
696,1747402088960,6.15,2.15,2.68,8.12,-127.38,34.73
697,1747402088970,6.15,2.15,2.68,8.12,-127.38,34.73
698,1747402088980,3.47,2.26,2.85,-114.38,228.7,82.28
699,1747402088990,3.47,2.26,2.85,-114.38,228.7,82.28
700,1747402089000,3.47,2.26,2.85,-114.38,228.7,82.28
701,1747402089010,3.47,2.26,2.85,-114.38,228.7,82.28
702,1747402089020,1.28,1.51,2.09,-263.0,40.77,198.49
703,1747402089030,1.28,1.51,2.09,-263.0,40.77,198.49
704,1747402089040,1.28,1.51,2.09,-263.0,40.77,198.49
705,1747402089050,,,,,,
706,1747402089060,0.81,1.26,1.05,-354.13,-79.77,268.98
707,1747402089070,0.81,1.26,1.05,-354.13,-79.77,268.98
708,1747402089080,0.81,1.26,1.05,-354.13,-79.77,268.98
709,1747402089090,0.525,1.375,0.7150000000000001,-354.13,-79.77,268.98
710,1747402089100,0.24,1.49,0.38,-374.08,-125.79,308.96
711,1747402089110,0.24,1.49,0.38,-374.08,-125.79,308.96
712,1747402089120,0.24,1.49,0.38,-374.08,-125.79,308.96
713,1747402089130,0.0999999999999999,1.55,0.36,-349.06,-143.37,339.815
714,1747402089140,-0.04,1.61,0.34,-324.04,-160.95,370.67
715,1747402089150,-0.04,1.61,0.34,-324.04,-160.95,370.67
716,1747402089160,-0.04,1.61,0.34,-324.04,-160.95,370.67
717,1747402089170,0.03,1.7000000000000002,0.365,-316.775,-161.1,380.005
718,1747402089180,0.1,1.79,0.39,-309.51,-161.25,389.34
719,1747402089190,0.1,1.79,0.39,-309.51,-161.25,389.34
720,1747402089200,0.1,1.79,0.39,-309.51,-161.25,389.34
721,1747402089210,0.18,1.63,0.35,-276.73,-111.57,433.78
722,1747402089220,0.18,1.63,0.35,-276.73,-111.57,433.78
723,1747402089230,0.18,1.63,0.35,-276.73,-111.57,433.78
724,1747402089240,0.18,1.63,0.35,-276.73,-111.57,433.78
725,1747402089250,0.27,1.22,0.37,-249.145,-116.33,395.815
726,1747402089260,0.27,1.22,0.37,-221.56,-121.09,357.85
727,1747402089270,0.27,1.22,0.37,-221.56,-121.09,357.85
728,1747402089280,0.27,1.22,0.37,-221.56,-121.09,357.85
729,1747402089290,-0.38,0.58,-0.42,-156.98,-168.7,283.08
730,1747402089300,-0.38,0.58,-0.42,-156.98,-168.7,283.08
731,1747402089310,-0.38,0.58,-0.42,-156.98,-168.7,283.08
732,1747402089320,-0.38,0.58,-0.42,-156.98,-168.7,283.08
733,1747402089330,-1.96,-0.52,-1.85,-66.41,-49.56,207.76
734,1747402089340,-1.96,-0.52,-1.85,-66.41,-49.56,207.76
735,1747402089350,-1.96,-0.52,-1.85,-66.41,-49.56,207.76
736,1747402089360,-2.875,-0.26,-1.83,-66.41,-49.56,207.76
737,1747402089370,-3.79,0.0,-1.81,49.62,29.66,5.31
738,1747402089380,-3.79,0.0,-1.81,49.62,29.66,5.31
739,1747402089390,-3.79,0.0,-1.81,49.62,29.66,5.31
740,1747402089400,-3.65,-0.54,-1.725,54.075,64.27,-60.09
741,1747402089410,-3.51,-1.08,-1.64,58.53,98.88,-125.49
742,1747402089420,-3.51,-1.08,-1.64,58.53,98.88,-125.49
743,1747402089430,-3.51,-1.08,-1.64,58.53,98.88,-125.49
744,1747402089440,-2.22,-0.33,-1.09,102.11,60.455,-202.33
745,1747402089450,-2.22,-0.33,-1.09,145.69,22.03,-279.17
746,1747402089460,-2.22,-0.33,-1.09,145.69,22.03,-279.17
747,1747402089470,-2.22,-0.33,-1.09,145.69,22.03,-279.17
748,1747402089480,-1.33,0.58,-0.73,190.46,31.585,-336.12
749,1747402089490,-0.44,1.49,-0.37,235.23,41.14,-393.07
750,1747402089500,-0.44,1.49,-0.37,235.23,41.14,-393.07
751,1747402089510,-0.44,1.49,-0.37,235.23,41.14,-393.07
752,1747402089520,1.02,2.67,0.48,273.99,-13.92,-384.09
753,1747402089530,1.02,2.67,0.48,273.99,-13.92,-384.09
754,1747402089540,1.02,2.67,0.48,273.99,-13.92,-384.09
755,1747402089550,1.015,2.38,0.51,273.99,-13.92,-384.09
756,1747402089560,1.01,2.09,0.54,181.03,-17.52,-323.97
757,1747402089570,1.01,2.09,0.54,181.03,-17.52,-323.97
758,1747402089580,1.01,2.09,0.54,181.03,-17.52,-323.97
759,1747402089590,1.01,2.09,0.54,181.03,-17.52,-323.97
760,1747402089600,0.69,1.54,0.28,186.28,-17.64,-319.64
761,1747402089610,0.69,1.54,0.28,186.28,-17.64,-319.64
762,1747402089620,0.69,1.54,0.28,186.28,-17.64,-319.64
763,1747402089630,0.69,1.54,0.28,186.28,-17.64,-319.64
764,1747402089640,0.51,1.31,0.09,194.7,47.12,-366.76
765,1747402089650,0.51,1.31,0.09,194.7,47.12,-366.76
766,1747402089660,0.51,1.31,0.09,194.7,47.12,-366.76
767,1747402089670,0.63,1.38,0.32,221.405,88.29,-378.51
768,1747402089680,0.63,1.38,0.32,248.11,129.46,-390.26
769,1747402089690,0.63,1.38,0.32,248.11,129.46,-390.26
770,1747402089700,0.63,1.38,0.32,248.11,129.46,-390.26
771,1747402089710,1.3199999999999998,1.355,0.8400000000000001,232.055,149.75,-368.53
772,1747402089720,2.01,1.33,1.36,216.0,170.04,-346.8
773,1747402089730,2.01,1.33,1.36,216.0,170.04,-346.8
774,1747402089740,2.01,1.33,1.36,216.0,170.04,-346.8
775,1747402089750,2.715,0.895,2.245,213.865,155.82,-299.83500000000004
776,1747402089760,3.42,0.46,3.13,211.73,141.6,-252.87
777,1747402089770,3.42,0.46,3.13,211.73,141.6,-252.87
778,1747402089780,4.325,1.395,3.325,211.73,141.6,-252.87
779,1747402089790,5.23,2.33,3.52,-57.98,-79.47,-149.23
780,1747402089800,5.23,2.33,3.52,-57.98,-79.47,-149.23
781,1747402089810,5.23,2.33,3.52,-57.98,-79.47,-149.23
782,1747402089820,5.23,2.33,3.52,-57.98,-79.47,-149.23
783,1747402089830,4.68,2.4,2.82,2.87,-62.32,218.87
784,1747402089840,4.68,2.4,2.82,2.87,-62.32,218.87
785,1747402089850,4.68,2.4,2.82,2.87,-62.32,218.87
786,1747402089860,3.32,2.005,2.51,-86.91499999999999,52.275000000000006,199.525
787,1747402089870,1.96,1.61,2.2,-176.7,166.87,180.18
788,1747402089880,1.96,1.61,2.2,-176.7,166.87,180.18
789,1747402089890,1.96,1.61,2.2,-176.7,166.87,180.18
790,1747402089900,1.96,1.61,2.2,-176.7,166.87,180.18
791,1747402089910,0.72,1.21,1.41,-271.79,-24.35,255.19
792,1747402089920,0.72,1.21,1.41,-271.79,-24.35,255.19
793,1747402089930,0.72,1.21,1.41,-271.79,-24.35,255.19
794,1747402089940,0.565,1.3199999999999998,0.985,-292.755,-64.205,277.315
795,1747402089950,0.41,1.43,0.56,-313.72,-104.06,299.44
796,1747402089960,0.41,1.43,0.56,-313.72,-104.06,299.44
797,1747402089970,0.41,1.43,0.56,-313.72,-104.06,299.44
798,1747402089980,-0.13,1.5,0.26,-330.93,-95.89,340.03
799,1747402089990,-0.13,1.5,0.26,-330.93,-95.89,340.03
800,1747402090000,-0.13,1.5,0.26,-330.93,-95.89,340.03
801,1747402090010,-0.13,1.5,0.26,-330.93,-95.89,340.03
802,1747402090020,-0.02,1.68,0.33,-313.87,-114.655,340.76
803,1747402090030,-0.02,1.68,0.33,-296.81,-133.42,341.49
804,1747402090040,-0.02,1.68,0.33,-296.81,-133.42,341.49
805,1747402090050,-0.02,1.68,0.33,-296.81,-133.42,341.49
806,1747402090060,-0.02,1.68,0.33,-296.81,-133.42,341.49
807,1747402090070,0.04,1.72,0.45,-312.87,-58.04,370.73
808,1747402090080,0.04,1.72,0.45,-312.87,-58.04,370.73
809,1747402090090,0.04,1.72,0.45,-312.87,-58.04,370.73
810,1747402090100,-0.26,1.17,0.41,-307.25,-133.48,327.88
811,1747402090110,-0.26,1.17,0.41,-307.25,-133.48,327.88
812,1747402090120,-0.26,1.17,0.41,-307.25,-133.48,327.88
813,1747402090130,-0.26,1.17,0.41,-307.25,-133.48,327.88
814,1747402090140,-0.2,0.69,-0.12,-168.33,-263.18,353.45
815,1747402090150,-0.2,0.69,-0.12,-168.33,-263.18,353.45
816,1747402090160,-0.2,0.69,-0.12,-168.33,-263.18,353.45
817,1747402090170,-0.635,0.24,-0.565,-142.085,-229.275,307.155
818,1747402090180,-1.07,-0.21,-1.01,-115.84,-195.37,260.86
819,1747402090190,-1.07,-0.21,-1.01,-115.84,-195.37,260.86
820,1747402090200,-1.07,-0.21,-1.01,-115.84,-195.37,260.86
821,1747402090210,-2.18,-0.305,-1.465,-82.36500000000001,-77.635,168.365
822,1747402090220,-3.29,-0.4,-1.92,-48.89,40.1,75.87
823,1747402090230,-3.29,-0.4,-1.92,-48.89,40.1,75.87
824,1747402090240,-3.29,-0.4,-1.92,-48.89,40.1,75.87
825,1747402090250,-3.61,-1.15,-2.0,-8.48,182.92,-55.42
826,1747402090260,-3.61,-1.15,-2.0,-8.48,182.92,-55.42
827,1747402090270,-3.61,-1.15,-2.0,-8.48,182.92,-55.42
828,1747402090280,-3.61,-1.15,-2.0,-8.48,182.92,-55.42
829,1747402090290,-2.72,-0.88,-1.47,86.18,159.24,-235.23
830,1747402090300,-2.72,-0.88,-1.47,86.18,159.24,-235.23
831,1747402090310,-2.72,-0.88,-1.47,86.18,159.24,-235.23
832,1747402090320,-2.12,-0.23,-1.06,86.18,159.24,-235.23
833,1747402090330,-1.52,0.42,-0.65,258.79,128.48,-343.93
834,1747402090340,-1.52,0.42,-0.65,258.79,128.48,-343.93
835,1747402090350,-1.52,0.42,-0.65,258.79,128.48,-343.93
836,1747402090360,-1.52,0.42,-0.65,258.79,128.48,-343.93
837,1747402090370,0.03,2.39,0.36,305.88,66.47,-347.105
838,1747402090380,0.03,2.39,0.36,352.97,4.46,-350.28
839,1747402090390,0.03,2.39,0.36,352.97,4.46,-350.28
840,1747402090400,0.505,2.52,0.565,352.97,4.46,-350.28
841,1747402090410,,,,,,
842,1747402090420,0.98,2.65,0.77,220.64,34.79,-355.65
843,1747402090430,0.98,2.65,0.77,220.64,34.79,-355.65
844,1747402090440,0.6799999999999999,2.23,0.6799999999999999,188.05,57.74,-355.80499999999995
845,1747402090450,0.38,1.81,0.59,155.46,80.69,-355.96
846,1747402090460,0.38,1.81,0.59,155.46,80.69,-355.96
847,1747402090470,0.38,1.81,0.59,155.46,80.69,-355.96
848,1747402090480,0.37,1.7000000000000002,0.51,177.095,66.44,-341.125
849,1747402090490,0.36,1.59,0.43,198.73,52.19,-326.29
850,1747402090500,0.36,1.59,0.43,198.73,52.19,-326.29
851,1747402090510,0.36,1.59,0.43,198.73,52.19,-326.29
852,1747402090520,0.6,1.48,0.53,218.14,77.21000000000001,-340.055
853,1747402090530,0.6,1.48,0.53,237.55,102.23,-353.82
854,1747402090540,0.6,1.48,0.53,237.55,102.23,-353.82
855,1747402090550,0.6,1.48,0.53,237.55,102.23,-353.82
856,1747402090560,1.39,1.45,1.25,210.27,124.27,-357.24
857,1747402090570,1.39,1.45,1.25,210.27,124.27,-357.24
858,1747402090580,1.39,1.45,1.25,210.27,124.27,-357.24
859,1747402090590,1.39,1.45,1.25,210.27,124.27,-357.24
860,1747402090600,2.58,0.07,2.61,184.2,176.45,-325.74
861,1747402090610,2.58,0.07,2.61,184.2,176.45,-325.74
862,1747402090620,2.58,0.07,2.61,184.2,176.45,-325.74
863,1747402090630,2.58,0.07,2.61,184.2,176.45,-325.74
864,1747402090640,4.65,2.01,3.58,99.79,-157.1,-201.66
865,1747402090650,4.65,2.01,3.58,99.79,-157.1,-201.66
866,1747402090660,4.65,2.01,3.58,99.79,-157.1,-201.66
867,1747402090670,5.2,2.045,3.005,99.79,-157.1,-201.66
868,1747402090680,5.75,2.08,2.43,-82.52,-101.68,81.36
869,1747402090690,5.75,2.08,2.43,-82.52,-101.68,81.36
870,1747402090700,5.75,2.08,2.43,-82.52,-101.68,81.36
871,1747402090710,5.75,2.08,2.43,-82.52,-101.68,81.36
872,1747402090720,3.07,1.72,1.98,-111.27,113.53,230.65
873,1747402090730,3.07,1.72,1.98,-111.27,113.53,230.65
874,1747402090740,3.07,1.72,1.98,-111.27,113.53,230.65
875,1747402090750,1.17,1.39,1.74,-176.09,30.64,298.4
876,1747402090760,1.17,1.39,1.74,-176.09,30.64,298.4
877,1747402090770,1.17,1.39,1.74,-176.09,30.64,298.4
878,1747402090780,0.8999999999999999,1.24,1.32,-176.09,30.64,298.4
879,1747402090790,0.63,1.09,0.9,-252.81,-86.49,321.53
880,1747402090800,0.63,1.09,0.9,-252.81,-86.49,321.53
881,1747402090810,0.63,1.09,0.9,-252.81,-86.49,321.53
882,1747402090820,0.63,1.09,0.9,-252.81,-86.49,321.53
883,1747402090830,0.21,1.33,0.47,-275.545,-76.29499999999999,346.86
884,1747402090840,0.21,1.33,0.47,-298.28,-66.1,372.19
885,1747402090850,0.21,1.33,0.47,-298.28,-66.1,372.19
886,1747402090860,-0.06,1.3250000000000002,0.4649999999999999,-302.095,-98.695,384.98
887,1747402090870,-0.33,1.32,0.46,-305.91,-131.29,397.77
888,1747402090880,-0.33,1.32,0.46,-305.91,-131.29,397.77
889,1747402090890,-0.33,1.32,0.46,-305.91,-131.29,397.77
890,1747402090900,-0.33,1.32,0.46,-305.91,-131.29,397.77
891,1747402090910,0.0,1.25,0.5,-282.29,-187.93,372.31
892,1747402090920,0.0,1.25,0.5,-282.29,-187.93,372.31
893,1747402090930,0.0,1.25,0.5,-282.29,-187.93,372.31
894,1747402090940,0.08,1.235,0.52,-261.445,-183.505,369.535
895,1747402090950,0.16,1.22,0.54,-240.6,-179.08,366.76
896,1747402090960,0.16,1.22,0.54,-240.6,-179.08,366.76
897,1747402090970,0.16,1.22,0.54,-240.6,-179.08,366.76
898,1747402090980,0.16,1.22,0.54,-240.6,-179.08,366.76
899,1747402090990,0.22,0.86,0.34,-90.39,-315.25,365.6
900,1747402091000,0.22,0.86,0.34,-90.39,-315.25,365.6
901,1747402091010,0.22,0.86,0.34,-90.39,-315.25,365.6
902,1747402091020,-0.0349999999999999,0.675,-0.0549999999999999,-41.84,-273.895,352.51
903,1747402091030,-0.29,0.49,-0.45,6.71,-232.54,339.42
904,1747402091040,-0.29,0.49,-0.45,6.71,-232.54,339.42
905,1747402091050,-0.29,0.49,-0.45,6.71,-232.54,339.42
906,1747402091060,-2.92,-0.31,-0.87,6.71,-232.54,339.42
907,1747402091070,-2.92,-0.31,-0.87,6.71,-232.54,339.42
908,1747402091080,-2.92,-0.31,-0.87,-13.85,58.04,176.82
909,1747402091090,-2.92,-0.31,-0.87,-13.85,58.04,176.82
910,1747402091100,-3.65,-0.01,-1.07,47.67,102.29,-5.98
911,1747402091110,-3.65,-0.01,-1.07,47.67,102.29,-5.98
912,1747402091120,-3.65,-0.01,-1.07,47.67,102.29,-5.98
913,1747402091130,-3.65,-0.01,-1.07,47.67,102.29,-5.98
914,1747402091140,-3.72,-0.73,-0.96,27.77,145.45,-159.18
915,1747402091150,-3.72,-0.73,-0.96,27.77,145.45,-159.18
916,1747402091160,-3.72,-0.73,-0.96,27.77,145.45,-159.18
917,1747402091170,-3.72,-0.73,-0.96,27.77,145.45,-159.18
918,1747402091180,-2.33,-0.14,-0.81,70.92,101.81,-353.94
919,1747402091190,-2.33,-0.14,-0.81,70.92,101.81,-353.94
920,1747402091200,-2.33,-0.14,-0.81,70.92,101.81,-353.94
921,1747402091210,-1.585,0.585,-0.71,128.48,92.59,-429.87
922,1747402091220,-0.84,1.31,-0.61,186.04,83.37,-505.8
923,1747402091230,-0.84,1.31,-0.61,186.04,83.37,-505.8
924,1747402091240,-0.84,1.31,-0.61,186.04,83.37,-505.8
925,1747402091250,0.22,2.21,-0.13,226.625,-12.634999999999998,-489.96
926,1747402091260,1.28,3.11,0.35,267.21,-108.64,-474.12
927,1747402091270,1.28,3.11,0.35,267.21,-108.64,-474.12
928,1747402091280,1.28,3.11,0.35,267.21,-108.64,-474.12
929,1747402091290,1.3,2.72,0.45,166.44,3.4200000000000017,-498.87
930,1747402091300,1.32,2.33,0.55,65.67,115.48,-523.62
931,1747402091310,1.32,2.33,0.55,65.67,115.48,-523.62
932,1747402091320,1.32,2.33,0.55,65.67,115.48,-523.62
933,1747402091330,0.08,1.72,0.51,120.24,195.13,-493.59
934,1747402091340,0.08,1.72,0.51,120.24,195.13,-493.59
935,1747402091350,0.08,1.72,0.51,120.24,195.13,-493.59
936,1747402091360,0.08,1.72,0.51,120.24,195.13,-493.59
937,1747402091370,0.1,1.88,0.64,196.35,136.35,-404.66
938,1747402091380,0.1,1.88,0.64,196.35,136.35,-404.66
939,1747402091390,0.1,1.88,0.64,196.35,136.35,-404.66
940,1747402091400,0.165,1.755,0.685,202.515,137.755,-371.855
941,1747402091410,0.23,1.63,0.73,208.68,139.16,-339.05
942,1747402091420,0.23,1.63,0.73,208.68,139.16,-339.05
943,1747402091430,0.23,1.63,0.73,208.68,139.16,-339.05
944,1747402091440,1.12,1.73,1.47,161.93,90.82,-335.21
945,1747402091450,1.12,1.73,1.47,161.93,90.82,-335.21
946,1747402091460,1.12,1.73,1.47,161.93,90.82,-335.21
947,1747402091470,1.12,1.73,1.47,161.93,90.82,-335.21
948,1747402091480,3.26,1.23,2.17,147.035,97.32,-296.235
949,1747402091490,3.26,1.23,2.17,132.14,103.82,-257.26
950,1747402091500,3.26,1.23,2.17,132.14,103.82,-257.26
951,1747402091510,3.26,1.23,2.17,132.14,103.82,-257.26
952,1747402091520,4.18,2.36,3.02,85.14,36.74,-204.77
953,1747402091530,4.18,2.36,3.02,85.14,36.74,-204.77
954,1747402091540,4.18,2.36,3.02,85.14,36.74,-204.77
955,1747402091550,4.345,2.965,2.665,59.325,-26.52,-82.215
956,1747402091560,4.51,3.57,2.31,33.51,-89.78,40.34
957,1747402091570,4.51,3.57,2.31,33.51,-89.78,40.34
958,1747402091580,4.51,3.57,2.31,33.51,-89.78,40.34
959,1747402091590,4.51,3.57,2.31,33.51,-89.78,40.34
960,1747402091600,2.65,2.76,1.92,-132.63,121.95,172.73
961,1747402091610,2.65,2.76,1.92,-132.63,121.95,172.73
962,1747402091620,2.65,2.76,1.92,-132.63,121.95,172.73
963,1747402091630,0.81,1.81,1.62,-245.61,12.51,224.12
964,1747402091640,0.81,1.81,1.62,-245.61,12.51,224.12
965,1747402091650,0.81,1.81,1.62,-245.61,12.51,224.12
966,1747402091660,0.81,1.81,1.62,-245.61,12.51,224.12
967,1747402091670,0.28,1.56,0.81,-268.62,-166.08,319.95
968,1747402091680,0.28,1.56,0.81,-268.62,-166.08,319.95
969,1747402091690,0.28,1.56,0.81,-268.62,-166.08,319.95
970,1747402091700,0.28,1.56,0.81,-268.62,-166.08,319.95
971,1747402091710,-0.21,1.71,0.49,-268.62,-195.07,409.55
972,1747402091720,-0.21,1.71,0.49,-268.62,-195.07,409.55
973,1747402091730,-0.21,1.71,0.49,-268.62,-195.07,409.55
974,1747402091740,-0.325,1.76,0.475,-268.62,-195.07,409.55
975,1747402091750,-0.44,1.81,0.46,-233.4,-242.43,487.61
976,1747402091760,-0.44,1.81,0.46,-233.4,-242.43,487.61
977,1747402091770,-0.44,1.81,0.46,-233.4,-242.43,487.61
978,1747402091780,,,,,,
979,1747402091790,-0.1,1.98,0.43,-254.27,-130.55,460.33
980,1747402091800,-0.1,1.98,0.43,-254.27,-130.55,460.33
981,1747402091810,-0.1,1.98,0.43,-254.27,-130.55,460.33
982,1747402091820,-0.21,1.7,0.39,-254.27,-130.55,460.33
983,1747402091830,-0.21,1.7,0.39,-260.8,-54.69,420.35
984,1747402091840,-0.21,1.7,0.39,-260.8,-54.69,420.35
985,1747402091850,-0.21,1.7,0.39,-260.8,-54.69,420.35
986,1747402091860,-0.2,1.37,0.21,-220.885,-94.36,406.77
987,1747402091870,-0.19,1.04,0.03,-180.97,-134.03,393.19
988,1747402091880,-0.19,1.04,0.03,-180.97,-134.03,393.19
989,1747402091890,-0.19,1.04,0.03,-180.97,-134.03,393.19
990,1747402091900,-0.57,0.4,-0.94,-24.84,-202.82,432.13
991,1747402091910,-0.57,0.4,-0.94,-24.84,-202.82,432.13
992,1747402091920,-0.57,0.4,-0.94,-24.84,-202.82,432.13
993,1747402091930,-0.57,0.4,-0.94,-24.84,-202.82,432.13
994,1747402091940,-3.28,-0.22,-1.36,-22.09,93.99,247.62
995,1747402091950,-3.28,-0.22,-1.36,-22.09,93.99,247.62
996,1747402091960,-3.28,-0.22,-1.36,-22.09,93.99,247.62
997,1747402091970,-3.28,-0.22,-1.36,-22.09,93.99,247.62
998,1747402091980,-3.81,-0.63,-1.42,-17.88,41.93,46.88
999,1747402091990,-3.81,-0.63,-1.42,-17.88,41.93,46.88
