id,timestamp,acc_x,acc_y,acc_z,gyro_x,gyro_y,gyro_z
0,1747402629740,1.0,0.0,0.2,7.14,2.14,-0.31
1,1747402629750,1.0,0.0,0.2,7.14,2.14,-0.31
2,1747402629760,1.02,0.02,0.18,-2.81,3.17,-1.16
3,1747402629770,1.02,0.02,0.18,-2.81,3.17,-1.16
4,1747402629780,1.02,0.02,0.18,-2.81,3.17,-1.16
5,1747402629790,1.02,0.02,0.18,-2.81,3.17,-1.16
6,1747402629800,1.04,0.01,0.23,0.31,-7.08,3.54
7,1747402629810,1.04,0.01,0.23,0.31,-7.08,3.54
8,1747402629820,1.04,0.01,0.23,0.31,-7.08,3.54
9,1747402629830,1.1,0.0,0.21,0.31,-7.08,3.54
10,1747402629840,1.1,0.0,0.21,0.37,-25.27,18.55
11,1747402629850,1.1,0.0,0.21,0.37,-25.27,18.55
12,1747402629860,1.1,0.0,0.21,0.37,-25.27,18.55
13,1747402629870,1.23,0.04,0.16,12.94,-45.96,26.86
14,1747402629880,1.23,0.04,0.16,12.94,-45.96,26.86
15,1747402629890,1.23,0.04,0.16,12.94,-45.96,26.86
16,1747402629900,1.27,0.005,0.19,9.89,-16.235,30.915
17,1747402629910,1.31,-0.03,0.22,6.84,13.49,34.97
18,1747402629920,1.31,-0.03,0.22,6.84,13.49,34.97
19,1747402629930,1.31,-0.03,0.22,6.84,13.49,34.97
20,1747402629940,1.37,-0.02,0.26,6.84,13.49,34.97
21,1747402629950,1.37,-0.02,0.26,4.88,22.03,50.35
22,1747402629960,1.37,-0.02,0.26,4.88,22.03,50.35
23,1747402629970,1.37,-0.02,0.26,4.88,22.03,50.35
24,1747402629980,1.4,-0.04,0.24,-1.89,4.82,98.33
25,1747402629990,1.4,-0.04,0.24,-1.89,4.82,98.33
26,1747402630000,1.4,-0.04,0.24,-1.89,4.82,98.33
27,1747402630010,1.4,-0.04,0.24,-1.89,4.82,98.33
28,1747402630020,1.23,-0.11,0.24,-30.46,22.95,122.86
29,1747402630030,1.23,-0.11,0.24,-30.46,22.95,122.86
30,1747402630040,1.23,-0.11,0.24,-30.46,22.95,122.86
31,1747402630050,1.23,-0.11,0.24,-30.46,22.95,122.86
32,1747402630060,1.06,-0.23,0.19,-34.91,4.88,120.79
33,1747402630070,1.06,-0.23,0.19,-34.91,4.88,120.79
34,1747402630080,1.06,-0.23,0.19,-34.91,4.88,120.79
35,1747402630090,1.06,-0.23,0.19,-34.91,4.88,120.79
36,1747402630100,1.01,-0.26,0.13,-12.63,-17.58,128.23
37,1747402630110,1.01,-0.26,0.13,-12.63,-17.58,128.23
38,1747402630120,1.01,-0.26,0.13,-12.63,-17.58,128.23
39,1747402630130,1.01,-0.26,0.13,-12.63,-17.58,128.23
40,1747402630140,0.92,-0.31,0.17,-21.61,4.82,135.68
41,1747402630150,0.92,-0.31,0.17,-21.61,4.82,135.68
42,1747402630160,0.92,-0.31,0.17,-21.61,4.82,135.68
43,1747402630170,0.92,-0.31,0.17,-21.61,4.82,135.68
44,1747402630180,0.75,-0.4,0.14,-20.39,-6.16,138.92
45,1747402630190,0.75,-0.4,0.14,-20.39,-6.16,138.92
46,1747402630200,0.75,-0.4,0.14,-20.39,-6.16,138.92
47,1747402630210,0.74,-0.42,0.12,-20.39,-6.16,138.92
48,1747402630220,0.74,-0.42,0.12,-23.44,-15.01,130.19
49,1747402630230,0.74,-0.42,0.12,-23.44,-15.01,130.19
50,1747402630240,0.74,-0.42,0.12,-23.44,-15.01,130.19
51,1747402630250,0.665,-0.4549999999999999,0.1149999999999999,-24.475,-11.045,127.535
52,1747402630260,0.59,-0.49,0.11,-25.51,-7.08,124.88
53,1747402630270,0.59,-0.49,0.11,-25.51,-7.08,124.88
54,1747402630280,0.59,-0.49,0.11,-25.51,-7.08,124.88
55,1747402630290,0.59,-0.54,0.11,-20.26,-6.38,119.815
56,1747402630300,0.59,-0.59,0.11,-15.01,-5.68,114.75
57,1747402630310,0.59,-0.59,0.11,-15.01,-5.68,114.75
58,1747402630320,0.59,-0.59,0.11,-15.01,-5.68,114.75
59,1747402630330,0.51,-0.63,0.09,-23.32,5.49,112.79
60,1747402630340,0.51,-0.63,0.09,-23.32,5.49,112.79
61,1747402630350,0.51,-0.63,0.09,-23.32,5.49,112.79
62,1747402630360,0.51,-0.63,0.09,-23.32,5.49,112.79
63,1747402630370,0.43,-0.71,0.08,-29.6,1.04,92.65
64,1747402630380,0.43,-0.71,0.08,-29.6,1.04,92.65
65,1747402630390,0.43,-0.71,0.08,-29.6,1.04,92.65
66,1747402630400,,,,,,
67,1747402630410,0.41,-0.77,0.06,-27.16,-10.31,86.67
68,1747402630420,,,,,,
69,1747402630430,0.41,-0.77,0.06,-27.16,-10.31,86.67
70,1747402630440,,,,,,
71,1747402630450,0.41,-0.77,0.06,-27.16,-10.31,86.67
72,1747402630460,0.41,-0.77,0.06,-27.16,-10.31,86.67
73,1747402630470,0.4,-0.83,0.03,-23.19,-6.77,65.31
74,1747402630480,0.4,-0.83,0.03,-23.19,-6.77,65.31
75,1747402630490,0.41,-0.86,0.02,-16.3,0.37,60.0
76,1747402630500,0.41,-0.86,0.02,-16.3,0.37,60.0
77,1747402630510,,,,,,
78,1747402630520,0.41,-0.86,0.02,-16.3,0.37,60.0
79,1747402630530,0.37,-0.87,0.06,-16.3,0.37,60.0
80,1747402630540,0.37,-0.87,0.06,-12.39,-3.3,56.4
81,1747402630550,0.37,-0.87,0.06,-12.39,-3.3,56.4
82,1747402630560,,,,,,
83,1747402630570,0.4,-0.91,0.03,-18.92,-19.78,46.81
84,1747402630580,,,,,,
85,1747402630590,0.4,-0.91,0.03,-18.92,-19.78,46.81
86,1747402630600,0.33,-0.94,-0.02,-12.02,-2.99,49.74
87,1747402630610,0.33,-0.94,-0.02,-12.02,-2.99,49.74
88,1747402630620,0.33,-0.94,-0.02,-12.02,-2.99,49.74
89,1747402630630,0.33,-0.94,-0.02,-12.02,-2.99,49.74
90,1747402630640,0.27,-0.95,-0.01,-7.93,-0.37,48.03
91,1747402630650,0.27,-0.95,-0.01,-7.93,-0.37,48.03
92,1747402630660,0.27,-0.95,-0.01,-7.93,-0.37,48.03
93,1747402630670,0.27,-0.95,-0.01,-7.93,-0.37,48.03
94,1747402630680,0.26,-0.96,0.0,-3.72,-23.32,42.48
95,1747402630690,0.26,-0.96,0.0,-3.72,-23.32,42.48
96,1747402630700,0.26,-0.96,0.0,-3.72,-23.32,42.48
97,1747402630710,0.27,-0.96,0.0,-3.72,-23.32,42.48
98,1747402630720,0.27,-0.96,0.0,-2.32,-24.29,42.18
99,1747402630730,0.27,-0.96,0.0,-2.32,-24.29,42.18
100,1747402630740,0.27,-0.96,0.0,-2.32,-24.29,42.18
101,1747402630750,0.19,-0.98,0.01,-2.32,-24.29,42.18
102,1747402630760,0.19,-0.98,0.01,0.06,-13.73,42.54
103,1747402630770,0.19,-0.98,0.01,0.06,-13.73,42.54
104,1747402630780,0.19,-0.98,0.01,0.06,-13.73,42.54
105,1747402630790,0.19,-0.98,0.01,0.06,-13.73,42.54
106,1747402630800,0.12,-0.96,0.01,0.61,-14.4,24.11
107,1747402630810,0.12,-0.96,0.01,0.61,-14.4,24.11
108,1747402630820,0.12,-0.96,0.01,0.61,-14.4,24.11
109,1747402630830,0.16,-1.0,0.0,2.75,-18.25,16.05
110,1747402630840,0.16,-1.0,0.0,2.75,-18.25,16.05
111,1747402630850,0.16,-1.0,0.0,2.75,-18.25,16.05
112,1747402630860,0.16,-1.0,0.0,2.75,-18.25,16.05
113,1747402630870,0.17,-0.95,0.04,2.99,-1.77,11.6
114,1747402630880,0.17,-0.95,0.04,2.99,-1.77,11.6
115,1747402630890,0.17,-0.95,0.04,2.99,-1.77,11.6
116,1747402630900,0.17,-0.95,0.04,2.99,-1.77,11.6
117,1747402630910,0.17,-0.99,0.06,-1.4,-2.32,1.95
118,1747402630920,0.17,-0.99,0.06,-1.4,-2.32,1.95
119,1747402630930,0.17,-0.99,0.06,-1.4,-2.32,1.95
120,1747402630940,0.17,-0.99,0.06,-1.4,-2.32,1.95
121,1747402630950,0.19,-0.97,0.05,-2.26,-6.96,-0.31
122,1747402630960,0.19,-0.97,0.05,-2.26,-6.96,-0.31
123,1747402630970,0.19,-0.97,0.05,-2.26,-6.96,-0.31
124,1747402630980,0.23,-1.0,0.01,-2.26,-6.96,-0.31
125,1747402630990,0.23,-1.0,0.01,-6.9,-4.27,-0.31
126,1747402631000,0.23,-1.0,0.01,-6.9,-4.27,-0.31
127,1747402631010,0.23,-1.0,0.01,-6.9,-4.27,-0.31
128,1747402631020,0.23,-1.0,0.01,-6.9,-4.27,-0.31
129,1747402631030,0.23,-0.995,0.02,-6.045,-9.185,-0.7050000000000001
130,1747402631040,0.23,-0.99,0.03,-5.19,-14.1,-1.1
131,1747402631050,0.23,-0.99,0.03,-5.19,-14.1,-1.1
132,1747402631060,0.26,-0.97,0.02,-13.18,-11.41,-1.59
133,1747402631070,0.26,-0.97,0.02,-13.18,-11.41,-1.59
134,1747402631080,0.26,-0.97,0.02,-13.18,-11.41,-1.59
135,1747402631090,0.23,-1.01,-0.03,-16.24,-5.31,2.75
136,1747402631100,0.23,-1.01,-0.03,-16.24,-5.31,2.75
137,1747402631110,0.23,-1.01,-0.03,-16.24,-5.31,2.75
138,1747402631120,0.23,-1.01,-0.03,-16.24,-5.31,2.75
139,1747402631130,0.23,-1.01,-0.03,-16.24,-5.31,2.75
140,1747402631140,0.15,-0.99,-0.06,-6.53,9.46,2.5
141,1747402631150,0.15,-0.99,-0.06,-6.53,9.46,2.5
142,1747402631160,,,,,,
143,1747402631170,0.15,-0.99,-0.06,-6.53,9.46,2.5
144,1747402631180,0.15,-0.97,-0.02,-1.53,3.42,-1.83
145,1747402631190,0.15,-0.97,-0.02,-1.53,3.42,-1.83
146,1747402631200,0.15,-0.97,-0.02,-1.53,3.42,-1.83
147,1747402631210,0.15,-0.97,-0.02,-1.53,3.42,-1.83
148,1747402631220,0.19,-0.98,0.01,-1.34,-0.98,-5.62
149,1747402631230,0.19,-0.98,0.01,-1.34,-0.98,-5.62
150,1747402631240,0.19,-0.98,0.01,-1.34,-0.98,-5.62
151,1747402631250,0.17,-0.97,0.01,0.73,15.44,-10.01
152,1747402631260,0.17,-0.97,0.01,0.73,15.44,-10.01
153,1747402631270,0.17,-0.97,0.01,0.73,15.44,-10.01
154,1747402631280,0.17,-0.97,0.01,0.73,15.44,-10.01
155,1747402631290,0.13,-0.98,-0.01,-0.79,22.89,-18.01
156,1747402631300,0.13,-0.98,-0.01,-0.79,22.89,-18.01
157,1747402631310,0.13,-0.98,-0.01,-0.79,22.89,-18.01
158,1747402631320,0.115,-0.98,-0.01,1.7399999999999998,21.06,-23.41
159,1747402631330,0.1,-0.98,-0.01,4.27,19.23,-28.81
160,1747402631340,0.1,-0.98,-0.01,4.27,19.23,-28.81
161,1747402631350,0.1,-0.98,-0.01,4.27,19.23,-28.81
162,1747402631360,0.075,-0.965,0.015,10.74,19.105,-36.685
163,1747402631370,0.05,-0.95,0.04,17.21,18.98,-44.56
164,1747402631380,0.05,-0.95,0.04,17.21,18.98,-44.56
165,1747402631390,0.05,-0.95,0.04,17.21,18.98,-44.56
166,1747402631400,0.03,-0.88,0.03,13.31,-1.77,-70.31
167,1747402631410,0.03,-0.88,0.03,13.31,-1.77,-70.31
168,1747402631420,0.03,-0.88,0.03,13.31,-1.77,-70.31
169,1747402631430,0.03,-0.88,0.03,13.31,-1.77,-70.31
170,1747402631440,0.03,-0.88,0.03,13.31,-1.77,-70.31
171,1747402631450,0.21,-0.87,-0.02,14.59,-17.27,-97.72
172,1747402631460,0.21,-0.87,-0.02,14.59,-17.27,-97.72
173,1747402631470,0.21,-0.87,-0.02,14.59,-17.27,-97.72
174,1747402631480,0.39,-0.83,0.02,18.01,-5.43,-99.67
175,1747402631490,0.39,-0.83,0.02,18.01,-5.43,-99.67
176,1747402631500,0.39,-0.83,0.02,18.01,-5.43,-99.67
177,1747402631510,0.39,-0.83,0.02,18.01,-5.43,-99.67
178,1747402631520,0.4,-0.79,0.05,20.87,35.1,-100.16
179,1747402631530,0.4,-0.79,0.05,20.87,35.1,-100.16
180,1747402631540,0.4,-0.79,0.05,20.87,35.1,-100.16
181,1747402631550,0.4,-0.79,0.05,20.87,35.1,-100.16
182,1747402631560,0.52,-0.72,0.04,6.41,-15.08,-116.64
183,1747402631570,0.52,-0.72,0.04,6.41,-15.08,-116.64
184,1747402631580,0.52,-0.72,0.04,6.41,-15.08,-116.64
185,1747402631590,0.66,-0.77,-0.02,6.41,-15.08,-116.64
186,1747402631600,0.66,-0.77,-0.02,13.37,-5.92,-87.95
187,1747402631610,0.66,-0.77,-0.02,13.37,-5.92,-87.95
188,1747402631620,0.66,-0.77,-0.02,13.37,-5.92,-87.95
189,1747402631630,0.61,-0.6,0.09,13.37,-5.92,-87.95
190,1747402631640,0.61,-0.6,0.09,25.76,5.8,-107.85
191,1747402631650,0.61,-0.6,0.09,25.76,5.8,-107.85
192,1747402631660,0.61,-0.6,0.09,25.76,5.8,-107.85
193,1747402631670,0.85,-0.62,0.11,15.260000000000002,-14.65,-103.7
194,1747402631680,0.85,-0.62,0.11,4.76,-35.1,-99.55
195,1747402631690,0.85,-0.62,0.11,4.76,-35.1,-99.55
196,1747402631700,0.85,-0.62,0.11,4.76,-35.1,-99.55
197,1747402631710,0.7,-0.59,0.01,6.04,5.154999999999998,-87.61500000000001
198,1747402631720,,,,,,
199,1747402631730,0.7,-0.59,0.01,7.32,45.41,-75.68
200,1747402631740,0.7,-0.59,0.01,7.32,45.41,-75.68
201,1747402631750,0.72,-0.43,0.12,12.39,-27.22,-104.19
202,1747402631760,0.72,-0.43,0.12,12.39,-27.22,-104.19
203,1747402631770,0.72,-0.43,0.12,12.39,-27.22,-104.19
204,1747402631780,0.9,-0.485,0.1,4.61,-19.315,-87.31
205,1747402631790,1.08,-0.54,0.08,-3.17,-11.41,-70.43
206,1747402631800,1.08,-0.54,0.08,-3.17,-11.41,-70.43
207,1747402631810,1.08,-0.54,0.08,-3.17,-11.41,-70.43
208,1747402631820,1.08,-0.54,0.08,-3.17,-11.41,-70.43
209,1747402631830,0.73,-0.42,0.06,12.63,90.7,-84.17
210,1747402631840,0.73,-0.42,0.06,12.63,90.7,-84.17
211,1747402631850,0.73,-0.42,0.06,12.63,90.7,-84.17
212,1747402631860,0.89,-0.385,0.125,8.815000000000001,15.015,-85.63499999999999
213,1747402631870,1.05,-0.35,0.19,5.0,-60.67,-87.1
214,1747402631880,1.05,-0.35,0.19,5.0,-60.67,-87.1
215,1747402631890,1.05,-0.35,0.19,5.0,-60.67,-87.1
216,1747402631900,1.19,-0.45,0.15,12.21,29.11,-60.42
217,1747402631910,1.19,-0.45,0.15,12.21,29.11,-60.42
218,1747402631920,1.19,-0.45,0.15,12.21,29.11,-60.42
219,1747402631930,1.19,-0.45,0.15,12.21,29.11,-60.42
220,1747402631940,0.9,-0.34,0.18,14.77,27.47,-70.8
221,1747402631950,0.9,-0.34,0.18,14.77,27.47,-70.8
222,1747402631960,0.9,-0.34,0.18,14.77,27.47,-70.8
223,1747402631970,0.9,-0.34,0.18,14.77,27.47,-70.8
224,1747402631980,1.15,-0.36,0.17,9.52,-32.84,-63.54
225,1747402631990,1.15,-0.36,0.17,9.52,-32.84,-63.54
226,1747402632000,1.15,-0.36,0.17,9.52,-32.84,-63.54
227,1747402632010,1.15,-0.36,0.17,9.52,-32.84,-63.54
228,1747402632020,1.04,-0.34,0.13,9.52,29.42,-49.74
229,1747402632030,1.04,-0.34,0.13,9.52,29.42,-49.74
230,1747402632040,1.04,-0.34,0.13,9.52,29.42,-49.74
231,1747402632050,1.04,-0.34,0.13,9.52,29.42,-49.74
232,1747402632060,0.87,-0.23,0.13,7.63,6.1,-59.88
233,1747402632070,0.87,-0.23,0.13,7.63,6.1,-59.88
234,1747402632080,0.87,-0.23,0.13,7.63,6.1,-59.88
235,1747402632090,0.87,-0.23,0.13,7.63,6.1,-59.88
236,1747402632100,1.22,-0.22,0.15,13.37,-48.89,-39.61
237,1747402632110,1.22,-0.22,0.15,13.37,-48.89,-39.61
238,1747402632120,1.22,-0.22,0.15,13.37,-48.89,-39.61
239,1747402632130,1.22,-0.22,0.15,13.37,-48.89,-39.61
240,1747402632140,1.15,-0.16,0.19,9.22,17.21,-33.51
241,1747402632150,1.15,-0.16,0.19,9.22,17.21,-33.51
242,1747402632160,1.15,-0.16,0.19,9.22,17.21,-33.51
243,1747402632170,1.06,-0.18,0.17,9.22,17.21,-33.51
244,1747402632180,1.06,-0.18,0.17,0.98,-6.84,-29.91
245,1747402632190,1.06,-0.18,0.17,0.98,-6.84,-29.91
246,1747402632200,1.06,-0.18,0.17,0.98,-6.84,-29.91
247,1747402632210,1.14,-0.18,0.16,-2.32,-17.76,-15.2
248,1747402632220,1.14,-0.18,0.16,-2.32,-17.76,-15.2
249,1747402632230,1.14,-0.18,0.16,-2.32,-17.76,-15.2
250,1747402632240,1.14,-0.18,0.16,-2.32,-17.76,-15.2
251,1747402632250,1.06,-0.19,0.14,-6.41,-2.44,-6.71
252,1747402632260,1.06,-0.19,0.14,-6.41,-2.44,-6.71
253,1747402632270,1.06,-0.19,0.14,-6.41,-2.44,-6.71
254,1747402632280,1.06,-0.19,0.14,-6.41,-2.44,-6.71
255,1747402632290,1.02,-0.17,0.12,-4.94,-7.02,-11.29
256,1747402632300,1.02,-0.17,0.12,-4.94,-7.02,-11.29
257,1747402632310,1.02,-0.17,0.12,-4.94,-7.02,-11.29
258,1747402632320,1.05,-0.165,0.1149999999999999,-5.34,-14.865,-9.245
259,1747402632330,1.08,-0.16,0.11,-5.74,-22.71,-7.2
260,1747402632340,1.08,-0.16,0.11,-5.74,-22.71,-7.2
261,1747402632350,1.08,-0.16,0.11,-5.74,-22.71,-7.2
262,1747402632360,1.06,-0.155,0.105,-3.33,-7.905,-5.28
263,1747402632370,1.04,-0.15,0.1,-0.92,6.9,-3.36
264,1747402632380,1.04,-0.15,0.1,-0.92,6.9,-3.36
265,1747402632390,1.04,-0.15,0.1,-0.92,6.9,-3.36
266,1747402632400,1.0,-0.15,0.12,-1.1,-6.16,-3.48
267,1747402632410,1.0,-0.15,0.12,-1.1,-6.16,-3.48
268,1747402632420,1.0,-0.15,0.12,-1.1,-6.16,-3.48
269,1747402632430,1.0,-0.15,0.12,-1.1,-6.16,-3.48
270,1747402632440,1.04,-0.14,0.11,-2.38,-7.02,-2.56
271,1747402632450,1.04,-0.14,0.11,-2.38,-7.02,-2.56
272,1747402632460,1.04,-0.14,0.11,-2.38,-7.02,-2.56
273,1747402632470,1.04,-0.14,0.11,-2.38,-7.02,-2.56
274,1747402632480,1.01,-0.13,0.1,-2.44,7.14,1.28
275,1747402632490,1.01,-0.13,0.1,-2.44,7.14,1.28
276,1747402632500,1.01,-0.13,0.1,-2.44,7.14,1.28
277,1747402632510,1.01,-0.13,0.1,-2.44,7.14,1.28
278,1747402632520,1.01,-0.14,0.1,-3.3,-2.2,1.34
279,1747402632530,1.01,-0.14,0.1,-3.3,-2.2,1.34
280,1747402632540,1.01,-0.14,0.1,-3.3,-2.2,1.34
281,1747402632550,1.02,-0.14,0.1,-2.9,0.0299999999999998,2.015
282,1747402632560,1.03,-0.14,0.1,-2.5,2.26,2.69
283,1747402632570,1.03,-0.14,0.1,-2.5,2.26,2.69
284,1747402632580,1.03,-0.14,0.1,-2.5,2.26,2.69
285,1747402632590,1.015,-0.14,0.1,-2.5,2.26,2.69
286,1747402632600,1.0,-0.14,0.1,-4.39,6.71,0.31
287,1747402632610,1.0,-0.14,0.1,-4.39,6.71,0.31
288,1747402632620,1.0,-0.14,0.1,-4.39,6.71,0.31
289,1747402632630,1.06,-0.15,0.11,-3.85,-3.36,2.26
290,1747402632640,1.06,-0.15,0.11,-3.85,-3.36,2.26
291,1747402632650,1.06,-0.15,0.11,-3.85,-3.36,2.26
292,1747402632660,1.06,-0.15,0.11,-3.85,-3.36,2.26
293,1747402632670,1.05,-0.16,0.1,-2.44,9.28,4.82
294,1747402632680,1.05,-0.16,0.1,-2.44,9.28,4.82
295,1747402632690,1.05,-0.16,0.1,-2.44,9.28,4.82
296,1747402632700,1.05,-0.16,0.1,-2.44,9.28,4.82
297,1747402632710,1.07,-0.15,0.11,-4.39,4.46,7.14
298,1747402632720,1.07,-0.15,0.11,-4.39,4.46,7.14
299,1747402632730,1.07,-0.15,0.11,-4.39,4.46,7.14
300,1747402632740,1.07,-0.15,0.11,-4.39,4.46,7.14
301,1747402632750,1.12,-0.17,0.11,-1.28,6.47,14.59
302,1747402632760,1.12,-0.17,0.11,-1.28,6.47,14.59
303,1747402632770,1.12,-0.17,0.11,-1.28,6.47,14.59
304,1747402632780,1.12,-0.17,0.11,-1.28,6.47,14.59
305,1747402632790,1.11,-0.16,0.12,-0.67,15.505,15.415
306,1747402632800,1.1,-0.15,0.13,-0.06,24.54,16.24
307,1747402632810,1.1,-0.15,0.13,-0.06,24.54,16.24
308,1747402632820,1.15,-0.16,0.16,-4.21,11.35,24.05
309,1747402632830,1.15,-0.16,0.16,-4.21,11.35,24.05
310,1747402632840,1.15,-0.16,0.16,-4.21,11.35,24.05
311,1747402632850,1.15,-0.16,0.16,-4.21,11.35,24.05
312,1747402632860,1.16,-0.18,0.16,-4.21,11.35,24.05
313,1747402632870,1.16,-0.18,0.16,-8.36,7.51,40.1
314,1747402632880,1.16,-0.18,0.16,-8.36,7.51,40.1
315,1747402632890,1.16,-0.18,0.16,-8.36,7.51,40.1
316,1747402632900,1.12,-0.22,0.14,-10.74,10.99,49.93
317,1747402632910,1.12,-0.22,0.14,-10.74,10.99,49.93
318,1747402632920,1.12,-0.22,0.14,-10.74,10.99,49.93
319,1747402632930,1.105,-0.2299999999999999,0.145,-10.74,10.99,49.93
320,1747402632940,1.09,-0.24,0.15,-11.29,2.5,60.97
321,1747402632950,1.09,-0.24,0.15,-11.29,2.5,60.97
322,1747402632960,1.09,-0.24,0.15,-11.29,2.5,60.97
323,1747402632970,1.09,-0.24,0.15,-11.29,2.5,60.97
324,1747402632980,1.1,-0.29,0.17,-12.51,-1.65,68.54
325,1747402632990,1.1,-0.29,0.17,-12.51,-1.65,68.54
326,1747402633000,1.1,-0.29,0.17,-12.51,-1.65,68.54
327,1747402633010,1.07,-0.3,0.165,-12.51,-1.65,68.54
328,1747402633020,1.04,-0.31,0.16,-16.05,11.05,78.8
329,1747402633030,1.04,-0.31,0.16,-16.05,11.05,78.8
330,1747402633040,1.04,-0.31,0.16,-16.05,11.05,78.8
331,1747402633050,1.0,-0.3299999999999999,0.15,-18.34,9.28,80.78
332,1747402633060,0.96,-0.35,0.14,-20.63,7.51,82.76
333,1747402633070,0.96,-0.35,0.14,-20.63,7.51,82.76
334,1747402633080,0.96,-0.35,0.14,-20.63,7.51,82.76
335,1747402633090,0.94,-0.41,0.12,-23.07,-3.17,93.75
336,1747402633100,0.94,-0.41,0.12,-23.07,-3.17,93.75
337,1747402633110,0.94,-0.41,0.12,-23.07,-3.17,93.75
338,1747402633120,0.94,-0.41,0.12,-23.07,-3.17,93.75
339,1747402633130,0.86,-0.45,0.11,-19.17,17.64,93.32
340,1747402633140,0.86,-0.45,0.11,-19.17,17.64,93.32
341,1747402633150,0.86,-0.45,0.11,-19.17,17.64,93.32
342,1747402633160,0.86,-0.45,0.11,-19.17,17.64,93.32
343,1747402633170,0.8,-0.48,0.12,-12.63,25.7,84.11
344,1747402633180,0.8,-0.48,0.12,-12.63,25.7,84.11
345,1747402633190,0.8,-0.48,0.12,-12.63,25.7,84.11
346,1747402633200,0.8,-0.48,0.12,-12.63,25.7,84.11
347,1747402633210,0.77,-0.56,0.12,-16.3,1.53,86.55
348,1747402633220,0.77,-0.56,0.12,-16.3,1.53,86.55
349,1747402633230,0.77,-0.56,0.12,-16.3,1.53,86.55
350,1747402633240,0.77,-0.56,0.12,-16.3,1.53,86.55
351,1747402633250,0.72,-0.58,0.12,-11.72,2.44,86.98
352,1747402633260,0.72,-0.58,0.12,-11.72,2.44,86.98
353,1747402633270,0.72,-0.58,0.12,-11.72,2.44,86.98
354,1747402633280,0.64,-0.63,0.11,-11.72,2.44,86.98
355,1747402633290,0.64,-0.63,0.11,-14.4,3.11,83.25
356,1747402633300,0.64,-0.63,0.11,-14.4,3.11,83.25
357,1747402633310,0.64,-0.63,0.11,-14.4,3.11,83.25
358,1747402633320,0.62,-0.69,0.11,-14.59,-5.07,77.45
359,1747402633330,0.62,-0.69,0.11,-14.59,-5.07,77.45
360,1747402633340,0.62,-0.69,0.11,-14.59,-5.07,77.45
361,1747402633350,0.62,-0.69,0.11,-14.59,-5.07,77.45
362,1747402633360,0.6,-0.73,0.13,-9.98,-3.085,78.155
363,1747402633370,0.6,-0.73,0.13,-5.37,-1.1,78.86
364,1747402633380,0.6,-0.73,0.13,-5.37,-1.1,78.86
365,1747402633390,0.6,-0.73,0.13,-5.37,-1.1,78.86
366,1747402633400,0.53,-0.74,0.13,-7.93,-0.31,67.02
367,1747402633410,0.53,-0.74,0.13,-7.93,-0.31,67.02
368,1747402633420,0.53,-0.74,0.13,-7.93,-0.31,67.02
369,1747402633430,0.53,-0.74,0.13,-7.93,-0.31,67.02
370,1747402633440,0.54,-0.77,0.12,-11.96,-8.12,62.56
371,1747402633450,0.54,-0.77,0.12,-11.96,-8.12,62.56
372,1747402633460,0.54,-0.77,0.12,-11.96,-8.12,62.56
373,1747402633470,0.54,-0.79,0.1149999999999999,-11.96,-8.12,62.56
374,1747402633480,0.54,-0.81,0.11,-12.02,-5.43,67.57
375,1747402633490,0.54,-0.81,0.11,-12.02,-5.43,67.57
376,1747402633500,0.54,-0.81,0.11,-12.02,-5.43,67.57
377,1747402633510,0.52,-0.81,0.11,-15.41,-1.13,63.325
378,1747402633520,0.5,-0.81,0.11,-18.8,3.17,59.08
379,1747402633530,0.5,-0.81,0.11,-18.8,3.17,59.08
380,1747402633540,0.5,-0.81,0.11,-18.8,3.17,59.08
381,1747402633550,0.49,-0.835,0.095,-21.3,-0.8850000000000002,62.805
382,1747402633560,0.48,-0.86,0.08,-23.8,-4.94,66.53
383,1747402633570,0.48,-0.86,0.08,-23.8,-4.94,66.53
384,1747402633580,0.48,-0.86,0.08,-23.8,-4.94,66.53
385,1747402633590,0.4449999999999999,-0.87,0.05,-23.8,-4.94,66.53
386,1747402633600,0.41,-0.88,0.02,-22.77,-3.66,75.68
387,1747402633610,0.41,-0.88,0.02,-22.77,-3.66,75.68
388,1747402633620,0.41,-0.88,0.02,-22.77,-3.66,75.68
389,1747402633630,0.37,-0.9,0.03,-21.855,0.03,71.195
390,1747402633640,0.37,-0.9,0.03,-20.94,3.72,66.71
391,1747402633650,0.37,-0.9,0.03,-20.94,3.72,66.71
392,1747402633660,0.37,-0.9,0.03,-20.94,3.72,66.71
393,1747402633670,0.31,-0.94,0.02,-18.86,-2.26,79.22
394,1747402633680,0.31,-0.94,0.02,-18.86,-2.26,79.22
395,1747402633690,0.31,-0.94,0.02,-18.86,-2.26,79.22
396,1747402633700,0.31,-0.94,0.02,-18.86,-2.26,79.22
397,1747402633710,0.25,-0.94,0.02,-7.69,-5.92,65.55
398,1747402633720,0.25,-0.94,0.02,-7.69,-5.92,65.55
399,1747402633730,0.25,-0.94,0.02,-7.69,-5.92,65.55
400,1747402633740,0.25,-0.94,0.02,-7.69,-5.92,65.55
401,1747402633750,0.24,-0.95,0.04,-11.84,-15.14,71.66
402,1747402633760,0.24,-0.95,0.04,-11.84,-15.14,71.66
403,1747402633770,0.24,-0.95,0.04,-11.84,-15.14,71.66
404,1747402633780,0.195,-0.955,0.045,-11.69,-20.875,73.06
405,1747402633790,0.15,-0.96,0.05,-11.54,-26.61,74.46
406,1747402633800,0.15,-0.96,0.05,-11.54,-26.61,74.46
407,1747402633810,0.15,-0.96,0.05,-11.54,-26.61,74.46
408,1747402633820,0.12,-0.96,0.05,-10.01,-24.93,67.13499999999999
409,1747402633830,0.09,-0.96,0.05,-8.48,-23.25,59.81
410,1747402633840,0.09,-0.96,0.05,-8.48,-23.25,59.81
411,1747402633850,0.09,-0.96,0.05,-8.48,-23.25,59.81
412,1747402633860,0.065,-0.955,0.04,-11.685,-18.095,51.085
413,1747402633870,0.04,-0.95,0.03,-14.89,-12.94,42.36
414,1747402633880,0.04,-0.95,0.03,-14.89,-12.94,42.36
415,1747402633890,0.02,-0.97,0.015,-14.89,-12.94,42.36
416,1747402633900,0.0,-0.99,0.0,-11.23,4.15,34.06
417,1747402633910,0.0,-0.99,0.0,-11.23,4.15,34.06
418,1747402633920,0.0,-0.99,0.0,-11.23,4.15,34.06
419,1747402633930,0.0,-0.99,0.0,-11.23,4.15,34.06
420,1747402633940,-0.07,-0.96,-0.02,-5.19,17.09,21.73
421,1747402633950,-0.07,-0.96,-0.02,-5.19,17.09,21.73
422,1747402633960,-0.07,-0.96,-0.02,-5.19,17.09,21.73
423,1747402633970,-0.07,-0.96,-0.02,-5.19,17.09,21.73
424,1747402633980,-0.06,-0.99,-0.01,-2.32,10.07,4.15
425,1747402633990,-0.06,-0.99,-0.01,-2.32,10.07,4.15
426,1747402634000,-0.06,-0.99,-0.01,-2.32,10.07,4.15
427,1747402634010,-0.06,-0.99,-0.01,-2.32,10.07,4.15
428,1747402634020,0.0,-0.99,0.0,-1.16,-3.05,-4.58
429,1747402634030,0.0,-0.99,0.0,-1.16,-3.05,-4.58
430,1747402634040,0.0,-0.99,0.0,-1.16,-3.05,-4.58
431,1747402634050,0.1,-1.01,0.02,0.49,-3.85,-4.7
432,1747402634060,0.1,-1.01,0.02,0.49,-3.85,-4.7
433,1747402634070,0.1,-1.01,0.02,0.49,-3.85,-4.7
434,1747402634080,0.11,-1.0,0.03,0.0,0.43,-3.11
435,1747402634090,0.11,-1.0,0.03,0.0,0.43,-3.11
436,1747402634100,0.11,-1.0,0.03,0.0,0.43,-3.11
437,1747402634110,0.11,-1.0,0.03,0.0,0.43,-3.11
438,1747402634120,0.12,-1.01,0.02,-2.87,2.93,-2.38
439,1747402634130,0.12,-1.01,0.02,-2.87,2.93,-2.38
440,1747402634140,0.12,-1.01,0.02,-2.87,2.93,-2.38
441,1747402634150,0.105,-1.01,0.01,-4.09,1.955,1.375
442,1747402634160,0.09,-1.01,0.0,-5.31,0.98,5.13
443,1747402634170,0.09,-1.01,0.0,-5.31,0.98,5.13
444,1747402634180,0.09,-1.01,0.0,-5.31,0.98,5.13
445,1747402634190,0.08,-1.01,0.0,-4.484999999999999,3.3,4.275
446,1747402634200,0.07,-1.01,0.0,-3.66,5.62,3.42
447,1747402634210,0.07,-1.01,0.0,-3.66,5.62,3.42
448,1747402634220,0.07,-1.01,0.0,-3.66,5.62,3.42
449,1747402634230,0.07,-1.005,-0.005,-4.21,2.23,2.38
450,1747402634240,0.07,-1.0,-0.01,-4.76,-1.16,1.34
451,1747402634250,0.07,-1.0,-0.01,-4.76,-1.16,1.34
452,1747402634260,0.07,-1.0,-0.01,-4.76,-1.16,1.34
453,1747402634270,0.065,-0.995,-0.01,-3.51,0.305,0.7000000000000001
454,1747402634280,0.06,-0.99,-0.01,-2.26,1.77,0.06
455,1747402634290,0.06,-0.99,-0.01,-2.26,1.77,0.06
456,1747402634300,0.06,-0.99,-0.01,-2.26,1.77,0.06
457,1747402634310,0.065,-0.99,0.0,-1.68,1.86,-0.64
458,1747402634320,0.07,-0.99,0.01,-1.1,1.95,-1.34
459,1747402634330,0.07,-0.99,0.01,-1.1,1.95,-1.34
460,1747402634340,0.07,-0.99,0.01,-1.1,1.95,-1.34
461,1747402634350,0.04,-0.99,0.0,-2.26,3.72,-3.97
462,1747402634360,0.04,-0.99,0.0,-2.26,3.72,-3.97
463,1747402634370,0.04,-0.99,0.0,-2.26,3.72,-3.97
464,1747402634380,0.04,-0.99,0.0,-2.26,3.72,-3.97
465,1747402634390,0.05,-0.99,-0.01,-0.37,-8.54,-6.53
466,1747402634400,0.05,-0.99,-0.01,-0.37,-8.54,-6.53
467,1747402634410,0.05,-0.99,-0.01,-0.37,-8.54,-6.53
468,1747402634420,0.05,-0.99,-0.01,-0.37,-8.54,-6.53
469,1747402634430,0.08,-1.0,0.01,2.75,-7.08,-10.5
470,1747402634440,0.08,-1.0,0.01,2.75,-7.08,-10.5
471,1747402634450,0.08,-1.0,0.01,2.75,-7.08,-10.5
472,1747402634460,0.11,-1.0,0.04,1.28,-6.04,-10.25
473,1747402634470,0.11,-1.0,0.04,1.28,-6.04,-10.25
474,1747402634480,0.11,-1.0,0.04,1.28,-6.04,-10.25
475,1747402634490,0.11,-1.0,0.04,1.28,-6.04,-10.25
476,1747402634500,0.06,-1.0,0.02,1.59,0.92,-13.49
477,1747402634510,0.06,-1.0,0.02,1.59,0.92,-13.49
478,1747402634520,0.06,-1.0,0.02,1.59,0.92,-13.49
479,1747402634530,0.06,-1.0,0.02,1.59,0.92,-13.49
480,1747402634540,0.05,-0.99,0.02,1.89,1.71,-25.94
481,1747402634550,0.05,-0.99,0.02,1.89,1.71,-25.94
482,1747402634560,0.05,-0.99,0.02,1.89,1.71,-25.94
483,1747402634570,0.01,-0.975,0.005,1.89,1.71,-25.94
484,1747402634580,-0.03,-0.96,-0.01,2.62,19.35,-34.12
485,1747402634590,-0.03,-0.96,-0.01,2.62,19.35,-34.12
486,1747402634600,-0.03,-0.96,-0.01,2.62,19.35,-34.12
487,1747402634610,-0.03,-0.96,-0.01,2.62,19.35,-34.12
488,1747402634620,-0.1,-0.95,-0.03,17.76,60.12,-58.9
489,1747402634630,-0.1,-0.95,-0.03,17.76,60.12,-58.9
490,1747402634640,-0.1,-0.95,-0.03,17.76,60.12,-58.9
491,1747402634650,-0.06,-0.8999999999999999,0.07,37.9,52.61,-91.46
492,1747402634660,-0.02,-0.85,0.17,58.04,45.1,-124.02
493,1747402634670,-0.02,-0.85,0.17,58.04,45.1,-124.02
494,1747402634680,-0.02,-0.85,0.17,58.04,45.1,-124.02
495,1747402634690,0.26,-0.85,0.22,25.7,2.62,-88.81
496,1747402634700,0.26,-0.85,0.22,25.7,2.62,-88.81
497,1747402634710,0.26,-0.85,0.22,25.7,2.62,-88.81
498,1747402634720,0.26,-0.85,0.22,25.7,2.62,-88.81
499,1747402634730,0.23,-0.85,0.15,24.84,66.28,-103.39
500,1747402634740,0.23,-0.85,0.15,24.84,66.28,-103.39
501,1747402634750,0.23,-0.85,0.15,24.84,66.28,-103.39
502,1747402634760,0.23,-0.85,0.15,24.84,66.28,-103.39
503,1747402634770,0.43,-0.77,0.22,-2.26,4.88,-135.13
504,1747402634780,0.43,-0.77,0.22,-2.26,4.88,-135.13
505,1747402634790,0.43,-0.77,0.22,-2.26,4.88,-135.13
506,1747402634800,0.43,-0.77,0.22,-2.26,4.88,-135.13
507,1747402634810,0.51,-0.9,0.04,-13.37,-25.45,-72.27
508,1747402634820,0.51,-0.9,0.04,-13.37,-25.45,-72.27
509,1747402634830,0.51,-0.9,0.04,-13.37,-25.45,-72.27
510,1747402634840,0.51,-0.9,0.04,-13.37,-25.45,-72.27
511,1747402634850,0.36,-0.74,0.04,7.75,4.7,-93.81
512,1747402634860,0.36,-0.74,0.04,7.75,4.7,-93.81
513,1747402634870,0.36,-0.74,0.04,7.75,4.7,-93.81
514,1747402634880,0.47,-0.725,0.035,-1.0999999999999996,-14.160000000000002,-96.62
515,1747402634890,0.58,-0.71,0.03,-9.95,-33.02,-99.43
516,1747402634900,0.58,-0.71,0.03,-9.95,-33.02,-99.43
517,1747402634910,0.58,-0.71,0.03,-9.95,-33.02,-99.43
518,1747402634920,0.615,-0.705,0.025,0.915,-15.410000000000002,-81.97
519,1747402634930,0.65,-0.7,0.02,11.78,2.2,-64.51
520,1747402634940,0.65,-0.7,0.02,11.78,2.2,-64.51
521,1747402634950,0.65,-0.7,0.02,11.78,2.2,-64.51
522,1747402634960,0.71,-0.56,0.18,14.89,4.7,-109.56
523,1747402634970,0.71,-0.56,0.18,14.89,4.7,-109.56
524,1747402634980,0.71,-0.56,0.18,14.89,4.7,-109.56
525,1747402634990,0.71,-0.56,0.18,14.89,4.7,-109.56
526,1747402635000,0.84,-0.66,0.14,-3.54,-18.86,-71.29
527,1747402635010,0.84,-0.66,0.14,-3.54,-18.86,-71.29
528,1747402635020,0.84,-0.66,0.14,-3.54,-18.86,-71.29
529,1747402635030,0.84,-0.66,0.14,-3.54,-18.86,-71.29
530,1747402635040,0.79,-0.56,0.12,12.76,12.27,-85.21
531,1747402635050,0.79,-0.56,0.12,12.76,12.27,-85.21
532,1747402635060,0.79,-0.56,0.12,12.76,12.27,-85.21
533,1747402635070,0.88,-0.545,0.155,8.03,-0.6100000000000003,-92.47
534,1747402635080,0.97,-0.53,0.19,3.3,-13.49,-99.73
535,1747402635090,0.97,-0.53,0.19,3.3,-13.49,-99.73
536,1747402635100,0.97,-0.53,0.19,3.3,-13.49,-99.73
537,1747402635110,0.95,-0.5549999999999999,0.155,5.005,1.13,-83.80000000000001
538,1747402635120,0.93,-0.58,0.12,6.71,15.75,-67.87
539,1747402635130,0.93,-0.58,0.12,6.71,15.75,-67.87
540,1747402635140,0.93,-0.58,0.12,6.71,15.75,-67.87
541,1747402635150,0.89,-0.485,0.155,13.55,33.695,-83.435
542,1747402635160,0.85,-0.39,0.19,20.39,51.64,-99.0
543,1747402635170,0.85,-0.39,0.19,20.39,51.64,-99.0
544,1747402635180,0.85,-0.39,0.19,20.39,51.64,-99.0
545,1747402635190,0.91,-0.425,0.175,10.745,13.095,-86.15
546,1747402635200,0.97,-0.46,0.16,1.1,-25.45,-73.3
547,1747402635210,0.97,-0.46,0.16,1.1,-25.45,-73.3
548,1747402635220,0.97,-0.46,0.16,1.1,-25.45,-73.3
549,1747402635230,1.0,-0.38,0.16,19.59,37.78,-80.81
550,1747402635240,1.0,-0.38,0.16,19.59,37.78,-80.81
551,1747402635250,1.0,-0.38,0.16,19.59,37.78,-80.81
552,1747402635260,1.0,-0.38,0.16,19.59,37.78,-80.81
553,1747402635270,0.97,-0.28,0.24,15.01,37.54,-106.45
554,1747402635280,0.97,-0.28,0.24,15.01,37.54,-106.45
555,1747402635290,0.97,-0.28,0.24,15.01,37.54,-106.45
556,1747402635300,1.02,-0.295,0.24,15.01,37.54,-106.45
557,1747402635310,1.07,-0.31,0.24,19.1,36.56,-66.96
558,1747402635320,1.07,-0.31,0.24,19.1,36.56,-66.96
559,1747402635330,1.07,-0.31,0.24,19.1,36.56,-66.96
560,1747402635340,1.07,-0.31,0.24,19.1,36.56,-66.96
561,1747402635350,0.91,-0.16,0.3,14.1,35.03,-82.09
562,1747402635360,0.91,-0.16,0.3,14.1,35.03,-82.09
563,1747402635370,0.91,-0.16,0.3,14.1,35.03,-82.09
564,1747402635380,1.045,-0.16,0.295,9.735,-18.16,-70.8
565,1747402635390,1.18,-0.16,0.29,5.37,-71.35,-59.51
566,1747402635400,,,,,,
567,1747402635410,,,,,,
568,1747402635420,,,,,,
569,1747402635430,,,,,,
570,1747402635440,1.24,-0.14,0.26,11.54,-28.08,-20.69
571,1747402635450,1.24,-0.14,0.26,11.54,-28.08,-20.69
572,1747402635460,1.09,-0.12,0.23,-3.48,12.94,-34.06
573,1747402635470,1.09,-0.12,0.23,-3.48,12.94,-34.06
574,1747402635480,,,,,,
575,1747402635490,,,,,,
576,1747402635500,1.09,-0.12,0.23,-3.48,12.94,-34.06
577,1747402635510,1.14,-0.17,0.18,0.18,-18.98,-5.98
578,1747402635520,1.14,-0.17,0.18,0.18,-18.98,-5.98
579,1747402635530,1.14,-0.17,0.18,0.18,-18.98,-5.98
580,1747402635540,1.1,-0.12,0.21,0.79,-1.53,-0.55
581,1747402635550,1.1,-0.12,0.21,0.79,-1.53,-0.55
582,1747402635560,1.1,-0.12,0.21,0.79,-1.53,-0.55
583,1747402635570,1.1,-0.12,0.21,0.79,-1.53,-0.55
584,1747402635580,1.02,-0.14,0.19,-1.71,6.65,-1.28
585,1747402635590,1.02,-0.14,0.19,-1.71,6.65,-1.28
586,1747402635600,1.02,-0.14,0.19,-1.71,6.65,-1.28
587,1747402635610,1.015,-0.135,0.19,-0.52,0.7600000000000002,2.26
588,1747402635620,1.01,-0.13,0.19,0.67,-5.13,5.8
589,1747402635630,1.01,-0.13,0.19,0.67,-5.13,5.8
590,1747402635640,1.01,-0.13,0.19,0.67,-5.13,5.8
591,1747402635650,1.005,-0.125,0.19,0.6100000000000001,-2.29,5.19
592,1747402635660,1.0,-0.12,0.19,0.55,0.55,4.58
593,1747402635670,1.0,-0.12,0.19,0.55,0.55,4.58
594,1747402635680,1.0,-0.12,0.19,0.55,0.55,4.58
595,1747402635690,0.98,-0.12,0.2,0.245,1.465,3.33
596,1747402635700,0.98,-0.12,0.2,-0.06,2.38,2.08
597,1747402635710,0.98,-0.12,0.2,-0.06,2.38,2.08
598,1747402635720,0.98,-0.12,0.2,-0.06,2.38,2.08
599,1747402635730,0.99,-0.13,0.21,-0.37,-2.69,4.09
600,1747402635740,0.99,-0.13,0.21,-0.37,-2.69,4.09
601,1747402635750,0.99,-0.13,0.21,-0.37,-2.69,4.09
602,1747402635760,0.99,-0.13,0.21,-0.37,-2.69,4.09
603,1747402635770,0.97,-0.12,0.21,-0.67,2.08,3.6
604,1747402635780,0.97,-0.12,0.21,-0.67,2.08,3.6
605,1747402635790,0.97,-0.12,0.21,-0.67,2.08,3.6
606,1747402635800,0.97,-0.12,0.21,-0.67,2.08,3.6
607,1747402635810,,,,,,
608,1747402635820,0.98,-0.13,0.21,-0.55,-2.93,2.38
609,1747402635830,0.98,-0.13,0.21,-0.55,-2.93,2.38
610,1747402635840,0.98,-0.13,0.21,-0.55,-2.93,2.38
611,1747402635850,1.02,-0.13,0.21,-3.54,-5.37,2.69
612,1747402635860,1.02,-0.13,0.21,-3.54,-5.37,2.69
613,1747402635870,1.02,-0.13,0.21,-3.54,-5.37,2.69
614,1747402635880,1.02,-0.15,0.2,-4.15,-0.975,3.54
615,1747402635890,1.02,-0.15,0.2,-4.76,3.42,4.39
616,1747402635900,1.02,-0.15,0.2,-4.76,3.42,4.39
617,1747402635910,1.02,-0.15,0.2,-4.76,3.42,4.39
618,1747402635920,1.035,-0.15,0.2,-4.305,0.7050000000000001,5.154999999999999
619,1747402635930,1.05,-0.15,0.2,-3.85,-2.01,5.92
620,1747402635940,1.05,-0.15,0.2,-3.85,-2.01,5.92
621,1747402635950,1.05,-0.15,0.2,-3.85,-2.01,5.92
622,1747402635960,1.09,-0.14,0.21,-2.32,-8.73,13.18
623,1747402635970,1.09,-0.14,0.21,-2.32,-8.73,13.18
624,1747402635980,1.09,-0.14,0.21,-2.32,-8.73,13.18
625,1747402635990,1.09,-0.14,0.21,-2.32,-8.73,13.18
626,1747402636000,1.11,-0.145,0.21,-4.18,-7.785,15.655
627,1747402636010,1.13,-0.15,0.21,-6.04,-6.84,18.13
628,1747402636020,1.13,-0.15,0.21,-6.04,-6.84,18.13
629,1747402636030,1.13,-0.15,0.21,-6.04,-6.84,18.13
630,1747402636040,1.15,-0.18,0.19,-10.44,-5.37,25.51
631,1747402636050,1.15,-0.18,0.19,-10.44,-5.37,25.51
632,1747402636060,1.15,-0.18,0.19,-10.44,-5.37,25.51
633,1747402636070,1.145,-0.195,0.18,-7.935,1.0099999999999998,30.76
634,1747402636080,1.14,-0.21,0.17,-5.43,7.39,36.01
635,1747402636090,1.14,-0.21,0.17,-5.43,7.39,36.01
636,1747402636100,1.14,-0.21,0.17,-5.43,7.39,36.01
637,1747402636110,1.12,-0.21,0.19,-6.41,2.26,44.01
638,1747402636120,1.12,-0.21,0.19,-6.41,2.26,44.01
639,1747402636130,1.12,-0.21,0.19,-6.41,2.26,44.01
640,1747402636140,1.12,-0.21,0.19,-6.41,2.26,44.01
641,1747402636150,1.12,-0.24,0.18,-7.63,-6.41,57.07
642,1747402636160,1.12,-0.24,0.18,-7.63,-6.41,57.07
643,1747402636170,1.12,-0.24,0.18,-7.63,-6.41,57.07
644,1747402636180,1.12,-0.24,0.18,-7.63,-6.41,57.07
645,1747402636190,1.1,-0.26,0.18,-4.88,3.85,66.96
646,1747402636200,1.1,-0.26,0.18,-4.88,3.85,66.96
647,1747402636210,1.1,-0.26,0.18,-4.88,3.85,66.96
648,1747402636220,1.1,-0.26,0.18,-4.88,3.85,66.96
649,1747402636230,1.06,-0.29,0.18,-7.63,14.16,71.47
650,1747402636240,1.06,-0.29,0.18,-7.63,14.16,71.47
651,1747402636250,1.06,-0.29,0.18,-7.63,14.16,71.47
652,1747402636260,1.03,-0.31,0.185,-7.63,14.16,71.47
653,1747402636270,1.0,-0.33,0.19,-10.93,0.79,81.6
654,1747402636280,1.0,-0.33,0.19,-10.93,0.79,81.6
655,1747402636290,1.0,-0.33,0.19,-10.93,0.79,81.6
656,1747402636300,0.98,-0.36,0.2,-10.35,-0.3349999999999999,84.5
657,1747402636310,0.98,-0.36,0.2,-9.77,-1.46,87.4
658,1747402636320,0.98,-0.36,0.2,-9.77,-1.46,87.4
659,1747402636330,0.98,-0.36,0.2,-9.77,-1.46,87.4
660,1747402636340,0.955,-0.385,0.195,-10.835,1.925,88.53
661,1747402636350,0.93,-0.41,0.19,-11.9,5.31,89.66
662,1747402636360,0.93,-0.41,0.19,-11.9,5.31,89.66
663,1747402636370,0.93,-0.41,0.19,-11.9,5.31,89.66
664,1747402636380,0.88,-0.46,0.17,-18.31,-14.4,95.83
665,1747402636390,0.88,-0.46,0.17,-18.31,-14.4,95.83
666,1747402636400,0.88,-0.46,0.17,-18.31,-14.4,95.83
667,1747402636410,0.88,-0.46,0.17,-18.31,-14.4,95.83
668,1747402636420,0.85,-0.51,0.15,-17.94,-11.78,101.93
669,1747402636430,0.85,-0.51,0.15,-17.94,-11.78,101.93
670,1747402636440,0.85,-0.51,0.15,-17.94,-11.78,101.93
671,1747402636450,0.8049999999999999,-0.53,0.14,-18.765,-3.175,99.58
672,1747402636460,0.76,-0.55,0.13,-19.59,5.43,97.23
673,1747402636470,0.76,-0.55,0.13,-19.59,5.43,97.23
674,1747402636480,0.76,-0.55,0.13,-19.59,5.43,97.23
675,1747402636490,0.76,-0.55,0.13,-19.59,5.43,97.23
676,1747402636500,0.67,-0.62,0.1,-16.97,3.3,96.37
677,1747402636510,0.67,-0.62,0.1,-16.97,3.3,96.37
678,1747402636520,0.67,-0.62,0.1,-16.97,3.3,96.37
679,1747402636530,0.645,-0.64,0.1,-13.98,4.855,92.07
680,1747402636540,0.62,-0.66,0.1,-10.99,6.41,87.77
681,1747402636550,0.62,-0.66,0.1,-10.99,6.41,87.77
682,1747402636560,0.62,-0.66,0.1,-10.99,6.41,87.77
683,1747402636570,0.585,-0.67,0.11,-8.879999999999999,9.675,80.22999999999999
684,1747402636580,0.55,-0.68,0.12,-6.77,12.94,72.69
685,1747402636590,0.55,-0.68,0.12,-6.77,12.94,72.69
686,1747402636600,0.55,-0.68,0.12,-6.77,12.94,72.69
687,1747402636610,0.6,-0.74,0.14,-7.87,-12.76,77.33
688,1747402636620,0.6,-0.74,0.14,-7.87,-12.76,77.33
689,1747402636630,0.6,-0.74,0.14,-7.87,-12.76,77.33
690,1747402636640,0.6,-0.74,0.14,-7.87,-12.76,77.33
691,1747402636650,0.55,-0.76,0.14,-8.85,-26.92,87.46
692,1747402636660,0.55,-0.76,0.14,-8.85,-26.92,87.46
693,1747402636670,0.55,-0.76,0.14,-8.85,-26.92,87.46
694,1747402636680,0.525,-0.78,0.13,-10.13,-19.29,88.5
695,1747402636690,0.5,-0.8,0.12,-11.41,-11.66,89.54
696,1747402636700,0.5,-0.8,0.12,-11.41,-11.66,89.54
697,1747402636710,0.5,-0.8,0.12,-11.41,-11.66,89.54
698,1747402636720,0.5,-0.8,0.12,-11.41,-11.66,89.54
699,1747402636730,0.39,-0.84,0.12,-9.09,13.92,79.35
700,1747402636740,0.39,-0.84,0.12,-9.09,13.92,79.35
701,1747402636750,0.39,-0.84,0.12,-9.09,13.92,79.35
702,1747402636760,0.36,-0.855,0.105,-12.02,4.029999999999999,81.24
703,1747402636770,0.33,-0.87,0.09,-14.95,-5.86,83.13
704,1747402636780,0.33,-0.87,0.09,-14.95,-5.86,83.13
705,1747402636790,0.33,-0.87,0.09,-14.95,-5.86,83.13
706,1747402636800,0.3,-0.87,0.1,-9.7,-4.15,74.28
707,1747402636810,0.3,-0.87,0.1,-9.7,-4.15,74.28
708,1747402636820,0.3,-0.87,0.1,-9.7,-4.15,74.28
709,1747402636830,0.3,-0.87,0.1,-9.7,-4.15,74.28
710,1747402636840,0.27,-0.9,0.1,-11.66,5.49,67.32
711,1747402636850,0.27,-0.9,0.1,-11.66,5.49,67.32
712,1747402636860,0.27,-0.9,0.1,-11.66,5.49,67.32
713,1747402636870,0.27,-0.9,0.1,-11.66,5.49,67.32
714,1747402636880,0.23,-0.92,0.1,-11.84,3.815,66.985
715,1747402636890,0.23,-0.92,0.1,-12.02,2.14,66.65
716,1747402636900,0.23,-0.92,0.1,-12.02,2.14,66.65
717,1747402636910,0.205,-0.91,0.115,-13.73,-11.44,62.53
718,1747402636920,0.18,-0.9,0.13,-15.44,-25.02,58.41
719,1747402636930,0.18,-0.9,0.13,-15.44,-25.02,58.41
720,1747402636940,0.18,-0.9,0.13,-15.44,-25.02,58.41
721,1747402636950,0.19,-0.94,0.1,-15.44,-25.02,58.41
722,1747402636960,0.19,-0.94,0.1,-30.94,-60.3,54.93
723,1747402636970,0.19,-0.94,0.1,-30.94,-60.3,54.93
724,1747402636980,0.19,-0.94,0.1,-30.94,-60.3,54.93
725,1747402636990,0.18,-0.96,0.05,-34.39,-32.285,52.245000000000005
726,1747402637000,0.17,-0.98,0.0,-37.84,-4.27,49.56
727,1747402637010,0.17,-0.98,0.0,-37.84,-4.27,49.56
728,1747402637020,0.17,-0.98,0.0,-37.84,-4.27,49.56
729,1747402637030,0.0,-0.99,-0.07,-25.39,28.02,30.94
730,1747402637040,0.0,-0.99,-0.07,-25.39,28.02,30.94
731,1747402637050,0.0,-0.99,-0.07,-25.39,28.02,30.94
732,1747402637060,0.0,-0.99,-0.07,-25.39,28.02,30.94
733,1747402637070,-0.05,-0.99,-0.05,-12.15,-12.02,23.86
734,1747402637080,-0.05,-0.99,-0.05,-12.15,-12.02,23.86
735,1747402637090,-0.05,-0.99,-0.05,-12.15,-12.02,23.86
736,1747402637100,-0.05,-0.99,-0.05,-12.15,-12.02,23.86
737,1747402637110,-0.03,-0.97,-0.05,-7.63,-22.28,17.46
738,1747402637120,-0.03,-0.97,-0.05,-7.63,-22.28,17.46
739,1747402637130,-0.03,-0.97,-0.05,-7.63,-22.28,17.46
740,1747402637140,0.015,-0.97,-0.005,-7.63,-22.28,17.46
741,1747402637150,0.06,-0.97,0.04,3.91,-12.88,-11.54
742,1747402637160,0.06,-0.97,0.04,3.91,-12.88,-11.54
743,1747402637170,0.06,-0.97,0.04,3.91,-12.88,-11.54
744,1747402637180,,,,,,
745,1747402637190,0.14,-0.98,0.03,1.65,-7.02,-2.93
746,1747402637200,0.14,-0.98,0.03,1.65,-7.02,-2.93
747,1747402637210,0.14,-0.98,0.03,1.65,-7.02,-2.93
748,1747402637220,0.14,-0.98,0.03,1.65,-7.02,-2.93
749,1747402637230,0.13,-0.99,0.03,0.0,-2.01,-4.58
750,1747402637240,0.13,-0.99,0.03,0.0,-2.01,-4.58
751,1747402637250,0.13,-0.99,0.03,0.0,-2.01,-4.58
752,1747402637260,0.145,-0.995,0.04,-1.1,-0.2749999999999999,-6.045
753,1747402637270,0.16,-1.0,0.05,-2.2,1.46,-7.51
754,1747402637280,0.16,-1.0,0.05,-2.2,1.46,-7.51
755,1747402637290,0.16,-1.0,0.05,-2.2,1.46,-7.51
756,1747402637300,0.17,-1.0,0.02,-3.39,0.15,-3.295
757,1747402637310,0.17,-1.0,0.02,-4.58,-1.16,0.92
758,1747402637320,0.17,-1.0,0.02,-4.58,-1.16,0.92
759,1747402637330,0.15,-1.005,0.0,-4.58,-1.16,0.92
760,1747402637340,0.13,-1.01,-0.02,-5.43,2.38,2.69
761,1747402637350,0.13,-1.01,-0.02,-5.43,2.38,2.69
762,1747402637360,0.13,-1.01,-0.02,-5.43,2.38,2.69
763,1747402637370,0.13,-1.01,-0.02,-5.43,2.38,2.69
764,1747402637380,0.12,-1.0,0.0,-2.75,-1.65,1.59
765,1747402637390,0.12,-1.0,0.0,-2.75,-1.65,1.59
766,1747402637400,0.12,-1.0,0.0,-2.75,-1.65,1.59
767,1747402637410,0.12,-1.0,0.0,-2.75,-1.65,1.59
768,1747402637420,0.13,-0.98,0.01,-0.37,-2.44,-1.16
769,1747402637430,0.13,-0.98,0.01,-0.37,-2.44,-1.16
770,1747402637440,0.13,-0.98,0.01,-0.37,-2.44,-1.16
771,1747402637450,0.13,-0.98,0.01,-0.37,-2.44,-1.16
772,1747402637460,0.14,-0.98,0.03,-5.55,-9.52,-1.34
773,1747402637470,0.14,-0.98,0.03,-5.55,-9.52,-1.34
774,1747402637480,0.14,-0.98,0.03,-5.55,-9.52,-1.34
775,1747402637490,0.14,-0.98,0.03,-5.55,-9.52,-1.34
776,1747402637500,0.13,-0.99,0.01,-4.46,6.1,-3.85
777,1747402637510,0.13,-0.99,0.01,-4.46,6.1,-3.85
778,1747402637520,0.13,-0.99,0.01,-4.46,6.1,-3.85
779,1747402637530,0.16,-1.0,0.01,-4.03,-3.91,-3.54
780,1747402637540,0.16,-1.0,0.01,-4.03,-3.91,-3.54
781,1747402637550,0.16,-1.0,0.01,-4.03,-3.91,-3.54
782,1747402637560,0.16,-1.0,0.01,-4.03,-3.91,-3.54
783,1747402637570,0.19,-1.01,0.0,-4.46,-1.95,1.65
784,1747402637580,0.19,-1.01,0.0,-4.46,-1.95,1.65
785,1747402637590,0.19,-1.01,0.0,-4.46,-1.95,1.65
786,1747402637600,0.19,-1.01,0.0,-4.46,-1.95,1.65
787,1747402637610,0.14,-1.01,0.0,-2.14,5.0,3.17
788,1747402637620,0.14,-1.01,0.0,-2.14,5.0,3.17
789,1747402637630,0.14,-1.01,0.0,-2.14,5.0,3.17
790,1747402637640,0.15,-1.0,0.01,-2.14,5.0,3.17
791,1747402637650,0.15,-1.0,0.01,-2.62,-2.01,3.54
792,1747402637660,0.15,-1.0,0.01,-2.62,-2.01,3.54
793,1747402637670,0.15,-1.0,0.01,-2.62,-2.01,3.54
794,1747402637680,0.13,-0.99,0.0,-3.54,1.71,1.89
795,1747402637690,0.13,-0.99,0.0,-3.54,1.71,1.89
796,1747402637700,0.13,-0.99,0.0,-3.54,1.71,1.89
797,1747402637710,0.13,-0.99,0.0,-3.54,1.71,1.89
798,1747402637720,0.1,-0.98,0.01,-2.75,5.92,-2.38
799,1747402637730,0.1,-0.98,0.01,-2.75,5.92,-2.38
800,1747402637740,0.1,-0.98,0.01,-2.75,5.92,-2.38
801,1747402637750,0.1,-0.98,0.01,-2.75,5.92,-2.38
802,1747402637760,0.04,-0.97,-0.01,-2.5,13.43,-10.68
803,1747402637770,0.04,-0.97,-0.01,-2.5,13.43,-10.68
804,1747402637780,0.04,-0.97,-0.01,-2.5,13.43,-10.68
805,1747402637790,0.04,-0.97,-0.01,-2.5,13.43,-10.68
806,1747402637800,0.0,-0.96,-0.02,1.04,20.94,-22.89
807,1747402637810,0.0,-0.96,-0.02,1.04,20.94,-22.89
808,1747402637820,0.0,-0.96,-0.02,1.04,20.94,-22.89
809,1747402637830,0.0,-0.955,-0.01,4.12,26.31,-33.325
810,1747402637840,0.0,-0.95,0.0,7.2,31.68,-43.76
811,1747402637850,0.0,-0.95,0.0,7.2,31.68,-43.76
812,1747402637860,0.0,-0.95,0.0,7.2,31.68,-43.76
813,1747402637870,0.02,-0.93,0.04,10.985,26.675,-52.58
814,1747402637880,0.04,-0.91,0.08,14.77,21.67,-61.4
815,1747402637890,0.04,-0.91,0.08,14.77,21.67,-61.4
816,1747402637900,0.04,-0.91,0.08,14.77,21.67,-61.4
817,1747402637910,0.1,-0.91,0.09,10.285,6.595000000000001,-64.82
818,1747402637920,0.16,-0.91,0.1,5.8,-8.48,-68.24
819,1747402637930,0.16,-0.91,0.1,5.8,-8.48,-68.24
820,1747402637940,0.16,-0.91,0.1,5.8,-8.48,-68.24
821,1747402637950,0.27,-0.91,0.07,1.04,31.07,-81.12
822,1747402637960,0.27,-0.91,0.07,1.04,31.07,-81.12
823,1747402637970,0.27,-0.91,0.07,1.04,31.07,-81.12
824,1747402637980,0.27,-0.91,0.07,1.04,31.07,-81.12
825,1747402637990,0.25,-0.89,0.05,5.25,60.3,-89.42
826,1747402638000,0.25,-0.89,0.05,5.25,60.3,-89.42
827,1747402638010,0.25,-0.89,0.05,5.25,60.3,-89.42
828,1747402638020,0.29,-0.88,0.035,5.25,60.3,-89.42
829,1747402638030,0.33,-0.87,0.02,-0.79,-13.12,-90.21
830,1747402638040,0.33,-0.87,0.02,-0.79,-13.12,-90.21
831,1747402638050,0.33,-0.87,0.02,-0.79,-13.12,-90.21
832,1747402638060,0.39,-0.86,0.015,2.96,-2.225,-88.835
833,1747402638070,0.45,-0.85,0.01,6.71,8.67,-87.46
834,1747402638080,0.45,-0.85,0.01,6.71,8.67,-87.46
835,1747402638090,0.45,-0.85,0.01,6.71,8.67,-87.46
836,1747402638100,0.41,-0.74,0.09,6.71,8.67,-87.46
837,1747402638110,0.41,-0.74,0.09,13.79,30.94,-105.16
838,1747402638120,0.41,-0.74,0.09,13.79,30.94,-105.16
839,1747402638130,0.41,-0.74,0.09,13.79,30.94,-105.16
840,1747402638140,0.51,-0.755,0.07,6.284999999999999,-4.334999999999999,-99.61
841,1747402638150,0.61,-0.77,0.05,-1.22,-39.61,-94.06
842,1747402638160,0.61,-0.77,0.05,-1.22,-39.61,-94.06
843,1747402638170,0.61,-0.77,0.05,-1.22,-39.61,-94.06
844,1747402638180,0.71,-0.71,0.07,11.6,0.0,-89.11
845,1747402638190,0.71,-0.71,0.07,11.6,0.0,-89.11
846,1747402638200,0.71,-0.71,0.07,11.6,0.0,-89.11
847,1747402638210,0.71,-0.71,0.07,11.6,0.0,-89.11
848,1747402638220,0.79,-0.62,0.16,18.01,-4.94,-118.84
849,1747402638230,0.79,-0.62,0.16,18.01,-4.94,-118.84
850,1747402638240,0.79,-0.62,0.16,18.01,-4.94,-118.84
851,1747402638250,0.8600000000000001,-0.645,0.135,18.01,-4.94,-118.84
852,1747402638260,0.93,-0.67,0.11,8.54,-0.67,-85.63
853,1747402638270,0.93,-0.67,0.11,8.54,-0.67,-85.63
854,1747402638280,0.93,-0.67,0.11,8.54,-0.67,-85.63
855,1747402638290,0.93,-0.67,0.11,8.54,-0.67,-85.63
856,1747402638300,0.79,-0.59,0.13,12.15,32.41,-83.86
857,1747402638310,0.79,-0.59,0.13,12.15,32.41,-83.86
858,1747402638320,0.79,-0.59,0.13,12.15,32.41,-83.86
859,1747402638330,0.8049999999999999,-0.595,0.105,2.26,10.56,-72.965
860,1747402638340,0.82,-0.6,0.08,-7.63,-11.29,-62.07
861,1747402638350,0.82,-0.6,0.08,-7.63,-11.29,-62.07
862,1747402638360,0.82,-0.6,0.08,-7.63,-11.29,-62.07
863,1747402638370,0.82,-0.585,0.06,-4.975,4.09,-56.55
864,1747402638380,0.82,-0.57,0.04,-2.32,19.47,-51.03
865,1747402638390,0.82,-0.57,0.04,-2.32,19.47,-51.03
866,1747402638400,0.82,-0.57,0.04,-2.32,19.47,-51.03
867,1747402638410,0.7749999999999999,-0.52,0.055,-0.7349999999999999,28.715,-56.92
868,1747402638420,0.73,-0.47,0.07,0.85,37.96,-62.81
869,1747402638430,0.73,-0.47,0.07,0.85,37.96,-62.81
870,1747402638440,0.73,-0.47,0.07,0.85,37.96,-62.81
871,1747402638450,0.84,-0.47,0.08,0.12,-34.73,-52.8
872,1747402638460,0.84,-0.47,0.08,0.12,-34.73,-52.8
873,1747402638470,0.84,-0.47,0.08,0.12,-34.73,-52.8
874,1747402638480,0.84,-0.47,0.08,0.12,-34.73,-52.8
875,1747402638490,0.87,-0.41,0.07,7.39,12.7,-49.93
876,1747402638500,0.87,-0.41,0.07,7.39,12.7,-49.93
877,1747402638510,0.87,-0.41,0.07,7.39,12.7,-49.93
878,1747402638520,0.87,-0.41,0.07,7.39,12.7,-49.93
879,1747402638530,0.92,-0.36,0.13,8.36,-5.74,-64.82
880,1747402638540,0.92,-0.36,0.13,8.36,-5.74,-64.82
881,1747402638550,0.92,-0.36,0.13,8.36,-5.74,-64.82
882,1747402638560,0.98,-0.37,0.125,8.36,-5.74,-64.82
883,1747402638570,1.04,-0.38,0.12,13.73,-0.43,-46.57
884,1747402638580,1.04,-0.38,0.12,13.73,-0.43,-46.57
885,1747402638590,1.04,-0.38,0.12,13.73,-0.43,-46.57
886,1747402638600,1.005,-0.3349999999999999,0.14,16.325000000000003,1.71,-51.695
887,1747402638610,0.97,-0.29,0.16,18.92,3.85,-56.82
888,1747402638620,0.97,-0.29,0.16,18.92,3.85,-56.82
889,1747402638630,0.97,-0.29,0.16,18.92,3.85,-56.82
890,1747402638640,1.14,-0.31,0.17,17.03,-11.96,-53.555
891,1747402638650,1.14,-0.31,0.17,15.14,-27.77,-50.29
892,1747402638660,1.14,-0.31,0.17,15.14,-27.77,-50.29
893,1747402638670,1.14,-0.31,0.17,15.14,-27.77,-50.29
894,1747402638680,1.14,-0.31,0.17,15.14,-27.77,-50.29
895,1747402638690,1.05,-0.3,0.15,10.31,8.67,-41.87
896,1747402638700,1.05,-0.3,0.15,10.31,8.67,-41.87
897,1747402638710,1.05,-0.3,0.15,10.31,8.67,-41.87
898,1747402638720,1.02,-0.24,0.14,5.49,-12.76,-55.6
899,1747402638730,1.02,-0.24,0.14,5.49,-12.76,-55.6
900,1747402638740,1.02,-0.24,0.14,5.49,-12.76,-55.6
901,1747402638750,1.02,-0.24,0.14,5.49,-12.76,-55.6
902,1747402638760,1.12,-0.25,0.13,2.99,-26.49,-39.79
903,1747402638770,1.12,-0.25,0.13,2.99,-26.49,-39.79
904,1747402638780,1.12,-0.25,0.13,2.99,-26.49,-39.79
905,1747402638790,1.13,-0.235,0.13,0.425,-20.845,-38.45
906,1747402638800,1.14,-0.22,0.13,-2.14,-15.2,-37.11
907,1747402638810,1.14,-0.22,0.13,-2.14,-15.2,-37.11
908,1747402638820,1.14,-0.22,0.13,-2.14,-15.2,-37.11
909,1747402638830,1.14,-0.21,0.12,-0.92,1.22,-30.09
910,1747402638840,1.14,-0.21,0.12,-0.92,1.22,-30.09
911,1747402638850,1.14,-0.21,0.12,-0.92,1.22,-30.09
912,1747402638860,1.14,-0.21,0.12,-0.92,1.22,-30.09
913,1747402638870,1.12,-0.2,0.12,-1.19,2.195,-25.055
914,1747402638880,1.1,-0.19,0.12,-1.46,3.17,-20.02
915,1747402638890,1.1,-0.19,0.12,-1.46,3.17,-20.02
916,1747402638900,1.1,-0.19,0.12,-1.46,3.17,-20.02
917,1747402638910,1.12,-0.17,0.12,-6.04,-11.41,-14.59
918,1747402638920,1.12,-0.17,0.12,-6.04,-11.41,-14.59
919,1747402638930,1.12,-0.17,0.12,-6.04,-11.41,-14.59
920,1747402638940,1.12,-0.17,0.12,-6.04,-11.41,-14.59
921,1747402638950,1.12,-0.19,0.09,-4.64,-8.06,-2.5
922,1747402638960,1.12,-0.19,0.09,-4.64,-8.06,-2.5
923,1747402638970,1.12,-0.19,0.09,-4.64,-8.06,-2.5
924,1747402638980,1.12,-0.19,0.09,-4.64,-8.06,-2.5
925,1747402638990,1.05,-0.18,0.07,-5.005,-0.8550000000000004,-1.19
926,1747402639000,1.05,-0.18,0.07,-5.37,6.35,0.12
927,1747402639010,1.05,-0.18,0.07,-5.37,6.35,0.12
928,1747402639020,1.04,-0.18,0.07,-5.37,6.35,0.12
929,1747402639030,1.03,-0.18,0.07,-5.25,-0.61,2.38
930,1747402639040,1.03,-0.18,0.07,-5.25,-0.61,2.38
931,1747402639050,1.03,-0.18,0.07,-5.25,-0.61,2.38
932,1747402639060,1.03,-0.175,0.075,-3.265,0.6399999999999999,3.935
933,1747402639070,1.03,-0.17,0.08,-1.28,1.89,5.49
934,1747402639080,1.03,-0.17,0.08,-1.28,1.89,5.49
935,1747402639090,1.03,-0.17,0.08,-1.28,1.89,5.49
936,1747402639100,1.0,-0.16,0.08,-2.5,0.6399999999999999,4.79
937,1747402639110,1.0,-0.16,0.08,-3.72,-0.61,4.09
938,1747402639120,1.0,-0.16,0.08,-3.72,-0.61,4.09
939,1747402639130,1.0,-0.16,0.08,-3.72,-0.61,4.09
940,1747402639140,1.01,-0.165,0.075,-2.53,-2.7750000000000004,5.095
941,1747402639150,1.02,-0.17,0.07,-1.34,-4.94,6.1
942,1747402639160,1.02,-0.17,0.07,-1.34,-4.94,6.1
943,1747402639170,1.02,-0.17,0.07,-1.34,-4.94,6.1
944,1747402639180,1.0,-0.18,0.08,-1.28,-0.49,5.19
945,1747402639190,1.0,-0.18,0.08,-1.28,-0.49,5.19
946,1747402639200,1.0,-0.18,0.08,-1.28,-0.49,5.19
947,1747402639210,0.99,-0.18,0.075,-1.28,-0.49,5.19
948,1747402639220,0.98,-0.18,0.07,0.0,-5.37,5.37
949,1747402639230,0.98,-0.18,0.07,0.0,-5.37,5.37
950,1747402639240,0.98,-0.18,0.07,0.0,-5.37,5.37
951,1747402639250,0.98,-0.18,0.07,0.0,-5.37,5.37
952,1747402639260,1.02,-0.17,0.08,-0.31,-5.62,3.97
953,1747402639270,1.02,-0.17,0.08,-0.31,-5.62,3.97
954,1747402639280,1.02,-0.17,0.08,-0.31,-5.62,3.97
955,1747402639290,1.02,-0.17,0.08,-0.31,-5.62,3.97
956,1747402639300,1.01,-0.17,0.07,-2.62,1.89,2.99
957,1747402639310,1.01,-0.17,0.07,-2.62,1.89,2.99
958,1747402639320,1.01,-0.17,0.07,-2.62,1.89,2.99
959,1747402639330,1.01,-0.17,0.07,-2.62,1.89,2.99
960,1747402639340,1.02,-0.18,0.07,-0.18,-0.61,3.97
961,1747402639350,1.02,-0.18,0.07,-0.18,-0.61,3.97
962,1747402639360,1.02,-0.18,0.07,-0.18,-0.61,3.97
963,1747402639370,1.03,-0.175,0.075,-1.28,-0.365,4.12
964,1747402639380,1.04,-0.17,0.08,-2.38,-0.12,4.27
965,1747402639390,1.04,-0.17,0.08,-2.38,-0.12,4.27
966,1747402639400,1.04,-0.17,0.08,-2.38,-0.12,4.27
967,1747402639410,1.07,-0.18,0.08,-1.4,1.83,7.57
968,1747402639420,1.07,-0.18,0.08,-1.4,1.83,7.57
969,1747402639430,1.07,-0.18,0.08,-1.4,1.83,7.57
970,1747402639440,1.07,-0.18,0.08,-1.4,1.83,7.57
971,1747402639450,1.11,-0.19,0.07,-2.14,-0.12,13.0
972,1747402639460,1.11,-0.19,0.07,-2.14,-0.12,13.0
973,1747402639470,1.11,-0.19,0.07,-2.14,-0.12,13.0
974,1747402639480,1.11,-0.19,0.07,-2.14,-0.12,13.0
975,1747402639490,1.14,-0.2,0.07,-4.09,-9.34,20.75
976,1747402639500,1.14,-0.2,0.07,-4.09,-9.34,20.75
977,1747402639510,1.14,-0.2,0.07,-4.09,-9.34,20.75
978,1747402639520,1.14,-0.2,0.07,-4.09,-9.34,20.75
979,1747402639530,1.17,-0.24,0.06,-3.48,-10.5,33.02
980,1747402639540,1.17,-0.24,0.06,-3.48,-10.5,33.02
981,1747402639550,1.17,-0.24,0.06,-3.48,-10.5,33.02
982,1747402639560,1.145,-0.255,0.055,-3.48,-10.5,33.02
983,1747402639570,1.12,-0.27,0.05,-2.26,9.09,40.77
984,1747402639580,1.12,-0.27,0.05,-2.26,9.09,40.77
985,1747402639590,1.12,-0.27,0.05,-2.26,9.09,40.77
986,1747402639600,1.0950000000000002,-0.275,0.05,-2.2,4.15,43.64
987,1747402639610,1.07,-0.28,0.05,-2.14,-0.79,46.51
988,1747402639620,1.07,-0.28,0.05,-2.14,-0.79,46.51
989,1747402639630,1.07,-0.28,0.05,-2.14,-0.79,46.51
990,1747402639640,1.08,-0.31,0.05,-2.14,-0.79,46.51
991,1747402639650,1.08,-0.31,0.05,0.0,-11.84,57.62
992,1747402639660,1.08,-0.31,0.05,0.0,-11.84,57.62
993,1747402639670,1.08,-0.31,0.05,0.0,-11.84,57.62
994,1747402639680,1.07,-0.32,0.05,1.89,-10.99,63.29
995,1747402639690,1.07,-0.32,0.05,1.89,-10.99,63.29
996,1747402639700,1.07,-0.32,0.05,1.89,-10.99,63.29
997,1747402639710,1.07,-0.32,0.05,1.89,-10.99,63.29
998,1747402639720,1.04,-0.35,0.05,1.16,-0.12,69.09
999,1747402639730,1.04,-0.35,0.05,1.16,-0.12,69.09
