id,timestamp,acc_x,acc_y,acc_z,gyro_x,gyro_y,gyro_z
0,1747401956350,0.26,0.76,0.73,131.41,88.62,-3.66
1,1747401956360,0.62,0.65,0.82,131.41,88.62,-3.66
2,1747401956370,0.62,0.65,0.82,108.03,60.97,33.63
3,1747401956380,0.62,0.65,0.82,108.03,60.97,33.63
4,1747401956390,0.62,0.65,0.82,108.03,60.97,33.63
5,1747401956400,0.62,0.65,0.82,108.03,60.97,33.63
6,1747401956410,0.62,0.65,0.82,108.03,60.97,33.63
7,1747401956420,0.89,0.84,1.21,104.37,80.51,63.66
8,1747401956430,0.89,0.84,1.21,104.37,80.51,63.66
9,1747401956440,1.65,1.09,1.34,104.37,80.51,63.66
10,1747401956450,1.65,1.09,1.34,117.43,53.71,106.93
11,1747401956460,1.65,1.09,1.34,117.43,53.71,106.93
12,1747401956470,1.65,1.09,1.34,117.43,53.71,106.93
13,1747401956480,1.555,1.36,1.3050000000000002,93.445,88.53,174.07
14,1747401956490,1.46,1.63,1.27,69.46,123.35,241.21
15,1747401956500,1.46,1.63,1.27,69.46,123.35,241.21
16,1747401956510,1.46,1.63,1.27,69.46,123.35,241.21
17,1747401956520,1.5,1.6349999999999998,1.69,1.9249999999999967,93.11,243.955
18,1747401956530,1.54,1.64,2.11,-65.61,62.87,246.7
19,1747401956540,1.54,1.64,2.11,-65.61,62.87,246.7
20,1747401956550,1.54,1.64,2.11,-65.61,62.87,246.7
21,1747401956560,1.63,2.04,2.6,-39.92,-99.79,331.73
22,1747401956570,1.63,2.04,2.6,-39.92,-99.79,331.73
23,1747401956580,1.63,2.04,2.6,-39.92,-99.79,331.73
24,1747401956590,1.63,2.04,2.6,-39.92,-99.79,331.73
25,1747401956600,1.15,1.98,2.96,-132.87,-66.28,369.2
26,1747401956610,1.15,1.98,2.96,-132.87,-66.28,369.2
27,1747401956620,1.15,1.98,2.96,-132.87,-66.28,369.2
28,1747401956630,1.15,1.98,2.96,-132.87,-66.28,369.2
29,1747401956640,0.08,1.23,2.71,-121.15,-249.88,284.79
30,1747401956650,0.08,1.23,2.71,-121.15,-249.88,284.79
31,1747401956660,0.08,1.23,2.71,-121.15,-249.88,284.79
32,1747401956670,0.65,1.07,2.08,-121.15,-249.88,284.79
33,1747401956680,,,,,,
34,1747401956690,0.65,1.07,2.08,-123.72,-405.94,311.4
35,1747401956700,0.65,1.07,2.08,-123.72,-405.94,311.4
36,1747401956710,0.02,1.05,1.64,-175.66,-312.32,309.27
37,1747401956720,0.02,1.05,1.64,-175.66,-312.32,309.27
38,1747401956730,0.02,1.05,1.64,-175.66,-312.32,309.27
39,1747401956740,0.02,1.05,1.64,-175.66,-312.32,309.27
40,1747401956750,-0.25,1.46,1.23,-120.3,-404.79,373.54
41,1747401956760,-0.25,1.46,1.23,-120.3,-404.79,373.54
42,1747401956770,-0.25,1.46,1.23,-120.3,-404.79,373.54
43,1747401956780,-0.25,1.46,1.23,-120.3,-404.79,373.54
44,1747401956790,-0.25,1.46,1.23,-120.3,-404.79,373.54
45,1747401956800,0.1,1.66,1.13,-141.85,-192.38,447.2
46,1747401956810,0.1,1.66,1.13,-141.85,-192.38,447.2
47,1747401956820,-0.42,1.5,1.04,-141.85,-192.38,447.2
48,1747401956830,-0.42,1.5,1.04,-169.43,-109.37,383.06
49,1747401956840,-0.42,1.5,1.04,-169.43,-109.37,383.06
50,1747401956850,-0.42,1.5,1.04,-169.43,-109.37,383.06
51,1747401956860,-0.09,1.28,0.47,-124.57,-174.56,347.17
52,1747401956870,-0.09,1.28,0.47,-124.57,-174.56,347.17
53,1747401956880,-0.09,1.28,0.47,-124.57,-174.56,347.17
54,1747401956890,-0.09,1.28,0.47,-124.57,-174.56,347.17
55,1747401956900,-0.445,0.995,0.0349999999999999,-124.695,-116.545,312.045
56,1747401956910,-0.8,0.71,-0.4,-124.82,-58.53,276.92
57,1747401956920,-0.8,0.71,-0.4,-124.82,-58.53,276.92
58,1747401956930,-0.8,0.71,-0.4,-124.82,-58.53,276.92
59,1747401956940,-1.08,0.14,-2.1,-85.45,-14.16,284.48
60,1747401956950,-1.08,0.14,-2.1,-85.45,-14.16,284.48
61,1747401956960,-1.08,0.14,-2.1,-85.45,-14.16,284.48
62,1747401956970,-1.08,0.14,-2.1,-85.45,-14.16,284.48
63,1747401956980,-2.9,-0.3,-2.84,-55.94,86.33500000000001,158.72
64,1747401956990,-2.9,-0.3,-2.84,-26.43,186.83,32.96
65,1747401957000,-2.9,-0.3,-2.84,-26.43,186.83,32.96
66,1747401957010,-2.9,-0.3,-2.84,-26.43,186.83,32.96
67,1747401957020,-2.48,-0.52,-2.75,53.59,100.46,-73.18
68,1747401957030,-2.48,-0.52,-2.75,53.59,100.46,-73.18
69,1747401957040,-2.48,-0.52,-2.75,53.59,100.46,-73.18
70,1747401957050,-2.48,-0.52,-2.75,53.59,100.46,-73.18
71,1747401957060,-1.41,-0.06,-1.89,175.42,101.26,-236.02
72,1747401957070,-1.41,-0.06,-1.89,175.42,101.26,-236.02
73,1747401957080,-1.41,-0.06,-1.89,175.42,101.26,-236.02
74,1747401957090,-1.41,-0.06,-1.89,175.42,101.26,-236.02
75,1747401957100,-0.81,0.61,-0.76,291.99,167.05,-309.63
76,1747401957110,-0.81,0.61,-0.76,291.99,167.05,-309.63
77,1747401957120,-0.81,0.61,-0.76,291.99,167.05,-309.63
78,1747401957130,-0.54,1.92,0.77,438.29,71.41,-279.79
79,1747401957140,-0.54,1.92,0.77,438.29,71.41,-279.79
80,1747401957150,-0.54,1.92,0.77,438.29,71.41,-279.79
81,1747401957160,-0.54,1.92,0.77,438.29,71.41,-279.79
82,1747401957170,0.51,2.3,0.95,357.12,-204.35,-258.79
83,1747401957180,0.51,2.3,0.95,357.12,-204.35,-258.79
84,1747401957190,0.51,2.3,0.95,357.12,-204.35,-258.79
85,1747401957200,0.51,2.3,0.95,357.12,-204.35,-258.79
86,1747401957210,0.22,1.68,0.75,357.12,-204.35,-258.79
87,1747401957220,0.22,1.68,0.75,166.81,68.54,-372.19
88,1747401957230,0.22,1.68,0.75,166.81,68.54,-372.19
89,1747401957240,0.22,1.68,0.75,166.81,68.54,-372.19
90,1747401957250,-0.07,1.44,0.47,235.41,45.41,-344.54
91,1747401957260,-0.07,1.44,0.47,235.41,45.41,-344.54
92,1747401957270,-0.07,1.44,0.47,235.41,45.41,-344.54
93,1747401957280,-0.07,1.44,0.47,235.41,45.41,-344.54
94,1747401957290,0.49,1.87,0.73,241.88,57.56,-336.24
95,1747401957300,0.49,1.87,0.73,241.88,57.56,-336.24
96,1747401957310,0.49,1.87,0.73,241.88,57.56,-336.24
97,1747401957320,0.73,1.92,1.18,241.88,57.56,-336.24
98,1747401957330,0.73,1.92,1.18,217.35,98.33,-370.24
99,1747401957340,0.73,1.92,1.18,217.35,98.33,-370.24
100,1747401957350,0.73,1.92,1.18,217.35,98.33,-370.24
101,1747401957360,0.73,1.92,1.18,217.35,98.33,-370.24
102,1747401957370,3.76,1.81,1.49,189.7,35.95,-345.28
103,1747401957380,3.76,1.81,1.49,189.7,35.95,-345.28
104,1747401957390,3.76,1.81,1.49,189.7,35.95,-345.28
105,1747401957400,4.24,1.2,3.14,189.7,35.95,-345.28
106,1747401957410,4.24,1.2,3.14,188.17,227.48,-219.42
107,1747401957420,4.24,1.2,3.14,188.17,227.48,-219.42
108,1747401957430,4.24,1.2,3.14,188.17,227.48,-219.42
109,1747401957440,6.09,2.61,2.59,188.17,227.48,-219.42
110,1747401957450,6.09,2.61,2.59,-37.84,-267.46,26.12
111,1747401957460,6.09,2.61,2.59,-37.84,-267.46,26.12
112,1747401957470,6.09,2.61,2.59,-37.84,-267.46,26.12
113,1747401957480,4.38,2.15,1.39,-19.35,108.76,255.49
114,1747401957490,4.38,2.15,1.39,-19.35,108.76,255.49
115,1747401957500,4.38,2.15,1.39,-19.35,108.76,255.49
116,1747401957510,4.38,2.15,1.39,-19.35,108.76,255.49
117,1747401957520,1.39,1.71,1.68,-119.81,129.94,300.72
118,1747401957530,1.39,1.71,1.68,-119.81,129.94,300.72
119,1747401957540,1.39,1.71,1.68,-119.81,129.94,300.72
120,1747401957550,1.39,1.71,1.68,-119.81,129.94,300.72
121,1747401957560,0.87,1.56,1.04,-215.03,5.55,341.74
122,1747401957570,0.87,1.56,1.04,-215.03,5.55,341.74
123,1747401957580,0.87,1.56,1.04,-215.03,5.55,341.74
124,1747401957590,0.87,1.56,1.04,-215.03,5.55,341.74
125,1747401957600,0.29,1.68,0.5,-304.2,-29.54,356.2
126,1747401957610,0.29,1.68,0.5,-304.2,-29.54,356.2
127,1747401957620,0.29,1.68,0.5,-304.2,-29.54,356.2
128,1747401957630,0.15,1.94,0.34,-291.26,-96.19,370.67
129,1747401957640,0.15,1.94,0.34,-291.26,-96.19,370.67
130,1747401957650,,,,,,
131,1747401957660,0.15,1.94,0.34,-291.26,-96.19,370.67
132,1747401957670,0.36,2.16,0.41,-333.25,-22.09,389.71
133,1747401957680,0.36,2.16,0.41,-333.25,-22.09,389.71
134,1747401957690,0.36,2.16,0.41,-333.25,-22.09,389.71
135,1747401957700,0.36,2.16,0.41,-333.25,-22.09,389.71
136,1747401957710,0.25,1.95,0.425,-329.04,-23.495,380.065
137,1747401957720,0.14,1.74,0.44,-324.83,-24.9,370.42
138,1747401957730,0.14,1.74,0.44,-324.83,-24.9,370.42
139,1747401957740,0.14,1.74,0.44,-324.83,-24.9,370.42
140,1747401957750,0.07,1.27,0.15,-299.745,-57.13,350.98
141,1747401957760,0.07,1.27,0.15,-274.66,-89.36,331.54
142,1747401957770,0.07,1.27,0.15,-274.66,-89.36,331.54
143,1747401957780,0.07,1.27,0.15,-274.66,-89.36,331.54
144,1747401957790,-0.87,0.26,-0.6,-229.19,-119.45,266.11
145,1747401957800,-0.87,0.26,-0.6,-229.19,-119.45,266.11
146,1747401957810,-0.87,0.26,-0.6,-229.19,-119.45,266.11
147,1747401957820,-1.385,-0.2299999999999999,-1.145,-229.19,-119.45,266.11
148,1747401957830,-1.9,-0.72,-1.69,-110.6,-97.47,193.12
149,1747401957840,-1.9,-0.72,-1.69,-110.6,-97.47,193.12
150,1747401957850,-1.9,-0.72,-1.69,-110.6,-97.47,193.12
151,1747401957860,-1.9,-0.72,-1.69,-110.6,-97.47,193.12
152,1747401957870,-3.18,-0.24,-2.22,-109.8,225.16,35.4
153,1747401957880,-3.18,-0.24,-2.22,-109.8,225.16,35.4
154,1747401957890,-3.18,-0.24,-2.22,-109.8,225.16,35.4
155,1747401957900,-2.905,-0.605,-2.41,-58.285,204.985,-46.02
156,1747401957910,-2.63,-0.97,-2.6,-6.77,184.81,-127.44
157,1747401957920,-2.63,-0.97,-2.6,-6.77,184.81,-127.44
158,1747401957930,-2.63,-0.97,-2.6,-6.77,184.81,-127.44
159,1747401957940,-1.23,0.46,-0.9,179.44,88.07,-190.61
160,1747401957950,-1.23,0.46,-0.9,179.44,88.07,-190.61
161,1747401957960,-1.23,0.46,-0.9,179.44,88.07,-190.61
162,1747401957970,-1.23,0.46,-0.9,179.44,88.07,-190.61
163,1747401957980,-0.37,1.25,0.26,272.46,66.35,-263.24
164,1747401957990,-0.37,1.25,0.26,272.46,66.35,-263.24
165,1747401958000,-0.37,1.25,0.26,272.46,66.35,-263.24
166,1747401958010,-0.37,1.25,0.26,272.46,66.35,-263.24
167,1747401958020,-0.12,1.44,0.64,216.86,73.43,-297.06
168,1747401958030,-0.12,1.44,0.64,216.86,73.43,-297.06
169,1747401958040,-0.12,1.44,0.64,216.86,73.43,-297.06
170,1747401958050,-0.12,1.44,0.64,216.86,73.43,-297.06
171,1747401958060,-0.08,1.28,0.44,216.86,73.43,-297.06
172,1747401958070,-0.08,1.28,0.44,137.02,92.83,-330.38
173,1747401958080,-0.08,1.28,0.44,137.02,92.83,-330.38
174,1747401958090,-0.19,1.15,0.35,159.36,93.87,-340.025
175,1747401958100,-0.3,1.02,0.26,181.7,94.91,-349.67
176,1747401958110,-0.3,1.02,0.26,181.7,94.91,-349.67
177,1747401958120,-0.3,1.02,0.26,181.7,94.91,-349.67
178,1747401958130,-0.12,1.47,0.18,253.97,109.44,-391.48
179,1747401958140,-0.12,1.47,0.18,253.97,109.44,-391.48
180,1747401958150,-0.12,1.47,0.18,253.97,109.44,-391.48
181,1747401958160,-0.12,1.47,0.18,253.97,109.44,-391.48
182,1747401958170,0.29,2.15,0.93,266.48,164.73,-378.48
183,1747401958180,0.29,2.15,0.93,266.48,164.73,-378.48
184,1747401958190,0.29,2.15,0.93,266.48,164.73,-378.48
185,1747401958200,0.29,2.15,0.93,266.48,164.73,-378.48
186,1747401958210,1.89,2.09,1.22,229.13,80.26,-381.41
187,1747401958220,1.89,2.09,1.22,229.13,80.26,-381.41
188,1747401958230,1.89,2.09,1.22,229.13,80.26,-381.41
189,1747401958240,1.89,2.09,1.22,229.13,80.26,-381.41
190,1747401958250,3.7,1.49,2.11,210.57,164.25,-310.12
191,1747401958260,3.7,1.49,2.11,210.57,164.25,-310.12
192,1747401958270,3.7,1.49,2.11,210.57,164.25,-310.12
193,1747401958280,4.140000000000001,2.05,2.845,199.89,73.67,-271.515
194,1747401958290,4.58,2.61,3.58,189.21,-16.91,-232.91
195,1747401958300,4.58,2.61,3.58,189.21,-16.91,-232.91
196,1747401958310,4.58,2.61,3.58,189.21,-16.91,-232.91
197,1747401958320,4.58,2.61,3.58,189.21,-16.91,-232.91
198,1747401958330,6.07,3.17,2.54,36.8,-56.46,94.06
199,1747401958340,6.07,3.17,2.54,36.8,-56.46,94.06
200,1747401958350,6.07,3.17,2.54,36.8,-56.46,94.06
201,1747401958360,2.53,1.98,2.14,36.8,-56.46,94.06
202,1747401958370,2.53,1.98,2.14,-174.68,182.07,254.94
203,1747401958380,2.53,1.98,2.14,-174.68,182.07,254.94
204,1747401958390,2.53,1.98,2.14,-174.68,182.07,254.94
205,1747401958400,1.605,1.665,1.76,-209.625,104.465,291.35
206,1747401958410,0.68,1.35,1.38,-244.57,26.86,327.76
207,1747401958420,0.68,1.35,1.38,-244.57,26.86,327.76
208,1747401958430,0.68,1.35,1.38,-244.57,26.86,327.76
209,1747401958440,0.06,1.52,0.84,-244.57,26.86,327.76
210,1747401958450,0.06,1.52,0.84,-284.42,-90.21,356.69
211,1747401958460,0.06,1.52,0.84,-284.42,-90.21,356.69
212,1747401958470,0.06,1.52,0.84,-284.42,-90.21,356.69
213,1747401958480,-0.25,1.76,0.69,-280.52,-144.71,350.22
214,1747401958490,-0.25,1.76,0.69,-280.52,-144.71,350.22
215,1747401958500,-0.25,1.76,0.69,-280.52,-144.71,350.22
216,1747401958510,-0.08,1.95,0.58,-280.52,-144.71,350.22
217,1747401958520,-0.08,1.95,0.58,-263.73,-159.73,328.49
218,1747401958530,-0.08,1.95,0.58,-263.73,-159.73,328.49
219,1747401958540,-0.08,1.95,0.58,-263.73,-159.73,328.49
220,1747401958550,-0.095,2.04,0.6499999999999999,-275.3,-115.875,321.32
221,1747401958560,-0.11,2.13,0.72,-286.87,-72.02,314.15
222,1747401958570,-0.11,2.13,0.72,-286.87,-72.02,314.15
223,1747401958580,-0.11,2.13,0.72,-286.87,-72.02,314.15
224,1747401958590,-0.165,1.925,0.625,-308.78,-87.555,308.625
225,1747401958600,-0.22,1.72,0.53,-330.69,-103.09,303.1
226,1747401958610,-0.22,1.72,0.53,-330.69,-103.09,303.1
227,1747401958620,-0.22,1.72,0.53,-330.69,-103.09,303.1
228,1747401958630,-0.48,1.16,-0.32,-324.1,-64.7,280.09
229,1747401958640,-0.48,1.16,-0.32,-324.1,-64.7,280.09
230,1747401958650,-0.48,1.16,-0.32,-324.1,-64.7,280.09
231,1747401958660,-0.48,1.16,-0.32,-324.1,-64.7,280.09
232,1747401958670,-1.42,-0.79,-2.44,-257.32,-47.73,236.08
233,1747401958680,-1.42,-0.79,-2.44,-257.32,-47.73,236.08
234,1747401958690,-1.42,-0.79,-2.44,-257.32,-47.73,236.08
235,1747401958700,-1.42,-0.79,-2.44,-257.32,-47.73,236.08
236,1747401958710,-2.49,-0.47,-3.21,-91.37,99.98,62.99
237,1747401958720,-2.49,-0.47,-3.21,-91.37,99.98,62.99
238,1747401958730,-2.49,-0.47,-3.21,-91.37,99.98,62.99
239,1747401958740,-2.18,-0.95,-3.41,-91.37,99.98,62.99
240,1747401958750,-1.87,-1.43,-3.61,-9.52,143.25,-110.96
241,1747401958760,-1.87,-1.43,-3.61,-9.52,143.25,-110.96
242,1747401958770,-1.87,-1.43,-3.61,-9.52,143.25,-110.96
243,1747401958780,-1.5950000000000002,-0.7999999999999999,-2.75,97.045,160.095,-156.735
244,1747401958790,-1.32,-0.17,-1.89,203.61,176.94,-202.51
245,1747401958800,-1.32,-0.17,-1.89,203.61,176.94,-202.51
246,1747401958810,-1.32,-0.17,-1.89,203.61,176.94,-202.51
247,1747401958820,-1.15,0.475,-1.085,291.47,142.18,-212.585
248,1747401958830,-0.98,1.12,-0.28,379.33,107.42,-222.66
249,1747401958840,-0.98,1.12,-0.28,379.33,107.42,-222.66
250,1747401958850,-0.98,1.12,-0.28,379.33,107.42,-222.66
251,1747401958860,-0.74,1.71,0.345,403.655,65.915,-234.255
252,1747401958870,-0.5,2.3,0.97,427.98,24.41,-245.85
253,1747401958880,-0.5,2.3,0.97,427.98,24.41,-245.85
254,1747401958890,-0.5,2.3,0.97,427.98,24.41,-245.85
255,1747401958900,-0.265,2.21,0.985,327.7,34.33,-270.965
256,1747401958910,-0.03,2.12,1.0,227.42,44.25,-296.08
257,1747401958920,-0.03,2.12,1.0,227.42,44.25,-296.08
258,1747401958930,-0.03,2.12,1.0,227.42,44.25,-296.08
259,1747401958940,-0.03,2.12,1.0,227.42,44.25,-296.08
260,1747401958950,-0.25,1.36,0.64,141.36,162.17,-309.63
261,1747401958960,-0.25,1.36,0.64,141.36,162.17,-309.63
262,1747401958970,-0.25,1.36,0.64,141.36,162.17,-309.63
263,1747401958980,-0.29,1.47,0.65,141.36,162.17,-309.63
264,1747401958990,-0.29,1.47,0.65,248.54,142.7,-279.79
265,1747401959000,-0.29,1.47,0.65,248.54,142.7,-279.79
266,1747401959010,-0.29,1.47,0.65,248.54,142.7,-279.79
267,1747401959020,0.01,1.61,0.84,237.37,139.95,-254.82
268,1747401959030,0.01,1.61,0.84,237.37,139.95,-254.82
269,1747401959040,0.01,1.61,0.84,237.37,139.95,-254.82
270,1747401959050,0.01,1.61,0.84,237.37,139.95,-254.82
271,1747401959060,0.57,1.7,1.38,272.46,110.72,-278.87
272,1747401959070,0.57,1.7,1.38,272.46,110.72,-278.87
273,1747401959080,0.57,1.7,1.38,272.46,110.72,-278.87
274,1747401959090,1.95,1.625,1.78,249.025,70.16,-259.615
275,1747401959100,3.33,1.55,2.18,225.59,29.6,-240.36
276,1747401959110,3.33,1.55,2.18,225.59,29.6,-240.36
277,1747401959120,3.33,1.55,2.18,225.59,29.6,-240.36
278,1747401959130,3.65,1.835,2.72,195.285,19.685,-231.08
279,1747401959140,3.97,2.12,3.26,164.98,9.77,-221.8
280,1747401959150,3.97,2.12,3.26,164.98,9.77,-221.8
281,1747401959160,3.97,2.12,3.26,164.98,9.77,-221.8
282,1747401959170,6.25,3.7,2.36,20.02,-227.48,21.06
283,1747401959180,6.25,3.7,2.36,20.02,-227.48,21.06
284,1747401959190,6.25,3.7,2.36,20.02,-227.48,21.06
285,1747401959200,6.25,3.7,2.36,20.02,-227.48,21.06
286,1747401959210,3.74,2.58,1.74,-92.83,231.45,240.17
287,1747401959220,3.74,2.58,1.74,-92.83,231.45,240.17
288,1747401959230,3.74,2.58,1.74,-92.83,231.45,240.17
289,1747401959240,3.74,2.58,1.74,-92.83,231.45,240.17
290,1747401959250,0.79,1.58,1.71,-221.86,130.13,307.92
291,1747401959260,0.79,1.58,1.71,-221.86,130.13,307.92
292,1747401959270,0.79,1.58,1.71,-221.86,130.13,307.92
293,1747401959280,0.49,1.57,1.37,-221.86,130.13,307.92
294,1747401959290,0.19,1.56,1.03,-295.78,-22.22,320.43
295,1747401959300,0.19,1.56,1.03,-295.78,-22.22,320.43
296,1747401959310,0.19,1.56,1.03,-295.78,-22.22,320.43
297,1747401959320,-0.07,1.6,0.8200000000000001,-313.66,-70.925,318.115
298,1747401959330,-0.33,1.64,0.61,-331.54,-119.63,315.8
299,1747401959340,-0.33,1.64,0.61,-331.54,-119.63,315.8
300,1747401959350,-0.33,1.64,0.61,-331.54,-119.63,315.8
301,1747401959360,-0.325,1.66,0.5549999999999999,-286.225,-173.22,323.275
302,1747401959370,-0.32,1.68,0.5,-240.91,-226.81,330.75
303,1747401959380,-0.32,1.68,0.5,-240.91,-226.81,330.75
304,1747401959390,-0.32,1.68,0.5,-240.91,-226.81,330.75
305,1747401959400,0.09,2.09,0.54,-206.6,-156.43,387.02
306,1747401959410,0.09,2.09,0.54,-206.6,-156.43,387.02
307,1747401959420,0.09,2.09,0.54,-206.6,-156.43,387.02
308,1747401959430,0.09,2.09,0.54,-206.6,-156.43,387.02
309,1747401959440,0.0,2.01,0.66,-284.91,-73.91,354.0
310,1747401959450,0.0,2.01,0.66,-284.91,-73.91,354.0
311,1747401959460,0.0,2.01,0.66,-284.91,-73.91,354.0
312,1747401959470,0.0,2.01,0.66,-284.91,-73.91,354.0
313,1747401959480,0.0,2.01,0.66,-284.91,-73.91,354.0
314,1747401959490,-0.01,1.66,0.3,-272.77,-124.27,361.76
315,1747401959500,-0.01,1.66,0.3,-272.77,-124.27,361.76
316,1747401959510,-0.35,1.25,-0.645,-344.05499999999995,-38.97,373.23
317,1747401959520,-0.69,0.84,-1.59,-415.34,46.33,384.7
318,1747401959530,-0.69,0.84,-1.59,-415.34,46.33,384.7
319,1747401959540,-0.69,0.84,-1.59,-415.34,46.33,384.7
320,1747401959550,-1.735,0.1949999999999999,-2.425,-287.2,65.705,267.425
321,1747401959560,-2.78,-0.45,-3.26,-159.06,85.08,150.15
322,1747401959570,-2.78,-0.45,-3.26,-159.06,85.08,150.15
323,1747401959580,-2.78,-0.45,-3.26,-159.06,85.08,150.15
324,1747401959590,-2.805,-0.855,-3.5,-123.17,91.885,74.28
325,1747401959600,-2.83,-1.26,-3.74,-87.28,98.69,-1.59
326,1747401959610,-2.83,-1.26,-3.74,-87.28,98.69,-1.59
327,1747401959620,-2.83,-1.26,-3.74,-87.28,98.69,-1.59
328,1747401959630,-1.79,-0.42,-2.51,130.49,138.49,-187.32
329,1747401959640,-1.79,-0.42,-2.51,130.49,138.49,-187.32
330,1747401959650,-1.79,-0.42,-2.51,130.49,138.49,-187.32
331,1747401959660,-1.79,-0.42,-2.51,130.49,138.49,-187.32
332,1747401959670,-0.99,0.62,-0.89,290.41,41.38,-236.88
333,1747401959680,-0.99,0.62,-0.89,290.41,41.38,-236.88
334,1747401959690,-0.99,0.62,-0.89,290.41,41.38,-236.88
335,1747401959700,-0.99,0.62,-0.89,290.41,41.38,-236.88
336,1747401959710,-0.27,1.76,0.37,384.7,4.27,-265.81
337,1747401959720,-0.27,1.76,0.37,384.7,4.27,-265.81
338,1747401959730,-0.27,1.76,0.37,384.7,4.27,-265.81
339,1747401959740,-0.27,1.76,0.37,384.7,4.27,-265.81
340,1747401959750,0.16,1.97,0.96,291.32,36.32,-280.52
341,1747401959760,0.16,1.97,0.96,291.32,36.32,-280.52
342,1747401959770,0.16,1.97,0.96,291.32,36.32,-280.52
343,1747401959780,0.11,1.745,0.87,244.14,68.15,-281.67999999999995
344,1747401959790,0.06,1.52,0.78,196.96,99.98,-282.84
345,1747401959800,0.06,1.52,0.78,196.96,99.98,-282.84
346,1747401959810,0.06,1.52,0.78,196.96,99.98,-282.84
347,1747401959820,0.06,1.52,0.78,196.96,99.98,-282.84
348,1747401959830,-0.11,1.18,0.57,252.99,87.59,-221.5
349,1747401959840,-0.11,1.18,0.57,252.99,87.59,-221.5
350,1747401959850,-0.11,1.18,0.57,252.99,87.59,-221.5
351,1747401959860,0.075,1.26,0.505,271.88,92.32,-228.395
352,1747401959870,0.26,1.34,0.44,290.77,97.05,-235.29
353,1747401959880,0.26,1.34,0.44,290.77,97.05,-235.29
354,1747401959890,0.26,1.34,0.44,290.77,97.05,-235.29
355,1747401959900,0.195,1.415,0.7,294.645,132.45,-262.575
356,1747401959910,0.13,1.49,0.96,298.52,167.85,-289.86
357,1747401959920,0.13,1.49,0.96,298.52,167.85,-289.86
358,1747401959930,0.13,1.49,0.96,298.52,167.85,-289.86
359,1747401959940,1.85,0.86,1.67,275.51,120.67,-297.15
360,1747401959950,1.85,0.86,1.67,252.5,73.49,-304.44
361,1747401959960,1.85,0.86,1.67,252.5,73.49,-304.44
362,1747401959970,1.85,0.86,1.67,252.5,73.49,-304.44
363,1747401959980,3.62,1.82,2.74,250.37,70.37,-268.92
364,1747401959990,3.62,1.82,2.74,250.37,70.37,-268.92
365,1747401960000,3.62,1.82,2.74,250.37,70.37,-268.92
366,1747401960010,3.62,1.82,2.74,250.37,70.37,-268.92
367,1747401960020,4.815,2.575,3.03,157.23000000000002,-27.5,-206.97000000000003
368,1747401960030,6.01,3.33,3.32,64.09,-125.37,-145.02
369,1747401960040,6.01,3.33,3.32,64.09,-125.37,-145.02
370,1747401960050,4.56,2.92,2.4,64.09,-125.37,-145.02
371,1747401960060,4.56,2.92,2.4,10.38,25.09,222.6
372,1747401960070,4.56,2.92,2.4,10.38,25.09,222.6
373,1747401960080,4.56,2.92,2.4,10.38,25.09,222.6
374,1747401960090,1.18,1.49,2.12,-205.44,190.67,214.05
375,1747401960100,1.18,1.49,2.12,-205.44,190.67,214.05
376,1747401960110,1.18,1.49,2.12,-205.44,190.67,214.05
377,1747401960120,1.18,1.49,2.12,-205.44,190.67,214.05
378,1747401960130,0.5,1.29,1.34,-256.47,-34.42,287.84
379,1747401960140,0.5,1.29,1.34,-256.47,-34.42,287.84
380,1747401960150,0.5,1.29,1.34,-256.47,-34.42,287.84
381,1747401960160,0.5,1.29,1.34,-256.47,-34.42,287.84
382,1747401960170,0.13,1.51,0.58,-312.99,-110.72,323.06
383,1747401960180,0.13,1.51,0.58,-312.99,-110.72,323.06
384,1747401960190,0.13,1.51,0.58,-312.99,-110.72,323.06
385,1747401960200,0.13,1.51,0.58,-312.99,-110.72,323.06
386,1747401960210,-0.26,1.63,0.39,-302.735,-123.23,332.52
387,1747401960220,-0.26,1.63,0.39,-292.48,-135.74,341.98
388,1747401960230,-0.26,1.63,0.39,-292.48,-135.74,341.98
389,1747401960240,-0.175,1.7599999999999998,0.395,-282.47,-128.35500000000002,337.16
390,1747401960250,-0.09,1.89,0.4,-272.46,-120.97,332.34
391,1747401960260,-0.09,1.89,0.4,-272.46,-120.97,332.34
392,1747401960270,-0.09,1.89,0.4,-272.46,-120.97,332.34
393,1747401960280,-0.0849999999999999,1.89,0.46,-294.495,-75.65,324.16
394,1747401960290,-0.08,1.89,0.52,-316.53,-30.33,315.98
395,1747401960300,-0.08,1.89,0.52,-316.53,-30.33,315.98
396,1747401960310,-0.08,1.89,0.52,-316.53,-30.33,315.98
397,1747401960320,-0.15,1.725,0.455,-319.67,-40.555,314.91
398,1747401960330,-0.22,1.56,0.39,-322.81,-50.78,313.84
399,1747401960340,-0.22,1.56,0.39,-322.81,-50.78,313.84
400,1747401960350,-0.22,1.56,0.39,-322.81,-50.78,313.84
401,1747401960360,-0.45,0.91,-0.49,-320.74,-31.8,274.84
402,1747401960370,-0.45,0.91,-0.49,-320.74,-31.8,274.84
403,1747401960380,-0.45,0.91,-0.49,-320.74,-31.8,274.84
404,1747401960390,-1.145,0.12,-1.29,-320.74,-31.8,274.84
405,1747401960400,-1.84,-0.67,-2.09,-319.27,-1.28,227.29
406,1747401960410,-1.84,-0.67,-2.09,-319.27,-1.28,227.29
407,1747401960420,-1.84,-0.67,-2.09,-319.27,-1.28,227.29
408,1747401960430,-1.84,-0.67,-2.09,-319.27,-1.28,227.29
409,1747401960440,-2.5,-0.66,-3.3,-80.57,76.48,39.18
410,1747401960450,-2.5,-0.66,-3.3,-80.57,76.48,39.18
411,1747401960460,-2.5,-0.66,-3.3,-80.57,76.48,39.18
412,1747401960470,-2.5,-0.66,-3.3,-80.57,76.48,39.18
413,1747401960480,-2.45,-1.72,-3.53,-10.19,64.51,-116.64
414,1747401960490,-2.45,-1.72,-3.53,-10.19,64.51,-116.64
415,1747401960500,-2.45,-1.72,-3.53,-10.19,64.51,-116.64
416,1747401960510,-2.45,-1.72,-3.53,-10.19,64.51,-116.64
417,1747401960520,-1.59,-0.42,-2.11,93.2,89.84,-199.675
418,1747401960530,-1.59,-0.42,-2.11,196.59,115.17,-282.71
419,1747401960540,-1.59,-0.42,-2.11,196.59,115.17,-282.71
420,1747401960550,-0.84,1.4,-0.4,409.97,65.43,-283.45
421,1747401960560,-0.84,1.4,-0.4,409.97,65.43,-283.45
422,1747401960570,-0.84,1.4,-0.4,409.97,65.43,-283.45
423,1747401960580,-0.84,1.4,-0.4,409.97,65.43,-283.45
424,1747401960590,-0.29,2.09,0.42,408.505,31.92,-279.235
425,1747401960600,0.26,2.78,1.24,407.04,-1.59,-275.02
426,1747401960610,0.26,2.78,1.24,407.04,-1.59,-275.02
427,1747401960620,0.26,2.78,1.24,407.04,-1.59,-275.02
428,1747401960630,0.42,2.06,1.1,198.0,58.35,-275.88
429,1747401960640,0.42,2.06,1.1,198.0,58.35,-275.88
430,1747401960650,0.42,2.06,1.1,198.0,58.35,-275.88
431,1747401960660,0.42,2.06,1.1,198.0,58.35,-275.88
432,1747401960670,0.01,1.25,0.67,128.3,134.95,-286.07
433,1747401960680,0.01,1.25,0.67,128.3,134.95,-286.07
434,1747401960690,0.01,1.25,0.67,128.3,134.95,-286.07
435,1747401960700,0.01,1.25,0.67,128.3,134.95,-286.07
436,1747401960710,-0.11,1.13,0.49,172.15,143.22,-272.155
437,1747401960720,-0.11,1.13,0.49,216.0,151.49,-258.24
438,1747401960730,-0.11,1.13,0.49,216.0,151.49,-258.24
439,1747401960740,0.06,1.275,0.645,216.0,151.49,-258.24
440,1747401960750,0.23,1.42,0.8,213.13,165.83,-291.75
441,1747401960760,0.23,1.42,0.8,213.13,165.83,-291.75
442,1747401960770,0.23,1.42,0.8,213.13,165.83,-291.75
443,1747401960780,0.23,1.42,0.8,213.13,165.83,-291.75
444,1747401960790,0.77,1.18,1.29,202.76,170.1,-290.28
445,1747401960800,0.77,1.18,1.29,202.76,170.1,-290.28
446,1747401960810,0.77,1.18,1.29,202.76,170.1,-290.28
447,1747401960820,1.79,1.13,1.88,202.76,170.1,-290.28
448,1747401960830,2.81,1.08,2.47,201.6,58.96,-271.24
449,1747401960840,2.81,1.08,2.47,201.6,58.96,-271.24
450,1747401960850,2.81,1.08,2.47,201.6,58.96,-271.24
451,1747401960860,3.585,1.26,2.92,171.35500000000002,-16.084999999999997,-247.865
452,1747401960870,,,,,,
453,1747401960880,4.36,1.44,3.37,141.11,-91.13,-224.49
454,1747401960890,4.36,1.44,3.37,141.11,-91.13,-224.49
455,1747401960900,5.0,2.265,3.2,83.00500000000001,-75.44,-100.585
456,1747401960910,5.64,3.09,3.03,24.9,-59.75,23.32
457,1747401960920,5.64,3.09,3.03,24.9,-59.75,23.32
458,1747401960930,5.64,3.09,3.03,24.9,-59.75,23.32
459,1747401960940,3.01,2.26,2.56,-132.26,141.54,236.57
460,1747401960950,3.01,2.26,2.56,-132.26,141.54,236.57
461,1747401960960,3.01,2.26,2.56,-132.26,141.54,236.57
462,1747401960970,3.01,2.26,2.56,-132.26,141.54,236.57
463,1747401960980,1.9,1.7999999999999998,2.13,-180.355,73.21,279.115
464,1747401960990,0.79,1.34,1.7,-228.45,4.88,321.66
465,1747401961000,0.79,1.34,1.7,-228.45,4.88,321.66
466,1747401961010,0.26,1.39,1.1,-272.77,-99.91,338.93
467,1747401961020,0.26,1.39,1.1,-272.77,-99.91,338.93
468,1747401961030,0.26,1.39,1.1,-272.77,-99.91,338.93
469,1747401961040,0.26,1.39,1.1,-272.77,-99.91,338.93
470,1747401961050,-0.23,1.52,0.6,-318.97,-138.73,351.75
471,1747401961060,-0.23,1.52,0.6,-318.97,-138.73,351.75
472,1747401961070,-0.23,1.52,0.6,-318.97,-138.73,351.75
473,1747401961080,-0.395,1.5,0.62,-318.97,-138.73,351.75
474,1747401961090,-0.56,1.48,0.64,-278.2,-215.64,333.98
475,1747401961100,-0.56,1.48,0.64,-278.2,-215.64,333.98
476,1747401961110,-0.56,1.48,0.64,-278.2,-215.64,333.98
477,1747401961120,-0.56,1.48,0.64,-278.2,-215.64,333.98
478,1747401961130,-0.07,1.78,0.69,-238.1,-225.22,367.19
479,1747401961140,-0.07,1.78,0.69,-238.1,-225.22,367.19
480,1747401961150,-0.07,1.78,0.69,-238.1,-225.22,367.19
481,1747401961160,-0.07,1.78,0.69,-238.1,-225.22,367.19
482,1747401961170,-0.03,1.64,0.75,-262.57,-134.16,349.49
483,1747401961180,-0.03,1.64,0.75,-262.57,-134.16,349.49
484,1747401961190,-0.03,1.64,0.75,-262.57,-134.16,349.49
485,1747401961200,-0.02,1.54,0.55,-224.79,-130.07,317.14
486,1747401961210,-0.02,1.54,0.55,-224.79,-130.07,317.14
487,1747401961220,-0.02,1.54,0.55,-224.79,-130.07,317.14
488,1747401961230,-0.02,1.54,0.55,-224.79,-130.07,317.14
489,1747401961240,-0.55,0.965,-0.0949999999999999,-265.685,-115.295,303.5
490,1747401961250,-1.08,0.39,-0.74,-306.58,-100.52,289.86
491,1747401961260,-1.08,0.39,-0.74,-306.58,-100.52,289.86
492,1747401961270,-1.08,0.39,-0.74,-306.58,-100.52,289.86
493,1747401961280,-2.67,-0.62,-2.81,-306.58,-100.52,289.86
494,1747401961290,-2.67,-0.62,-2.81,-176.39,43.33,190.86
495,1747401961300,-2.67,-0.62,-2.81,-176.39,43.33,190.86
496,1747401961310,-2.67,-0.62,-2.81,-176.39,43.33,190.86
497,1747401961320,-2.82,-0.76,-3.24,-146.39,91.58,87.19000000000001
498,1747401961330,-2.82,-0.76,-3.24,-116.39,139.83,-16.48
499,1747401961340,-2.82,-0.76,-3.24,-116.39,139.83,-16.48
500,1747401961350,-2.82,-0.76,-3.24,-116.39,139.83,-16.48
501,1747401961360,-2.14,-0.74,-2.57,79.83,198.06,-166.44
502,1747401961370,-2.14,-0.74,-2.57,79.83,198.06,-166.44
503,1747401961380,-2.14,-0.74,-2.57,79.83,198.06,-166.44
504,1747401961390,-2.14,-0.74,-2.57,79.83,198.06,-166.44
505,1747401961400,-1.22,0.17,-1.4,249.21,117.13,-238.65
506,1747401961410,-1.22,0.17,-1.4,249.21,117.13,-238.65
507,1747401961420,-1.22,0.17,-1.4,249.21,117.13,-238.65
508,1747401961430,-1.22,0.17,-1.4,249.21,117.13,-238.65
509,1747401961440,-0.53,1.53,-0.13,332.98,105.47,-258.975
510,1747401961450,-0.53,1.53,-0.13,416.75,93.81,-279.3
511,1747401961460,-0.53,1.53,-0.13,416.75,93.81,-279.3
512,1747401961470,-0.11,2.05,0.4049999999999999,424.835,49.59,-276.92
513,1747401961480,0.31,2.57,0.94,432.92,5.37,-274.54
514,1747401961490,0.31,2.57,0.94,432.92,5.37,-274.54
515,1747401961500,0.31,2.57,0.94,432.92,5.37,-274.54
516,1747401961510,0.3399999999999999,2.35,0.915,347.44,29.325,-286.595
517,1747401961520,0.37,2.13,0.89,261.96,53.28,-298.65
518,1747401961530,0.37,2.13,0.89,261.96,53.28,-298.65
519,1747401961540,0.37,2.13,0.89,261.96,53.28,-298.65
520,1747401961550,0.09,1.69,0.61,256.71,114.44,-305.66
521,1747401961560,0.09,1.69,0.61,256.71,114.44,-305.66
522,1747401961570,0.09,1.69,0.61,256.71,114.44,-305.66
523,1747401961580,0.09,1.69,0.61,256.71,114.44,-305.66
524,1747401961590,-0.02,1.55,0.51,252.32,163.15,-299.56
525,1747401961600,-0.02,1.55,0.51,252.32,163.15,-299.56
526,1747401961610,-0.02,1.55,0.51,252.32,163.15,-299.56
527,1747401961620,-0.02,1.55,0.51,252.32,163.15,-299.56
528,1747401961630,-0.02,1.48,0.82,280.58,183.65,-316.41
529,1747401961640,-0.02,1.48,0.82,280.58,183.65,-316.41
530,1747401961650,-0.02,1.48,0.82,280.58,183.65,-316.41
531,1747401961660,-0.02,1.48,0.82,280.58,183.65,-316.41
532,1747401961670,1.06,1.27,2.0,261.29,77.7,-350.16
533,1747401961680,1.06,1.27,2.0,261.29,77.7,-350.16
534,1747401961690,1.06,1.27,2.0,261.29,77.7,-350.16
535,1747401961700,2.345,1.625,2.51,242.185,57.71,-283.815
536,1747401961710,3.63,1.98,3.02,223.08,37.72,-217.47
537,1747401961720,3.63,1.98,3.02,223.08,37.72,-217.47
538,1747401961730,3.63,1.98,3.02,223.08,37.72,-217.47
539,1747401961740,5.19,2.97,4.29,84.05,-112.98,-153.63
540,1747401961750,5.19,2.97,4.29,84.05,-112.98,-153.63
541,1747401961760,5.19,2.97,4.29,84.05,-112.98,-153.63
542,1747401961770,5.19,2.97,4.29,84.05,-112.98,-153.63
543,1747401961780,4.890000000000001,3.085,3.465,9.525,-74.61500000000001,25.635000000000005
544,1747401961790,4.59,3.2,2.64,-65.0,-36.25,204.9
545,1747401961800,4.59,3.2,2.64,-65.0,-36.25,204.9
546,1747401961810,4.59,3.2,2.64,-65.0,-36.25,204.9
547,1747401961820,1.42,1.66,2.13,-235.96,164.43,207.58
548,1747401961830,1.42,1.66,2.13,-235.96,164.43,207.58
549,1747401961840,1.42,1.66,2.13,-235.96,164.43,207.58
550,1747401961850,0.935,1.545,1.77,-264.77,69.825,232.85
551,1747401961860,0.45,1.43,1.41,-293.58,-24.78,258.12
552,1747401961870,0.45,1.43,1.41,-293.58,-24.78,258.12
553,1747401961880,0.45,1.43,1.41,-293.58,-24.78,258.12
554,1747401961890,0.23,1.48,0.99,-293.58,-24.78,258.12
555,1747401961900,0.01,1.53,0.57,-326.11,-148.25,299.87
556,1747401961910,0.01,1.53,0.57,-326.11,-148.25,299.87
557,1747401961920,0.01,1.53,0.57,-326.11,-148.25,299.87
558,1747401961930,-0.165,1.605,0.48,-317.72,-157.89499999999998,287.295
559,1747401961940,-0.34,1.68,0.39,-309.33,-167.54,274.72
560,1747401961950,-0.34,1.68,0.39,-309.33,-167.54,274.72
561,1747401961960,-0.34,1.68,0.39,-309.33,-167.54,274.72
562,1747401961970,-0.27,1.84,0.42,-289.34000000000003,-182.83,295.38
563,1747401961980,-0.2,2.0,0.45,-269.35,-198.12,316.04
564,1747401961990,-0.2,2.0,0.45,-269.35,-198.12,316.04
565,1747401962000,-0.2,2.0,0.45,-269.35,-198.12,316.04
566,1747401962010,-0.21,1.96,0.49,-294.19,-144.53,362.0
567,1747401962020,-0.21,1.96,0.49,-294.19,-144.53,362.0
568,1747401962030,-0.21,1.96,0.49,-294.19,-144.53,362.0
569,1747401962040,-0.21,1.96,0.49,-294.19,-144.53,362.0
570,1747401962050,-0.24,1.62,0.27,-296.935,-129.335,351.595
571,1747401962060,-0.24,1.62,0.27,-299.68,-114.14,341.19
572,1747401962070,-0.24,1.62,0.27,-299.68,-114.14,341.19
573,1747401962080,-0.24,1.62,0.27,-299.68,-114.14,341.19
574,1747401962090,-0.35,0.98,-0.28,-222.41,-142.27,304.69
575,1747401962100,-0.35,0.98,-0.28,-222.41,-142.27,304.69
576,1747401962110,-0.35,0.98,-0.28,-222.41,-142.27,304.69
577,1747401962120,-0.835,0.475,-0.95,-222.41,-142.27,304.69
578,1747401962130,-1.32,-0.03,-1.62,-211.49,-54.32,269.04
579,1747401962140,-1.32,-0.03,-1.62,-211.49,-54.32,269.04
580,1747401962150,-1.32,-0.03,-1.62,-211.49,-54.32,269.04
581,1747401962160,-1.32,-0.03,-1.62,-211.49,-54.32,269.04
582,1747401962170,-3.03,-1.27,-3.08,-126.34,129.15,81.91
583,1747401962180,-3.03,-1.27,-3.08,-126.34,129.15,81.91
584,1747401962190,-3.03,-1.27,-3.08,-126.34,129.15,81.91
585,1747401962200,-3.03,-1.27,-3.08,-126.34,129.15,81.91
586,1747401962210,-2.76,-1.79,-3.33,-34.61,126.89,-61.65
587,1747401962220,-2.76,-1.79,-3.33,-34.61,126.89,-61.65
588,1747401962230,,,,,,
589,1747401962240,-2.76,-1.79,-3.33,-34.61,126.89,-61.65
590,1747401962250,-1.94,-0.81,-2.33,142.09,177.8,-257.63
591,1747401962260,-1.94,-0.81,-2.33,142.09,177.8,-257.63
592,1747401962270,-1.94,-0.81,-2.33,142.09,177.8,-257.63
593,1747401962280,-1.07,0.63,-1.2,351.56,134.89,-313.84
594,1747401962290,-1.07,0.63,-1.2,351.56,134.89,-313.84
595,1747401962300,-1.07,0.63,-1.2,351.56,134.89,-313.84
596,1747401962310,-1.07,0.63,-1.2,351.56,134.89,-313.84
597,1747401962320,-0.76,2.58,0.24,506.23,100.52,-319.95
598,1747401962330,-0.76,2.58,0.24,506.23,100.52,-319.95
599,1747401962340,-0.76,2.58,0.24,506.23,100.52,-319.95
600,1747401962350,-0.76,2.58,0.24,506.23,100.52,-319.95
601,1747401962360,-0.01,2.92,0.8,410.89,29.85,-306.15
602,1747401962370,-0.01,2.92,0.8,410.89,29.85,-306.15
603,1747401962380,-0.01,2.92,0.8,410.89,29.85,-306.15
604,1747401962390,-0.33,2.05,0.51,410.89,29.85,-306.15
605,1747401962400,-0.33,2.05,0.51,269.59,62.93,-339.23
606,1747401962410,-0.33,2.05,0.51,269.59,62.93,-339.23
607,1747401962420,-0.33,2.05,0.51,269.59,62.93,-339.23
608,1747401962430,-0.24,1.97,0.38,283.14,55.79,-328.03
609,1747401962440,-0.24,1.97,0.38,296.69,48.65,-316.83
610,1747401962450,-0.24,1.97,0.38,296.69,48.65,-316.83
611,1747401962460,-0.24,1.97,0.38,296.69,48.65,-316.83
612,1747401962470,-0.03,1.85,0.48,241.88,42.97,-308.53
613,1747401962480,-0.03,1.85,0.48,241.88,42.97,-308.53
614,1747401962490,-0.03,1.85,0.48,241.88,42.97,-308.53
615,1747401962500,-0.03,1.85,0.48,241.88,42.97,-308.53
616,1747401962510,0.49,1.79,0.95,223.57,47.55,-307.37
617,1747401962520,0.49,1.79,0.95,223.57,47.55,-307.37
618,1747401962530,0.49,1.79,0.95,223.57,47.55,-307.37
619,1747401962540,1.375,1.625,1.27,198.545,19.99,-299.375
620,1747401962550,2.26,1.46,1.59,173.52,-7.57,-291.38
621,1747401962560,2.26,1.46,1.59,173.52,-7.57,-291.38
622,1747401962570,2.26,1.46,1.59,173.52,-7.57,-291.38
623,1747401962580,2.26,1.46,1.59,173.52,-7.57,-291.38
624,1747401962590,3.44,2.39,2.45,152.71,-14.34,-209.78
625,1747401962600,3.44,2.39,2.45,152.71,-14.34,-209.78
626,1747401962610,3.44,2.39,2.45,152.71,-14.34,-209.78
627,1747401962620,4.325,3.2350000000000003,2.055,86.245,-55.175,-118.015
628,1747401962630,5.21,4.08,1.66,19.78,-96.01,-26.25
629,1747401962640,5.21,4.08,1.66,19.78,-96.01,-26.25
630,1747401962650,5.21,4.08,1.66,19.78,-96.01,-26.25
631,1747401962660,4.405,3.935,1.605,-7.445,22.919999999999995,78.275
632,1747401962670,3.6,3.79,1.55,-34.67,141.85,182.8
633,1747401962680,3.6,3.79,1.55,-34.67,141.85,182.8
634,1747401962690,3.6,3.79,1.55,-34.67,141.85,182.8
635,1747401962700,1.06,1.92,1.44,-224.3,181.34,220.28
636,1747401962710,1.06,1.92,1.44,-224.3,181.34,220.28
637,1747401962720,1.06,1.92,1.44,-224.3,181.34,220.28
638,1747401962730,1.06,1.92,1.44,-224.3,181.34,220.28
639,1747401962740,0.49,1.41,0.9,-243.04,18.55,301.94
640,1747401962750,0.49,1.41,0.9,-243.04,18.55,301.94
641,1747401962760,0.49,1.41,0.9,-243.04,18.55,301.94
642,1747401962770,0.49,1.41,0.9,-243.04,18.55,301.94
643,1747401962780,0.0,1.47,0.46,-297.42,-47.0,332.15
644,1747401962790,0.0,1.47,0.46,-297.42,-47.0,332.15
645,1747401962800,0.0,1.47,0.46,-297.42,-47.0,332.15
646,1747401962810,0.0,1.47,0.46,-297.42,-47.0,332.15
647,1747401962820,-0.21,1.7,0.33,-304.81,-83.68,327.88
648,1747401962830,-0.21,1.7,0.33,-304.81,-83.68,327.88
649,1747401962840,-0.21,1.7,0.33,-304.81,-83.68,327.88
650,1747401962850,-0.21,1.7,0.33,-304.81,-83.68,327.88
651,1747401962860,-0.255,1.83,0.35,-307.22,-86.245,332.43
652,1747401962870,-0.3,1.96,0.37,-309.63,-88.81,336.98
653,1747401962880,-0.3,1.96,0.37,-309.63,-88.81,336.98
654,1747401962890,-0.35,1.885,0.395,-319.245,-82.035,328.645
655,1747401962900,-0.4,1.81,0.42,-328.86,-75.26,320.31
656,1747401962910,-0.4,1.81,0.42,-328.86,-75.26,320.31
657,1747401962920,-0.4,1.81,0.42,-328.86,-75.26,320.31
658,1747401962930,-0.37,1.48,0.3,-312.32,-105.47,315.12
659,1747401962940,-0.37,1.48,0.3,-312.32,-105.47,315.12
660,1747401962950,-0.37,1.48,0.3,-312.32,-105.47,315.12
661,1747401962960,-0.37,1.48,0.3,-312.32,-105.47,315.12
662,1747401962970,-0.345,1.2,0.0349999999999999,-292.27,-84.505,298.43
663,1747401962980,-0.32,0.92,-0.23,-272.22,-63.54,281.74
664,1747401962990,-0.32,0.92,-0.23,-272.22,-63.54,281.74
665,1747401963000,-0.32,0.92,-0.23,-272.22,-63.54,281.74
666,1747401963010,-1.09,-0.35,-1.86,-291.14,-23.865,265.71500000000003
667,1747401963020,-1.09,-0.35,-1.86,-310.06,15.81,249.69
668,1747401963030,-1.09,-0.35,-1.86,-310.06,15.81,249.69
669,1747401963040,-1.09,-0.35,-1.86,-310.06,15.81,249.69
670,1747401963050,-2.18,-0.99,-3.45,-133.42,106.63,135.19
671,1747401963060,-2.18,-0.99,-3.45,-133.42,106.63,135.19
672,1747401963070,-2.18,-0.99,-3.45,-133.42,106.63,135.19
673,1747401963080,-2.125,-1.56,-3.55,-82.72999999999999,117.95,39.885
674,1747401963090,-2.07,-2.13,-3.65,-32.04,129.27,-55.42
675,1747401963100,-2.07,-2.13,-3.65,-32.04,129.27,-55.42
676,1747401963110,-2.07,-2.13,-3.65,-32.04,129.27,-55.42
677,1747401963120,-2.07,-2.13,-3.65,-32.04,129.27,-55.42
678,1747401963130,-1.05,-0.28,-1.91,240.6,161.8,-185.49
679,1747401963140,-1.05,-0.28,-1.91,240.6,161.8,-185.49
680,1747401963150,-1.05,-0.28,-1.91,240.6,161.8,-185.49
681,1747401963160,-0.99,0.345,-1.11,324.37,102.72,-175.41500000000002
682,1747401963170,-0.93,0.97,-0.31,408.14,43.64,-165.34
683,1747401963180,-0.93,0.97,-0.31,408.14,43.64,-165.34
684,1747401963190,-0.93,0.97,-0.31,408.14,43.64,-165.34
685,1747401963200,0.09,2.05,0.43,411.375,-19.96,-177.73000000000002
686,1747401963210,0.09,2.05,0.43,414.61,-83.56,-190.12
687,1747401963220,0.09,2.05,0.43,414.61,-83.56,-190.12
688,1747401963230,0.09,2.05,0.43,414.61,-83.56,-190.12
689,1747401963240,0.17,2.0,0.73,253.23,3.54,-298.58
690,1747401963250,0.17,2.0,0.73,253.23,3.54,-298.58
691,1747401963260,0.17,2.0,0.73,253.23,3.54,-298.58
692,1747401963270,0.17,2.0,0.73,253.23,3.54,-298.58
693,1747401963280,0.02,1.46,0.45,242.43,-10.56,-276.61
694,1747401963290,0.02,1.46,0.45,242.43,-10.56,-276.61
695,1747401963300,0.02,1.46,0.45,242.43,-10.56,-276.61
696,1747401963310,0.02,1.46,0.45,242.43,-10.56,-276.61
697,1747401963320,0.21,1.62,0.46,245.79,26.06,-290.04
698,1747401963330,0.21,1.62,0.46,245.79,26.06,-290.04
699,1747401963340,0.21,1.62,0.46,245.79,26.06,-290.04
700,1747401963350,0.2249999999999999,1.455,0.54,225.465,55.94,-299.96000000000004
701,1747401963360,0.24,1.29,0.62,205.14,85.82,-309.88
702,1747401963370,0.24,1.29,0.62,205.14,85.82,-309.88
703,1747401963380,0.24,1.29,0.62,205.14,85.82,-309.88
704,1747401963390,0.24,1.29,0.62,205.14,85.82,-309.88
705,1747401963400,0.695,1.3,0.8899999999999999,205.595,66.62,-287.355
706,1747401963410,1.15,1.31,1.16,206.05,47.42,-264.83
707,1747401963420,1.935,0.935,1.39,187.74,38.39,-262.91
708,1747401963430,2.72,0.56,1.62,169.43,29.36,-260.99
709,1747401963440,2.72,0.56,1.62,169.43,29.36,-260.99
710,1747401963450,2.72,0.56,1.62,169.43,29.36,-260.99
711,1747401963460,3.99,1.44,2.6,163.45,26.4,-202.305
712,1747401963470,3.99,1.44,2.6,157.47,23.44,-143.62
713,1747401963480,3.99,1.44,2.6,157.47,23.44,-143.62
714,1747401963490,3.99,1.44,2.6,157.47,23.44,-143.62
715,1747401963500,5.33,2.65,2.72,1.28,-45.59,-67.44
716,1747401963510,5.33,2.65,2.72,1.28,-45.59,-67.44
717,1747401963520,5.33,2.65,2.72,1.28,-45.59,-67.44
718,1747401963530,5.33,2.65,2.72,1.28,-45.59,-67.44
719,1747401963540,3.84,2.89,2.35,-40.28,104.31,196.53
720,1747401963550,3.84,2.89,2.35,-40.28,104.31,196.53
721,1747401963560,3.84,2.89,2.35,-40.28,104.31,196.53
722,1747401963570,2.56,2.16,2.1,-119.17,123.445,217.465
723,1747401963580,1.28,1.43,1.85,-198.06,142.58,238.4
724,1747401963590,1.28,1.43,1.85,-198.06,142.58,238.4
725,1747401963600,,,,,,
726,1747401963610,0.8400000000000001,1.285,1.495,-220.335,65.155,253.90500000000003
727,1747401963620,0.4,1.14,1.14,-242.61,-12.27,269.41
728,1747401963630,0.4,1.14,1.14,-242.61,-12.27,269.41
729,1747401963640,0.4,1.14,1.14,-242.61,-12.27,269.41
730,1747401963650,-0.04,1.27,0.62,-296.75,-65.43,283.33
731,1747401963660,-0.04,1.27,0.62,-296.75,-65.43,283.33
732,1747401963670,-0.04,1.27,0.62,-296.75,-65.43,283.33
733,1747401963680,-0.04,1.27,0.62,-296.75,-65.43,283.33
734,1747401963690,-0.45,1.29,0.5,-284.3,-128.72,254.52
735,1747401963700,-0.45,1.29,0.5,-284.3,-128.72,254.52
736,1747401963710,-0.45,1.29,0.5,-284.3,-128.72,254.52
737,1747401963720,-0.45,1.29,0.5,-284.3,-128.72,254.52
738,1747401963730,-0.01,1.78,0.35,-251.59,-154.72,266.48
739,1747401963740,-0.01,1.78,0.35,-251.59,-154.72,266.48
740,1747401963750,-0.01,1.78,0.35,-251.59,-154.72,266.48
741,1747401963760,-0.01,1.78,0.35,-251.59,-154.72,266.48
742,1747401963770,-0.27,1.74,0.59,-289.86,-101.14,286.56
743,1747401963780,-0.27,1.74,0.59,-289.86,-101.14,286.56
744,1747401963790,-0.27,1.74,0.59,-289.86,-101.14,286.56
745,1747401963800,-0.245,1.575,0.4549999999999999,-282.81,-113.465,280.15
746,1747401963810,-0.22,1.41,0.32,-275.76,-125.79,273.74
747,1747401963820,-0.22,1.41,0.32,-275.76,-125.79,273.74
748,1747401963830,-0.22,1.41,0.32,-275.76,-125.79,273.74
749,1747401963840,-0.44,0.79,-0.44,-279.3,-98.88,247.92
750,1747401963850,-0.44,0.79,-0.44,-279.3,-98.88,247.92
751,1747401963860,-0.44,0.79,-0.44,-279.3,-98.88,247.92
752,1747401963870,-0.44,0.79,-0.44,-279.3,-98.88,247.92
753,1747401963880,-1.16,-1.08,-1.97,-251.1,-45.23,229.765
754,1747401963890,-1.16,-1.08,-1.97,-222.9,8.42,211.61
755,1747401963900,-1.16,-1.08,-1.97,-222.9,8.42,211.61
756,1747401963910,-1.16,-1.08,-1.97,-222.9,8.42,211.61
757,1747401963920,-1.72,-0.81,-2.66,-120.0,157.1,30.88
758,1747401963930,-1.72,-0.81,-2.66,-120.0,157.1,30.88
759,1747401963940,-1.72,-0.81,-2.66,-120.0,157.1,30.88
760,1747401963950,-1.72,-0.81,-2.66,-120.0,157.1,30.88
761,1747401963960,-1.67,-1.73,-3.1,-93.14,119.81,-51.27
762,1747401963970,-1.67,-1.73,-3.1,-93.14,119.81,-51.27
763,1747401963980,-1.67,-1.73,-3.1,-93.14,119.81,-51.27
764,1747401963990,-1.67,-1.73,-3.1,-93.14,119.81,-51.27
765,1747401964000,-1.29,-0.98,-2.21,0.8250000000000028,126.25,-116.73
766,1747401964010,-1.29,-0.98,-2.21,94.79,132.69,-182.19
767,1747401964020,-1.29,-0.98,-2.21,94.79,132.69,-182.19
768,1747401964030,-1.29,-0.98,-2.21,94.79,132.69,-182.19
769,1747401964040,-0.86,-0.13,-1.23,278.32,70.13,-215.82
770,1747401964050,-0.86,-0.13,-1.23,278.32,70.13,-215.82
771,1747401964060,-0.86,-0.13,-1.23,278.32,70.13,-215.82
772,1747401964070,-0.86,0.54,-0.78,391.54,-12.420000000000002,-198.275
773,1747401964080,-0.86,1.21,-0.33,504.76,-94.97,-180.73
774,1747401964090,-0.86,1.21,-0.33,504.76,-94.97,-180.73
775,1747401964100,-0.86,1.21,-0.33,504.76,-94.97,-180.73
776,1747401964110,0.45,2.74,0.3,458.68,-144.93,-198.06
777,1747401964120,0.45,2.74,0.3,412.6,-194.89,-215.39
778,1747401964130,0.45,2.74,0.3,412.6,-194.89,-215.39
779,1747401964140,0.45,2.74,0.3,412.6,-194.89,-215.39
780,1747401964150,0.65,2.05,0.53,130.07,55.11,-315.55
781,1747401964160,0.65,2.05,0.53,130.07,55.11,-315.55
782,1747401964170,0.65,2.05,0.53,130.07,55.11,-315.55
783,1747401964180,0.65,2.05,0.53,130.07,55.11,-315.55
784,1747401964190,0.04,1.43,0.6,145.26,63.72,-292.24
785,1747401964200,0.04,1.43,0.6,145.26,63.72,-292.24
786,1747401964210,0.04,1.43,0.6,145.26,63.72,-292.24
787,1747401964220,0.04,1.43,0.6,145.26,63.72,-292.24
788,1747401964230,0.3,1.44,0.56,176.76,21.06,-255.43
789,1747401964240,0.3,1.44,0.56,176.76,21.06,-255.43
790,1747401964250,0.3,1.44,0.56,176.76,21.06,-255.43
791,1747401964260,0.47,1.405,0.7350000000000001,161.165,49.44,-286.925
792,1747401964270,0.64,1.37,0.91,145.57,77.82,-318.42
793,1747401964280,0.64,1.37,0.91,145.57,77.82,-318.42
794,1747401964290,0.64,1.37,0.91,145.57,77.82,-318.42
795,1747401964300,2.17,0.83,1.19,124.085,44.31,-313.845
796,1747401964310,2.17,0.83,1.19,102.6,10.8,-309.27
797,1747401964320,2.17,0.83,1.19,102.6,10.8,-309.27
798,1747401964330,2.17,0.83,1.19,102.6,10.8,-309.27
799,1747401964340,4.7,1.65,1.49,114.41,30.61,-275.27
800,1747401964350,4.7,1.65,1.49,126.22,50.42,-241.27
801,1747401964360,4.7,1.65,1.49,126.22,50.42,-241.27
802,1747401964370,4.7,1.65,1.49,126.22,50.42,-241.27
803,1747401964380,5.92,2.33,2.47,16.42,-26.73,-131.47
804,1747401964390,5.92,2.33,2.47,16.42,-26.73,-131.47
805,1747401964400,5.92,2.33,2.47,16.42,-26.73,-131.47
806,1747401964410,5.92,2.33,2.47,16.42,-26.73,-131.47
807,1747401964420,5.01,2.65,1.81,-19.96,77.45,190.61
808,1747401964430,5.01,2.65,1.81,-19.96,77.45,190.61
809,1747401964440,5.01,2.65,1.81,-19.96,77.45,190.61
810,1747401964450,3.265,2.1,1.73,-99.0,117.825,221.495
811,1747401964460,1.52,1.55,1.65,-178.04,158.2,252.38
812,1747401964470,1.52,1.55,1.65,-178.04,158.2,252.38
813,1747401964480,1.52,1.55,1.65,-178.04,158.2,252.38
814,1747401964490,1.05,1.475,1.29,-196.625,60.63499999999999,296.05
815,1747401964500,0.58,1.4,0.93,-215.21,-36.93,339.72
816,1747401964510,0.58,1.4,0.93,-215.21,-36.93,339.72
817,1747401964520,0.58,1.4,0.93,-215.21,-36.93,339.72
818,1747401964530,0.06,1.33,0.46,-250.37,-62.81,367.13
819,1747401964540,0.06,1.33,0.46,-250.37,-62.81,367.13
820,1747401964550,0.06,1.33,0.46,-250.37,-62.81,367.13
821,1747401964560,0.06,1.33,0.46,-250.37,-62.81,367.13
822,1747401964570,-0.47,1.29,0.42,-255.86,-74.16,328.86
823,1747401964580,-0.47,1.29,0.42,-255.86,-74.16,328.86
824,1747401964590,-0.47,1.29,0.42,-255.86,-74.16,328.86
825,1747401964600,-0.47,1.29,0.42,-255.86,-74.16,328.86
826,1747401964610,-0.2,1.37,0.4,-225.83,-147.89,312.99
827,1747401964620,-0.2,1.37,0.4,-225.83,-147.89,312.99
828,1747401964630,-0.2,1.37,0.4,-225.83,-147.89,312.99
829,1747401964640,-0.2,1.37,0.4,-225.83,-147.89,312.99
830,1747401964650,-0.02,1.5,0.47,-247.99,-90.76,333.44
831,1747401964660,-0.02,1.5,0.47,-247.99,-90.76,333.44
832,1747401964670,-0.02,1.5,0.47,-247.99,-90.76,333.44
833,1747401964680,-0.02,1.5,0.47,-247.99,-90.76,333.44
834,1747401964690,-0.09,1.16,0.49,-237.79,-111.45,296.39
835,1747401964700,-0.09,1.16,0.49,-237.79,-111.45,296.39
836,1747401964710,-0.09,1.16,0.49,-237.79,-111.45,296.39
837,1747401964720,-0.09,1.16,0.49,-237.79,-111.45,296.39
838,1747401964730,-0.11,0.96,0.03,-215.15,-89.78,293.88
839,1747401964740,-0.11,0.96,0.03,-215.15,-89.78,293.88
840,1747401964750,-0.11,0.96,0.03,-215.15,-89.78,293.88
841,1747401964760,-0.675,-0.235,-0.94,-215.15,-89.78,293.88
842,1747401964770,-1.24,-1.43,-1.91,-316.35,35.52,182.5
843,1747401964780,-1.24,-1.43,-1.91,-316.35,35.52,182.5
844,1747401964790,-1.24,-1.43,-1.91,-316.35,35.52,182.5
845,1747401964800,-1.505,-1.075,-2.345,-209.355,101.35,98.88
846,1747401964810,-1.77,-0.72,-2.78,-102.36,167.18,15.26
847,1747401964820,-1.77,-0.72,-2.78,-102.36,167.18,15.26
848,1747401964830,-1.77,-0.72,-2.78,-102.36,167.18,15.26
849,1747401964840,-1.84,-1.225,-2.86,-80.75,125.43,-7.415
850,1747401964850,-1.91,-1.73,-2.94,-59.14,83.68,-30.09
851,1747401964860,-1.91,-1.73,-2.94,-59.14,83.68,-30.09
852,1747401964870,-1.91,-1.73,-2.94,-59.14,83.68,-30.09
853,1747401964880,-1.45,-0.84,-2.09,27.07,103.575,-99.245
854,1747401964890,-1.45,-0.84,-2.09,113.28,123.47,-168.4
855,1747401964900,-1.45,-0.84,-2.09,113.28,123.47,-168.4
856,1747401964910,-1.45,-0.84,-2.09,113.28,123.47,-168.4
857,1747401964920,-1.26,-0.3349999999999999,-1.52,209.38,89.72,-191.62
858,1747401964930,-1.07,0.17,-0.95,305.48,55.97,-214.84
859,1747401964940,-1.07,0.17,-0.95,305.48,55.97,-214.84
860,1747401964950,-0.765,0.7999999999999999,-0.48,348.785,36.99,-232.605
861,1747401964960,,,,,,
862,1747401964970,-0.46,1.43,-0.01,392.09,18.01,-250.37
863,1747401964980,-0.46,1.43,-0.01,392.09,18.01,-250.37
864,1747401964990,-0.46,1.43,-0.01,392.09,18.01,-250.37
865,1747401965000,0.13,2.33,0.72,292.18,91.0,-315.19
866,1747401965010,0.13,2.33,0.72,292.18,91.0,-315.19
867,1747401965020,0.13,2.33,0.72,292.18,91.0,-315.19
868,1747401965030,0.14,1.68,0.66,237.92,66.77,-258.48
869,1747401965040,0.14,1.68,0.66,237.92,66.77,-258.48
870,1747401965050,0.14,1.68,0.66,237.92,66.77,-258.48
871,1747401965060,0.14,1.68,0.66,237.92,66.77,-258.48
872,1747401965070,-0.09,1.22,0.41,278.63,37.66,-202.88
873,1747401965080,-0.09,1.22,0.41,278.63,37.66,-202.88
874,1747401965090,-0.09,1.22,0.41,278.63,37.66,-202.88
875,1747401965100,-0.09,1.22,0.41,278.63,37.66,-202.88
876,1747401965110,0.18,1.23,0.39,241.46,64.94,-279.48
877,1747401965120,0.18,1.23,0.39,241.46,64.94,-279.48
878,1747401965130,0.18,1.23,0.39,241.46,64.94,-279.48
879,1747401965140,0.18,1.23,0.39,241.46,64.94,-279.48
880,1747401965150,0.5,1.07,0.51,214.48,82.89,-278.87
881,1747401965160,0.5,1.07,0.51,214.48,82.89,-278.87
882,1747401965170,0.5,1.07,0.51,214.48,82.89,-278.87
883,1747401965180,1.185,0.99,0.865,214.48,82.89,-278.87
884,1747401965190,1.87,0.91,1.22,178.89,75.87,-336.67
885,1747401965200,1.87,0.91,1.22,178.89,75.87,-336.67
886,1747401965210,1.87,0.91,1.22,178.89,75.87,-336.67
887,1747401965220,3.54,1.69,2.72,181.485,104.31,-290.255
888,1747401965230,3.54,1.69,2.72,184.08,132.75,-243.84
889,1747401965240,3.54,1.69,2.72,184.08,132.75,-243.84
890,1747401965250,3.54,1.69,2.72,184.08,132.75,-243.84
891,1747401965260,4.18,2.255,2.99,129.91,-18.584999999999997,-148.93
892,1747401965270,4.82,2.82,3.26,75.74,-169.92,-54.02
893,1747401965280,4.82,2.82,3.26,75.74,-169.92,-54.02
894,1747401965290,4.82,2.82,3.26,75.74,-169.92,-54.02
895,1747401965300,4.63,2.79,1.95,-64.33,-2.99,113.28
896,1747401965310,4.63,2.79,1.95,-64.33,-2.99,113.28
897,1747401965320,4.63,2.79,1.95,-64.33,-2.99,113.28
898,1747401965330,4.63,2.79,1.95,-64.33,-2.99,113.28
899,1747401965340,1.81,1.76,1.82,-154.66,110.23,250.18
900,1747401965350,1.81,1.76,1.82,-154.66,110.23,250.18
901,1747401965360,1.81,1.76,1.82,-154.66,110.23,250.18
902,1747401965370,0.6,1.23,1.15,-154.66,110.23,250.18
903,1747401965380,0.6,1.23,1.15,-252.08,21.06,299.26
904,1747401965390,0.6,1.23,1.15,-252.08,21.06,299.26
905,1747401965400,0.6,1.23,1.15,-252.08,21.06,299.26
906,1747401965410,0.315,1.225,0.8099999999999999,-276.43,-20.72,317.875
907,1747401965420,0.03,1.22,0.47,-300.78,-62.5,336.49
908,1747401965430,0.03,1.22,0.47,-300.78,-62.5,336.49
909,1747401965440,0.03,1.22,0.47,-300.78,-62.5,336.49
910,1747401965450,-0.155,1.19,0.42,-293.825,-82.61,333.195
911,1747401965460,-0.34,1.16,0.37,-286.87,-102.72,329.9
912,1747401965470,-0.34,1.16,0.37,-286.87,-102.72,329.9
913,1747401965480,-0.34,1.16,0.37,-286.87,-102.72,329.9
914,1747401965490,-0.19,1.345,0.38,-283.45,-123.135,317.08
915,1747401965500,-0.04,1.53,0.39,-280.03,-143.55,304.26
916,1747401965510,-0.04,1.53,0.39,-280.03,-143.55,304.26
917,1747401965520,-0.04,1.53,0.39,-280.03,-143.55,304.26
918,1747401965530,-0.06,1.55,0.47,-288.635,-125.575,315.52
919,1747401965540,-0.06,1.55,0.47,-297.24,-107.6,326.78
920,1747401965550,-0.06,1.55,0.47,-297.24,-107.6,326.78
921,1747401965560,-0.0249999999999999,1.445,0.4399999999999999,-275.97,-130.125,319.945
922,1747401965570,0.01,1.34,0.41,-254.7,-152.65,313.11
923,1747401965580,0.01,1.34,0.41,-254.7,-152.65,313.11
924,1747401965590,0.01,1.34,0.41,-254.7,-152.65,313.11
925,1747401965600,0.01,1.34,0.41,-254.7,-152.65,313.11
926,1747401965610,0.04,1.12,-0.02,-199.89,-152.53,329.47
927,1747401965620,0.04,1.12,-0.02,-199.89,-152.53,329.47
928,1747401965630,0.04,1.12,-0.02,-199.89,-152.53,329.47
929,1747401965640,0.04,1.12,-0.02,-199.89,-152.53,329.47
930,1747401965650,-0.68,-0.29,-1.48,-174.26,-45.29,293.52
931,1747401965660,-0.68,-0.29,-1.48,-174.26,-45.29,293.52
932,1747401965670,-0.68,-0.29,-1.48,-174.26,-45.29,293.52
933,1747401965680,-2.58,-0.82,-2.73,-149.845,36.895,214.355
934,1747401965690,-2.58,-0.82,-2.73,-125.43,119.08,135.19
935,1747401965700,-2.58,-0.82,-2.73,-125.43,119.08,135.19
936,1747401965710,-2.58,-0.82,-2.73,-125.43,119.08,135.19
937,1747401965720,-2.89,-1.84,-3.24,-131.23,142.4,-9.28
938,1747401965730,-2.89,-1.84,-3.24,-131.23,142.4,-9.28
939,1747401965740,-2.89,-1.84,-3.24,-131.23,142.4,-9.28
940,1747401965750,-2.89,-1.84,-3.24,-131.23,142.4,-9.28
941,1747401965760,-1.91,-1.29,-2.76,37.72,218.14,-225.28
942,1747401965770,-1.91,-1.29,-2.76,37.72,218.14,-225.28
943,1747401965780,-1.91,-1.29,-2.76,37.72,218.14,-225.28
944,1747401965790,-1.91,-1.29,-2.76,37.72,218.14,-225.28
945,1747401965800,-1.36,-0.1,-1.57,269.53,213.99,-238.77
946,1747401965810,-1.36,-0.1,-1.57,269.53,213.99,-238.77
947,1747401965820,-1.36,-0.1,-1.57,269.53,213.99,-238.77
948,1747401965830,-1.36,-0.1,-1.57,269.53,213.99,-238.77
949,1747401965840,-1.39,2.14,0.14,549.38,40.16,-175.05
950,1747401965850,-1.39,2.14,0.14,549.38,40.16,-175.05
951,1747401965860,-1.39,2.14,0.14,549.38,40.16,-175.05
952,1747401965870,-0.6849999999999999,2.47,0.485,549.38,40.16,-175.05
953,1747401965880,0.02,2.8,0.83,346.07,-31.13,-254.76
954,1747401965890,0.02,2.8,0.83,346.07,-31.13,-254.76
955,1747401965900,0.02,2.8,0.83,346.07,-31.13,-254.76
956,1747401965910,-0.09,2.385,0.71,265.32,28.35,-280.82
957,1747401965920,-0.2,1.97,0.59,184.57,87.83,-306.88
958,1747401965930,-0.2,1.97,0.59,184.57,87.83,-306.88
959,1747401965940,-0.2,1.97,0.59,184.57,87.83,-306.88
960,1747401965950,-0.285,1.69,0.49,196.29,92.405,-296.905
961,1747401965960,-0.37,1.41,0.39,208.01,96.98,-286.93
962,1747401965970,-0.37,1.41,0.39,208.01,96.98,-286.93
963,1747401965980,-0.37,1.41,0.39,208.01,96.98,-286.93
964,1747401965990,-0.22,1.66,0.43,282.1,99.12,-268.8
965,1747401966000,-0.22,1.66,0.43,282.1,99.12,-268.8
966,1747401966010,-0.22,1.66,0.43,282.1,99.12,-268.8
967,1747401966020,-0.22,1.66,0.43,282.1,99.12,-268.8
968,1747401966030,0.015,1.81,0.71,264.065,99.21,-284.70000000000005
969,1747401966040,0.25,1.96,0.99,246.03,99.3,-300.6
970,1747401966050,0.25,1.96,0.99,246.03,99.3,-300.6
971,1747401966060,0.25,1.96,0.99,246.03,99.3,-300.6
972,1747401966070,1.89,1.83,1.5,263.49,72.27,-310.42
973,1747401966080,1.89,1.83,1.5,263.49,72.27,-310.42
974,1747401966090,1.89,1.83,1.5,263.49,72.27,-310.42
975,1747401966100,2.71,1.755,2.26,263.49,72.27,-310.42
976,1747401966110,3.53,1.68,3.02,193.79,150.33,-217.71
977,1747401966120,3.53,1.68,3.02,193.79,150.33,-217.71
978,1747401966130,3.53,1.68,3.02,193.79,150.33,-217.71
979,1747401966140,3.53,1.68,3.02,193.79,150.33,-217.71
980,1747401966150,4.29,2.89,4.02,119.38,-118.35,-174.56
981,1747401966160,4.29,2.89,4.02,119.38,-118.35,-174.56
982,1747401966170,4.29,2.89,4.02,119.38,-118.35,-174.56
983,1747401966180,4.615,3.1500000000000004,3.2749999999999995,47.79,-85.815,-8.180000000000007
984,1747401966190,4.94,3.41,2.53,-23.8,-53.28,158.2
985,1747401966200,4.94,3.41,2.53,-23.8,-53.28,158.2
986,1747401966210,4.94,3.41,2.53,-23.8,-53.28,158.2
987,1747401966220,1.83,1.82,2.05,-227.42,119.2,209.17
988,1747401966230,1.83,1.82,2.05,-227.42,119.2,209.17
989,1747401966240,1.83,1.82,2.05,-227.42,119.2,209.17
990,1747401966250,1.83,1.82,2.05,-227.42,119.2,209.17
991,1747401966260,1.19,1.585,1.6949999999999998,-235.355,26.395000000000003,244.995
992,1747401966270,0.55,1.35,1.34,-243.29,-66.41,280.82
993,1747401966280,0.55,1.35,1.34,-243.29,-66.41,280.82
994,1747401966290,0.55,1.35,1.34,-243.29,-66.41,280.82
995,1747401966300,0.11,1.46,0.72,-273.44,-158.02,312.32
996,1747401966310,0.11,1.46,0.72,-273.44,-158.02,312.32
997,1747401966320,0.11,1.46,0.72,-273.44,-158.02,312.32
998,1747401966330,-0.08,1.605,0.58,-284.395,-154.085,320.895
999,1747401966340,-0.27,1.75,0.44,-295.35,-150.15,329.47
1000,1747401966350,-0.27,1.75,0.44,-295.35,-150.15,329.47
