id,timestamp,acc_x,acc_y,acc_z,gyro_x,gyro_y,gyro_z
0,1747401981850,-0.07,0.95,0.35,-79.22,-64.58,277.1
1,1747401981860,,,,,,
2,1747401981870,-0.07,0.95,0.35,-79.22,-64.58,277.1
3,1747401981880,-0.07,0.95,0.35,-79.22,-64.58,277.1
4,1747401981890,-0.39,0.66,0.08,-35.03,-53.77,222.53
5,1747401981900,-0.39,0.66,0.08,-35.03,-53.77,222.53
6,1747401981910,-0.39,0.66,0.08,-35.03,-53.77,222.53
7,1747401981920,-0.87,0.31,-0.2,-6.53,-3.54,139.1
8,1747401981930,-0.87,0.31,-0.2,-6.53,-3.54,139.1
9,1747401981940,-0.87,0.31,-0.2,-6.53,-3.54,139.1
10,1747401981950,-1.19,-0.3,-0.51,-12.27,-18.31,85.63
11,1747401981960,-1.19,-0.3,-0.51,-12.27,-18.31,85.63
12,1747401981970,-1.19,-0.3,-0.51,-12.27,-18.31,85.63
13,1747401981980,-1.69,-0.43,-0.85,-12.27,-18.31,85.63
14,1747401981990,-1.69,-0.43,-0.85,-28.87,172.49,3.54
15,1747401982000,-1.69,-0.43,-0.85,-28.87,172.49,3.54
16,1747401982010,-1.69,-0.43,-0.85,-28.87,172.49,3.54
17,1747401982020,-1.69,-0.43,-0.85,-28.87,172.49,3.54
18,1747401982030,-1.62,-0.34,-1.0,-124.94,192.75,-97.72
19,1747401982040,-1.62,-0.34,-1.0,-124.94,192.75,-97.72
20,1747401982050,-1.62,-0.34,-1.0,-124.94,192.75,-97.72
21,1747401982060,-0.74,-0.45,-0.95,-13.37,278.5,-256.96
22,1747401982070,-0.74,-0.45,-0.95,-13.37,278.5,-256.96
23,1747401982080,-0.74,-0.45,-0.95,-13.37,278.5,-256.96
24,1747401982090,-0.74,-0.45,-0.95,-13.37,278.5,-256.96
25,1747401982100,-0.66,0.5,0.15,-13.37,278.5,-256.96
26,1747401982110,-0.66,0.5,0.15,182.25,339.48,-378.78
27,1747401982120,-0.66,0.5,0.15,182.25,339.48,-378.78
28,1747401982130,-0.66,0.5,0.15,182.25,339.48,-378.78
29,1747401982140,-0.03,2.05,1.12,280.64,174.87,-351.2
30,1747401982150,-0.03,2.05,1.12,280.64,174.87,-351.2
31,1747401982160,-0.03,2.05,1.12,280.64,174.87,-351.2
32,1747401982170,-0.03,2.05,1.12,280.64,174.87,-351.2
33,1747401982180,-0.01,1.85,1.0,190.61,204.41,-402.65
34,1747401982190,-0.01,1.85,1.0,190.61,204.41,-402.65
35,1747401982200,-0.01,1.85,1.0,190.61,204.41,-402.65
36,1747401982210,-0.01,1.85,1.0,190.61,204.41,-402.65
37,1747401982220,-0.04,2.01,0.79,299.87,147.34,-386.05
38,1747401982230,-0.04,2.01,0.79,299.87,147.34,-386.05
39,1747401982240,-0.04,2.01,0.79,299.87,147.34,-386.05
40,1747401982250,-0.04,2.01,0.79,299.87,147.34,-386.05
41,1747401982260,0.63,1.91,0.95,245.12,76.17,-387.51
42,1747401982270,0.63,1.91,0.95,245.12,76.17,-387.51
43,1747401982280,0.63,1.91,0.95,245.12,76.17,-387.51
44,1747401982290,0.63,1.91,0.95,245.12,76.17,-387.51
45,1747401982300,1.28,1.6,0.92,213.87,22.03,-350.34
46,1747401982310,1.28,1.6,0.92,213.87,22.03,-350.34
47,1747401982320,1.28,1.6,0.92,213.87,22.03,-350.34
48,1747401982330,3.37,2.37,1.01,29.54,-190.55,-255.49
49,1747401982340,3.37,2.37,1.01,29.54,-190.55,-255.49
50,1747401982350,3.37,2.37,1.01,29.54,-190.55,-255.49
51,1747401982360,3.37,2.37,1.01,29.54,-190.55,-255.49
52,1747401982370,5.34,1.85,-0.31,27.65,-240.48,-10.25
53,1747401982380,5.34,1.85,-0.31,27.65,-240.48,-10.25
54,1747401982390,5.34,1.85,-0.31,27.65,-240.48,-10.25
55,1747401982400,5.34,1.85,-0.31,27.65,-240.48,-10.25
56,1747401982410,3.85,2.73,0.24,57.25,214.11,166.63
57,1747401982420,3.85,2.73,0.24,57.25,214.11,166.63
58,1747401982430,3.85,2.73,0.24,57.25,214.11,166.63
59,1747401982440,3.2750000000000004,3.245,0.66,57.86,198.67,207.4
60,1747401982450,2.7,3.76,1.08,58.47,183.23,248.17
61,1747401982460,2.7,3.76,1.08,58.47,183.23,248.17
62,1747401982470,2.7,3.76,1.08,58.47,183.23,248.17
63,1747401982480,2.7,3.76,1.08,58.47,183.23,248.17
64,1747401982490,2.07,2.73,1.02,-11.66,179.32,284.61
65,1747401982500,2.07,2.73,1.02,-11.66,179.32,284.61
66,1747401982510,2.07,2.73,1.02,-11.66,179.32,284.61
67,1747401982520,1.6349999999999998,2.22,1.005,-39.58,109.1,317.995
68,1747401982530,1.2,1.71,0.99,-67.5,38.88,351.38
69,1747401982540,1.2,1.71,0.99,-67.5,38.88,351.38
70,1747401982550,1.2,1.71,0.99,-67.5,38.88,351.38
71,1747401982560,1.16,1.585,0.66,-88.955,-25.695,399.2
72,1747401982570,1.12,1.46,0.33,-110.41,-90.27,447.02
73,1747401982580,1.12,1.46,0.33,-110.41,-90.27,447.02
74,1747401982590,1.12,1.46,0.33,-110.41,-90.27,447.02
75,1747401982600,0.34,1.75,0.17,-125.92,4.09,447.57
76,1747401982610,0.34,1.75,0.17,-125.92,4.09,447.57
77,1747401982620,0.34,1.75,0.17,-125.92,4.09,447.57
78,1747401982630,0.34,1.75,0.17,-125.92,4.09,447.57
79,1747401982640,0.15,1.94,0.37,-163.09,-40.41,437.38
80,1747401982650,0.15,1.94,0.37,-163.09,-40.41,437.38
81,1747401982660,0.15,1.94,0.37,-163.09,-40.41,437.38
82,1747401982670,0.15,1.94,0.37,-163.09,-40.41,437.38
83,1747401982680,0.44,1.98,0.34,-152.65,-33.51,457.52
84,1747401982690,0.44,1.98,0.34,-152.65,-33.51,457.52
85,1747401982700,,,,,,
86,1747401982710,0.27,1.79,0.37,-152.65,-33.51,457.52
87,1747401982720,0.27,1.79,0.37,-175.6,-2.5,389.1
88,1747401982730,0.27,1.79,0.37,-175.6,-2.5,389.1
89,1747401982740,0.27,1.79,0.37,-175.6,-2.5,389.1
90,1747401982750,0.27,1.79,0.37,-175.6,-2.5,389.1
91,1747401982760,0.14,1.23,0.23,-142.64,10.5,333.25
92,1747401982770,0.14,1.23,0.23,-142.64,10.5,333.25
93,1747401982780,0.14,1.23,0.23,-142.64,10.5,333.25
94,1747401982790,0.14,1.23,0.23,-142.64,10.5,333.25
95,1747401982800,-0.45,0.25,-0.34,-123.29,-8.91,244.75
96,1747401982810,-0.45,0.25,-0.34,-123.29,-8.91,244.75
97,1747401982820,-0.45,0.25,-0.34,-123.29,-8.91,244.75
98,1747401982830,-1.61,-0.97,-1.45,-46.2,128.6,190.92
99,1747401982840,-1.61,-0.97,-1.45,-46.2,128.6,190.92
100,1747401982850,-1.61,-0.97,-1.45,-46.2,128.6,190.92
101,1747401982860,-1.61,-0.97,-1.45,-46.2,128.6,190.92
102,1747401982870,-2.8,-1.1,-1.93,-69.21,273.01,-76.72
103,1747401982880,-2.8,-1.1,-1.93,-69.21,273.01,-76.72
104,1747401982890,-2.8,-1.1,-1.93,-69.21,273.01,-76.72
105,1747401982900,-2.8,-1.1,-1.93,-69.21,273.01,-76.72
106,1747401982910,-2.98,-2.2,-2.32,-1.46,149.41,-172.91
107,1747401982920,-2.98,-2.2,-2.32,-1.46,149.41,-172.91
108,1747401982930,-2.98,-2.2,-2.32,-1.46,149.41,-172.91
109,1747401982940,-2.325,-1.285,-1.875,105.44,78.61,-207.305
110,1747401982950,-1.67,-0.37,-1.43,212.34,7.81,-241.7
111,1747401982960,-1.67,-0.37,-1.43,212.34,7.81,-241.7
112,1747401982970,-1.67,-0.37,-1.43,212.34,7.81,-241.7
113,1747401982980,-1.19,0.49,-0.98,262.51,-25.91,-264.16
114,1747401982990,-0.71,1.35,-0.53,312.68,-59.63,-286.62
115,1747401983000,-0.71,1.35,-0.53,312.68,-59.63,-286.62
116,1747401983010,-0.71,1.35,-0.53,312.68,-59.63,-286.62
117,1747401983020,0.31,2.39,0.15,312.68,-59.63,-286.62
118,1747401983030,0.31,2.39,0.15,244.75,-86.85,-289.31
119,1747401983040,0.31,2.39,0.15,244.75,-86.85,-289.31
120,1747401983050,0.31,2.39,0.15,244.75,-86.85,-289.31
121,1747401983060,0.215,2.135,0.15,178.285,-54.47,-307.285
122,1747401983070,0.12,1.88,0.15,111.82,-22.09,-325.26
123,1747401983080,0.12,1.88,0.15,111.82,-22.09,-325.26
124,1747401983090,0.12,1.88,0.15,111.82,-22.09,-325.26
125,1747401983100,0.065,1.68,0.135,126.07,-6.01,-319.92
126,1747401983110,0.01,1.48,0.12,140.32,10.07,-314.58
127,1747401983120,0.01,1.48,0.12,140.32,10.07,-314.58
128,1747401983130,-0.02,1.48,0.06,140.32,10.07,-314.58
129,1747401983140,-0.05,1.48,0.0,173.95,-6.96,-295.41
130,1747401983150,-0.05,1.48,0.0,173.95,-6.96,-295.41
131,1747401983160,-0.05,1.48,0.0,173.95,-6.96,-295.41
132,1747401983170,-0.05,1.48,0.0,173.95,-6.96,-295.41
133,1747401983180,0.39,1.84,-0.01,189.27,64.21,-373.66
134,1747401983190,0.39,1.84,-0.01,189.27,64.21,-373.66
135,1747401983200,0.39,1.84,-0.01,189.27,64.21,-373.66
136,1747401983210,0.39,1.84,-0.01,189.27,64.21,-373.66
137,1747401983220,0.7,2.46,0.55,214.72,55.54,-350.34
138,1747401983230,0.7,2.46,0.55,214.72,55.54,-350.34
139,1747401983240,0.7,2.46,0.55,214.72,55.54,-350.34
140,1747401983250,0.7,2.46,0.55,214.72,55.54,-350.34
141,1747401983260,2.73,2.15,0.97,205.57,31.98,-338.68
142,1747401983270,2.73,2.15,0.97,205.57,31.98,-338.68
143,1747401983280,2.73,2.15,0.97,205.57,31.98,-338.68
144,1747401983290,4.11,2.97,1.49,199.4,-36.56,-272.58
145,1747401983300,4.11,2.97,1.49,199.4,-36.56,-272.58
146,1747401983310,4.11,2.97,1.49,199.4,-36.56,-272.58
147,1747401983320,4.11,2.97,1.49,199.4,-36.56,-272.58
148,1747401983330,4.11,2.97,1.49,199.4,-36.56,-272.58
149,1747401983340,6.24,3.37,1.45,37.35,-225.22,-69.89
150,1747401983350,6.24,3.37,1.45,37.35,-225.22,-69.89
151,1747401983360,6.24,3.37,1.45,37.35,-225.22,-69.89
152,1747401983370,5.36,3.18,1.09,51.39,250.37,122.62
153,1747401983380,5.36,3.18,1.09,51.39,250.37,122.62
154,1747401983390,5.36,3.18,1.09,51.39,250.37,122.62
155,1747401983400,5.36,3.18,1.09,51.39,250.37,122.62
156,1747401983410,1.12,2.14,1.57,-211.12,295.53,184.2
157,1747401983420,1.12,2.14,1.57,-211.12,295.53,184.2
158,1747401983430,1.12,2.14,1.57,-211.12,295.53,184.2
159,1747401983440,1.12,2.14,1.57,-211.12,295.53,184.2
160,1747401983450,0.55,1.81,0.89,-248.84,6.77,330.63
161,1747401983460,0.55,1.81,0.89,-248.84,6.77,330.63
162,1747401983470,0.55,1.81,0.89,-248.84,6.77,330.63
163,1747401983480,0.55,1.81,0.89,-248.84,6.77,330.63
164,1747401983490,0.28,1.94,0.22,-290.53,-12.82,384.09
165,1747401983500,0.28,1.94,0.22,-290.53,-12.82,384.09
166,1747401983510,0.28,1.94,0.22,-290.53,-12.82,384.09
167,1747401983520,0.175,2.065,0.15,-296.48,-23.41,372.925
168,1747401983530,0.07,2.19,0.08,-302.43,-34.0,361.76
169,1747401983540,0.07,2.19,0.08,-302.43,-34.0,361.76
170,1747401983550,0.07,2.19,0.08,-302.43,-34.0,361.76
171,1747401983560,0.15,2.47,0.13,-308.47,-15.5,395.45
172,1747401983570,0.15,2.47,0.13,-308.47,-15.5,395.45
173,1747401983580,0.15,2.47,0.13,-308.47,-15.5,395.45
174,1747401983590,0.15,2.47,0.13,-308.47,-15.5,395.45
175,1747401983600,-0.03,2.29,0.26,-337.34,-4.94,370.42
176,1747401983610,-0.03,2.29,0.26,-337.34,-4.94,370.42
177,1747401983620,-0.03,2.29,0.26,-337.34,-4.94,370.42
178,1747401983630,-0.03,2.29,0.26,-337.34,-4.94,370.42
179,1747401983640,-0.02,1.76,0.18,-300.9,-75.93,371.7
180,1747401983650,-0.02,1.76,0.18,-300.9,-75.93,371.7
181,1747401983660,-0.02,1.76,0.18,-300.9,-75.93,371.7
182,1747401983670,-0.02,1.76,0.18,-300.9,-75.93,371.7
183,1747401983680,-0.21,0.9,-0.49,-285.95,-31.13,345.21
184,1747401983690,-0.21,0.9,-0.49,-285.95,-31.13,345.21
185,1747401983700,-0.21,0.9,-0.49,-285.95,-31.13,345.21
186,1747401983710,-0.78,-0.0399999999999999,-1.215,-300.02,47.575,310.39
187,1747401983720,-1.35,-0.98,-1.94,-314.09,126.28,275.57
188,1747401983730,-1.35,-0.98,-1.94,-314.09,126.28,275.57
189,1747401983740,-1.35,-0.98,-1.94,-314.09,126.28,275.57
190,1747401983750,-1.73,-0.79,-2.255,-222.17,184.51,152.92
191,1747401983760,-2.11,-0.6,-2.57,-130.25,242.74,30.27
192,1747401983770,-2.11,-0.6,-2.57,-130.25,242.74,30.27
193,1747401983780,-2.11,-0.6,-2.57,-130.25,242.74,30.27
194,1747401983790,-2.33,-1.67,-3.39,-99.885,199.25,-26.645000000000003
195,1747401983800,-2.33,-1.67,-3.39,-69.52,155.76,-83.56
196,1747401983810,-2.33,-1.67,-3.39,-69.52,155.76,-83.56
197,1747401983820,-2.33,-1.67,-3.39,-69.52,155.76,-83.56
198,1747401983830,-1.68,-0.32,-2.14,177.12,67.08,-178.28
199,1747401983840,-1.68,-0.32,-2.14,177.12,67.08,-178.28
200,1747401983850,-1.68,-0.32,-2.14,177.12,67.08,-178.28
201,1747401983860,-1.68,-0.32,-2.14,177.12,67.08,-178.28
202,1747401983870,-0.75,1.1,-0.63,331.42,-78.92,-188.54
203,1747401983880,-0.75,1.1,-0.63,331.42,-78.92,-188.54
204,1747401983890,-0.75,1.1,-0.63,331.42,-78.92,-188.54
205,1747401983900,-0.14,1.99,0.36,320.56,-28.14,-256.29
206,1747401983910,-0.14,1.99,0.36,320.56,-28.14,-256.29
207,1747401983920,-0.14,1.99,0.36,320.56,-28.14,-256.29
208,1747401983930,-0.14,1.99,0.36,320.56,-28.14,-256.29
209,1747401983940,-0.105,1.875,0.395,272.86,-18.31,-260.59000000000003
210,1747401983950,-0.07,1.76,0.43,225.16,-8.48,-264.89
211,1747401983960,-0.07,1.76,0.43,225.16,-8.48,-264.89
212,1747401983970,-0.07,1.76,0.43,225.16,-8.48,-264.89
213,1747401983980,-0.12,1.5699999999999998,0.37,220.4,9.19,-272.065
214,1747401983990,-0.17,1.38,0.31,215.64,26.86,-279.24
215,1747401984000,-0.17,1.38,0.31,215.64,26.86,-279.24
216,1747401984010,-0.17,1.38,0.31,215.64,26.86,-279.24
217,1747401984020,-0.26,1.3,0.13,259.64,40.89,-288.88
218,1747401984030,-0.26,1.3,0.13,259.64,40.89,-288.88
219,1747401984040,-0.26,1.3,0.13,259.64,40.89,-288.88
220,1747401984050,0.0249999999999999,1.65,0.235,259.64,40.89,-288.88
221,1747401984060,0.31,2.0,0.34,301.94,40.95,-312.74
222,1747401984070,0.31,2.0,0.34,301.94,40.95,-312.74
223,1747401984080,0.31,2.0,0.34,301.94,40.95,-312.74
224,1747401984090,0.31,2.0,0.34,301.94,40.95,-312.74
225,1747401984100,0.28,2.0,0.76,264.89,100.4,-348.63
226,1747401984110,0.28,2.0,0.76,264.89,100.4,-348.63
227,1747401984120,0.28,2.0,0.76,264.89,100.4,-348.63
228,1747401984130,1.185,2.03,1.175,250.18,77.025,-349.27
229,1747401984140,2.09,2.06,1.59,235.47,53.65,-349.91
230,1747401984150,2.09,2.06,1.59,235.47,53.65,-349.91
231,1747401984160,2.09,2.06,1.59,235.47,53.65,-349.91
232,1747401984170,2.62,2.1950000000000003,2.135,212.25,34.06,-303.77
233,1747401984180,3.15,2.33,2.68,189.03,14.47,-257.63
234,1747401984190,3.15,2.33,2.68,189.03,14.47,-257.63
235,1747401984200,3.15,2.33,2.68,189.03,14.47,-257.63
236,1747401984210,5.4,3.37,2.85,117.8,-161.43499999999997,-196.565
237,1747401984220,5.4,3.37,2.85,46.57,-337.34,-135.5
238,1747401984230,5.4,3.37,2.85,46.57,-337.34,-135.5
239,1747401984240,5.4,3.37,2.85,46.57,-337.34,-135.5
240,1747401984250,6.14,3.14,1.28,-25.33,74.22,142.27
241,1747401984260,6.14,3.14,1.28,-25.33,74.22,142.27
242,1747401984270,6.14,3.14,1.28,-25.33,74.22,142.27
243,1747401984280,6.14,3.14,1.28,-25.33,74.22,142.27
244,1747401984290,6.14,3.14,1.28,-25.33,74.22,142.27
245,1747401984300,1.87,1.98,1.46,-190.98,281.8,210.88
246,1747401984310,1.87,1.98,1.46,-190.98,281.8,210.88
247,1747401984320,1.87,1.98,1.46,-190.98,281.8,210.88
248,1747401984330,0.62,1.8,1.06,-250.43,55.91,305.79
249,1747401984340,0.62,1.8,1.06,-250.43,55.91,305.79
250,1747401984350,0.62,1.8,1.06,-250.43,55.91,305.79
251,1747401984360,0.62,1.8,1.06,-250.43,55.91,305.79
252,1747401984370,0.18,1.72,0.35,-312.13,-42.36,344.42
253,1747401984380,0.18,1.72,0.35,-312.13,-42.36,344.42
254,1747401984390,0.18,1.72,0.35,-312.13,-42.36,344.42
255,1747401984400,0.18,1.72,0.35,-312.13,-42.36,344.42
256,1747401984410,-0.21,1.85,0.21,-295.04,-88.32,371.46
257,1747401984420,-0.21,1.85,0.21,-295.04,-88.32,371.46
258,1747401984430,-0.21,1.85,0.21,-295.04,-88.32,371.46
259,1747401984440,-0.21,1.85,0.21,-295.04,-88.32,371.46
260,1747401984450,-0.16,1.97,0.29,-276.92,-143.98,407.53
261,1747401984460,-0.16,1.97,0.29,-276.92,-143.98,407.53
262,1747401984470,-0.16,1.97,0.29,-276.92,-143.98,407.53
263,1747401984480,-0.16,1.97,0.29,-276.92,-143.98,407.53
264,1747401984490,-0.23,1.87,0.52,-282.78,-92.1,359.86
265,1747401984500,-0.23,1.87,0.52,-282.78,-92.1,359.86
266,1747401984510,-0.23,1.87,0.52,-282.78,-92.1,359.86
267,1747401984520,-0.31,1.42,0.57,-255.49,-169.13,392.58
268,1747401984530,-0.31,1.42,0.57,-255.49,-169.13,392.58
269,1747401984540,-0.31,1.42,0.57,-255.49,-169.13,392.58
270,1747401984550,-0.31,1.42,0.57,-255.49,-169.13,392.58
271,1747401984560,-0.51,0.58,0.01,-130.13,-332.28,416.08
272,1747401984570,-0.51,0.58,0.01,-130.13,-332.28,416.08
273,1747401984580,-0.51,0.58,0.01,-130.13,-332.28,416.08
274,1747401984590,-0.51,0.58,0.01,-130.13,-332.28,416.08
275,1747401984600,-1.12,-0.4,-0.61,-70.62,-149.6,291.44
276,1747401984610,-1.12,-0.4,-0.61,-70.62,-149.6,291.44
277,1747401984620,-1.12,-0.4,-0.61,-70.62,-149.6,291.44
278,1747401984630,-2.125,-0.5,-0.8,-70.62,-149.6,291.44
279,1747401984640,-3.13,-0.6,-0.99,-55.11,68.36,33.94
280,1747401984650,-3.13,-0.6,-0.99,-55.11,68.36,33.94
281,1747401984660,-3.13,-0.6,-0.99,-55.11,68.36,33.94
282,1747401984670,-3.13,-0.6,-0.99,-55.11,68.36,33.94
283,1747401984680,-3.01,-1.49,-1.53,-101.2,142.46,-33.69
284,1747401984690,-3.01,-1.49,-1.53,-101.2,142.46,-33.69
285,1747401984700,-3.01,-1.49,-1.53,-101.2,142.46,-33.69
286,1747401984710,-2.72,-1.18,-1.485,-46.175,121.49,-126.405
287,1747401984720,-2.43,-0.87,-1.44,8.85,100.52,-219.12
288,1747401984730,-2.43,-0.87,-1.44,8.85,100.52,-219.12
289,1747401984740,-2.43,-0.87,-1.44,8.85,100.52,-219.12
290,1747401984750,-1.23,0.04,-0.94,8.85,100.52,-219.12
291,1747401984760,-1.23,0.04,-0.94,123.96,57.74,-293.52
292,1747401984770,-1.23,0.04,-0.94,123.96,57.74,-293.52
293,1747401984780,-1.23,0.04,-0.94,123.96,57.74,-293.52
294,1747401984790,-0.77,0.715,-0.53,198.025,18.585,-314.515
295,1747401984800,-0.31,1.39,-0.12,272.09,-20.57,-335.51
296,1747401984810,-0.31,1.39,-0.12,272.09,-20.57,-335.51
297,1747401984820,-0.31,1.39,-0.12,272.09,-20.57,-335.51
298,1747401984830,0.105,1.745,0.12,236.875,-27.74,-320.71000000000004
299,1747401984840,0.52,2.1,0.36,201.66,-34.91,-305.91
300,1747401984850,0.52,2.1,0.36,201.66,-34.91,-305.91
301,1747401984860,0.52,2.1,0.36,201.66,-34.91,-305.91
302,1747401984870,0.13,1.72,0.48,107.91,-8.18,-378.23
303,1747401984880,0.13,1.72,0.48,107.91,-8.18,-378.23
304,1747401984890,0.13,1.72,0.48,107.91,-8.18,-378.23
305,1747401984900,0.13,1.72,0.48,107.91,-8.18,-378.23
306,1747401984910,0.07,1.39,0.18,122.5,-35.83,-383.67
307,1747401984920,0.07,1.39,0.18,122.5,-35.83,-383.67
308,1747401984930,0.07,1.39,0.18,122.5,-35.83,-383.67
309,1747401984940,0.07,1.39,0.18,122.5,-35.83,-383.67
310,1747401984950,0.0,1.52,-0.01,118.96,8.3,-417.3
311,1747401984960,0.0,1.52,-0.01,115.42,52.43,-450.93
312,1747401984970,0.0,1.52,-0.01,115.42,52.43,-450.93
313,1747401984980,0.0,1.52,-0.01,115.42,52.43,-450.93
314,1747401984990,0.54,2.19,0.1,159.0,31.68,-400.88
315,1747401985000,0.54,2.19,0.1,159.0,31.68,-400.88
316,1747401985010,0.54,2.19,0.1,159.0,31.68,-400.88
317,1747401985020,1.72,2.39,0.25,117.13,22.64,-374.63
318,1747401985030,1.72,2.39,0.25,117.13,22.64,-374.63
319,1747401985040,1.72,2.39,0.25,117.13,22.64,-374.63
320,1747401985050,3.57,1.74,0.45,58.41,139.28,-421.33
321,1747401985060,3.57,1.74,0.45,58.41,139.28,-421.33
322,1747401985070,3.57,1.74,0.45,58.41,139.28,-421.33
323,1747401985080,3.57,1.74,0.45,58.41,139.28,-421.33
324,1747401985090,4.02,2.6,1.43,168.88,46.14,-238.34
325,1747401985100,4.02,2.6,1.43,168.88,46.14,-238.34
326,1747401985110,4.02,2.6,1.43,168.88,46.14,-238.34
327,1747401985120,4.97,3.105,1.245,168.88,46.14,-238.34
328,1747401985130,5.92,3.61,1.06,49.93,-159.61,-100.28
329,1747401985140,5.92,3.61,1.06,49.93,-159.61,-100.28
330,1747401985150,5.92,3.61,1.06,49.93,-159.61,-100.28
331,1747401985160,5.095,3.515,1.13,33.39,31.675,23.590000000000003
332,1747401985170,4.27,3.42,1.2,16.85,222.96,147.46
333,1747401985180,4.27,3.42,1.2,16.85,222.96,147.46
334,1747401985190,4.27,3.42,1.2,16.85,222.96,147.46
335,1747401985200,4.27,3.42,1.2,16.85,222.96,147.46
336,1747401985210,1.13,1.78,1.37,-169.98,194.34,253.91
337,1747401985220,1.13,1.78,1.37,-169.98,194.34,253.91
338,1747401985230,1.13,1.78,1.37,-169.98,194.34,253.91
339,1747401985240,0.91,1.73,1.015,-185.455,95.89,315.675
340,1747401985250,0.69,1.68,0.66,-200.93,-2.56,377.44
341,1747401985260,0.69,1.68,0.66,-200.93,-2.56,377.44
342,1747401985270,0.69,1.68,0.66,-200.93,-2.56,377.44
343,1747401985280,0.4049999999999999,1.805,0.46,-220.215,-7.720000000000001,387.42
344,1747401985290,0.12,1.93,0.26,-239.5,-12.88,397.4
345,1747401985300,0.12,1.93,0.26,-239.5,-12.88,397.4
346,1747401985310,0.12,1.93,0.26,-239.5,-12.88,397.4
347,1747401985320,-0.04,2.08,0.24,-222.96,-88.01,429.2
348,1747401985330,-0.04,2.08,0.24,-222.96,-88.01,429.2
349,1747401985340,-0.04,2.08,0.24,-222.96,-88.01,429.2
350,1747401985350,-0.04,2.08,0.24,-222.96,-88.01,429.2
351,1747401985360,0.18,2.4,0.24,-236.39,-11.35,467.29
352,1747401985370,0.18,2.4,0.24,-236.39,-11.35,467.29
353,1747401985380,0.18,2.4,0.24,-236.39,-11.35,467.29
354,1747401985390,0.0999999999999999,2.295,0.28,-236.39,-11.35,467.29
355,1747401985400,0.02,2.19,0.32,-266.42,1.28,444.15
356,1747401985410,0.02,2.19,0.32,-266.42,1.28,444.15
357,1747401985420,0.02,2.19,0.32,-266.42,1.28,444.15
358,1747401985430,,,,,,
359,1747401985440,0.03,1.69,-0.05,-236.33,-5.37,437.5
360,1747401985450,0.03,1.69,-0.05,-236.33,-5.37,437.5
361,1747401985460,0.03,1.69,-0.05,-236.33,-5.37,437.5
362,1747401985470,0.03,1.69,-0.05,-236.33,-5.37,437.5
363,1747401985480,-0.55,0.86,-0.76,-240.05,61.52,367.13
364,1747401985490,-0.55,0.86,-0.76,-240.05,61.52,367.13
365,1747401985500,-0.55,0.86,-0.76,-240.05,61.52,367.13
366,1747401985510,-0.55,0.86,-0.76,-240.05,61.52,367.13
367,1747401985520,-2.39,-1.16,-1.7,-178.28,116.64,268.07
368,1747401985530,-2.39,-1.16,-1.7,-178.28,116.64,268.07
369,1747401985540,-2.39,-1.16,-1.7,-178.28,116.64,268.07
370,1747401985550,-2.39,-1.16,-1.7,-178.28,116.64,268.07
371,1747401985560,-2.61,-0.72,-2.14,-130.55,170.17,31.49
372,1747401985570,-2.61,-0.72,-2.14,-130.55,170.17,31.49
373,1747401985580,-2.61,-0.72,-2.14,-130.55,170.17,31.49
374,1747401985590,-2.67,-1.76,-2.75,-73.97,184.63,-173.89
375,1747401985600,-2.67,-1.76,-2.75,-73.97,184.63,-173.89
376,1747401985610,-2.67,-1.76,-2.75,-73.97,184.63,-173.89
377,1747401985620,-2.67,-1.76,-2.75,-73.97,184.63,-173.89
378,1747401985630,-1.75,-0.73,-1.94,121.7,87.89,-266.78
379,1747401985640,-1.75,-0.73,-1.94,121.7,87.89,-266.78
380,1747401985650,-1.75,-0.73,-1.94,121.7,87.89,-266.78
381,1747401985660,-1.75,-0.73,-1.94,121.7,87.89,-266.78
382,1747401985670,-1.29,1.22,-0.77,365.66,35.03,-296.45
383,1747401985680,-1.29,1.22,-0.77,365.66,35.03,-296.45
384,1747401985690,-1.29,1.22,-0.77,365.66,35.03,-296.45
385,1747401985700,-1.29,1.22,-0.77,365.66,35.03,-296.45
386,1747401985710,0.37,3.11,0.5,350.4,-141.72,-229.92
387,1747401985720,0.37,3.11,0.5,350.4,-141.72,-229.92
388,1747401985730,0.37,3.11,0.5,350.4,-141.72,-229.92
389,1747401985740,0.435,2.53,0.43,350.4,-141.72,-229.92
390,1747401985750,0.5,1.95,0.36,121.95,66.89,-352.11
391,1747401985760,0.5,1.95,0.36,121.95,66.89,-352.11
392,1747401985770,0.5,1.95,0.36,121.95,66.89,-352.11
393,1747401985780,0.1699999999999999,1.64,0.3299999999999999,121.95,66.89,-352.11
394,1747401985790,-0.16,1.33,0.3,158.63,101.26,-335.94
395,1747401985800,-0.16,1.33,0.3,158.63,101.26,-335.94
396,1747401985810,-0.16,1.33,0.3,158.63,101.26,-335.94
397,1747401985820,-0.1,1.35,0.195,202.665,97.2,-333.925
398,1747401985830,-0.04,1.37,0.09,246.7,93.14,-331.91
399,1747401985840,-0.04,1.37,0.09,246.7,93.14,-331.91
400,1747401985850,-0.04,1.37,0.09,246.7,93.14,-331.91
401,1747401985860,0.17,1.76,0.3,255.065,114.84,-344.545
402,1747401985870,0.17,1.76,0.3,263.43,136.54,-357.18
403,1747401985880,0.17,1.76,0.3,263.43,136.54,-357.18
404,1747401985890,0.17,1.76,0.3,263.43,136.54,-357.18
405,1747401985900,0.705,1.96,0.535,272.43,96.285,-330.475
406,1747401985910,1.24,2.16,0.77,281.43,56.03,-303.77
407,1747401985920,1.24,2.16,0.77,281.43,56.03,-303.77
408,1747401985930,1.24,2.16,0.77,281.43,56.03,-303.77
409,1747401985940,3.58,1.49,2.16,223.57,147.34,-336.55
410,1747401985950,3.58,1.49,2.16,223.57,147.34,-336.55
411,1747401985960,3.58,1.49,2.16,223.57,147.34,-336.55
412,1747401985970,3.825,2.215,2.555,223.57,147.34,-336.55
413,1747401985980,4.07,2.94,2.95,205.02,-84.78,-142.27
414,1747401985990,4.07,2.94,2.95,205.02,-84.78,-142.27
415,1747401986000,4.07,2.94,2.95,205.02,-84.78,-142.27
416,1747401986010,4.07,2.94,2.95,205.02,-84.78,-142.27
417,1747401986020,6.67,3.39,1.6,205.02,-84.78,-142.27
418,1747401986030,6.67,3.39,1.6,38.09,-133.91,86.91
419,1747401986040,6.67,3.39,1.6,38.09,-133.91,86.91
420,1747401986050,4.07,3.21,1.83,-42.11,317.81,104.61
421,1747401986060,4.07,3.21,1.83,-42.11,317.81,104.61
422,1747401986070,4.07,3.21,1.83,-42.11,317.81,104.61
423,1747401986080,1.0,1.82,1.76,-210.82,168.7,237.37
424,1747401986090,1.0,1.82,1.76,-210.82,168.7,237.37
425,1747401986100,1.0,1.82,1.76,-210.82,168.7,237.37
426,1747401986110,1.0,1.82,1.76,-210.82,168.7,237.37
427,1747401986120,0.57,1.66,0.84,-295.96,-5.0,313.54
428,1747401986130,0.57,1.66,0.84,-295.96,-5.0,313.54
429,1747401986140,0.57,1.66,0.84,-295.96,-5.0,313.54
430,1747401986150,0.57,1.66,0.84,-295.96,-5.0,313.54
431,1747401986160,-0.11,1.64,0.22,-325.07,-54.5,348.02
432,1747401986170,-0.11,1.64,0.22,-325.07,-54.5,348.02
433,1747401986180,-0.11,1.64,0.22,-325.07,-54.5,348.02
434,1747401986190,-0.17,1.67,0.205,-290.22,-112.575,369.505
435,1747401986200,-0.23,1.7,0.19,-255.37,-170.65,390.99
436,1747401986210,-0.23,1.7,0.19,-255.37,-170.65,390.99
437,1747401986220,-0.23,1.7,0.19,-255.37,-170.65,390.99
438,1747401986230,-0.23,1.7,0.19,-255.37,-170.65,390.99
439,1747401986240,0.0,1.99,0.3,-240.23,-97.05,431.88
440,1747401986250,0.0,1.99,0.3,-240.23,-97.05,431.88
441,1747401986260,0.0,1.99,0.3,-240.23,-97.05,431.88
442,1747401986270,-0.035,1.91,0.37,-255.245,-80.905,404.995
443,1747401986280,-0.07,1.83,0.44,-270.26,-64.76,378.11
444,1747401986290,-0.07,1.83,0.44,-270.26,-64.76,378.11
445,1747401986300,-0.07,1.83,0.44,-270.26,-64.76,378.11
446,1747401986310,-0.105,1.6,0.365,-264.555,-65.825,372.01
447,1747401986320,-0.14,1.37,0.29,-258.85,-66.89,365.91
448,1747401986330,-0.14,1.37,0.29,-258.85,-66.89,365.91
449,1747401986340,-0.14,1.37,0.29,-258.85,-66.89,365.91
450,1747401986350,-0.415,0.94,-0.015,-221.04,-73.575,352.48
451,1747401986360,-0.69,0.51,-0.32,-183.23,-80.26,339.05
452,1747401986370,-0.69,0.51,-0.32,-183.23,-80.26,339.05
453,1747401986380,-0.69,0.51,-0.32,-183.23,-80.26,339.05
454,1747401986390,-1.19,-0.0949999999999999,-0.87,-150.97,-77.82,314.025
455,1747401986400,-1.69,-0.7,-1.42,-118.71,-75.38,289.0
456,1747401986410,-1.69,-0.7,-1.42,-118.71,-75.38,289.0
457,1747401986420,-1.69,-0.7,-1.42,-118.71,-75.38,289.0
458,1747401986430,-2.35,-0.595,-1.795,-108.73,81.755,107.36
459,1747401986440,-3.01,-0.49,-2.17,-98.75,238.89,-74.28
460,1747401986450,-3.01,-0.49,-2.17,-98.75,238.89,-74.28
461,1747401986460,-3.01,-0.49,-2.17,-98.75,238.89,-74.28
462,1747401986470,-3.12,-2.08,-2.74,-49.19,173.89,-137.76
463,1747401986480,-3.12,-2.08,-2.74,-49.19,173.89,-137.76
464,1747401986490,-3.12,-2.08,-2.74,-49.19,173.89,-137.76
465,1747401986500,-3.12,-2.08,-2.74,-49.19,173.89,-137.76
466,1747401986510,-2.06,-0.98,-1.82,138.67,71.47,-253.6
467,1747401986520,-2.06,-0.98,-1.82,138.67,71.47,-253.6
468,1747401986530,-2.06,-0.98,-1.82,138.67,71.47,-253.6
469,1747401986540,-1.19,0.61,-0.9,138.67,71.47,-253.6
470,1747401986550,-1.19,0.61,-0.9,324.89,27.04,-338.56
471,1747401986560,-1.19,0.61,-0.9,324.89,27.04,-338.56
472,1747401986570,-1.19,0.61,-0.9,324.89,27.04,-338.56
473,1747401986580,-1.19,0.61,-0.9,324.89,27.04,-338.56
474,1747401986590,-0.04,2.78,0.27,407.59,-68.66,-303.65
475,1747401986600,-0.04,2.78,0.27,407.59,-68.66,-303.65
476,1747401986610,-0.04,2.78,0.27,407.59,-68.66,-303.65
477,1747401986620,0.63,2.49,0.4,407.59,-68.66,-303.65
478,1747401986630,0.63,2.49,0.4,225.1,-116.88,-277.59
479,1747401986640,0.63,2.49,0.4,225.1,-116.88,-277.59
480,1747401986650,0.63,2.49,0.4,225.1,-116.88,-277.59
481,1747401986660,0.1,1.67,0.41,129.21,-3.91,-350.83
482,1747401986670,0.1,1.67,0.41,129.21,-3.91,-350.83
483,1747401986680,0.1,1.67,0.41,129.21,-3.91,-350.83
484,1747401986690,0.1,1.67,0.41,129.21,-3.91,-350.83
485,1747401986700,0.11,1.54,0.12,163.21,-46.57,-330.51
486,1747401986710,0.11,1.54,0.12,163.21,-46.57,-330.51
487,1747401986720,0.11,1.54,0.12,163.21,-46.57,-330.51
488,1747401986730,0.11,1.54,0.12,163.21,-46.57,-330.51
489,1747401986740,0.63,1.72,0.09,156.86,-28.045,-333.68
490,1747401986750,0.63,1.72,0.09,150.51,-9.52,-336.85
491,1747401986760,0.63,1.72,0.09,150.51,-9.52,-336.85
492,1747401986770,0.7949999999999999,1.735,0.31,128.265,40.435,-361.355
493,1747401986780,0.96,1.75,0.53,106.02,90.39,-385.86
494,1747401986790,0.96,1.75,0.53,106.02,90.39,-385.86
495,1747401986800,,,,,,
496,1747401986810,1.815,1.635,0.7,116.425,67.475,-363.9500000000001
497,1747401986820,2.67,1.52,0.87,126.83,44.56,-342.04
498,1747401986830,2.67,1.52,0.87,126.83,44.56,-342.04
499,1747401986840,2.67,1.52,0.87,126.83,44.56,-342.04
500,1747401986850,4.68,1.85,2.0,140.5,165.47,-256.53
501,1747401986860,4.68,1.85,2.0,140.5,165.47,-256.53
502,1747401986870,4.68,1.85,2.0,140.5,165.47,-256.53
503,1747401986880,4.68,1.85,2.0,140.5,165.47,-256.53
504,1747401986890,4.455,2.47,2.7,113.92,85.145,-184.205
505,1747401986900,4.23,3.09,3.4,87.34,4.82,-111.88
506,1747401986910,4.23,3.09,3.4,87.34,4.82,-111.88
507,1747401986920,4.23,3.09,3.4,87.34,4.82,-111.88
508,1747401986930,5.43,2.72,1.34,-56.88,-88.99,213.38
509,1747401986940,5.43,2.72,1.34,-56.88,-88.99,213.38
510,1747401986950,5.43,2.72,1.34,-56.88,-88.99,213.38
511,1747401986960,5.43,2.72,1.34,-56.88,-88.99,213.38
512,1747401986970,1.89,1.78,1.21,-158.57,215.88,219.18
513,1747401986980,1.89,1.78,1.21,-158.57,215.88,219.18
514,1747401986990,1.89,1.78,1.21,-158.57,215.88,219.18
515,1747401987000,1.89,1.78,1.21,-158.57,215.88,219.18
516,1747401987010,0.67,1.67,0.84,-243.29,63.17,324.52
517,1747401987020,0.67,1.67,0.84,-243.29,63.17,324.52
518,1747401987030,0.67,1.67,0.84,-243.29,63.17,324.52
519,1747401987040,0.67,1.67,0.84,-243.29,63.17,324.52
520,1747401987050,0.09,1.65,0.2,-310.0,38.94,348.82
521,1747401987060,0.09,1.65,0.2,-310.0,38.94,348.82
522,1747401987070,0.09,1.65,0.2,-310.0,38.94,348.82
523,1747401987080,-0.13,1.705,0.225,-310.0,38.94,348.82
524,1747401987090,-0.35,1.76,0.25,-299.5,-44.01,348.02
525,1747401987100,-0.35,1.76,0.25,-299.5,-44.01,348.02
526,1747401987110,-0.35,1.76,0.25,-299.5,-44.01,348.02
527,1747401987120,-0.05,1.8,0.18,-299.5,-44.01,348.02
528,1747401987130,-0.05,1.8,0.18,-243.53,-139.95,423.34
529,1747401987140,-0.05,1.8,0.18,-243.53,-139.95,423.34
530,1747401987150,-0.05,1.8,0.18,-243.53,-139.95,423.34
531,1747401987160,0.15,1.85,0.28,-214.48,-69.21,374.45
532,1747401987170,0.15,1.85,0.28,-214.48,-69.21,374.45
533,1747401987180,0.15,1.85,0.28,-214.48,-69.21,374.45
534,1747401987190,0.15,1.85,0.28,-214.48,-69.21,374.45
535,1747401987200,0.08,1.77,0.36,-208.16,-69.66999999999999,351.285
536,1747401987210,0.08,1.77,0.36,-201.84,-70.13,328.12
537,1747401987220,0.08,1.77,0.36,-201.84,-70.13,328.12
538,1747401987230,0.08,1.77,0.36,-201.84,-70.13,328.12
539,1747401987240,-0.23,0.93,-0.28,-153.69,-91.74,342.22
540,1747401987250,-0.23,0.93,-0.28,-153.69,-91.74,342.22
541,1747401987260,-0.23,0.93,-0.28,-153.69,-91.74,342.22
542,1747401987270,-0.23,0.93,-0.28,-153.69,-91.74,342.22
543,1747401987280,-1.89,-0.68,-1.47,-159.36,79.71,234.44
544,1747401987290,-1.89,-0.68,-1.47,-159.36,79.71,234.44
545,1747401987300,-1.89,-0.68,-1.47,-159.36,79.71,234.44
546,1747401987310,-2.825,-0.98,-1.845,-159.36,79.71,234.44
547,1747401987320,-3.76,-1.28,-2.22,-91.8,96.56,69.58
548,1747401987330,-3.76,-1.28,-2.22,-91.8,96.56,69.58
549,1747401987340,-3.76,-1.28,-2.22,-91.8,96.56,69.58
550,1747401987350,-3.76,-1.28,-2.22,-91.8,96.56,69.58
551,1747401987360,-3.05,-2.54,-2.39,-53.47,142.4,-177.98
552,1747401987370,-3.05,-2.54,-2.39,-53.47,142.4,-177.98
553,1747401987380,-3.05,-2.54,-2.39,-53.47,142.4,-177.98
554,1747401987390,-3.05,-2.54,-2.39,-53.47,142.4,-177.98
555,1747401987400,-2.395,-1.855,-2.095,20.325000000000003,144.17000000000002,-284.64
556,1747401987410,-1.74,-1.17,-1.8,94.12,145.94,-391.3
557,1747401987420,-1.74,-1.17,-1.8,94.12,145.94,-391.3
558,1747401987430,-1.44,-0.1899999999999999,-1.38,216.125,144.655,-385.895
559,1747401987440,-1.14,0.79,-0.96,338.13,143.37,-380.49
560,1747401987450,-1.14,0.79,-0.96,338.13,143.37,-380.49
561,1747401987460,-1.14,0.79,-0.96,338.13,143.37,-380.49
562,1747401987470,-0.07,3.19,0.17,402.585,22.27500000000001,-303.62
563,1747401987480,-0.07,3.19,0.17,467.04,-98.82,-226.75
564,1747401987490,-0.07,3.19,0.17,467.04,-98.82,-226.75
565,1747401987500,-0.07,3.19,0.17,467.04,-98.82,-226.75
566,1747401987510,0.59,2.4,0.46,176.57,-1.4,-330.69
567,1747401987520,0.59,2.4,0.46,176.57,-1.4,-330.69
568,1747401987530,0.59,2.4,0.46,176.57,-1.4,-330.69
569,1747401987540,0.59,2.4,0.46,176.57,-1.4,-330.69
570,1747401987550,-0.14,1.69,0.51,157.89499999999998,10.135000000000002,-320.46500000000003
571,1747401987560,-0.14,1.69,0.51,139.22,21.67,-310.24
572,1747401987570,-0.14,1.69,0.51,139.22,21.67,-310.24
573,1747401987580,-0.14,1.69,0.51,139.22,21.67,-310.24
574,1747401987590,0.2,1.57,0.28,174.93,-8.12,-267.09
575,1747401987600,0.2,1.57,0.28,174.93,-8.12,-267.09
576,1747401987610,0.2,1.57,0.28,174.93,-8.12,-267.09
577,1747401987620,0.255,1.455,0.28,162.69,30.180000000000003,-288.29999999999995
578,1747401987630,0.31,1.34,0.28,150.45,68.48,-309.51
579,1747401987640,0.31,1.34,0.28,150.45,68.48,-309.51
580,1747401987650,0.31,1.34,0.28,150.45,68.48,-309.51
581,1747401987660,0.85,1.79,0.84,190.25,60.55,-310.18
582,1747401987670,0.85,1.79,0.84,190.25,60.55,-310.18
583,1747401987680,0.85,1.79,0.84,190.25,60.55,-310.18
584,1747401987690,0.85,1.79,0.84,190.25,60.55,-310.18
585,1747401987700,1.865,1.495,1.19,161.685,71.14,-298.615
586,1747401987710,2.88,1.2,1.54,133.12,81.73,-287.05
587,1747401987720,2.88,1.2,1.54,133.12,81.73,-287.05
588,1747401987730,2.88,1.2,1.54,133.12,81.73,-287.05
589,1747401987740,3.81,2.07,2.58,144.17,19.9,-177.0
590,1747401987750,3.81,2.07,2.58,144.17,19.9,-177.0
591,1747401987760,3.81,2.07,2.58,144.17,19.9,-177.0
592,1747401987770,4.7,2.75,2.63,144.17,19.9,-177.0
593,1747401987780,5.59,3.43,2.68,-22.34,-147.09,-20.87
594,1747401987790,5.59,3.43,2.68,-22.34,-147.09,-20.87
595,1747401987800,5.59,3.43,2.68,-22.34,-147.09,-20.87
596,1747401987810,4.855,3.14,2.1950000000000003,-47.18,-33.535000000000004,99.58
597,1747401987820,4.12,2.85,1.71,-72.02,80.02,220.03
598,1747401987830,4.12,2.85,1.71,-72.02,80.02,220.03
599,1747401987840,4.12,2.85,1.71,-72.02,80.02,220.03
600,1747401987850,2.74,2.325,1.56,-127.38,96.835,247.28500000000005
601,1747401987860,1.36,1.8,1.41,-182.74,113.65,274.54
602,1747401987870,1.36,1.8,1.41,-182.74,113.65,274.54
603,1747401987880,1.36,1.8,1.41,-182.74,113.65,274.54
604,1747401987890,0.39,1.3,0.63,-256.23,9.46,308.65
605,1747401987900,0.39,1.3,0.63,-256.23,9.46,308.65
606,1747401987910,0.39,1.3,0.63,-256.23,9.46,308.65
607,1747401987920,0.39,1.3,0.63,-256.23,9.46,308.65
608,1747401987930,-0.17,1.18,0.21,-267.275,-14.435,308.075
609,1747401987940,-0.17,1.18,0.21,-278.32,-38.33,307.5
610,1747401987950,-0.17,1.18,0.21,-278.32,-38.33,307.5
611,1747401987960,-0.17,1.18,0.21,-278.32,-38.33,307.5
612,1747401987970,-0.29,1.29,0.19,-241.7,-125.67,339.23
613,1747401987980,-0.29,1.29,0.19,-241.7,-125.67,339.23
614,1747401987990,-0.29,1.29,0.19,-241.7,-125.67,339.23
615,1747401988000,-0.29,1.29,0.19,-241.7,-125.67,339.23
616,1747401988010,-0.03,1.67,0.33,-226.68,-66.35,372.13
617,1747401988020,-0.03,1.67,0.33,-226.68,-66.35,372.13
618,1747401988030,-0.03,1.67,0.33,-226.68,-66.35,372.13
619,1747401988040,-0.09,1.64,0.385,-254.88,-75.565,364.96
620,1747401988050,-0.15,1.61,0.44,-283.08,-84.78,357.79
621,1747401988060,-0.15,1.61,0.44,-283.08,-84.78,357.79
622,1747401988070,-0.15,1.61,0.44,-283.08,-84.78,357.79
623,1747401988080,-0.15,1.61,0.44,-283.08,-84.78,357.79
624,1747401988090,-0.15,1.61,0.44,-283.08,-84.78,357.79
625,1747401988100,-0.17,1.04,0.25,-255.13,-100.34,325.13
626,1747401988110,-0.17,1.04,0.25,-255.13,-100.34,325.13
627,1747401988120,-0.26,0.64,-0.0249999999999999,-227.57,-105.865,316.04
628,1747401988130,-0.35,0.24,-0.3,-200.01,-111.39,306.95
629,1747401988140,-0.35,0.24,-0.3,-200.01,-111.39,306.95
630,1747401988150,-0.35,0.24,-0.3,-200.01,-111.39,306.95
631,1747401988160,-1.16,-1.04,-1.26,-132.14,-7.32,214.05
632,1747401988170,-1.16,-1.04,-1.26,-132.14,-7.32,214.05
633,1747401988180,-1.16,-1.04,-1.26,-132.14,-7.32,214.05
634,1747401988190,-1.16,-1.04,-1.26,-132.14,-7.32,214.05
635,1747401988200,-1.16,-1.04,-1.26,-132.14,-7.32,214.05
636,1747401988210,-1.91,-0.46,-2.17,-39.43,65.19,106.32
637,1747401988220,-1.91,-0.46,-2.17,-39.43,65.19,106.32
638,1747401988230,-1.91,-0.46,-2.17,-39.43,65.19,106.32
639,1747401988240,-2.72,-1.86,-2.62,-73.06,209.78,-47.79
640,1747401988250,-2.72,-1.86,-2.62,-73.06,209.78,-47.79
641,1747401988260,-2.72,-1.86,-2.62,-73.06,209.78,-47.79
642,1747401988270,-2.72,-1.86,-2.62,-73.06,209.78,-47.79
643,1747401988280,-1.8,-1.13,-2.05,123.78,164.12,-204.71
644,1747401988290,-1.8,-1.13,-2.05,123.78,164.12,-204.71
645,1747401988300,-1.8,-1.13,-2.05,123.78,164.12,-204.71
646,1747401988310,-1.565,-0.61,-1.665,225.03500000000005,148.89499999999998,-243.805
647,1747401988320,-1.33,-0.09,-1.28,326.29,133.67,-282.9
648,1747401988330,-1.33,-0.09,-1.28,326.29,133.67,-282.9
649,1747401988340,-1.33,-0.09,-1.28,326.29,133.67,-282.9
650,1747401988350,-1.15,0.965,-0.74,413.4500000000001,39.155,-257.75
651,1747401988360,-0.97,2.02,-0.2,500.61,-55.36,-232.6
652,1747401988370,-0.97,2.02,-0.2,500.61,-55.36,-232.6
653,1747401988380,-0.97,2.02,-0.2,500.61,-55.36,-232.6
654,1747401988390,-0.525,2.29,0.1,500.61,-55.36,-232.6
655,1747401988400,-0.08,2.56,0.4,336.18,-78.86,-286.44
656,1747401988410,-0.08,2.56,0.4,336.18,-78.86,-286.44
657,1747401988420,-0.08,2.56,0.4,336.18,-78.86,-286.44
658,1747401988430,-0.345,2.1950000000000003,0.21,296.66,-58.475,-324.31
659,1747401988440,-0.61,1.83,0.02,257.14,-38.09,-362.18
660,1747401988450,-0.61,1.83,0.02,257.14,-38.09,-362.18
661,1747401988460,-0.61,1.83,0.02,257.14,-38.09,-362.18
662,1747401988470,-0.35,2.4,0.02,289.155,-17.03,-359.86
663,1747401988480,-0.35,2.4,0.02,321.17,4.03,-357.54
664,1747401988490,-0.35,2.4,0.02,321.17,4.03,-357.54
665,1747401988500,-0.35,2.4,0.02,321.17,4.03,-357.54
666,1747401988510,0.07,2.22,0.1,232.12,-48.22,-355.41
667,1747401988520,0.07,2.22,0.1,232.12,-48.22,-355.41
668,1747401988530,0.07,2.22,0.1,232.12,-48.22,-355.41
669,1747401988540,0.635,2.255,0.095,224.06,-32.41,-347.84000000000003
670,1747401988550,1.2,2.29,0.09,216.0,-16.6,-340.27
671,1747401988560,1.2,2.29,0.09,216.0,-16.6,-340.27
672,1747401988570,1.2,2.29,0.09,216.0,-16.6,-340.27
673,1747401988580,1.82,1.94,0.5,216.0,-16.6,-340.27
674,1747401988590,2.44,1.59,0.91,165.59,11.9,-322.27
675,1747401988600,2.44,1.59,0.91,165.59,11.9,-322.27
676,1747401988610,2.44,1.59,0.91,165.59,11.9,-322.27
677,1747401988620,3.29,2.35,2.25,167.66,-7.57,-195.56
678,1747401988630,3.29,2.35,2.25,167.66,-7.57,-195.56
679,1747401988640,3.29,2.35,2.25,167.66,-7.57,-195.56
680,1747401988650,3.29,2.35,2.25,167.66,-7.57,-195.56
681,1747401988660,5.58,4.02,1.76,17.15,-149.17,-27.89
682,1747401988670,5.58,4.02,1.76,17.15,-149.17,-27.89
683,1747401988680,5.58,4.02,1.76,17.15,-149.17,-27.89
684,1747401988690,5.58,4.02,1.76,17.15,-149.17,-27.89
685,1747401988700,4.26,3.62,1.48,-30.21,158.33,145.14
686,1747401988710,4.26,3.62,1.48,-30.21,158.33,145.14
687,1747401988720,4.26,3.62,1.48,-30.21,158.33,145.14
688,1747401988730,4.26,3.62,1.48,-30.21,158.33,145.14
689,1747401988740,1.4,2.25,1.67,-189.15,173.22,187.81
690,1747401988750,1.4,2.25,1.67,-189.15,173.22,187.81
691,1747401988760,1.4,2.25,1.67,-189.15,173.22,187.81
692,1747401988770,1.04,1.955,1.375,-212.8,89.205,232.3
693,1747401988780,0.68,1.66,1.08,-236.45,5.19,276.79
694,1747401988790,0.68,1.66,1.08,-236.45,5.19,276.79
695,1747401988800,0.38,1.72,0.63,-236.45,5.19,276.79
696,1747401988810,0.38,1.72,0.63,-300.66,-57.25,324.4
697,1747401988820,0.38,1.72,0.63,-300.66,-57.25,324.4
698,1747401988830,0.38,1.72,0.63,-300.66,-57.25,324.4
699,1747401988840,-0.28,1.77,0.15,-347.17,-90.03,342.04
700,1747401988850,-0.28,1.77,0.15,-347.17,-90.03,342.04
701,1747401988860,-0.28,1.77,0.15,-347.17,-90.03,342.04
702,1747401988870,-0.28,1.77,0.15,-347.17,-90.03,342.04
703,1747401988880,-0.11,1.94,0.07,-321.685,-107.73,361.785
704,1747401988890,-0.11,1.94,0.07,-296.2,-125.43,381.53
705,1747401988900,-0.11,1.94,0.07,-296.2,-125.43,381.53
706,1747401988910,-0.155,2.015,0.135,-296.2,-125.43,381.53
707,1747401988920,-0.2,2.09,0.2,-301.64,-75.26,391.97
708,1747401988930,-0.2,2.09,0.2,-301.64,-75.26,391.97
709,1747401988940,-0.2,2.09,0.2,-301.64,-75.26,391.97
710,1747401988950,-0.2,2.09,0.2,-301.64,-75.26,391.97
711,1747401988960,-0.01,2.11,0.24,-273.86,-63.78,395.08
712,1747401988970,-0.01,2.11,0.24,-273.86,-63.78,395.08
713,1747401988980,-0.01,2.11,0.24,-273.86,-63.78,395.08
714,1747401988990,-0.11,1.87,0.12,-273.71000000000004,-58.135000000000005,397.645
715,1747401989000,-0.21,1.63,0.0,-273.56,-52.49,400.21
716,1747401989010,-0.21,1.63,0.0,-273.56,-52.49,400.21
717,1747401989020,-0.21,1.63,0.0,-273.56,-52.49,400.21
718,1747401989030,-0.515,0.6649999999999999,-0.64,-273.56,-52.49,400.21
719,1747401989040,-0.82,-0.3,-1.28,-191.41,14.59,332.09
720,1747401989050,-0.82,-0.3,-1.28,-191.41,14.59,332.09
721,1747401989060,-0.82,-0.3,-1.28,-191.41,14.59,332.09
722,1747401989070,-2.31,-0.92,-1.87,-154.85,64.76,251.8
723,1747401989080,-2.31,-0.92,-1.87,-118.29,114.93,171.51
724,1747401989090,-2.31,-0.92,-1.87,-118.29,114.93,171.51
725,1747401989100,-2.31,-0.92,-1.87,-118.29,114.93,171.51
726,1747401989110,-2.76,-1.02,-2.5,-58.9,136.17,36.38
727,1747401989120,-2.76,-1.02,-2.5,-58.9,136.17,36.38
728,1747401989130,-2.76,-1.02,-2.5,-58.9,136.17,36.38
729,1747401989140,-2.76,-1.02,-2.5,-58.9,136.17,36.38
730,1747401989150,-2.57,-2.02,-2.57,94.97,22.89,-54.26
731,1747401989160,-2.57,-2.02,-2.57,94.97,22.89,-54.26
732,1747401989170,-2.57,-2.02,-2.57,94.97,22.89,-54.26
733,1747401989180,-2.57,-2.02,-2.57,94.97,22.89,-54.26
734,1747401989190,-1.84,-1.37,-2.05,198.24,61.1,-312.74
735,1747401989200,-1.84,-1.37,-2.05,198.24,61.1,-312.74
736,1747401989210,-1.84,-1.37,-2.05,198.24,61.1,-312.74
737,1747401989220,-1.54,-0.39,-1.745,198.24,61.1,-312.74
738,1747401989230,,,,,,
739,1747401989240,-1.24,0.59,-1.44,406.19,91.25,-407.17
740,1747401989250,-1.24,0.59,-1.44,406.19,91.25,-407.17
741,1747401989260,-0.26,3.2,-0.3,448.06,-14.4,-301.88
742,1747401989270,-0.26,3.2,-0.3,448.06,-14.4,-301.88
743,1747401989280,-0.26,3.2,-0.3,448.06,-14.4,-301.88
744,1747401989290,-0.26,3.2,-0.3,448.06,-14.4,-301.88
745,1747401989300,-0.01,2.81,0.25,448.06,-14.4,-301.88
746,1747401989310,-0.01,2.81,0.25,299.56,-39.0,-259.64
747,1747401989320,-0.01,2.81,0.25,299.56,-39.0,-259.64
748,1747401989330,-0.01,2.81,0.25,299.56,-39.0,-259.64
749,1747401989340,-0.38,1.95,0.34,200.93,3.36,-308.47
750,1747401989350,-0.38,1.95,0.34,200.93,3.36,-308.47
751,1747401989360,-0.38,1.95,0.34,200.93,3.36,-308.47
752,1747401989370,-0.38,1.95,0.34,200.93,3.36,-308.47
753,1747401989380,-0.14,1.72,0.23,217.9,-17.58,-302.31
754,1747401989390,-0.14,1.72,0.23,217.9,-17.58,-302.31
755,1747401989400,-0.14,1.72,0.23,217.9,-17.58,-302.31
756,1747401989410,0.015,1.765,0.345,204.835,5.065000000000001,-304.475
757,1747401989420,0.17,1.81,0.46,191.77,27.71,-306.64
758,1747401989430,0.17,1.81,0.46,191.77,27.71,-306.64
759,1747401989440,0.17,1.81,0.46,191.77,27.71,-306.64
760,1747401989450,0.61,1.675,0.64,191.77,27.71,-306.64
761,1747401989460,1.05,1.54,0.82,176.15,16.11,-262.21
762,1747401989470,1.05,1.54,0.82,176.15,16.11,-262.21
763,1747401989480,1.05,1.54,0.82,176.15,16.11,-262.21
764,1747401989490,2.185,1.47,1.16,176.15,16.11,-262.21
765,1747401989500,3.32,1.4,1.5,198.67,124.94,-262.82
766,1747401989510,3.32,1.4,1.5,198.67,124.94,-262.82
767,1747401989520,3.32,1.4,1.5,198.67,124.94,-262.82
768,1747401989530,2.74,2.07,3.79,142.46,125.85,-151.31
769,1747401989540,2.74,2.07,3.79,142.46,125.85,-151.31
770,1747401989550,2.74,2.07,3.79,142.46,125.85,-151.31
771,1747401989560,2.74,2.07,3.79,142.46,125.85,-151.31
772,1747401989570,3.75,2.88,3.48,83.345,-48.31,-57.650000000000006
773,1747401989580,4.76,3.69,3.17,24.23,-222.47,36.01
774,1747401989590,4.76,3.69,3.17,24.23,-222.47,36.01
775,1747401989600,4.76,3.69,3.17,24.23,-222.47,36.01
776,1747401989610,3.78,2.61,1.89,-111.82,63.84,184.69
777,1747401989620,3.78,2.61,1.89,-111.82,63.84,184.69
778,1747401989630,3.78,2.61,1.89,-111.82,63.84,184.69
779,1747401989640,3.78,2.61,1.89,-111.82,63.84,184.69
780,1747401989650,1.01,1.43,1.46,-227.66,127.87,214.9
781,1747401989660,1.01,1.43,1.46,-227.66,127.87,214.9
782,1747401989670,1.01,1.43,1.46,-227.66,127.87,214.9
783,1747401989680,0.645,1.2999999999999998,1.12,-251.1,58.015,237.73
784,1747401989690,0.28,1.17,0.78,-274.54,-11.84,260.56
785,1747401989700,0.28,1.17,0.78,-274.54,-11.84,260.56
786,1747401989710,0.28,1.17,0.78,-274.54,-11.84,260.56
787,1747401989720,-0.18,1.08,0.31,-274.54,-11.84,260.56
788,1747401989730,-0.18,1.08,0.31,-318.24,-49.07,262.15
789,1747401989740,-0.18,1.08,0.31,-318.24,-49.07,262.15
790,1747401989750,-0.18,1.08,0.31,-318.24,-49.07,262.15
791,1747401989760,-0.255,1.2200000000000002,0.3349999999999999,-287.54,-91.645,271.945
792,1747401989770,-0.33,1.36,0.36,-256.84,-134.22,281.74
793,1747401989780,-0.33,1.36,0.36,-256.84,-134.22,281.74
794,1747401989790,-0.33,1.36,0.36,-256.84,-134.22,281.74
795,1747401989800,0.09,1.93,0.41,-256.84,-134.22,281.74
796,1747401989810,0.09,1.93,0.41,-249.39,-117.98,318.12
797,1747401989820,0.09,1.93,0.41,-249.39,-117.98,318.12
798,1747401989830,0.09,1.93,0.41,-249.39,-117.98,318.12
799,1747401989840,-0.08,1.9,0.38,-275.545,-112.12,316.96000000000004
800,1747401989850,-0.08,1.9,0.38,-301.7,-106.26,315.8
801,1747401989860,-0.08,1.9,0.38,-301.7,-106.26,315.8
802,1747401989870,-0.08,1.9,0.38,-301.7,-106.26,315.8
803,1747401989880,0.0,1.53,0.04,-254.03,-139.65,327.51
804,1747401989890,0.0,1.53,0.04,-254.03,-139.65,327.51
805,1747401989900,0.0,1.53,0.04,-254.03,-139.65,327.51
806,1747401989910,0.0,1.53,0.04,-254.03,-139.65,327.51
807,1747401989920,-0.02,0.77,-0.67,-170.23,-120.12,241.09
808,1747401989930,-0.02,0.77,-0.67,-170.23,-120.12,241.09
809,1747401989940,-0.02,0.77,-0.67,-170.23,-120.12,241.09
810,1747401989950,-0.33,0.18,-1.34,-197.97,33.02,208.65
811,1747401989960,-0.64,-0.41,-2.01,-225.71,186.16,176.21
812,1747401989970,-0.64,-0.41,-2.01,-225.71,186.16,176.21
813,1747401989980,-0.64,-0.41,-2.01,-225.71,186.16,176.21
814,1747401989990,-1.71,-1.05,-2.36,-181.765,211.825,120.055
815,1747401990000,-2.78,-1.69,-2.71,-137.82,237.49,63.9
816,1747401990010,-2.78,-1.69,-2.71,-137.82,237.49,63.9
817,1747401990020,-2.78,-1.69,-2.71,-137.82,237.49,63.9
818,1747401990030,-2.505,-2.16,-2.97,-92.715,204.925,-20.295
819,1747401990040,-2.23,-2.63,-3.23,-47.61,172.36,-104.49
820,1747401990050,-2.23,-2.63,-3.23,-47.61,172.36,-104.49
821,1747401990060,-2.23,-2.63,-3.23,-47.61,172.36,-104.49
822,1747401990070,-1.825,-2.175,-2.905,42.175,186.645,-220.67
823,1747401990080,-1.42,-1.72,-2.58,131.96,200.93,-336.85
824,1747401990090,-1.42,-1.72,-2.58,131.96,200.93,-336.85
825,1747401990100,-1.42,-1.72,-2.58,131.96,200.93,-336.85
826,1747401990110,-1.56,-0.855,-2.1950000000000003,260.225,223.085,-345.885
827,1747401990120,-1.7,0.01,-1.81,388.49,245.24,-354.92
828,1747401990130,-1.7,0.01,-1.81,388.49,245.24,-354.92
829,1747401990140,-1.7,0.01,-1.81,388.49,245.24,-354.92
830,1747401990150,-1.82,3.0,-0.45,521.515,86.48500000000001,-279.175
831,1747401990160,-1.82,3.0,-0.45,654.54,-72.27,-203.43
832,1747401990170,-1.82,3.0,-0.45,654.54,-72.27,-203.43
833,1747401990180,-1.82,3.0,-0.45,654.54,-72.27,-203.43
834,1747401990190,-0.09,3.79,0.37,327.51,-11.72,-390.26
835,1747401990200,-0.09,3.79,0.37,327.51,-11.72,-390.26
836,1747401990210,-0.09,3.79,0.37,327.51,-11.72,-390.26
837,1747401990220,-0.245,2.9850000000000003,0.41,327.51,-11.72,-390.26
838,1747401990230,-0.4,2.18,0.45,137.33,139.28,-374.82
839,1747401990240,-0.4,2.18,0.45,137.33,139.28,-374.82
840,1747401990250,-0.4,2.18,0.45,137.33,139.28,-374.82
841,1747401990260,-0.365,2.05,0.48,188.295,112.06,-319.58
842,1747401990270,-0.33,1.92,0.51,239.26,84.84,-264.34
843,1747401990280,-0.33,1.92,0.51,239.26,84.84,-264.34
844,1747401990290,-0.33,1.92,0.51,239.26,84.84,-264.34
845,1747401990300,-0.33,1.92,0.51,239.26,84.84,-264.34
846,1747401990310,-0.07,2.01,0.68,243.1,51.39,-262.02
847,1747401990320,-0.07,2.01,0.68,243.1,51.39,-262.02
848,1747401990330,-0.07,2.01,0.68,243.1,51.39,-262.02
849,1747401990340,0.83,2.11,1.04,183.17,71.96,-240.3
850,1747401990350,0.83,2.11,1.04,183.17,71.96,-240.3
851,1747401990360,0.83,2.11,1.04,183.17,71.96,-240.3
852,1747401990370,0.83,2.11,1.04,183.17,71.96,-240.3
853,1747401990380,2.76,1.24,1.9,167.05,95.95,-210.08
854,1747401990390,2.76,1.24,1.9,167.05,95.95,-210.08
855,1747401990400,2.76,1.24,1.9,167.05,95.95,-210.08
856,1747401990410,2.76,1.24,1.9,167.05,95.95,-210.08
857,1747401990420,3.55,3.37,2.95,161.01,-111.82,-96.92
858,1747401990430,3.55,3.37,2.95,161.01,-111.82,-96.92
859,1747401990440,3.55,3.37,2.95,161.01,-111.82,-96.92
860,1747401990450,5.64,4.16,1.99,28.08,-172.24,91.06
861,1747401990460,5.64,4.16,1.99,28.08,-172.24,91.06
862,1747401990470,5.64,4.16,1.99,28.08,-172.24,91.06
863,1747401990480,4.574999999999999,3.97,1.835,-46.02,10.924999999999995,126.37
864,1747401990490,3.51,3.78,1.68,-120.12,194.09,161.68
865,1747401990500,3.51,3.78,1.68,-120.12,194.09,161.68
866,1747401990510,3.51,3.78,1.68,-120.12,194.09,161.68
867,1747401990520,3.51,3.78,1.68,-120.12,194.09,161.68
868,1747401990530,1.03,2.21,1.56,-248.17,188.17,208.56
869,1747401990540,1.03,2.21,1.56,-248.17,188.17,208.56
870,1747401990550,1.03,2.21,1.56,-248.17,188.17,208.56
871,1747401990560,0.28,1.58,0.9,-273.1,99.64,237.365
872,1747401990570,0.28,1.58,0.9,-298.03,11.11,266.17
873,1747401990580,0.28,1.58,0.9,-298.03,11.11,266.17
874,1747401990590,0.28,1.58,0.9,-298.03,11.11,266.17
875,1747401990600,-0.21,1.44,0.27,-343.08,-82.09,298.28
876,1747401990610,-0.21,1.44,0.27,-343.08,-82.09,298.28
877,1747401990620,-0.21,1.44,0.27,-343.08,-82.09,298.28
878,1747401990630,-0.21,1.44,0.27,-343.08,-82.09,298.28
879,1747401990640,-0.54,1.32,0.11,-318.79,-139.28,333.44
880,1747401990650,-0.54,1.32,0.11,-318.79,-139.28,333.44
881,1747401990660,-0.54,1.32,0.11,-318.79,-139.28,333.44
882,1747401990670,-0.45,1.335,0.145,-296.36,-166.87,335.36
883,1747401990680,-0.36,1.35,0.18,-273.93,-194.46,337.28
884,1747401990690,-0.36,1.35,0.18,-273.93,-194.46,337.28
885,1747401990700,-0.36,1.35,0.18,-273.93,-194.46,337.28
886,1747401990710,-0.265,1.445,0.24,-273.93,-194.46,337.28
887,1747401990720,-0.17,1.54,0.3,-270.14,-126.04,338.44
888,1747401990730,-0.17,1.54,0.3,-270.14,-126.04,338.44
889,1747401990740,-0.17,1.54,0.3,-270.14,-126.04,338.44
890,1747401990750,-0.19,1.365,0.305,-277.985,-119.66,313.995
891,1747401990760,-0.21,1.19,0.31,-285.83,-113.28,289.55
892,1747401990770,-0.21,1.19,0.31,-285.83,-113.28,289.55
893,1747401990780,-0.21,1.19,0.31,-285.83,-113.28,289.55
894,1747401990790,-0.15,0.975,0.095,-257.385,-86.61,287.445
895,1747401990800,-0.09,0.76,-0.12,-228.94,-59.94,285.34
896,1747401990810,-0.09,0.76,-0.12,-228.94,-59.94,285.34
897,1747401990820,-0.09,0.76,-0.12,-228.94,-59.94,285.34
898,1747401990830,-0.09,0.76,-0.12,-228.94,-59.94,285.34
899,1747401990840,-0.81,-0.16,-1.64,-123.54,-121.83,266.72
900,1747401990850,-0.81,-0.16,-1.64,-123.54,-121.83,266.72
901,1747401990860,-0.81,-0.16,-1.64,-123.54,-121.83,266.72
902,1747401990870,-2.49,-1.21,-3.2,-72.02,87.89,127.38
903,1747401990880,-2.49,-1.21,-3.2,-72.02,87.89,127.38
904,1747401990890,-2.49,-1.21,-3.2,-72.02,87.89,127.38
905,1747401990900,-2.49,-1.21,-3.2,-72.02,87.89,127.38
906,1747401990910,-2.7,-2.3,-3.27,52.49,-28.08,-1.71
907,1747401990920,-2.7,-2.3,-3.27,52.49,-28.08,-1.71
908,1747401990930,-2.7,-2.3,-3.27,52.49,-28.08,-1.71
909,1747401990940,-2.7,-2.3,-3.27,52.49,-28.08,-1.71
910,1747401990950,-2.07,-0.94,-2.04,273.8,22.64,-224.37
911,1747401990960,-2.07,-0.94,-2.04,273.8,22.64,-224.37
912,1747401990970,-2.07,-0.94,-2.04,273.8,22.64,-224.37
913,1747401990980,-2.07,-0.94,-2.04,273.8,22.64,-224.37
914,1747401990990,-0.98,1.43,-0.72,434.27,-73.36,-309.27
915,1747401991000,-0.98,1.43,-0.72,434.27,-73.36,-309.27
916,1747401991010,-0.98,1.43,-0.72,434.27,-73.36,-309.27
917,1747401991020,-0.98,1.43,-0.72,434.27,-73.36,-309.27
918,1747401991030,0.42,3.21,0.47,381.65,-127.99,-304.26
919,1747401991040,0.42,3.21,0.47,381.65,-127.99,-304.26
920,1747401991050,0.42,3.21,0.47,381.65,-127.99,-304.26
921,1747401991060,0.515,2.825,0.5449999999999999,288.025,-93.63,-321.84000000000003
922,1747401991070,0.61,2.44,0.62,194.4,-59.27,-339.42
923,1747401991080,0.61,2.44,0.62,194.4,-59.27,-339.42
924,1747401991090,0.61,2.44,0.62,194.4,-59.27,-339.42
925,1747401991100,0.33,2.115,0.56,179.05,-41.965,-339.54
926,1747401991110,0.05,1.79,0.5,163.7,-24.66,-339.66
927,1747401991120,0.05,1.79,0.5,163.7,-24.66,-339.66
928,1747401991130,0.05,1.79,0.5,163.7,-24.66,-339.66
929,1747401991140,-0.02,1.64,0.25,173.58499999999998,-35.89,-339.32500000000005
930,1747401991150,-0.02,1.64,0.25,183.47,-47.12,-338.99
931,1747401991160,-0.02,1.64,0.25,183.47,-47.12,-338.99
932,1747401991170,-0.02,1.64,0.25,183.47,-47.12,-338.99
933,1747401991180,0.34,1.7,0.28,183.47,-47.12,-338.99
934,1747401991190,0.34,1.7,0.28,174.32,36.32,-368.59
935,1747401991200,0.34,1.7,0.28,174.32,36.32,-368.59
936,1747401991210,0.34,1.7,0.28,174.32,36.32,-368.59
937,1747401991220,1.13,1.81,0.94,127.01,60.42,-376.04
938,1747401991230,1.13,1.81,0.94,127.01,60.42,-376.04
939,1747401991240,1.13,1.81,0.94,127.01,60.42,-376.04
940,1747401991250,1.995,1.71,1.25,124.42,63.29,-342.805
941,1747401991260,2.86,1.61,1.56,121.83,66.16,-309.57
942,1747401991270,2.86,1.61,1.56,121.83,66.16,-309.57
943,1747401991280,2.86,1.61,1.56,121.83,66.16,-309.57
944,1747401991290,2.86,1.61,1.56,121.83,66.16,-309.57
945,1747401991300,3.89,2.43,2.89,63.9,-12.57,-203.43
946,1747401991310,3.89,2.43,2.89,63.9,-12.57,-203.43
947,1747401991320,3.89,2.43,2.89,63.9,-12.57,-203.43
948,1747401991330,6.04,3.26,1.79,-24.78,-199.1,107.85
949,1747401991340,6.04,3.26,1.79,-24.78,-199.1,107.85
950,1747401991350,6.04,3.26,1.79,-24.78,-199.1,107.85
951,1747401991360,6.04,3.26,1.79,-24.78,-199.1,107.85
952,1747401991370,3.43,2.67,1.49,-101.5,273.13,168.27
953,1747401991380,3.43,2.67,1.49,-101.5,273.13,168.27
954,1747401991390,3.43,2.67,1.49,-101.5,273.13,168.27
955,1747401991400,2.115,2.505,1.665,-101.5,273.13,168.27
956,1747401991410,0.8,2.34,1.84,-194.4,111.02,286.13
957,1747401991420,0.8,2.34,1.84,-194.4,111.02,286.13
958,1747401991430,0.8,2.34,1.84,-194.4,111.02,286.13
959,1747401991440,0.8,2.34,1.84,-194.4,111.02,286.13
960,1747401991450,0.27,1.76,0.98,-292.97,-31.74,325.13
961,1747401991460,0.27,1.76,0.98,-292.97,-31.74,325.13
962,1747401991470,0.27,1.76,0.98,-292.97,-31.74,325.13
963,1747401991480,0.27,1.76,0.98,-292.97,-31.74,325.13
964,1747401991490,-0.29,1.58,0.36,-351.56,-68.79,333.86
965,1747401991500,-0.29,1.58,0.36,-351.56,-68.79,333.86
966,1747401991510,-0.29,1.58,0.36,-351.56,-68.79,333.86
967,1747401991520,-0.4399999999999999,1.485,0.36,-332.76,-114.535,338.96000000000004
968,1747401991530,-0.59,1.39,0.36,-313.96,-160.28,344.06
969,1747401991540,-0.59,1.39,0.36,-313.96,-160.28,344.06
970,1747401991550,-0.59,1.39,0.36,-313.96,-160.28,344.06
971,1747401991560,-0.21,1.74,0.57,-268.37,-178.89499999999998,330.475
972,1747401991570,-0.21,1.74,0.57,-222.78,-197.51,316.89
973,1747401991580,-0.21,1.74,0.57,-222.78,-197.51,316.89
974,1747401991590,-0.21,1.74,0.57,-222.78,-197.51,316.89
975,1747401991600,-0.14,2.29,0.5,-249.88,-246.83,347.23
976,1747401991610,-0.14,2.29,0.5,-249.88,-246.83,347.23
977,1747401991620,-0.14,2.29,0.5,-249.88,-246.83,347.23
978,1747401991630,-0.265,1.6800000000000002,0.155,-250.735,-227.085,380.645
979,1747401991640,-0.39,1.07,-0.19,-251.59,-207.34,414.06
980,1747401991650,-0.39,1.07,-0.19,-251.59,-207.34,414.06
981,1747401991660,-0.39,1.07,-0.19,-251.59,-207.34,414.06
982,1747401991670,-0.7150000000000001,0.4,-0.535,-251.59,-207.34,414.06
983,1747401991680,-1.04,-0.27,-0.88,-57.07,-194.46,312.74
984,1747401991690,-1.04,-0.27,-0.88,-57.07,-194.46,312.74
985,1747401991700,-1.04,-0.27,-0.88,-57.07,-194.46,312.74
986,1747401991710,-1.42,-0.52,-1.27,-57.07,-194.46,312.74
987,1747401991720,-1.8,-0.77,-1.66,-79.28,77.27,121.77
988,1747401991730,-1.8,-0.77,-1.66,-79.28,77.27,121.77
989,1747401991740,-1.8,-0.77,-1.66,-79.28,77.27,121.77
990,1747401991750,-2.29,-0.945,-1.795,-27.525,116.545,57.375
991,1747401991760,-2.78,-1.12,-1.93,24.23,155.82,-7.02
992,1747401991770,-2.78,-1.12,-1.93,24.23,155.82,-7.02
993,1747401991780,-2.78,-1.12,-1.93,24.23,155.82,-7.02
994,1747401991790,-2.77,-1.81,-1.75,40.315,145.565,-48.095
995,1747401991800,-2.77,-1.81,-1.75,56.4,135.31,-89.17
996,1747401991810,-2.77,-1.81,-1.75,56.4,135.31,-89.17
997,1747401991820,-2.77,-1.81,-1.75,56.4,135.31,-89.17
998,1747401991830,-1.93,-1.07,-1.31,154.3,97.96,-286.38
999,1747401991840,-1.93,-1.07,-1.31,154.3,97.96,-286.38
1000,1747401991850,-1.93,-1.07,-1.31,154.3,97.96,-286.38
