id,timestamp,acc_x,acc_y,acc_z,gyro_x,gyro_y,gyro_z
0,1747402656320,0.99,-0.11,0.4,-13.0,-17.33,0.55
1,1747402656330,,,,,,
2,1747402656340,0.99,-0.11,0.4,-13.0,-17.33,0.55
3,1747402656350,,,,,,
4,1747402656360,1.16,-0.09,0.38,5.37,-52.31,11.17
5,1747402656370,1.16,-0.09,0.38,5.37,-52.31,11.17
6,1747402656380,,,,,,
7,1747402656390,1.45,-0.02,0.43,1.53,-42.6,51.27
8,1747402656400,1.45,-0.02,0.43,1.53,-42.6,51.27
9,1747402656410,,,,,,
10,1747402656420,,,,,,
11,1747402656430,1.37,-0.17,0.27,-9.46,-49.87,89.23
12,1747402656440,,,,,,
13,1747402656450,,,,,,
14,1747402656460,1.37,-0.17,0.27,-9.46,-49.87,89.23
15,1747402656470,1.23,-0.2,0.28,7.51,32.71,85.88
16,1747402656480,,,,,,
17,1747402656490,1.23,-0.2,0.28,7.51,32.71,85.88
18,1747402656500,,,,,,
19,1747402656510,1.21,-0.24,0.35,-25.45,43.4,107.18
20,1747402656520,,,,,,
21,1747402656530,1.21,-0.24,0.35,-25.45,43.4,107.18
22,1747402656540,1.04,-0.26,0.27,-35.83,28.2,132.51
23,1747402656550,1.04,-0.26,0.27,-35.83,28.2,132.51
24,1747402656560,,,,,,
25,1747402656570,1.04,-0.26,0.27,-35.83,28.2,132.51
26,1747402656580,0.86,-0.33,0.26,-41.75,5.55,131.47
27,1747402656590,,,,,,
28,1747402656600,0.86,-0.33,0.26,-41.75,5.55,131.47
29,1747402656610,0.77,-0.43,0.25,-42.6,-7.69,135.38
30,1747402656620,0.77,-0.43,0.25,-42.6,-7.69,135.38
31,1747402656630,0.77,-0.43,0.25,-42.6,-7.69,135.38
32,1747402656640,0.77,-0.43,0.25,-42.6,-7.69,135.38
33,1747402656650,0.66,-0.45,0.22,-17.7,-11.96,127.87
34,1747402656660,0.66,-0.45,0.22,-17.7,-11.96,127.87
35,1747402656670,0.66,-0.45,0.22,-17.7,-11.96,127.87
36,1747402656680,,,,,,
37,1747402656690,0.67,-0.48,0.2,-36.13,-8.73,120.12
38,1747402656700,0.67,-0.48,0.2,-36.13,-8.73,120.12
39,1747402656710,0.67,-0.48,0.2,-36.13,-8.73,120.12
40,1747402656720,0.67,-0.48,0.2,-36.13,-8.73,120.12
41,1747402656730,0.58,-0.6,0.19,-34.85,13.43,104.31
42,1747402656740,0.58,-0.6,0.19,-34.85,13.43,104.31
43,1747402656750,0.58,-0.6,0.19,-34.85,13.43,104.31
44,1747402656760,,,,,,
45,1747402656770,0.44,-0.64,0.14,-30.76,5.07,98.51
46,1747402656780,0.44,-0.64,0.14,-30.76,5.07,98.51
47,1747402656790,0.44,-0.64,0.14,-30.76,5.07,98.51
48,1747402656800,0.44,-0.68,0.15,-26.18,-23.38,87.34
49,1747402656810,0.44,-0.68,0.15,-26.18,-23.38,87.34
50,1747402656820,0.44,-0.68,0.15,-26.18,-23.38,87.34
51,1747402656830,,,,,,
52,1747402656840,0.45,-0.7250000000000001,0.135,-28.835,-18.345,84.045
53,1747402656850,,,,,,
54,1747402656860,0.46,-0.77,0.12,-31.49,-13.31,80.75
55,1747402656870,0.46,-0.77,0.12,-31.49,-13.31,80.75
56,1747402656880,0.4,-0.79,0.09,-16.97,-11.41,58.65
57,1747402656890,0.4,-0.79,0.09,-16.97,-11.41,58.65
58,1747402656900,0.4,-0.79,0.09,-16.97,-11.41,58.65
59,1747402656910,0.41,-0.83,0.1,-12.45,-19.78,48.83
60,1747402656920,,,,,,
61,1747402656930,0.41,-0.83,0.1,-12.45,-19.78,48.83
62,1747402656940,0.41,-0.83,0.1,-12.45,-19.78,48.83
63,1747402656950,0.41,-0.83,0.1,-12.45,-19.78,48.83
64,1747402656960,0.45,-0.85,0.11,-13.12,-20.87,47.55
65,1747402656970,0.45,-0.85,0.11,-13.12,-20.87,47.55
66,1747402656980,0.45,-0.85,0.11,-13.12,-20.87,47.55
67,1747402656990,0.45,-0.86,0.1,-18.62,-31.01,45.1
68,1747402657000,0.45,-0.86,0.1,-18.62,-31.01,45.1
69,1747402657010,0.45,-0.86,0.1,-18.62,-31.01,45.1
70,1747402657020,0.45,-0.86,0.1,-18.62,-31.01,45.1
71,1747402657030,,,,,,
72,1747402657040,0.49,-0.9,0.06,-32.96,-25.88,63.9
73,1747402657050,0.49,-0.9,0.06,-32.96,-25.88,63.9
74,1747402657060,0.49,-0.9,0.06,-32.96,-25.88,63.9
75,1747402657070,0.31,-0.95,-0.01,-33.63,15.5,69.15
76,1747402657080,0.31,-0.95,-0.01,-33.63,15.5,69.15
77,1747402657090,0.31,-0.95,-0.01,-33.63,15.5,69.15
78,1747402657100,0.31,-0.95,-0.01,-33.63,15.5,69.15
79,1747402657110,0.15,-0.92,-0.03,-24.72,8.67,61.4
80,1747402657120,0.15,-0.92,-0.03,-24.72,8.67,61.4
81,1747402657130,0.15,-0.92,-0.03,-24.72,8.67,61.4
82,1747402657140,0.15,-0.94,-0.03,-18.615,-3.7849999999999993,59.235
83,1747402657150,0.15,-0.96,-0.03,-12.51,-16.24,57.07
84,1747402657160,0.15,-0.96,-0.03,-12.51,-16.24,57.07
85,1747402657170,0.15,-0.96,-0.03,-12.51,-16.24,57.07
86,1747402657180,0.15,-0.96,-0.03,-12.51,-16.24,57.07
87,1747402657190,0.18,-0.96,0.05,-2.62,-29.05,52.25
88,1747402657200,0.18,-0.96,0.05,-2.62,-29.05,52.25
89,1747402657210,0.18,-0.96,0.05,-2.62,-29.05,52.25
90,1747402657220,0.12,-0.96,0.06,-0.18,-20.57,40.65
91,1747402657230,0.12,-0.96,0.06,-0.18,-20.57,40.65
92,1747402657240,0.12,-0.96,0.06,-0.18,-20.57,40.65
93,1747402657250,0.12,-0.96,0.06,-0.18,-20.57,40.65
94,1747402657260,0.08,-0.96,0.06,-0.18,-20.57,40.65
95,1747402657270,0.08,-0.96,0.06,1.83,-8.3,19.71
96,1747402657280,0.08,-0.96,0.06,1.83,-8.3,19.71
97,1747402657290,0.08,-0.96,0.06,1.83,-8.3,19.71
98,1747402657300,0.07,-0.99,0.03,-1.59,-9.46,7.14
99,1747402657310,0.07,-0.99,0.03,-1.59,-9.46,7.14
100,1747402657320,0.07,-0.99,0.03,-1.59,-9.46,7.14
101,1747402657330,0.07,-0.99,0.03,-1.59,-9.46,7.14
102,1747402657340,0.1,-0.98,0.05,-1.59,-9.46,7.14
103,1747402657350,0.1,-0.98,0.05,3.36,-12.39,-2.08
104,1747402657360,0.1,-0.98,0.05,3.36,-12.39,-2.08
105,1747402657370,0.15,-0.97,0.08,3.36,-12.39,-2.08
106,1747402657380,0.15,-0.97,0.08,-4.33,-11.35,-4.03
107,1747402657390,0.15,-0.97,0.08,-4.33,-11.35,-4.03
108,1747402657400,0.15,-0.97,0.08,-4.33,-11.35,-4.03
109,1747402657410,0.21,-1.01,0.03,-4.33,-11.35,-4.03
110,1747402657420,0.21,-1.01,0.03,-6.1,-10.19,-3.97
111,1747402657430,0.21,-1.01,0.03,-6.1,-10.19,-3.97
112,1747402657440,0.21,-1.01,0.03,-6.1,-10.19,-3.97
113,1747402657450,0.21,-1.01,0.03,-6.1,-10.19,-3.97
114,1747402657460,0.21,-1.01,0.03,-6.1,-10.19,-3.97
115,1747402657470,0.2,-1.0,0.04,-1.46,0.31,-2.32
116,1747402657480,0.2,-1.0,0.04,-1.46,0.31,-2.32
117,1747402657490,0.19,-1.0,0.02,-3.54,0.67,-0.73
118,1747402657500,0.19,-1.0,0.02,-3.54,0.67,-0.73
119,1747402657510,0.19,-1.0,0.02,-3.54,0.67,-0.73
120,1747402657520,0.18,-0.99,0.02,-3.54,0.67,-0.73
121,1747402657530,0.17,-0.98,0.02,-1.04,2.81,-2.14
122,1747402657540,0.17,-0.98,0.02,-1.04,2.81,-2.14
123,1747402657550,,,,,,
124,1747402657560,0.17,-0.98,0.02,-1.04,2.81,-2.14
125,1747402657570,0.2,-0.98,0.03,-0.24,-0.12,-4.39
126,1747402657580,0.2,-0.98,0.03,-0.24,-0.12,-4.39
127,1747402657590,0.2,-0.98,0.03,-0.24,-0.12,-4.39
128,1747402657600,0.22,-0.985,0.04,0.55,-1.1,-2.99
129,1747402657610,0.24,-0.99,0.05,1.34,-2.08,-1.59
130,1747402657620,0.24,-0.99,0.05,1.34,-2.08,-1.59
131,1747402657630,0.24,-0.99,0.05,1.34,-2.08,-1.59
132,1747402657640,0.2299999999999999,-0.985,0.055,-1.0699999999999998,0.27,-0.7050000000000001
133,1747402657650,0.22,-0.98,0.06,-3.48,2.62,0.18
134,1747402657660,0.22,-0.98,0.06,-3.48,2.62,0.18
135,1747402657670,0.22,-0.98,0.06,-3.48,2.62,0.18
136,1747402657680,0.16,-0.98,0.03,-6.2250000000000005,4.24,-1.345
137,1747402657690,0.16,-0.98,0.03,-8.97,5.86,-2.87
138,1747402657700,0.16,-0.98,0.03,-8.97,5.86,-2.87
139,1747402657710,0.16,-0.98,0.03,-8.97,5.86,-2.87
140,1747402657720,0.12,-0.99,0.0,-8.24,4.7,-7.63
141,1747402657730,0.12,-0.99,0.0,-8.24,4.7,-7.63
142,1747402657740,0.12,-0.99,0.0,-8.24,4.7,-7.63
143,1747402657750,0.12,-0.99,0.0,-8.24,4.7,-7.63
144,1747402657760,0.11,-0.97,-0.02,-1.65,5.19,-14.28
145,1747402657770,0.11,-0.97,-0.02,-1.65,5.19,-14.28
146,1747402657780,0.11,-0.97,-0.02,-1.65,5.19,-14.28
147,1747402657790,0.1,-0.965,-0.02,2.255,16.605,-20.325
148,1747402657800,0.09,-0.96,-0.02,6.16,28.02,-26.37
149,1747402657810,0.09,-0.96,-0.02,6.16,28.02,-26.37
150,1747402657820,0.09,-0.96,-0.02,6.16,28.02,-26.37
151,1747402657830,0.0499999999999999,-0.935,-0.03,7.26,39.795,-34.79
152,1747402657840,0.01,-0.91,-0.04,8.36,51.57,-43.21
153,1747402657850,0.01,-0.91,-0.04,8.36,51.57,-43.21
154,1747402657860,0.01,-0.91,-0.04,8.36,51.57,-43.21
155,1747402657870,-0.015,-0.91,-0.025,9.645,34.025,-55.145
156,1747402657880,-0.04,-0.91,-0.01,10.93,16.48,-67.08
157,1747402657890,-0.04,-0.91,-0.01,10.93,16.48,-67.08
158,1747402657900,-0.04,-0.91,-0.01,10.93,16.48,-67.08
159,1747402657910,0.22,-0.87,0.09,20.32,-72.51,-68.6
160,1747402657920,0.22,-0.87,0.09,20.32,-72.51,-68.6
161,1747402657930,0.22,-0.87,0.09,20.32,-72.51,-68.6
162,1747402657940,0.22,-0.87,0.09,20.32,-72.51,-68.6
163,1747402657950,0.43,-0.85,0.11,12.27,-10.31,-75.13
164,1747402657960,0.43,-0.85,0.11,12.27,-10.31,-75.13
165,1747402657970,0.43,-0.85,0.11,12.27,-10.31,-75.13
166,1747402657980,0.43,-0.85,0.11,12.27,-10.31,-75.13
167,1747402657990,0.38,-0.8300000000000001,0.105,12.91,10.044999999999998,-84.93
168,1747402658000,0.33,-0.81,0.1,13.55,30.4,-94.73
169,1747402658010,0.33,-0.81,0.1,13.55,30.4,-94.73
170,1747402658020,0.33,-0.81,0.1,13.55,30.4,-94.73
171,1747402658030,0.4,-0.8,0.1,4.52,-41.08,-82.28
172,1747402658040,0.4,-0.8,0.1,4.52,-41.08,-82.28
173,1747402658050,0.4,-0.8,0.1,4.52,-41.08,-82.28
174,1747402658060,0.4,-0.8,0.1,4.52,-41.08,-82.28
175,1747402658070,0.49,-0.79,0.03,8.42,-33.69,-84.35
176,1747402658080,0.49,-0.79,0.03,8.42,-33.69,-84.35
177,1747402658090,0.49,-0.79,0.03,8.42,-33.69,-84.35
178,1747402658100,0.49,-0.79,0.03,8.42,-33.69,-84.35
179,1747402658110,0.5,-0.67,0.03,11.625,-20.845,-95.4
180,1747402658120,0.5,-0.67,0.03,14.83,-8.0,-106.45
181,1747402658130,0.5,-0.67,0.03,14.83,-8.0,-106.45
182,1747402658140,0.63,-0.65,0.01,-5.8,-45.84,-94.85
183,1747402658150,0.63,-0.65,0.01,-5.8,-45.84,-94.85
184,1747402658160,0.63,-0.65,0.01,-5.8,-45.84,-94.85
185,1747402658170,0.63,-0.65,0.01,-5.8,-45.84,-94.85
186,1747402658180,0.74,-0.57,0.05,-5.8,-45.84,-94.85
187,1747402658190,0.74,-0.57,0.05,-34.91,51.45,-113.59
188,1747402658200,0.74,-0.57,0.05,-34.91,51.45,-113.59
189,1747402658210,0.74,-0.57,0.05,-34.91,51.45,-113.59
190,1747402658220,0.67,-0.6,0.08,-18.98,-1.34,-109.5
191,1747402658230,0.67,-0.6,0.08,-18.98,-1.34,-109.5
192,1747402658240,0.67,-0.6,0.08,-18.98,-1.34,-109.5
193,1747402658250,0.67,-0.6,0.08,-18.98,-1.34,-109.5
194,1747402658260,1.04,-0.6,0.02,1.77,10.01,-94.6
195,1747402658270,1.04,-0.6,0.02,1.77,10.01,-94.6
196,1747402658280,1.04,-0.6,0.02,1.77,10.01,-94.6
197,1747402658290,0.875,-0.525,0.0699999999999999,17.67,47.67,-104.43
198,1747402658300,0.71,-0.45,0.12,33.57,85.33,-114.26
199,1747402658310,0.71,-0.45,0.12,33.57,85.33,-114.26
200,1747402658320,0.71,-0.45,0.12,33.57,85.33,-114.26
201,1747402658330,0.87,-0.455,0.155,31.435,27.53,-106.08
202,1747402658340,1.03,-0.46,0.19,29.3,-30.27,-97.9
203,1747402658350,1.03,-0.46,0.19,29.3,-30.27,-97.9
204,1747402658360,1.03,-0.46,0.19,29.3,-30.27,-97.9
205,1747402658370,1.065,-0.42,0.155,29.3,-30.27,-97.9
206,1747402658380,1.1,-0.38,0.12,32.075,5.74,-94.39
207,1747402658390,1.1,-0.38,0.12,34.85,41.75,-90.88
208,1747402658400,1.1,-0.38,0.12,34.85,41.75,-90.88
209,1747402658410,0.99,-0.33,0.19,16.97,0.18,-80.51
210,1747402658420,0.99,-0.33,0.19,16.97,0.18,-80.51
211,1747402658430,0.99,-0.33,0.19,16.97,0.18,-80.51
212,1747402658440,0.99,-0.33,0.19,16.97,0.18,-80.51
213,1747402658450,1.09,-0.33,0.15,3.23,-23.01,-68.12
214,1747402658460,1.09,-0.33,0.15,3.23,-23.01,-68.12
215,1747402658470,1.09,-0.33,0.15,3.23,-23.01,-68.12
216,1747402658480,1.09,-0.33,0.15,3.23,-23.01,-68.12
217,1747402658490,1.03,-0.27,0.17,6.865,0.5199999999999996,-69.005
218,1747402658500,1.03,-0.27,0.17,10.5,24.05,-69.89
219,1747402658510,1.03,-0.27,0.17,10.5,24.05,-69.89
220,1747402658520,1.03,-0.27,0.17,10.5,24.05,-69.89
221,1747402658530,1.19,-0.22,0.2,7.14,-27.22,-59.69
222,1747402658540,1.19,-0.22,0.2,7.14,-27.22,-59.69
223,1747402658550,1.19,-0.22,0.2,7.14,-27.22,-59.69
224,1747402658560,1.19,-0.22,0.2,7.14,-27.22,-59.69
225,1747402658570,1.2,-0.24,0.18,4.39,-2.62,-40.59
226,1747402658580,1.2,-0.24,0.18,4.39,-2.62,-40.59
227,1747402658590,1.2,-0.24,0.18,4.39,-2.62,-40.59
228,1747402658600,1.05,-0.2,0.15,4.39,-2.62,-40.59
229,1747402658610,1.05,-0.2,0.15,3.3,19.23,-31.92
230,1747402658620,1.05,-0.2,0.15,3.3,19.23,-31.92
231,1747402658630,1.05,-0.2,0.15,3.3,19.23,-31.92
232,1747402658640,1.11,-0.19,0.14,2.99,-10.8,-26.92
233,1747402658650,1.11,-0.19,0.14,2.99,-10.8,-26.92
234,1747402658660,1.11,-0.19,0.14,2.99,-10.8,-26.92
235,1747402658670,1.11,-0.19,0.14,2.99,-10.8,-26.92
236,1747402658680,1.19,-0.18,0.17,2.99,-10.8,-26.92
237,1747402658690,1.19,-0.18,0.17,1.34,-6.23,-16.36
238,1747402658700,1.19,-0.18,0.17,1.34,-6.23,-16.36
239,1747402658710,1.19,-0.18,0.17,1.34,-6.23,-16.36
240,1747402658720,1.05,-0.18,0.14,-3.23,13.61,-12.51
241,1747402658730,1.05,-0.18,0.14,-3.23,13.61,-12.51
242,1747402658740,1.05,-0.18,0.14,-3.23,13.61,-12.51
243,1747402658750,1.05,-0.18,0.14,-3.23,13.61,-12.51
244,1747402658760,1.03,-0.16,0.14,1.53,-1.4,-5.13
245,1747402658770,1.03,-0.16,0.14,1.53,-1.4,-5.13
246,1747402658780,1.03,-0.16,0.14,1.53,-1.4,-5.13
247,1747402658790,1.03,-0.16,0.14,1.53,-1.4,-5.13
248,1747402658800,1.05,-0.15,0.15,-1.89,-3.97,-1.59
249,1747402658810,1.05,-0.15,0.15,-1.89,-3.97,-1.59
250,1747402658820,1.05,-0.15,0.15,-1.89,-3.97,-1.59
251,1747402658830,1.02,-0.14,0.14,-1.89,-3.97,-1.59
252,1747402658840,1.02,-0.14,0.14,-3.48,8.0,-1.1
253,1747402658850,1.02,-0.14,0.14,-3.48,8.0,-1.1
254,1747402658860,1.02,-0.14,0.14,-3.48,8.0,-1.1
255,1747402658870,1.0,-0.13,0.14,-1.28,0.12,-0.37
256,1747402658880,1.0,-0.13,0.14,-1.28,0.12,-0.37
257,1747402658890,1.0,-0.13,0.14,-1.28,0.12,-0.37
258,1747402658900,1.0,-0.13,0.14,-1.28,0.12,-0.37
259,1747402658910,1.02,-0.13,0.14,-3.17,-10.13,0.06
260,1747402658920,1.02,-0.13,0.14,-3.17,-10.13,0.06
261,1747402658930,1.02,-0.13,0.14,-3.17,-10.13,0.06
262,1747402658940,1.02,-0.13,0.14,-3.17,-10.13,0.06
263,1747402658950,1.02,-0.13,0.12,-5.49,0.73,0.12
264,1747402658960,1.02,-0.13,0.12,-5.49,0.73,0.12
265,1747402658970,1.02,-0.13,0.12,-5.49,0.73,0.12
266,1747402658980,1.005,-0.13,0.125,-5.49,0.73,0.12
267,1747402658990,0.99,-0.13,0.13,-4.52,-2.26,-1.34
268,1747402659000,0.99,-0.13,0.13,-4.52,-2.26,-1.34
269,1747402659010,0.99,-0.13,0.13,-4.52,-2.26,-1.34
270,1747402659020,1.005,-0.135,0.135,-5.34,-4.515,-0.335
271,1747402659030,1.02,-0.14,0.14,-6.16,-6.77,0.67
272,1747402659040,1.02,-0.14,0.14,-6.16,-6.77,0.67
273,1747402659050,1.02,-0.14,0.14,-6.16,-6.77,0.67
274,1747402659060,1.015,-0.145,0.13,-6.345000000000001,-1.5549999999999995,-0.335
275,1747402659070,1.01,-0.15,0.12,-6.53,3.66,-1.34
276,1747402659080,1.01,-0.15,0.12,-6.53,3.66,-1.34
277,1747402659090,1.01,-0.15,0.12,-6.53,3.66,-1.34
278,1747402659100,1.01,-0.16,0.12,-3.36,1.04,0.24
279,1747402659110,1.01,-0.16,0.12,-3.36,1.04,0.24
280,1747402659120,1.01,-0.16,0.12,-3.36,1.04,0.24
281,1747402659130,1.01,-0.16,0.12,-3.36,1.04,0.24
282,1747402659140,1.02,-0.15,0.13,-1.65,0.24,2.01
283,1747402659150,1.02,-0.15,0.13,-1.65,0.24,2.01
284,1747402659160,1.02,-0.15,0.13,-1.65,0.24,2.01
285,1747402659170,1.025,-0.145,0.14,-1.65,0.24,2.01
286,1747402659180,1.03,-0.14,0.15,-2.14,-0.18,2.69
287,1747402659190,1.03,-0.14,0.15,-2.14,-0.18,2.69
288,1747402659200,1.03,-0.14,0.15,-2.14,-0.18,2.69
289,1747402659210,1.03,-0.14,0.15,-2.14,-0.18,2.69
290,1747402659220,1.03,-0.15,0.13,-2.14,2.2,5.55
291,1747402659230,1.03,-0.15,0.13,-2.14,2.2,5.55
292,1747402659240,1.03,-0.15,0.13,-2.14,2.2,5.55
293,1747402659250,1.03,-0.15,0.13,-2.14,2.2,5.55
294,1747402659260,1.02,-0.15,0.13,-1.22,0.98,5.74
295,1747402659270,1.02,-0.15,0.13,-1.22,0.98,5.74
296,1747402659280,1.02,-0.15,0.13,-1.22,0.98,5.74
297,1747402659290,1.03,-0.15,0.14,-1.28,-1.465,6.715
298,1747402659300,1.04,-0.15,0.15,-1.34,-3.91,7.69
299,1747402659310,1.04,-0.15,0.15,-1.34,-3.91,7.69
300,1747402659320,1.04,-0.15,0.15,-1.34,-3.91,7.69
301,1747402659330,1.0550000000000002,-0.155,0.15,-1.095,-1.8,9.155
302,1747402659340,1.07,-0.16,0.15,-0.85,0.31,10.62
303,1747402659350,1.07,-0.16,0.15,-0.85,0.31,10.62
304,1747402659360,1.07,-0.16,0.15,-0.85,0.31,10.62
305,1747402659370,1.1,-0.14,0.17,2.5,-1.77,13.12
306,1747402659380,1.1,-0.14,0.17,2.5,-1.77,13.12
307,1747402659390,1.1,-0.14,0.17,2.5,-1.77,13.12
308,1747402659400,1.1,-0.14,0.17,2.5,-1.77,13.12
309,1747402659410,1.17,-0.18,0.16,-6.47,-11.41,20.08
310,1747402659420,1.17,-0.18,0.16,-6.47,-11.41,20.08
311,1747402659430,1.17,-0.18,0.16,-6.47,-11.41,20.08
312,1747402659440,1.17,-0.18,0.16,-6.47,-11.41,20.08
313,1747402659450,1.14,-0.2,0.13,-5.83,-2.41,24.9
314,1747402659460,1.14,-0.2,0.13,-5.19,6.59,29.72
315,1747402659470,1.14,-0.2,0.13,-5.19,6.59,29.72
316,1747402659480,1.145,-0.21,0.135,-4.3950000000000005,5.49,32.5
317,1747402659490,1.15,-0.22,0.14,-3.6,4.39,35.28
318,1747402659500,1.15,-0.22,0.14,-3.6,4.39,35.28
319,1747402659510,1.15,-0.22,0.14,-3.6,4.39,35.28
320,1747402659520,1.15,-0.235,0.145,-5.495,0.1499999999999999,42.3
321,1747402659530,1.15,-0.25,0.15,-7.39,-4.09,49.32
322,1747402659540,1.15,-0.25,0.15,-7.39,-4.09,49.32
323,1747402659550,1.15,-0.25,0.15,-7.39,-4.09,49.32
324,1747402659560,1.14,-0.26,0.145,-8.12,-0.6699999999999999,52.89
325,1747402659570,1.13,-0.27,0.14,-8.85,2.75,56.46
326,1747402659580,1.13,-0.27,0.14,-8.85,2.75,56.46
327,1747402659590,1.13,-0.27,0.14,-8.85,2.75,56.46
328,1747402659600,1.09,-0.285,0.13,-7.505,5.13,59.94
329,1747402659610,1.05,-0.3,0.12,-6.16,7.51,63.42
330,1747402659620,1.05,-0.3,0.12,-6.16,7.51,63.42
331,1747402659630,1.05,-0.3,0.12,-6.16,7.51,63.42
332,1747402659640,1.06,-0.31,0.1,0.18,-5.19,72.57
333,1747402659650,1.06,-0.31,0.1,0.18,-5.19,72.57
334,1747402659660,1.06,-0.31,0.1,0.18,-5.19,72.57
335,1747402659670,1.06,-0.31,0.1,0.18,-5.19,72.57
336,1747402659680,1.03,-0.35,0.1,6.59,-5.07,83.8
337,1747402659690,1.03,-0.35,0.1,6.59,-5.07,83.8
338,1747402659700,1.03,-0.35,0.1,6.59,-5.07,83.8
339,1747402659710,1.03,-0.35,0.1,6.59,-5.07,83.8
340,1747402659720,0.95,-0.38,0.09,17.03,-8.54,93.32
341,1747402659730,0.95,-0.38,0.09,17.03,-8.54,93.32
342,1747402659740,0.95,-0.38,0.09,17.03,-8.54,93.32
343,1747402659750,0.95,-0.38,0.09,17.03,-8.54,93.32
344,1747402659760,0.92,-0.42,0.12,14.59,-14.28,96.44
345,1747402659770,0.92,-0.42,0.12,14.59,-14.28,96.44
346,1747402659780,0.92,-0.42,0.12,14.59,-14.28,96.44
347,1747402659790,0.87,-0.46,0.12,1.89,-1.04,101.26
348,1747402659800,0.87,-0.46,0.12,1.89,-1.04,101.26
349,1747402659810,0.87,-0.46,0.12,1.89,-1.04,101.26
350,1747402659820,0.87,-0.46,0.12,1.89,-1.04,101.26
351,1747402659830,0.77,-0.52,0.13,-4.335,1.95,101.93
352,1747402659840,0.77,-0.52,0.13,-10.56,4.94,102.6
353,1747402659850,0.77,-0.52,0.13,-10.56,4.94,102.6
354,1747402659860,0.77,-0.52,0.13,-10.56,4.94,102.6
355,1747402659870,0.69,-0.58,0.1,-11.84,6.65,99.79
356,1747402659880,0.69,-0.58,0.1,-11.84,6.65,99.79
357,1747402659890,0.69,-0.58,0.1,-11.84,6.65,99.79
358,1747402659900,0.69,-0.58,0.1,-11.84,6.65,99.79
359,1747402659910,0.64,-0.62,0.11,-20.69,9.58,87.46
360,1747402659920,0.64,-0.62,0.11,-20.69,9.58,87.46
361,1747402659930,0.64,-0.62,0.11,-20.69,9.58,87.46
362,1747402659940,0.64,-0.62,0.11,-20.69,9.58,87.46
363,1747402659950,0.61,-0.66,0.11,-22.46,12.27,80.08
364,1747402659960,0.61,-0.66,0.11,-22.46,12.27,80.08
365,1747402659970,0.61,-0.66,0.11,-22.46,12.27,80.08
366,1747402659980,0.595,-0.69,0.1,-22.795,11.995,77.945
367,1747402659990,0.58,-0.72,0.09,-23.13,11.72,75.81
368,1747402660000,0.58,-0.72,0.09,-23.13,11.72,75.81
369,1747402660010,0.58,-0.72,0.09,-23.13,11.72,75.81
370,1747402660020,0.5549999999999999,-0.73,0.0849999999999999,-23.405,6.9,76.11500000000001
371,1747402660030,0.53,-0.74,0.08,-23.68,2.08,76.42
372,1747402660040,0.53,-0.74,0.08,-23.68,2.08,76.42
373,1747402660050,0.53,-0.74,0.08,-23.68,2.08,76.42
374,1747402660060,0.52,-0.76,0.08,-18.98,-9.83,72.27
375,1747402660070,0.52,-0.76,0.08,-18.98,-9.83,72.27
376,1747402660080,0.52,-0.76,0.08,-18.98,-9.83,72.27
377,1747402660090,0.52,-0.76,0.08,-18.98,-9.83,72.27
378,1747402660100,0.505,-0.785,0.06,-22.675,-15.385000000000002,80.05
379,1747402660110,0.49,-0.81,0.04,-26.37,-20.94,87.83
380,1747402660120,0.49,-0.81,0.04,-26.37,-20.94,87.83
381,1747402660130,0.49,-0.81,0.04,-26.37,-20.94,87.83
382,1747402660140,0.4,-0.84,0.0,-11.96,6.71,75.81
383,1747402660150,0.4,-0.84,0.0,-11.96,6.71,75.81
384,1747402660160,0.4,-0.84,0.0,-11.96,6.71,75.81
385,1747402660170,0.38,-0.855,0.0,-11.96,6.71,75.81
386,1747402660180,0.36,-0.87,0.0,-11.17,12.88,71.84
387,1747402660190,0.36,-0.87,0.0,-11.17,12.88,71.84
388,1747402660200,0.36,-0.87,0.0,-11.17,12.88,71.84
389,1747402660210,0.35,-0.9,0.005,-11.17,12.88,71.84
390,1747402660220,0.34,-0.93,0.01,-4.15,-0.06,75.99
391,1747402660230,0.34,-0.93,0.01,-4.15,-0.06,75.99
392,1747402660240,0.34,-0.93,0.01,-4.15,-0.06,75.99
393,1747402660250,0.315,-0.925,0.015,-4.15,-0.06,75.99
394,1747402660260,0.29,-0.92,0.02,1.83,11.78,72.69
395,1747402660270,0.29,-0.92,0.02,1.83,11.78,72.69
396,1747402660280,0.29,-0.92,0.02,1.83,11.78,72.69
397,1747402660290,0.18,-0.93,0.08,3.05,13.37,67.26
398,1747402660300,0.18,-0.93,0.08,3.05,13.37,67.26
399,1747402660310,0.18,-0.93,0.08,3.05,13.37,67.26
400,1747402660320,0.18,-0.93,0.08,3.05,13.37,67.26
401,1747402660330,0.13,-0.94,0.08,0.4249999999999998,4.334999999999999,61.370000000000005
402,1747402660340,0.13,-0.94,0.08,-2.2,-4.7,55.48
403,1747402660350,,,,,,
404,1747402660360,0.14,-0.945,0.09,-3.36,-3.785,50.505
405,1747402660370,0.15,-0.95,0.1,-4.52,-2.87,45.53
406,1747402660380,0.15,-0.95,0.1,-4.52,-2.87,45.53
407,1747402660390,0.15,-0.95,0.1,-4.52,-2.87,45.53
408,1747402660400,0.15,-0.95,0.1,-4.52,-2.87,45.53
409,1747402660410,0.11,-0.93,0.12,-9.64,11.05,32.71
410,1747402660420,0.11,-0.93,0.12,-9.64,11.05,32.71
411,1747402660430,0.11,-0.93,0.12,-9.64,11.05,32.71
412,1747402660440,0.08,-0.97,0.1,-12.115,10.99,26.58
413,1747402660450,0.08,-0.97,0.1,-14.59,10.93,20.45
414,1747402660460,0.08,-0.97,0.1,-14.59,10.93,20.45
415,1747402660470,0.08,-0.97,0.1,-14.59,10.93,20.45
416,1747402660480,0.07,-0.98,0.02,-19.96,4.64,22.52
417,1747402660490,0.07,-0.98,0.02,-19.96,4.64,22.52
418,1747402660500,0.07,-0.98,0.02,-19.96,4.64,22.52
419,1747402660510,0.07,-0.98,0.02,-19.96,4.64,22.52
420,1747402660520,0.04,-0.99,-0.02,-13.24,28.5,5.74
421,1747402660530,0.04,-0.99,-0.02,-13.24,28.5,5.74
422,1747402660540,0.04,-0.99,-0.02,-13.24,28.5,5.74
423,1747402660550,0.04,-0.99,-0.02,-13.24,28.5,5.74
424,1747402660560,0.09,-0.99,0.0,-7.08,-5.74,-7.14
425,1747402660570,0.09,-0.99,0.0,-7.08,-5.74,-7.14
426,1747402660580,0.09,-0.99,0.0,-7.08,-5.74,-7.14
427,1747402660590,0.09,-0.99,0.0,-7.08,-5.74,-7.14
428,1747402660600,0.18,-1.0,0.01,0.98,-2.69,-1.16
429,1747402660610,0.18,-1.0,0.01,0.98,-2.69,-1.16
430,1747402660620,0.18,-1.0,0.01,0.98,-2.69,-1.16
431,1747402660630,0.1699999999999999,-1.0,0.02,2.655,-0.215,-0.1849999999999999
432,1747402660640,0.16,-1.0,0.03,4.33,2.26,0.79
433,1747402660650,0.16,-1.0,0.03,4.33,2.26,0.79
434,1747402660660,0.16,-1.0,0.03,4.33,2.26,0.79
435,1747402660670,0.15,-0.99,0.05,2.99,0.61,-3.85
436,1747402660680,0.15,-0.99,0.05,2.99,0.61,-3.85
437,1747402660690,0.15,-0.99,0.05,2.99,0.61,-3.85
438,1747402660700,0.15,-0.99,0.05,2.99,0.61,-3.85
439,1747402660710,0.16,-0.99,0.045,-0.8249999999999997,1.005,-1.1
440,1747402660720,0.17,-0.99,0.04,-4.64,1.4,1.65
441,1747402660730,0.17,-0.99,0.04,-4.64,1.4,1.65
442,1747402660740,0.17,-0.99,0.04,-4.64,1.4,1.65
443,1747402660750,0.15,-0.99,0.02,-0.85,4.52,1.1
444,1747402660760,0.15,-0.99,0.02,-0.85,4.52,1.1
445,1747402660770,0.15,-0.99,0.02,-0.85,4.52,1.1
446,1747402660780,0.15,-0.99,0.02,-0.85,4.52,1.1
447,1747402660790,0.15,-0.99,0.04,-3.17,-4.64,3.91
448,1747402660800,0.15,-0.99,0.04,-3.17,-4.64,3.91
449,1747402660810,0.15,-0.99,0.04,-3.17,-4.64,3.91
450,1747402660820,0.15,-0.99,0.04,-3.17,-4.64,3.91
451,1747402660830,0.16,-0.99,0.03,-0.67,2.62,0.0
452,1747402660840,0.16,-0.99,0.03,-0.67,2.62,0.0
453,1747402660850,0.165,-0.995,0.04,-1.1,0.76,2.045
454,1747402660860,0.17,-1.0,0.05,-1.53,-1.1,4.09
455,1747402660870,0.17,-1.0,0.05,-1.53,-1.1,4.09
456,1747402660880,0.17,-1.0,0.05,-1.53,-1.1,4.09
457,1747402660890,0.155,-0.995,0.05,-2.655,0.3949999999999999,4.335
458,1747402660900,0.14,-0.99,0.05,-3.78,1.89,4.58
459,1747402660910,0.14,-0.99,0.05,-3.78,1.89,4.58
460,1747402660920,0.14,-0.99,0.05,-3.78,1.89,4.58
461,1747402660930,0.12,-0.98,0.04,-1.83,4.64,-1.59
462,1747402660940,0.12,-0.98,0.04,-1.83,4.64,-1.59
463,1747402660950,0.12,-0.98,0.04,-1.83,4.64,-1.59
464,1747402660960,0.15,-0.99,0.05,-5.92,-0.85,0.06
465,1747402660970,0.15,-0.99,0.05,-5.92,-0.85,0.06
466,1747402660980,0.15,-0.99,0.05,-5.92,-0.85,0.06
467,1747402660990,,,,,,
468,1747402661000,,,,,,
469,1747402661010,0.08,-0.99,0.02,-3.23,10.68,-4.64
470,1747402661020,0.08,-0.99,0.02,-3.23,10.68,-4.64
471,1747402661030,0.08,-0.99,0.02,-3.23,10.68,-4.64
472,1747402661040,,,,,,
473,1747402661050,0.09,-0.98,0.05,0.85,0.79,-11.41
474,1747402661060,0.09,-0.98,0.05,0.85,0.79,-11.41
475,1747402661070,,,,,,
476,1747402661080,0.1,-0.98,0.04,6.77,19.35,-17.58
477,1747402661090,0.1,-0.98,0.04,6.77,19.35,-17.58
478,1747402661100,0.1,-0.98,0.04,6.77,19.35,-17.58
479,1747402661110,0.02,-0.95,0.05,10.38,34.0,-38.15
480,1747402661120,0.02,-0.95,0.05,10.38,34.0,-38.15
481,1747402661130,0.02,-0.95,0.05,10.38,34.0,-38.15
482,1747402661140,0.02,-0.95,0.05,10.38,34.0,-38.15
483,1747402661150,0.01,-0.93,0.08,12.57,20.39,-54.08
484,1747402661160,0.01,-0.93,0.08,12.57,20.39,-54.08
485,1747402661170,0.01,-0.93,0.08,12.57,20.39,-54.08
486,1747402661180,0.01,-0.93,0.08,12.57,20.39,-54.08
487,1747402661190,0.05,-0.9,0.04,9.89,10.68,-59.81
488,1747402661200,0.05,-0.9,0.04,9.89,10.68,-59.81
489,1747402661210,0.05,-0.9,0.04,9.89,10.68,-59.81
490,1747402661220,0.05,-0.9,0.04,9.89,10.68,-59.81
491,1747402661230,0.11,-0.87,0.08,20.94,16.78,-80.32
492,1747402661240,0.11,-0.87,0.08,20.94,16.78,-80.32
493,1747402661250,0.11,-0.87,0.08,20.94,16.78,-80.32
494,1747402661260,0.11,-0.87,0.08,20.94,16.78,-80.32
495,1747402661270,0.24,-0.83,0.12,17.15,0.73,-89.9
496,1747402661280,0.24,-0.83,0.12,17.15,0.73,-89.9
497,1747402661290,0.24,-0.83,0.12,17.15,0.73,-89.9
498,1747402661300,0.24,-0.83,0.12,17.15,0.73,-89.9
499,1747402661310,0.35,-0.81,0.13,8.67,9.7,-93.08
500,1747402661320,0.35,-0.81,0.13,8.67,9.7,-93.08
501,1747402661330,0.35,-0.81,0.13,8.67,9.7,-93.08
502,1747402661340,0.44,-0.82,0.1,8.67,9.7,-93.08
503,1747402661350,0.44,-0.82,0.1,11.84,23.56,-95.4
504,1747402661360,0.44,-0.82,0.1,11.84,23.56,-95.4
505,1747402661370,0.44,-0.82,0.1,11.84,23.56,-95.4
506,1747402661380,0.435,-0.78,0.115,11.84,23.56,-95.4
507,1747402661390,0.43,-0.74,0.13,14.71,10.31,-96.19
508,1747402661400,0.43,-0.74,0.13,14.71,10.31,-96.19
509,1747402661410,0.43,-0.74,0.13,14.71,10.31,-96.19
510,1747402661420,0.5,-0.74,0.07,6.04,-32.71,-77.15
511,1747402661430,0.5,-0.74,0.07,6.04,-32.71,-77.15
512,1747402661440,0.5,-0.74,0.07,6.04,-32.71,-77.15
513,1747402661450,0.5,-0.74,0.07,6.04,-32.71,-77.15
514,1747402661460,0.62,-0.69,0.12,22.09,15.14,-94.85
515,1747402661470,0.62,-0.69,0.12,22.09,15.14,-94.85
516,1747402661480,0.62,-0.69,0.12,22.09,15.14,-94.85
517,1747402661490,0.69,-0.6599999999999999,0.155,22.09,15.14,-94.85
518,1747402661500,0.76,-0.63,0.19,3.97,-41.08,-99.12
519,1747402661510,0.76,-0.63,0.19,3.97,-41.08,-99.12
520,1747402661520,0.76,-0.63,0.19,3.97,-41.08,-99.12
521,1747402661530,0.76,-0.63,0.19,3.97,-41.08,-99.12
522,1747402661540,0.93,-0.68,0.17,8.24,-12.82,-77.45
523,1747402661550,0.93,-0.68,0.17,8.24,-12.82,-77.45
524,1747402661560,0.93,-0.68,0.17,8.24,-12.82,-77.45
525,1747402661570,0.865,-0.6200000000000001,0.195,4.79,-0.3700000000000001,-93.75
526,1747402661580,0.8,-0.56,0.22,1.34,12.08,-110.05
527,1747402661590,0.8,-0.56,0.22,1.34,12.08,-110.05
528,1747402661600,0.8,-0.56,0.22,1.34,12.08,-110.05
529,1747402661610,0.91,-0.63,0.12,-1.525,-4.245,-83.435
530,1747402661620,0.91,-0.63,0.12,-4.39,-20.57,-56.82
531,1747402661630,0.91,-0.63,0.12,-4.39,-20.57,-56.82
532,1747402661640,0.91,-0.63,0.12,-4.39,-20.57,-56.82
533,1747402661650,0.91,-0.63,0.12,-4.39,-20.57,-56.82
534,1747402661660,0.79,-0.53,0.12,5.43,16.17,-70.92
535,1747402661670,0.79,-0.53,0.12,5.43,16.17,-70.92
536,1747402661680,0.79,-0.53,0.12,5.43,16.17,-70.92
537,1747402661690,0.95,-0.51,0.18,1.16,-1.4,-76.11
538,1747402661700,0.95,-0.51,0.18,1.16,-1.4,-76.11
539,1747402661710,,,,,,
540,1747402661720,0.95,-0.51,0.18,1.16,-1.4,-76.11
541,1747402661730,0.85,-0.5,0.13,2.5,18.86,-47.61
542,1747402661740,0.85,-0.5,0.13,2.5,18.86,-47.61
543,1747402661750,0.85,-0.5,0.13,2.5,18.86,-47.61
544,1747402661760,0.8300000000000001,-0.44,0.14,2.5,18.86,-47.61
545,1747402661770,0.81,-0.38,0.15,11.11,11.41,-74.83
546,1747402661780,0.81,-0.38,0.15,11.11,11.41,-74.83
547,1747402661790,0.81,-0.38,0.15,11.11,11.41,-74.83
548,1747402661800,1.05,-0.37,0.18,0.73,-41.26,-54.5
549,1747402661810,1.05,-0.37,0.18,0.73,-41.26,-54.5
550,1747402661820,1.05,-0.37,0.18,0.73,-41.26,-54.5
551,1747402661830,1.05,-0.37,0.18,0.73,-41.26,-54.5
552,1747402661840,0.88,-0.39,0.11,2.745,-4.274999999999999,-54.595
553,1747402661850,0.88,-0.39,0.11,4.76,32.71,-54.69
554,1747402661860,0.88,-0.39,0.11,4.76,32.71,-54.69
555,1747402661870,0.88,-0.39,0.11,4.76,32.71,-54.69
556,1747402661880,0.94,-0.23,0.18,19.59,-16.72,-83.68
557,1747402661890,0.94,-0.23,0.18,19.59,-16.72,-83.68
558,1747402661900,0.94,-0.23,0.18,19.59,-16.72,-83.68
559,1747402661910,0.94,-0.23,0.18,19.59,-16.72,-83.68
560,1747402661920,1.2,-0.29,0.19,6.96,-39.06,-46.75
561,1747402661930,1.2,-0.29,0.19,6.96,-39.06,-46.75
562,1747402661940,1.2,-0.29,0.19,6.96,-39.06,-46.75
563,1747402661950,1.11,-0.26,0.18,9.43,-2.2550000000000026,-55.905
564,1747402661960,1.02,-0.23,0.17,11.9,34.55,-65.06
565,1747402661970,1.02,-0.23,0.17,11.9,34.55,-65.06
566,1747402661980,1.02,-0.23,0.17,11.9,34.55,-65.06
567,1747402661990,1.0550000000000002,-0.24,0.155,8.27,7.659999999999998,-53.19
568,1747402662000,1.09,-0.25,0.14,4.64,-19.23,-41.32
569,1747402662010,1.09,-0.25,0.14,4.64,-19.23,-41.32
570,1747402662020,1.09,-0.25,0.14,4.64,-19.23,-41.32
571,1747402662030,1.09,-0.235,0.145,6.99,-5.890000000000001,-41.35
572,1747402662040,1.09,-0.22,0.15,9.34,7.45,-41.38
573,1747402662050,1.09,-0.22,0.15,9.34,7.45,-41.38
574,1747402662060,1.09,-0.22,0.15,9.34,7.45,-41.38
575,1747402662070,1.05,-0.19,0.16,9.34,7.45,-41.38
576,1747402662080,1.05,-0.19,0.16,8.67,4.58,-38.09
577,1747402662090,1.05,-0.19,0.16,8.67,4.58,-38.09
578,1747402662100,1.05,-0.19,0.16,8.67,4.58,-38.09
579,1747402662110,1.19,-0.15,0.21,6.23,-21.73,-26.37
580,1747402662120,1.19,-0.15,0.21,6.23,-21.73,-26.37
581,1747402662130,1.19,-0.15,0.21,6.23,-21.73,-26.37
582,1747402662140,1.19,-0.15,0.21,6.23,-21.73,-26.37
583,1747402662150,1.09,-0.17,0.15,-1.77,-0.61,-19.53
584,1747402662160,1.09,-0.17,0.15,-1.77,-0.61,-19.53
585,1747402662170,1.09,-0.17,0.15,-1.77,-0.61,-19.53
586,1747402662180,1.065,-0.165,0.14,1.8,-0.275,-17.27
587,1747402662190,1.04,-0.16,0.13,5.37,0.06,-15.01
588,1747402662200,1.04,-0.16,0.13,5.37,0.06,-15.01
589,1747402662210,1.04,-0.16,0.13,5.37,0.06,-15.01
590,1747402662220,1.02,-0.145,0.13,3.51,-1.22,-13.09
591,1747402662230,1.0,-0.13,0.13,1.65,-2.5,-11.17
592,1747402662240,1.0,-0.13,0.13,1.65,-2.5,-11.17
593,1747402662250,1.0,-0.13,0.13,1.65,-2.5,-11.17
594,1747402662260,1.05,-0.115,0.145,0.735,-6.135,-10.955
595,1747402662270,1.1,-0.1,0.16,-0.18,-9.77,-10.74
596,1747402662280,1.1,-0.1,0.16,-0.18,-9.77,-10.74
597,1747402662290,1.1,-0.1,0.16,-0.18,-9.77,-10.74
598,1747402662300,1.08,-0.12,0.16,-0.85,-7.69,-2.2
599,1747402662310,1.08,-0.12,0.16,-0.85,-7.69,-2.2
600,1747402662320,1.08,-0.12,0.16,-0.85,-7.69,-2.2
601,1747402662330,1.08,-0.12,0.16,-0.85,-7.69,-2.2
602,1747402662340,1.03,-0.12,0.14,-1.585,-2.135,-2.475
603,1747402662350,1.03,-0.12,0.14,-2.32,3.42,-2.75
604,1747402662360,1.03,-0.12,0.14,-2.32,3.42,-2.75
605,1747402662370,1.03,-0.12,0.14,-2.32,3.42,-2.75
606,1747402662380,1.07,-0.12,0.14,-3.02,-0.2450000000000001,-0.55
607,1747402662390,1.07,-0.12,0.14,-3.72,-3.91,1.65
608,1747402662400,1.07,-0.12,0.14,-3.72,-3.91,1.65
609,1747402662410,1.07,-0.12,0.14,-3.72,-3.91,1.65
610,1747402662420,1.06,-0.12,0.14,-2.87,4.21,5.62
611,1747402662430,1.06,-0.12,0.14,-2.87,4.21,5.62
612,1747402662440,1.06,-0.12,0.14,-2.87,4.21,5.62
613,1747402662450,1.06,-0.12,0.14,-2.87,4.21,5.62
614,1747402662460,1.01,-0.12,0.14,-6.1,1.34,7.69
615,1747402662470,1.01,-0.12,0.14,-6.1,1.34,7.69
616,1747402662480,1.01,-0.12,0.14,-6.1,1.34,7.69
617,1747402662490,1.03,-0.12,0.135,-6.56,-1.13,8.515
618,1747402662500,1.05,-0.12,0.13,-7.02,-3.6,9.34
619,1747402662510,1.05,-0.12,0.13,-7.02,-3.6,9.34
620,1747402662520,1.05,-0.12,0.13,-7.02,-3.6,9.34
621,1747402662530,1.06,-0.12,0.13,-5.98,-1.1,10.225
622,1747402662540,1.07,-0.12,0.13,-4.94,1.4,11.11
623,1747402662550,1.07,-0.12,0.13,-4.94,1.4,11.11
624,1747402662560,1.07,-0.12,0.13,-4.94,1.4,11.11
625,1747402662570,1.09,-0.13,0.14,-5.705,2.105,12.545
626,1747402662580,1.09,-0.13,0.14,-6.47,2.81,13.98
627,1747402662590,1.09,-0.13,0.14,-6.47,2.81,13.98
628,1747402662600,1.09,-0.13,0.14,-6.47,2.81,13.98
629,1747402662610,1.14,-0.15,0.13,-6.35,4.76,18.55
630,1747402662620,1.14,-0.15,0.13,-6.35,4.76,18.55
631,1747402662630,1.14,-0.15,0.13,-6.35,4.76,18.55
632,1747402662640,1.14,-0.15,0.13,-6.35,4.76,18.55
633,1747402662650,1.13,-0.16,0.14,-6.77,8.97,28.02
634,1747402662660,1.13,-0.16,0.14,-6.77,8.97,28.02
635,1747402662670,1.13,-0.16,0.14,-6.77,8.97,28.02
636,1747402662680,1.13,-0.16,0.14,-6.77,8.97,28.02
637,1747402662690,1.13,-0.2,0.14,-7.69,8.42,35.46
638,1747402662700,1.13,-0.2,0.14,-7.69,8.42,35.46
639,1747402662710,1.13,-0.2,0.14,-7.69,8.42,35.46
640,1747402662720,1.13,-0.2,0.14,-7.69,8.42,35.46
641,1747402662730,1.13,-0.22,0.15,-7.93,6.84,44.92
642,1747402662740,1.13,-0.22,0.15,-7.93,6.84,44.92
643,1747402662750,1.13,-0.22,0.15,-7.93,6.84,44.92
644,1747402662760,1.13,-0.22,0.16,-7.23,9.035,48.89
645,1747402662770,1.13,-0.22,0.17,-6.53,11.23,52.86
646,1747402662780,1.13,-0.22,0.17,-6.53,11.23,52.86
647,1747402662790,1.13,-0.22,0.17,-6.53,11.23,52.86
648,1747402662800,1.12,-0.25,0.17,-12.02,5.43,60.24
649,1747402662810,1.12,-0.25,0.17,-12.02,5.43,60.24
650,1747402662820,1.12,-0.25,0.17,-12.02,5.43,60.24
651,1747402662830,1.12,-0.25,0.17,-12.02,5.43,60.24
652,1747402662840,1.12,-0.28,0.17,-13.24,2.81,71.47
653,1747402662850,1.12,-0.28,0.17,-13.24,2.81,71.47
654,1747402662860,1.12,-0.28,0.17,-13.24,2.81,71.47
655,1747402662870,1.12,-0.28,0.17,-13.24,2.81,71.47
656,1747402662880,1.07,-0.29,0.18,-13.73,11.17,77.39
657,1747402662890,1.07,-0.29,0.18,-13.73,11.17,77.39
658,1747402662900,1.07,-0.29,0.18,-13.73,11.17,77.39
659,1747402662910,1.07,-0.29,0.18,-13.73,11.17,77.39
660,1747402662920,1.01,-0.35,0.17,-21.24,3.23,88.93
661,1747402662930,1.01,-0.35,0.17,-21.24,3.23,88.93
662,1747402662940,1.01,-0.35,0.17,-21.24,3.23,88.93
663,1747402662950,0.985,-0.38,0.15,-21.055,7.595000000000001,92.225
664,1747402662960,0.96,-0.41,0.13,-20.87,11.96,95.52
665,1747402662970,0.96,-0.41,0.13,-20.87,11.96,95.52
666,1747402662980,0.96,-0.41,0.13,-20.87,11.96,95.52
667,1747402662990,0.91,-0.42,0.14,-21.725,15.44,95.885
668,1747402663000,0.86,-0.43,0.15,-22.58,18.92,96.25
669,1747402663010,0.86,-0.43,0.15,-22.58,18.92,96.25
670,1747402663020,0.86,-0.43,0.15,-22.58,18.92,96.25
671,1747402663030,0.83,-0.51,0.15,-26.43,17.88,101.5
672,1747402663040,0.83,-0.51,0.15,-26.43,17.88,101.5
673,1747402663050,0.83,-0.51,0.15,-26.43,17.88,101.5
674,1747402663060,0.83,-0.51,0.15,-26.43,17.88,101.5
675,1747402663070,0.75,-0.55,0.15,-26.765,20.75,97.96
676,1747402663080,0.75,-0.55,0.15,-27.1,23.62,94.42
677,1747402663090,0.75,-0.55,0.15,-27.1,23.62,94.42
678,1747402663100,0.75,-0.55,0.15,-27.1,23.62,94.42
679,1747402663110,0.69,-0.59,0.14,-29.66,9.4,96.56
680,1747402663120,0.69,-0.59,0.14,-29.66,9.4,96.56
681,1747402663130,0.69,-0.59,0.14,-29.66,9.4,96.56
682,1747402663140,0.69,-0.59,0.14,-29.66,9.4,96.56
683,1747402663150,0.66,-0.65,0.11,-26.61,10.5,95.34
684,1747402663160,0.66,-0.65,0.11,-26.61,10.5,95.34
685,1747402663170,0.66,-0.65,0.11,-26.61,10.5,95.34
686,1747402663180,0.6100000000000001,-0.665,0.11,-26.03,14.59,92.775
687,1747402663190,0.56,-0.68,0.11,-25.45,18.68,90.21
688,1747402663200,0.56,-0.68,0.11,-25.45,18.68,90.21
689,1747402663210,0.56,-0.68,0.11,-25.45,18.68,90.21
690,1747402663220,0.535,-0.7,0.1,-24.655,16.575,88.96
691,1747402663230,0.51,-0.72,0.09,-23.86,14.47,87.71
692,1747402663240,0.51,-0.72,0.09,-23.86,14.47,87.71
693,1747402663250,0.51,-0.72,0.09,-23.86,14.47,87.71
694,1747402663260,0.485,-0.745,0.09,-23.19,10.045,84.625
695,1747402663270,0.46,-0.77,0.09,-22.52,5.62,81.54
696,1747402663280,0.46,-0.77,0.09,-22.52,5.62,81.54
697,1747402663290,0.46,-0.77,0.09,-22.52,5.62,81.54
698,1747402663300,0.455,-0.785,0.09,-20.355,8.58,78.64
699,1747402663310,0.45,-0.8,0.09,-18.19,11.54,75.74
700,1747402663320,0.45,-0.8,0.09,-18.19,11.54,75.74
701,1747402663330,0.45,-0.8,0.09,-18.19,11.54,75.74
702,1747402663340,0.41,-0.84,0.08,-14.71,43.58,70.62
703,1747402663350,0.41,-0.84,0.08,-14.71,43.58,70.62
704,1747402663360,0.41,-0.84,0.08,-14.71,43.58,70.62
705,1747402663370,0.41,-0.84,0.08,-14.71,43.58,70.62
706,1747402663380,0.35,-0.86,0.1,-14.47,45.23,66.96
707,1747402663390,0.35,-0.86,0.1,-14.47,45.23,66.96
708,1747402663400,0.35,-0.86,0.1,-14.47,45.23,66.96
709,1747402663410,0.35,-0.86,0.1,-14.47,45.23,66.96
710,1747402663420,0.28,-0.88,0.1,-20.02,30.21,70.74
711,1747402663430,0.28,-0.88,0.1,-20.02,30.21,70.74
712,1747402663440,0.28,-0.88,0.1,-20.02,30.21,70.74
713,1747402663450,0.255,-0.895,0.1,-18.19,24.14,64.15
714,1747402663460,0.23,-0.91,0.1,-16.36,18.07,57.56
715,1747402663470,0.23,-0.91,0.1,-16.36,18.07,57.56
716,1747402663480,0.23,-0.91,0.1,-16.36,18.07,57.56
717,1747402663490,0.23,-0.91,0.1,-16.36,18.07,57.56
718,1747402663500,0.24,-0.92,0.14,-15.38,1.83,48.77
719,1747402663510,0.24,-0.92,0.14,-15.38,1.83,48.77
720,1747402663520,0.24,-0.92,0.14,-15.38,1.83,48.77
721,1747402663530,0.22,-0.94,0.11,-19.62,-8.7,50.6
722,1747402663540,0.22,-0.94,0.11,-23.86,-19.23,52.43
723,1747402663550,0.22,-0.94,0.11,-23.86,-19.23,52.43
724,1747402663560,0.22,-0.94,0.11,-23.86,-19.23,52.43
725,1747402663570,0.24,-0.96,0.08,-24.17,-7.14,54.63
726,1747402663580,0.24,-0.96,0.08,-24.17,-7.14,54.63
727,1747402663590,0.24,-0.96,0.08,-24.17,-7.14,54.63
728,1747402663600,0.24,-0.96,0.08,-24.17,-7.14,54.63
729,1747402663610,0.12,-0.96,0.02,-22.245,8.12,48.86
730,1747402663620,0.12,-0.96,0.02,-20.32,23.38,43.09
731,1747402663630,0.12,-0.96,0.02,-20.32,23.38,43.09
732,1747402663640,0.12,-0.96,0.02,-20.32,23.38,43.09
733,1747402663650,0.05,-0.95,0.0,-16.72,12.45,37.29
734,1747402663660,0.05,-0.95,0.0,-16.72,12.45,37.29
735,1747402663670,0.05,-0.95,0.0,-16.72,12.45,37.29
736,1747402663680,0.055,-0.96,0.015,-16.72,12.45,37.29
737,1747402663690,0.06,-0.97,0.03,-15.26,-11.29,26.79
738,1747402663700,0.06,-0.97,0.03,-15.26,-11.29,26.79
739,1747402663710,0.06,-0.97,0.03,-15.26,-11.29,26.79
740,1747402663720,0.07,-0.975,0.04,-14.71,-19.835,27.95
741,1747402663730,0.08,-0.98,0.05,-14.16,-28.38,29.11
742,1747402663740,0.08,-0.98,0.05,-14.16,-28.38,29.11
743,1747402663750,0.08,-0.98,0.05,-14.16,-28.38,29.11
744,1747402663760,0.06,-0.97,0.05,-13.67,-28.23,26.76
745,1747402663770,0.06,-0.97,0.05,-13.18,-28.08,24.41
746,1747402663780,0.06,-0.97,0.05,-13.18,-28.08,24.41
747,1747402663790,0.06,-0.97,0.05,-13.18,-28.08,24.41
748,1747402663800,0.06,-0.97,0.05,-13.18,-28.08,24.41
749,1747402663810,0.06,-1.0,0.05,-14.47,-2.5,20.2
750,1747402663820,0.06,-1.0,0.05,-14.47,-2.5,20.2
751,1747402663830,0.06,-1.0,0.05,-14.47,-2.5,20.2
752,1747402663840,0.04,-0.99,0.05,-14.16,-11.23,19.35
753,1747402663850,0.04,-0.99,0.05,-14.16,-11.23,19.35
754,1747402663860,0.04,-0.99,0.05,-14.16,-11.23,19.35
755,1747402663870,0.04,-0.99,0.05,-14.16,-11.23,19.35
756,1747402663880,0.04,-1.0,-0.01,-23.07,-4.15,17.15
757,1747402663890,0.04,-1.0,-0.01,-23.07,-4.15,17.15
758,1747402663900,0.04,-1.0,-0.01,-23.07,-4.15,17.15
759,1747402663910,0.04,-1.0,-0.01,-23.07,-4.15,17.15
760,1747402663920,-0.01,-1.0,-0.05,-10.86,22.64,9.4
761,1747402663930,-0.01,-1.0,-0.05,-10.86,22.64,9.4
762,1747402663940,-0.01,-1.0,-0.05,-10.86,22.64,9.4
763,1747402663950,-0.03,-0.99,-0.06,-1.59,-2.99,4.33
764,1747402663960,-0.03,-0.99,-0.06,-1.59,-2.99,4.33
765,1747402663970,-0.03,-0.99,-0.06,-1.59,-2.99,4.33
766,1747402663980,-0.03,-0.99,-0.06,-1.59,-2.99,4.33
767,1747402663990,0.03,-1.0,-0.03,2.81,-0.31,0.24
768,1747402664000,0.03,-1.0,-0.03,2.81,-0.31,0.24
769,1747402664010,0.03,-1.0,-0.03,2.81,-0.31,0.24
770,1747402664020,0.03,-1.0,-0.03,2.81,-0.31,0.24
771,1747402664030,0.01,-1.0,-0.01,9.95,16.72,-5.55
772,1747402664040,0.01,-1.0,-0.01,9.95,16.72,-5.55
773,1747402664050,0.01,-1.0,-0.01,9.95,16.72,-5.55
774,1747402664060,0.04,-0.99,0.04,10.74,-2.99,-6.47
775,1747402664070,0.04,-0.99,0.04,10.74,-2.99,-6.47
776,1747402664080,0.04,-0.99,0.04,10.74,-2.99,-6.47
777,1747402664090,0.065,-0.99,0.045,3.935,-6.2250000000000005,-4.915
778,1747402664100,0.09,-0.99,0.05,-2.87,-9.46,-3.36
779,1747402664110,0.09,-0.99,0.05,-2.87,-9.46,-3.36
780,1747402664120,0.09,-0.99,0.05,-2.87,-9.46,-3.36
781,1747402664130,0.09,-0.99,0.05,-2.87,-9.46,-3.36
782,1747402664140,0.12,-1.02,0.03,-5.31,-1.65,-2.62
783,1747402664150,0.12,-1.02,0.03,-5.31,-1.65,-2.62
784,1747402664160,0.12,-1.02,0.03,-5.31,-1.65,-2.62
785,1747402664170,0.09,-1.0,0.01,-3.78,12.88,0.12
786,1747402664180,0.09,-1.0,0.01,-3.78,12.88,0.12
787,1747402664190,0.09,-1.0,0.01,-3.78,12.88,0.12
788,1747402664200,0.09,-1.0,0.01,-3.78,12.88,0.12
789,1747402664210,0.05,-1.0,-0.02,-6.1,5.95,1.985
790,1747402664220,0.05,-1.0,-0.02,-8.42,-0.98,3.85
791,1747402664230,0.05,-1.0,-0.02,-8.42,-0.98,3.85
792,1747402664240,0.05,-1.0,-0.02,-8.42,-0.98,3.85
793,1747402664250,0.05,-1.01,-0.02,-2.56,3.05,2.81
794,1747402664260,0.05,-1.01,-0.02,-2.56,3.05,2.81
795,1747402664270,0.05,-1.01,-0.02,-2.56,3.05,2.81
796,1747402664280,0.035,-0.995,0.0,-1.25,2.745,2.17
797,1747402664290,0.02,-0.98,0.02,0.06,2.44,1.53
798,1747402664300,0.02,-0.98,0.02,0.06,2.44,1.53
799,1747402664310,0.01,-0.98,0.01,0.06,2.44,1.53
800,1747402664320,0.0,-0.98,0.0,-0.73,-1.34,-1.4
801,1747402664330,0.0,-0.98,0.0,-0.73,-1.34,-1.4
802,1747402664340,0.0,-0.98,0.0,-0.73,-1.34,-1.4
803,1747402664350,-0.03,-0.98,-0.02,1.28,3.48,-8.97
804,1747402664360,-0.03,-0.98,-0.02,1.28,3.48,-8.97
805,1747402664370,-0.03,-0.98,-0.02,1.28,3.48,-8.97
806,1747402664380,-0.03,-0.98,-0.02,1.28,3.48,-8.97
807,1747402664390,-0.06,-0.97,-0.02,8.0,6.35,-21.55
808,1747402664400,-0.06,-0.97,-0.02,8.0,6.35,-21.55
809,1747402664410,-0.06,-0.97,-0.02,8.0,6.35,-21.55
810,1747402664420,-0.06,-0.97,-0.02,8.0,6.35,-21.55
811,1747402664430,-0.06,-0.98,-0.02,16.78,7.26,-33.94
812,1747402664440,-0.06,-0.98,-0.02,16.78,7.26,-33.94
813,1747402664450,-0.06,-0.98,-0.02,16.78,7.26,-33.94
814,1747402664460,-0.06,-0.98,-0.02,16.78,7.26,-33.94
815,1747402664470,-0.05,-0.95,0.09,42.72,10.31,-72.88
816,1747402664480,-0.05,-0.95,0.09,42.72,10.31,-72.88
817,1747402664490,-0.05,-0.95,0.09,42.72,10.31,-72.88
818,1747402664500,0.0199999999999999,-0.94,0.095,39.485,-14.864999999999998,-85.695
819,1747402664510,0.09,-0.93,0.1,36.25,-40.04,-98.51
820,1747402664520,0.09,-0.93,0.1,36.25,-40.04,-98.51
821,1747402664530,0.09,-0.93,0.1,36.25,-40.04,-98.51
822,1747402664540,0.24,-0.94,0.02,30.15,-25.21,-85.27
823,1747402664550,0.24,-0.94,0.02,30.15,-25.21,-85.27
824,1747402664560,0.24,-0.94,0.02,30.15,-25.21,-85.27
825,1747402664570,0.24,-0.94,0.02,30.15,-25.21,-85.27
826,1747402664580,0.21,-0.9,0.06,41.99,16.97,-75.62
827,1747402664590,0.21,-0.9,0.06,41.99,16.97,-75.62
828,1747402664600,0.21,-0.9,0.06,41.99,16.97,-75.62
829,1747402664610,0.21,-0.9,0.06,41.99,16.97,-75.62
830,1747402664620,0.27,-0.84,0.12,28.63,-35.83,-80.81
831,1747402664630,0.27,-0.84,0.12,28.63,-35.83,-80.81
832,1747402664640,0.27,-0.84,0.12,28.63,-35.83,-80.81
833,1747402664650,0.27,-0.84,0.12,28.63,-35.83,-80.81
834,1747402664660,0.47,-0.9,0.11,19.47,-65.37,-53.34
835,1747402664670,0.47,-0.9,0.11,19.47,-65.37,-53.34
836,1747402664680,0.47,-0.9,0.11,19.47,-65.37,-53.34
837,1747402664690,0.4599999999999999,-0.845,0.155,19.47,-65.37,-53.34
838,1747402664700,0.45,-0.79,0.2,30.64,21.18,-69.7
839,1747402664710,0.45,-0.79,0.2,30.64,21.18,-69.7
840,1747402664720,0.45,-0.79,0.2,30.64,21.18,-69.7
841,1747402664730,0.405,-0.79,0.185,17.305,6.255,-69.61
842,1747402664740,0.36,-0.79,0.17,3.97,-8.67,-69.52
843,1747402664750,0.36,-0.79,0.17,3.97,-8.67,-69.52
844,1747402664760,0.36,-0.79,0.17,3.97,-8.67,-69.52
845,1747402664770,0.5,-0.78,0.15,7.57,-29.05,-67.75
846,1747402664780,0.5,-0.78,0.15,7.57,-29.05,-67.75
847,1747402664790,0.5,-0.78,0.15,7.57,-29.05,-67.75
848,1747402664800,0.5,-0.78,0.15,7.57,-29.05,-67.75
849,1747402664810,0.52,-0.7,0.16,7.63,9.22,-81.91
850,1747402664820,0.52,-0.7,0.16,7.63,9.22,-81.91
851,1747402664830,0.52,-0.6999999999999998,0.16,7.63,9.22,-81.91
852,1747402664840,0.54,-0.71,0.14,4.455,-1.4299999999999995,-79.65
853,1747402664850,0.56,-0.72,0.12,1.28,-12.08,-77.39
854,1747402664860,0.56,-0.72,0.12,1.28,-12.08,-77.39
855,1747402664870,0.56,-0.72,0.12,1.28,-12.08,-77.39
856,1747402664880,0.655,-0.7,0.14,1.28,-12.08,-77.39
857,1747402664890,0.75,-0.68,0.16,19.65,-12.33,-80.26
858,1747402664900,0.75,-0.68,0.16,19.65,-12.33,-80.26
859,1747402664910,0.75,-0.68,0.16,19.65,-12.33,-80.26
860,1747402664920,0.7,-0.635,0.175,12.48,1.035,-80.385
861,1747402664930,0.65,-0.59,0.19,5.31,14.4,-80.51
862,1747402664940,0.65,-0.59,0.19,5.31,14.4,-80.51
863,1747402664950,0.65,-0.59,0.19,5.31,14.4,-80.51
864,1747402664960,0.65,-0.59,0.19,5.31,14.4,-80.51
865,1747402664970,0.71,-0.66,0.13,2.5,-34.36,-71.41
866,1747402664980,0.71,-0.66,0.13,2.5,-34.36,-71.41
867,1747402664990,0.71,-0.66,0.13,2.5,-34.36,-71.41
868,1747402665000,0.78,-0.6100000000000001,0.16,13.795,-15.32,-76.35499999999999
869,1747402665010,0.85,-0.56,0.19,25.09,3.72,-81.3
870,1747402665020,0.85,-0.56,0.19,25.09,3.72,-81.3
871,1747402665030,0.85,-0.56,0.19,25.09,3.72,-81.3
872,1747402665040,0.82,-0.53,0.17,6.71,-9.4,-74.04
873,1747402665050,0.82,-0.53,0.17,6.71,-9.4,-74.04
874,1747402665060,0.82,-0.53,0.17,6.71,-9.4,-74.04
875,1747402665070,0.82,-0.53,0.17,6.71,-9.4,-74.04
876,1747402665080,1.01,-0.5,0.2,26.67,8.85,-78.92
877,1747402665090,1.01,-0.5,0.2,26.67,8.85,-78.92
878,1747402665100,1.01,-0.5,0.2,26.67,8.85,-78.92
879,1747402665110,1.01,-0.5,0.2,26.67,8.85,-78.92
880,1747402665120,0.85,-0.46,0.18,3.17,-7.32,-62.93
881,1747402665130,0.85,-0.46,0.18,3.17,-7.32,-62.93
882,1747402665140,0.85,-0.46,0.18,3.17,-7.32,-62.93
883,1747402665150,0.885,-0.46,0.16,3.17,-7.32,-62.93
884,1747402665160,0.92,-0.46,0.14,11.47,-8.0,-65.92
885,1747402665170,0.92,-0.46,0.14,11.47,-8.0,-65.92
886,1747402665180,0.92,-0.46,0.14,11.47,-8.0,-65.92
887,1747402665190,0.965,-0.405,0.18,15.075,-9.83,-67.41499999999999
888,1747402665200,1.01,-0.35,0.22,18.68,-11.66,-68.91
889,1747402665210,1.01,-0.35,0.22,18.68,-11.66,-68.91
890,1747402665220,1.01,-0.35,0.22,18.68,-11.66,-68.91
891,1747402665230,1.035,-0.36,0.215,10.07,-35.19,-60.06
892,1747402665240,1.06,-0.37,0.21,1.46,-58.72,-51.21
893,1747402665250,1.06,-0.37,0.21,1.46,-58.72,-51.21
894,1747402665260,1.06,-0.37,0.21,1.46,-58.72,-51.21
895,1747402665270,1.115,-0.36,0.205,8.115,-25.575,-52.275000000000006
896,1747402665280,1.17,-0.35,0.2,14.77,7.57,-53.34
897,1747402665290,1.17,-0.35,0.2,14.77,7.57,-53.34
898,1747402665300,1.17,-0.35,0.2,14.77,7.57,-53.34
899,1747402665310,1.1,-0.31,0.22,7.569999999999999,-2.96,-46.6
900,1747402665320,1.1,-0.31,0.22,0.37,-13.49,-39.86
901,1747402665330,1.1,-0.31,0.22,0.37,-13.49,-39.86
902,1747402665340,1.1,-0.31,0.22,0.37,-13.49,-39.86
903,1747402665350,1.17,-0.34,0.18,-1.22,-29.3,-22.95
904,1747402665360,1.17,-0.34,0.18,-1.22,-29.3,-22.95
905,1747402665370,1.17,-0.34,0.18,-1.22,-29.3,-22.95
906,1747402665380,1.17,-0.34,0.18,-1.22,-29.3,-22.95
907,1747402665390,1.06,-0.33,0.15,-0.73,17.58,-17.94
908,1747402665400,1.06,-0.33,0.15,-0.73,17.58,-17.94
909,1747402665410,1.06,-0.33,0.15,-0.73,17.58,-17.94
910,1747402665420,1.025,-0.325,0.145,-2.5,8.299999999999999,-15.44
911,1747402665430,0.99,-0.32,0.14,-4.27,-0.98,-12.94
912,1747402665440,0.99,-0.32,0.14,-4.27,-0.98,-12.94
913,1747402665450,0.99,-0.32,0.14,-4.27,-0.98,-12.94
914,1747402665460,0.99,-0.305,0.13,-4.27,-0.98,-12.94
915,1747402665470,0.99,-0.29,0.12,0.06,-5.55,-6.59
916,1747402665480,0.99,-0.29,0.12,0.06,-5.55,-6.59
917,1747402665490,0.99,-0.29,0.12,0.06,-5.55,-6.59
918,1747402665500,0.99,-0.27,0.13,0.64,-5.34,-9.155
919,1747402665510,0.99,-0.25,0.14,1.22,-5.13,-11.72
920,1747402665520,0.99,-0.25,0.14,1.22,-5.13,-11.72
921,1747402665530,0.99,-0.25,0.14,1.22,-5.13,-11.72
922,1747402665540,1.0,-0.25,0.145,1.22,-5.13,-11.72
923,1747402665550,1.01,-0.25,0.15,-2.01,-12.51,-6.35
924,1747402665560,1.01,-0.25,0.15,-2.01,-12.51,-6.35
925,1747402665570,1.01,-0.25,0.15,-2.01,-12.51,-6.35
926,1747402665580,1.02,-0.24,0.14,-0.85,0.31,-5.49
927,1747402665590,1.02,-0.24,0.14,-0.85,0.31,-5.49
928,1747402665600,1.02,-0.24,0.14,-0.85,0.31,-5.49
929,1747402665610,1.02,-0.24,0.14,-0.85,0.31,-5.49
930,1747402665620,0.95,-0.24,0.13,-3.97,0.98,-5.74
931,1747402665630,0.95,-0.24,0.13,-3.97,0.98,-5.74
932,1747402665640,0.95,-0.24,0.13,-3.97,0.98,-5.74
933,1747402665650,0.95,-0.24,0.13,-3.97,0.98,-5.74
934,1747402665660,1.0,-0.26,0.12,-3.23,-5.31,-5.37
935,1747402665670,1.0,-0.26,0.12,-3.23,-5.31,-5.37
936,1747402665680,1.0,-0.26,0.12,-3.23,-5.31,-5.37
937,1747402665690,0.985,-0.245,0.125,-2.715,-2.625,-6.165
938,1747402665700,0.97,-0.23,0.13,-2.2,0.06,-6.96
939,1747402665710,0.97,-0.23,0.13,-2.2,0.06,-6.96
940,1747402665720,0.97,-0.23,0.13,-2.2,0.06,-6.96
941,1747402665730,0.98,-0.235,0.12,-3.055,-1.13,-7.875
942,1747402665740,0.99,-0.24,0.11,-3.91,-2.32,-8.79
943,1747402665750,0.99,-0.24,0.11,-3.91,-2.32,-8.79
944,1747402665760,0.99,-0.24,0.11,-3.91,-2.32,-8.79
945,1747402665770,0.98,-0.23,0.12,-1.22,2.32,-7.39
946,1747402665780,0.98,-0.23,0.12,-1.22,2.32,-7.39
947,1747402665790,0.98,-0.23,0.12,-1.22,2.32,-7.39
948,1747402665800,0.98,-0.23,0.12,-1.22,2.32,-7.39
949,1747402665810,0.97,-0.23,0.11,-0.37,0.49,-8.0
950,1747402665820,0.97,-0.23,0.11,-0.37,0.49,-8.0
951,1747402665830,0.97,-0.23,0.11,-0.37,0.49,-8.0
952,1747402665840,0.995,-0.215,0.12,-0.885,0.09,-8.73
953,1747402665850,1.02,-0.2,0.13,-1.4,-0.31,-9.46
954,1747402665860,1.02,-0.2,0.13,-1.4,-0.31,-9.46
955,1747402665870,1.02,-0.2,0.13,-1.3999999999999997,-0.31,-9.46
956,1747402665880,1.02,-0.2,0.125,-1.25,0.8499999999999999,-8.18
957,1747402665890,1.02,-0.2,0.12,-1.1,2.01,-6.9
958,1747402665900,1.02,-0.2,0.12,-1.1,2.01,-6.9
959,1747402665910,1.02,-0.2,0.12,-1.1,2.01,-6.9
960,1747402665920,1.06,-0.2,0.13,-1.1,2.01,-6.9
961,1747402665930,1.06,-0.2,0.13,-0.85,4.15,-5.49
962,1747402665940,1.06,-0.2,0.13,-0.85,4.15,-5.49
963,1747402665950,1.06,-0.2,0.13,-0.85,4.15,-5.49
964,1747402665960,1.065,-0.205,0.13,-1.8,2.7150000000000003,-2.685
965,1747402665970,1.07,-0.21,0.13,-2.75,1.28,0.12
966,1747402665980,1.07,-0.21,0.13,-2.75,1.28,0.12
967,1747402665990,1.07,-0.21,0.13,-2.75,1.28,0.12
968,1747402666000,1.07,-0.215,0.13,-1.985,1.34,2.625
969,1747402666010,1.07,-0.22,0.13,-1.22,1.4,5.13
970,1747402666020,1.07,-0.22,0.13,-1.22,1.4,5.13
971,1747402666030,1.07,-0.22,0.13,-1.22,1.4,5.13
972,1747402666040,1.12,-0.21,0.14,-3.97,-5.92,11.9
973,1747402666050,1.12,-0.21,0.14,-3.97,-5.92,11.9
974,1747402666060,1.12,-0.21,0.14,-3.97,-5.92,11.9
975,1747402666070,1.16,-0.2249999999999999,0.14,-5.37,-7.965,18.035
976,1747402666080,1.2,-0.24,0.14,-6.77,-10.01,24.17
977,1747402666090,1.2,-0.24,0.14,-6.77,-10.01,24.17
978,1747402666100,1.2,-0.24,0.14,-6.77,-10.01,24.17
979,1747402666110,1.2,-0.24,0.14,-6.77,-10.01,24.17
980,1747402666120,1.18,-0.26,0.14,-2.38,22.4,33.33
981,1747402666130,1.18,-0.26,0.14,-2.38,22.4,33.33
982,1747402666140,1.18,-0.26,0.14,-2.38,22.4,33.33
983,1747402666150,1.18,-0.26,0.14,-2.38,22.4,33.33
984,1747402666160,1.11,-0.28,0.15,-4.58,27.16,44.74
985,1747402666170,1.11,-0.28,0.15,-4.58,27.16,44.74
986,1747402666180,1.11,-0.28,0.15,-4.58,27.16,44.74
987,1747402666190,1.17,-0.29,0.17,-7.14,16.05,53.16
988,1747402666200,1.17,-0.29,0.17,-7.14,16.05,53.16
989,1747402666210,1.17,-0.29,0.17,-7.14,16.05,53.16
990,1747402666220,1.17,-0.29,0.17,-7.14,16.05,53.16
991,1747402666230,1.09,-0.33,0.18,-10.25,23.44,70.86
992,1747402666240,1.09,-0.33,0.18,-10.25,23.44,70.86
993,1747402666250,1.09,-0.33,0.18,-10.25,23.44,70.86
994,1747402666260,1.09,-0.33,0.18,-10.25,23.44,70.86
995,1747402666270,1.045,-0.335,0.175,-11.23,18.16,71.93
996,1747402666280,1.0,-0.34,0.17,-12.21,12.88,73.0
997,1747402666290,1.0,-0.34,0.17,-12.21,12.88,73.0
998,1747402666300,1.0,-0.34,0.17,-12.21,12.88,73.0
999,1747402666310,1.02,-0.39,0.19,-15.56,2.32,86.85
1000,1747402666320,1.02,-0.39,0.19,-15.56,2.32,86.85
