id,timestamp,acc_x,acc_y,acc_z,gyro_x,gyro_y,gyro_z
0,1747401408320,0.44,-0.06,-1.01,13.24,-18.37,-14.04
1,1747401408330,,,,,,
2,1747401408340,0.44,-0.06,-1.01,13.24,-18.37,-14.04
3,1747401408350,0.45,-0.05,-1.03,4.52,-23.68,-4.52
4,1747401408360,0.45,-0.05,-1.03,4.52,-23.68,-4.52
5,1747401408370,0.45,-0.05,-1.03,4.52,-23.68,-4.52
6,1747401408380,0.55,-0.07,-1.05,4.52,-23.68,-4.52
7,1747401408390,0.55,-0.07,-1.05,9.95,-7.51,-10.38
8,1747401408400,0.55,-0.07,-1.05,9.95,-7.51,-10.38
9,1747401408410,0.525,-0.05,-1.11,24.505000000000003,-5.859999999999999,-15.015
10,1747401408420,,,,,,
11,1747401408430,0.5,-0.03,-1.17,39.06,-4.21,-19.65
12,1747401408440,0.5,-0.03,-1.17,39.06,-4.21,-19.65
13,1747401408450,0.47,-0.03,-1.08,39.06,-4.21,-19.65
14,1747401408460,0.47,-0.03,-1.08,9.64,-7.14,-19.35
15,1747401408470,0.47,-0.03,-1.08,9.64,-7.14,-19.35
16,1747401408480,0.47,-0.03,-1.08,9.64,-7.14,-19.35
17,1747401408490,0.4599999999999999,-0.095,-1.0950000000000002,0.4850000000000003,-4.18,-9.155
18,1747401408500,0.45,-0.16,-1.11,-8.67,-1.22,1.04
19,1747401408510,0.45,-0.16,-1.11,-8.67,-1.22,1.04
20,1747401408520,0.45,-0.16,-1.11,-8.67,-1.22,1.04
21,1747401408530,0.45,-0.13,-1.18,-0.43,-26.49,24.54
22,1747401408540,0.45,-0.13,-1.18,-0.43,-26.49,24.54
23,1747401408550,0.45,-0.13,-1.18,-0.43,-26.49,24.54
24,1747401408560,0.45,-0.13,-1.18,-0.43,-26.49,24.54
25,1747401408570,0.53,-0.08,-1.03,-38.27,-16.78,38.15
26,1747401408580,0.53,-0.08,-1.03,-38.27,-16.78,38.15
27,1747401408590,0.53,-0.08,-1.03,-38.27,-16.78,38.15
28,1747401408600,0.53,-0.08,-1.03,-38.27,-16.78,38.15
29,1747401408610,0.42,-0.2,-1.13,-23.93,-25.51,47.49
30,1747401408620,0.42,-0.2,-1.13,-23.93,-25.51,47.49
31,1747401408630,0.42,-0.2,-1.13,-23.93,-25.51,47.49
32,1747401408640,0.4499999999999999,-0.145,-1.09,-8.915,-16.815,34.825
33,1747401408650,0.48,-0.09,-1.05,6.1,-8.12,22.16
34,1747401408660,0.48,-0.09,-1.05,6.1,-8.12,22.16
35,1747401408670,0.48,-0.09,-1.05,6.1,-8.12,22.16
36,1747401408680,0.48,-0.09,-1.05,6.1,-8.12,22.16
37,1747401408690,0.34,-0.11,-0.93,7.26,8.18,17.64
38,1747401408700,0.34,-0.11,-0.93,7.26,8.18,17.64
39,1747401408710,0.34,-0.11,-0.93,7.26,8.18,17.64
40,1747401408720,0.36,-0.09,-0.93,4.33,2.32,16.51
41,1747401408730,0.36,-0.09,-0.93,1.4,-3.54,15.38
42,1747401408740,0.36,-0.09,-0.93,1.4,-3.54,15.38
43,1747401408750,0.36,-0.09,-0.93,1.4,-3.54,15.38
44,1747401408760,0.29,-0.1,-0.88,7.75,-2.5,26.0
45,1747401408770,0.29,-0.1,-0.88,7.75,-2.5,26.0
46,1747401408780,0.29,-0.1,-0.88,7.75,-2.5,26.0
47,1747401408790,0.29,-0.1,-0.88,7.75,-2.5,26.0
48,1747401408800,0.19,-0.11,-0.86,26.73,-1.53,26.86
49,1747401408810,0.19,-0.11,-0.86,26.73,-1.53,26.86
50,1747401408820,0.19,-0.11,-0.86,26.73,-1.53,26.86
51,1747401408830,0.19,-0.11,-0.86,26.73,-1.53,26.86
52,1747401408840,0.11,-0.15,-0.9,13.49,16.17,31.62
53,1747401408850,0.11,-0.15,-0.9,13.49,16.17,31.62
54,1747401408860,0.11,-0.15,-0.9,13.49,16.17,31.62
55,1747401408870,0.0849999999999999,-0.16,-0.89,26.095,21.085,28.87
56,1747401408880,0.06,-0.17,-0.88,38.7,26.0,26.12
57,1747401408890,0.06,-0.17,-0.88,38.7,26.0,26.12
58,1747401408900,0.06,-0.17,-0.88,38.7,26.0,26.12
59,1747401408910,0.06,-0.165,-0.86,32.015,17.945,25.205
60,1747401408920,0.06,-0.16,-0.84,25.33,9.89,24.29
61,1747401408930,0.06,-0.16,-0.84,25.33,9.89,24.29
62,1747401408940,0.06,-0.16,-0.84,25.33,9.89,24.29
63,1747401408950,0.05,-0.21,-0.85,-1.59,14.04,31.19
64,1747401408960,0.05,-0.21,-0.85,-1.59,14.04,31.19
65,1747401408970,0.05,-0.21,-0.85,-1.59,14.04,31.19
66,1747401408980,0.05,-0.21,-0.85,-1.59,14.04,31.19
67,1747401408990,0.05,-0.21,-0.85,-1.59,14.04,31.19
68,1747401409000,0.02,-0.3,-0.87,2.01,8.97,28.44
69,1747401409010,0.02,-0.3,-0.87,2.01,8.97,28.44
70,1747401409020,0.02,-0.3,-0.87,2.01,8.97,28.44
71,1747401409030,-0.05,-0.28,-0.89,4.76,17.21,23.74
72,1747401409040,-0.05,-0.28,-0.89,4.76,17.21,23.74
73,1747401409050,-0.05,-0.28,-0.89,4.76,17.21,23.74
74,1747401409060,-0.05,-0.28,-0.89,4.76,17.21,23.74
75,1747401409070,-0.09,-0.32,-0.91,-16.72,-1.4,22.28
76,1747401409080,-0.09,-0.32,-0.91,-16.72,-1.4,22.28
77,1747401409090,-0.09,-0.32,-0.91,-16.72,-1.4,22.28
78,1747401409100,-0.075,-0.33,-0.95,-16.72,-1.4,22.28
79,1747401409110,-0.06,-0.34,-0.99,-17.46,15.63,3.23
80,1747401409120,-0.06,-0.34,-0.99,-17.46,15.63,3.23
81,1747401409130,-0.06,-0.34,-0.99,-17.46,15.63,3.23
82,1747401409140,-0.14,-0.41,-0.98,-17.46,15.63,3.23
83,1747401409150,-0.14,-0.41,-0.98,-17.46,13.61,6.9
84,1747401409160,-0.14,-0.41,-0.98,-17.46,13.61,6.9
85,1747401409170,-0.14,-0.41,-0.98,-17.46,13.61,6.9
86,1747401409180,-0.1,-0.4,-1.11,-32.47,23.19,13.37
87,1747401409190,-0.1,-0.4,-1.11,-32.47,23.19,13.37
88,1747401409200,-0.1,-0.4,-1.11,-32.47,23.19,13.37
89,1747401409210,-0.1,-0.4,-1.11,-32.47,23.19,13.37
90,1747401409220,-0.23,-0.52,-1.21,-34.605000000000004,20.11,12.39
91,1747401409230,-0.23,-0.52,-1.21,-36.74,17.03,11.41
92,1747401409240,-0.23,-0.52,-1.21,-36.74,17.03,11.41
93,1747401409250,-0.23,-0.52,-1.21,-36.74,17.03,11.41
94,1747401409260,-0.2,-0.44,-1.21,9.16,-10.07,-5.8
95,1747401409270,-0.2,-0.44,-1.21,9.16,-10.07,-5.8
96,1747401409280,-0.2,-0.44,-1.21,9.16,-10.07,-5.8
97,1747401409290,-0.2,-0.44,-1.21,9.16,-10.07,-5.8
98,1747401409300,-0.16,-0.51,-1.25,-8.42,-28.93,-11.17
99,1747401409310,-0.16,-0.51,-1.25,-8.42,-28.93,-11.17
100,1747401409320,-0.16,-0.51,-1.25,-8.42,-28.93,-11.17
101,1747401409330,-0.16,-0.51,-1.25,-8.42,-28.93,-11.17
102,1747401409340,-0.2,-0.5,-1.21,15.87,-7.2,-5.8
103,1747401409350,-0.2,-0.5,-1.21,15.87,-7.2,-5.8
104,1747401409360,-0.2,-0.5,-1.21,15.87,-7.2,-5.8
105,1747401409370,-0.25,-0.44,-1.19,14.04,-1.83,0.12
106,1747401409380,-0.25,-0.44,-1.19,14.04,-1.83,0.12
107,1747401409390,-0.25,-0.44,-1.19,14.04,-1.83,0.12
108,1747401409400,-0.25,-0.44,-1.19,14.04,-1.83,0.12
109,1747401409410,-0.23,-0.39,-1.11,-3.91,-29.11,3.54
110,1747401409420,-0.23,-0.39,-1.11,-3.91,-29.11,3.54
111,1747401409430,-0.23,-0.39,-1.11,-3.91,-29.11,3.54
112,1747401409440,-0.23,-0.39,-1.11,-3.91,-29.11,3.54
113,1747401409450,-0.21,-0.4,-1.04,-14.47,-23.07,0.79
114,1747401409460,-0.21,-0.4,-1.04,-14.47,-23.07,0.79
115,1747401409470,-0.21,-0.4,-1.04,-14.47,-23.07,0.79
116,1747401409480,-0.21,-0.4,-1.04,-14.47,-23.07,0.79
117,1747401409490,-0.25,-0.56,-0.9,-36.8,7.14,26.25
118,1747401409500,-0.25,-0.56,-0.9,-36.8,7.14,26.25
119,1747401409510,-0.25,-0.56,-0.9,-36.8,7.14,26.25
120,1747401409520,-0.25,-0.56,-0.9,-36.8,7.14,26.25
121,1747401409530,-0.27,-0.35,-1.01,-5.62,-8.73,3.72
122,1747401409540,-0.27,-0.35,-1.01,-5.62,-8.73,3.72
123,1747401409550,-0.27,-0.35,-1.01,-5.62,-8.73,3.72
124,1747401409560,-0.22,-0.36,-1.025,-5.955,-14.68,5.795
125,1747401409570,-0.17,-0.37,-1.04,-6.29,-20.63,7.87
126,1747401409580,-0.17,-0.37,-1.04,-6.29,-20.63,7.87
127,1747401409590,-0.17,-0.37,-1.04,-6.29,-20.63,7.87
128,1747401409600,-0.135,-0.355,-0.965,-6.29,-20.63,7.87
129,1747401409610,-0.1,-0.34,-0.89,-18.49,-7.87,43.09
130,1747401409620,-0.1,-0.34,-0.89,-18.49,-7.87,43.09
131,1747401409630,-0.1,-0.34,-0.89,-18.49,-7.87,43.09
132,1747401409640,-0.08,-0.2,-0.95,-58.41,-4.39,57.43
133,1747401409650,-0.08,-0.2,-0.95,-58.41,-4.39,57.43
134,1747401409660,-0.08,-0.2,-0.95,-58.41,-4.39,57.43
135,1747401409670,-0.08,-0.2,-0.95,-58.41,-4.39,57.43
136,1747401409680,-0.07,-0.25,-1.03,-36.65,-8.45,21.79
137,1747401409690,-0.07,-0.25,-1.03,-14.89,-12.51,-13.85
138,1747401409700,-0.07,-0.25,-1.03,-14.89,-12.51,-13.85
139,1747401409710,-0.07,-0.25,-1.03,-14.89,-12.51,-13.85
140,1747401409720,-0.03,-0.16,-0.92,-26.61,-37.17,23.19
141,1747401409730,-0.03,-0.16,-0.92,-26.61,-37.17,23.19
142,1747401409740,-0.03,-0.16,-0.92,-26.61,-37.17,23.19
143,1747401409750,-0.03,-0.16,-0.92,-26.61,-37.17,23.19
144,1747401409760,0.01,-0.09,-0.99,-23.74,-7.51,-15.08
145,1747401409770,0.01,-0.09,-0.99,-23.74,-7.51,-15.08
146,1747401409780,0.01,-0.09,-0.99,-23.74,-7.51,-15.08
147,1747401409790,0.015,-0.095,-1.005,-13.76,-5.34,-10.62
148,1747401409800,0.02,-0.1,-1.02,-3.78,-3.17,-6.16
149,1747401409810,0.02,-0.1,-1.02,-3.78,-3.17,-6.16
150,1747401409820,0.02,-0.1,-1.02,-3.78,-3.17,-6.16
151,1747401409830,0.07,0.0,-0.97,-3.78,-3.17,-6.16
152,1747401409840,0.07,0.0,-0.97,-28.44,-10.44,10.74
153,1747401409850,0.07,0.0,-0.97,-28.44,-10.44,10.74
154,1747401409860,0.07,0.0,-0.97,-28.44,-10.44,10.74
155,1747401409870,0.05,-0.05,-1.03,-17.76,-26.0,-23.07
156,1747401409880,0.05,-0.05,-1.03,-17.76,-26.0,-23.07
157,1747401409890,0.05,-0.05,-1.03,-17.76,-26.0,-23.07
158,1747401409900,0.05,-0.05,-1.03,-17.76,-26.0,-23.07
159,1747401409910,0.105,-0.045,-0.985,-28.075000000000003,-33.72,-11.78
160,1747401409920,0.16,-0.04,-0.94,-38.39,-41.44,-0.49
161,1747401409930,0.16,-0.04,-0.94,-38.39,-41.44,-0.49
162,1747401409940,0.15,-0.04,-0.93,-14.22,2.75,-11.41
163,1747401409950,0.15,-0.04,-0.93,-14.22,2.75,-11.41
164,1747401409960,0.15,-0.04,-0.93,-14.22,2.75,-11.41
165,1747401409970,0.12,0.03,-0.99,-7.69,-7.81,-31.8
166,1747401409980,0.12,0.03,-0.99,-7.69,-7.81,-31.8
167,1747401409990,0.12,0.03,-0.99,-7.69,-7.81,-31.8
168,1747401410000,0.12,0.03,-0.99,-7.69,-7.81,-31.8
169,1747401410010,0.185,0.02,-0.97,-13.855,-7.66,-28.14
170,1747401410020,0.25,0.01,-0.95,-20.02,-7.51,-24.48
171,1747401410030,0.25,0.01,-0.95,-20.02,-7.51,-24.48
172,1747401410040,0.25,0.01,-0.95,-20.02,-7.51,-24.48
173,1747401410050,0.235,0.01,-1.0,-20.02,-7.51,-24.48
174,1747401410060,0.22,0.01,-1.05,-15.99,12.63,-27.47
175,1747401410070,0.22,0.01,-1.05,-15.99,12.63,-27.47
176,1747401410080,0.22,0.01,-1.05,-15.99,12.63,-27.47
177,1747401410090,0.31,0.07,-1.07,-0.79,2.62,-32.04
178,1747401410100,0.31,0.07,-1.07,-0.79,2.62,-32.04
179,1747401410110,0.31,0.07,-1.07,-0.79,2.62,-32.04
180,1747401410120,0.31,0.07,-1.07,-0.79,2.62,-32.04
181,1747401410130,0.39,0.06,-1.07,-12.15,25.57,-41.69
182,1747401410140,0.39,0.06,-1.07,-12.15,25.57,-41.69
183,1747401410150,0.39,0.06,-1.07,-12.15,25.57,-41.69
184,1747401410160,0.39,0.06,-1.07,-12.15,25.57,-41.69
185,1747401410170,0.38,-0.02,-1.21,-16.78,23.38,-26.12
186,1747401410180,0.38,-0.02,-1.21,-16.78,23.38,-26.12
187,1747401410190,0.38,-0.02,-1.21,-16.78,23.38,-26.12
188,1747401410200,0.38,-0.02,-1.21,-16.78,23.38,-26.12
189,1747401410210,0.45,0.04,-1.22,-4.52,12.76,-18.92
190,1747401410220,0.45,0.04,-1.22,-4.52,12.76,-18.92
191,1747401410230,0.45,0.04,-1.22,-4.52,12.76,-18.92
192,1747401410240,0.45,0.04,-1.22,-4.52,12.76,-18.92
193,1747401410250,0.45,0.02,-1.22,-1.34,23.56,-10.13
194,1747401410260,0.45,0.02,-1.22,-1.34,23.56,-10.13
195,1747401410270,0.45,0.02,-1.22,-1.34,23.56,-10.13
196,1747401410280,0.435,0.04,-1.215,3.845,17.305,0.3049999999999997
197,1747401410290,0.42,0.06,-1.21,9.03,11.05,10.74
198,1747401410300,0.42,0.06,-1.21,9.03,11.05,10.74
199,1747401410310,0.42,0.06,-1.21,9.03,11.05,10.74
200,1747401410320,0.43,0.08,-1.165,2.135,14.985,13.03
201,1747401410330,0.44,0.1,-1.12,-4.76,18.92,15.32
202,1747401410340,0.44,0.1,-1.12,-4.76,18.92,15.32
203,1747401410350,0.44,0.1,-1.12,-4.76,18.92,15.32
204,1747401410360,0.38,-0.08,-1.11,-2.195,21.24,23.195
205,1747401410370,0.38,-0.08,-1.11,0.37,23.56,31.07
206,1747401410380,0.38,-0.08,-1.11,0.37,23.56,31.07
207,1747401410390,0.38,-0.08,-1.11,0.37,23.56,31.07
208,1747401410400,0.38,0.06,-1.13,6.23,-6.96,35.46
209,1747401410410,0.38,0.06,-1.13,6.23,-6.96,35.46
210,1747401410420,0.38,0.06,-1.13,6.23,-6.96,35.46
211,1747401410430,0.38,0.06,-1.13,6.23,-6.96,35.46
212,1747401410440,0.32,0.02,-0.98,24.66,8.67,11.84
213,1747401410450,0.32,0.02,-0.98,24.66,8.67,11.84
214,1747401410460,0.32,0.02,-0.98,24.66,8.67,11.84
215,1747401410470,0.315,0.01,-1.0,9.705,2.4450000000000003,17.515
216,1747401410480,0.31,0.0,-1.02,-5.25,-3.78,23.19
217,1747401410490,0.31,0.0,-1.02,-5.25,-3.78,23.19
218,1747401410500,0.31,0.0,-1.02,-5.25,-3.78,23.19
219,1747401410510,0.265,-0.015,-0.955,7.57,3.755,12.115
220,1747401410520,0.22,-0.03,-0.89,20.39,11.29,1.04
221,1747401410530,0.22,-0.03,-0.89,20.39,11.29,1.04
222,1747401410540,0.22,-0.03,-0.89,20.39,11.29,1.04
223,1747401410550,0.22,-0.03,-0.89,20.39,11.29,1.04
224,1747401410560,0.24,0.0,-0.89,-25.33,8.24,11.84
225,1747401410570,0.24,0.0,-0.89,-25.33,8.24,11.84
226,1747401410580,0.24,0.0,-0.89,-25.33,8.24,11.84
227,1747401410590,0.13,-0.14,-0.98,-25.33,8.24,11.84
228,1747401410600,0.13,-0.14,-0.98,-8.06,24.17,11.84
229,1747401410610,0.13,-0.14,-0.98,-8.06,24.17,11.84
230,1747401410620,0.13,-0.14,-0.98,-8.06,24.17,11.84
231,1747401410630,0.13,-0.02,-0.95,5.55,11.72,10.13
232,1747401410640,0.13,-0.02,-0.95,5.55,11.72,10.13
233,1747401410650,0.13,-0.02,-0.95,5.55,11.72,10.13
234,1747401410660,0.11,-0.0849999999999999,-0.95,5.55,11.72,10.13
235,1747401410670,0.09,-0.15,-0.95,-19.9,7.08,29.79
236,1747401410680,0.09,-0.15,-0.95,-19.9,7.08,29.79
237,1747401410690,0.09,-0.15,-0.95,-19.9,7.08,29.79
238,1747401410700,0.065,-0.14,-0.945,2.625,13.46,26.795
239,1747401410710,0.04,-0.13,-0.94,25.15,19.84,23.8
240,1747401410720,0.04,-0.13,-0.94,25.15,19.84,23.8
241,1747401410730,0.04,-0.13,-0.94,25.15,19.84,23.8
242,1747401410740,0.035,-0.075,-0.94,23.655,17.0,17.33
243,1747401410750,0.03,-0.02,-0.94,22.16,14.16,10.86
244,1747401410760,0.03,-0.02,-0.94,22.16,14.16,10.86
245,1747401410770,0.03,-0.02,-0.94,22.16,14.16,10.86
246,1747401410780,0.02,-0.0849999999999999,-0.92,10.04,-1.0399999999999991,10.525
247,1747401410790,0.01,-0.15,-0.9,-2.08,-16.24,10.19
248,1747401410800,0.01,-0.15,-0.9,-2.08,-16.24,10.19
249,1747401410810,0.01,-0.15,-0.9,-2.08,-16.24,10.19
250,1747401410820,0.02,-0.12,-0.92,16.24,0.92,10.01
251,1747401410830,0.02,-0.12,-0.92,16.24,0.92,10.01
252,1747401410840,0.02,-0.12,-0.92,16.24,0.92,10.01
253,1747401410850,0.02,-0.12,-0.92,16.24,0.92,10.01
254,1747401410860,-0.03,-0.12,-0.94,5.25,7.51,4.09
255,1747401410870,-0.03,-0.12,-0.94,5.25,7.51,4.09
256,1747401410880,-0.03,-0.12,-0.94,5.25,7.51,4.09
257,1747401410890,-0.03,-0.12,-0.94,5.25,7.51,4.09
258,1747401410900,-0.01,-0.19,-0.94,10.93,-0.67,2.56
259,1747401410910,-0.01,-0.19,-0.94,10.93,-0.67,2.56
260,1747401410920,-0.01,-0.19,-0.94,10.93,-0.67,2.56
261,1747401410930,-0.01,-0.19,-0.94,10.93,-0.67,2.56
262,1747401410940,-0.03,-0.12,-0.97,14.71,12.15,-0.37
263,1747401410950,-0.03,-0.12,-0.97,14.71,12.15,-0.37
264,1747401410960,-0.03,-0.12,-0.97,14.71,12.15,-0.37
265,1747401410970,-0.06,-0.185,-0.975,18.130000000000003,11.875,2.47
266,1747401410980,-0.09,-0.25,-0.98,21.55,11.6,5.31
267,1747401410990,-0.09,-0.25,-0.98,21.55,11.6,5.31
268,1747401411000,-0.09,-0.25,-0.98,21.55,11.6,5.31
269,1747401411010,-0.09,-0.25,-0.98,21.55,11.6,5.31
270,1747401411020,-0.24,-0.24,-0.9,55.85,35.28,-10.5
271,1747401411030,-0.24,-0.24,-0.9,55.85,35.28,-10.5
272,1747401411040,-0.24,-0.24,-0.9,55.85,35.28,-10.5
273,1747401411050,-0.24,-0.295,-0.97,26.34,33.235,-10.315
274,1747401411060,-0.24,-0.35,-1.04,-3.17,31.19,-10.13
275,1747401411070,-0.24,-0.35,-1.04,-3.17,31.19,-10.13
276,1747401411080,-0.24,-0.35,-1.04,-3.17,31.19,-10.13
277,1747401411090,-0.21,-0.46,-1.28,-4.27,53.89,-11.41
278,1747401411100,-0.21,-0.46,-1.28,-4.27,53.89,-11.41
279,1747401411110,-0.21,-0.46,-1.28,-4.27,53.89,-11.41
280,1747401411120,-0.21,-0.46,-1.28,-4.27,53.89,-11.41
281,1747401411130,-0.16,-0.445,-1.35,-4.545,44.705,-11.29
282,1747401411140,-0.11,-0.43,-1.42,-4.82,35.52,-11.17
283,1747401411150,-0.11,-0.43,-1.42,-4.82,35.52,-11.17
284,1747401411160,-0.095,-0.42,-1.4249999999999998,-4.82,35.52,-11.17
285,1747401411170,-0.08,-0.41,-1.43,-3.85,27.22,-15.38
286,1747401411180,-0.08,-0.41,-1.43,-3.85,27.22,-15.38
287,1747401411190,-0.08,-0.41,-1.43,-3.85,27.22,-15.38
288,1747401411200,-0.08,-0.41,-1.43,-3.85,27.22,-15.38
289,1747401411210,-0.03,-0.43,-1.42,-1.34,-21.0,-9.09
290,1747401411220,-0.03,-0.43,-1.42,-1.34,-21.0,-9.09
291,1747401411230,-0.03,-0.43,-1.42,-1.34,-21.0,-9.09
292,1747401411240,-0.0049999999999999,-0.425,-1.345,-2.53,-31.465,-4.33
293,1747401411250,0.02,-0.42,-1.27,-3.72,-41.93,0.43
294,1747401411260,0.02,-0.42,-1.27,-3.72,-41.93,0.43
295,1747401411270,0.02,-0.42,-1.27,-3.72,-41.93,0.43
296,1747401411280,-0.025,-0.42,-1.2,1.62,-34.18,5.1
297,1747401411290,-0.07,-0.42,-1.13,6.96,-26.43,9.77
298,1747401411300,-0.07,-0.42,-1.13,6.96,-26.43,9.77
299,1747401411310,-0.07,-0.42,-1.13,6.96,-26.43,9.77
300,1747401411320,-0.125,-0.4,-1.1,3.755,-24.66,14.255
301,1747401411330,-0.18,-0.38,-1.07,0.55,-22.89,18.74
302,1747401411340,-0.18,-0.38,-1.07,0.55,-22.89,18.74
303,1747401411350,-0.18,-0.38,-1.07,0.55,-22.89,18.74
304,1747401411360,,,,,,
305,1747401411370,-0.18,-0.31,-1.03,-3.54,-25.33,12.39
306,1747401411380,-0.18,-0.31,-1.03,-3.54,-25.33,12.39
307,1747401411390,-0.18,-0.31,-1.03,-3.54,-25.33,12.39
308,1747401411400,-0.14,-0.35,-1.02,-23.13,-22.64,2.38
309,1747401411410,-0.14,-0.35,-1.02,-23.13,-22.64,2.38
310,1747401411420,-0.14,-0.35,-1.02,-23.13,-22.64,2.38
311,1747401411430,-0.125,-0.36,-1.02,-8.485,-17.27,9.125
312,1747401411440,-0.11,-0.37,-1.02,6.16,-11.9,15.87
313,1747401411450,-0.11,-0.37,-1.02,6.16,-11.9,15.87
314,1747401411460,-0.11,-0.37,-1.02,6.16,-11.9,15.87
315,1747401411470,-0.11,-0.275,-0.98,1.89,-8.145,9.4
316,1747401411480,-0.11,-0.18,-0.94,-2.38,-4.39,2.93
317,1747401411490,-0.11,-0.18,-0.94,-2.38,-4.39,2.93
318,1747401411500,-0.11,-0.18,-0.94,-2.38,-4.39,2.93
319,1747401411510,-0.04,-0.28,-0.95,-9.855,-0.1499999999999999,-0.6399999999999999
320,1747401411520,-0.04,-0.28,-0.95,-17.33,4.09,-4.21
321,1747401411530,-0.04,-0.28,-0.95,-17.33,4.09,-4.21
322,1747401411540,-0.04,-0.28,-0.95,-17.33,4.09,-4.21
323,1747401411550,-0.04,-0.28,-0.95,-17.33,4.09,-4.21
324,1747401411560,0.03,-0.18,-0.9,4.09,4.27,6.59
325,1747401411570,0.03,-0.18,-0.9,4.09,4.27,6.59
326,1747401411580,0.03,-0.18,-0.9,4.09,4.27,6.59
327,1747401411590,0.07,-0.11,-0.86,-20.45,12.27,-21.0
328,1747401411600,0.07,-0.11,-0.86,-20.45,12.27,-21.0
329,1747401411610,0.07,-0.11,-0.86,-20.45,12.27,-21.0
330,1747401411620,0.07,-0.11,-0.86,-20.45,12.27,-21.0
331,1747401411630,0.14,-0.22,-0.89,-23.44,-8.85,-5.25
332,1747401411640,0.14,-0.22,-0.89,-23.44,-8.85,-5.25
333,1747401411650,0.14,-0.22,-0.89,-23.44,-8.85,-5.25
334,1747401411660,0.14,-0.22,-0.89,-23.44,-8.85,-5.25
335,1747401411670,0.17,-0.09,-0.82,-2.81,23.8,-31.74
336,1747401411680,0.17,-0.09,-0.82,-2.81,23.8,-31.74
337,1747401411690,0.17,-0.09,-0.82,-2.81,23.8,-31.74
338,1747401411700,0.15,-0.0849999999999999,-0.865,-15.105,12.845,-31.34
339,1747401411710,0.13,-0.08,-0.91,-27.4,1.89,-30.94
340,1747401411720,0.13,-0.08,-0.91,-27.4,1.89,-30.94
341,1747401411730,0.13,-0.08,-0.91,-27.4,1.89,-30.94
342,1747401411740,0.3,-0.1,-0.88,-28.02,-9.16,-32.35
343,1747401411750,0.3,-0.1,-0.88,-28.02,-9.16,-32.35
344,1747401411760,0.3,-0.1,-0.88,-28.02,-9.16,-32.35
345,1747401411770,0.3,-0.1,-0.88,-28.02,-9.16,-32.35
346,1747401411780,0.22,-0.04,-0.93,-24.72,7.14,-26.73
347,1747401411790,0.22,-0.04,-0.93,-24.72,7.14,-26.73
348,1747401411800,0.22,-0.04,-0.93,-24.72,7.14,-26.73
349,1747401411810,0.22,-0.04,-0.93,-24.72,7.14,-26.73
350,1747401411820,0.3,0.01,-0.99,-43.03,-24.41,-25.94
351,1747401411830,0.3,0.01,-0.99,-43.03,-24.41,-25.94
352,1747401411840,0.3,0.01,-0.99,-43.03,-24.41,-25.94
353,1747401411850,0.3,0.01,-0.99,-43.03,-24.41,-25.94
354,1747401411860,0.33,0.01,-0.98,-49.805,-23.285,-22.92
355,1747401411870,0.33,0.01,-0.98,-56.58,-22.16,-19.9
356,1747401411880,0.33,0.01,-0.98,-56.58,-22.16,-19.9
357,1747401411890,0.33,0.01,-0.98,-56.58,-22.16,-19.9
358,1747401411900,0.39,-0.03,-0.99,-23.01,-16.24,-11.84
359,1747401411910,0.39,-0.03,-0.99,-23.01,-16.24,-11.84
360,1747401411920,0.39,-0.03,-0.99,-23.01,-16.24,-11.84
361,1747401411930,0.38,0.05,-0.97,-7.080000000000001,-4.639999999999999,-22.705
362,1747401411940,0.37,0.13,-0.95,8.85,6.96,-33.57
363,1747401411950,0.37,0.13,-0.95,8.85,6.96,-33.57
364,1747401411960,0.37,0.13,-0.95,8.85,6.96,-33.57
365,1747401411970,0.49,0.05,-0.99,-16.48,7.93,-45.47
366,1747401411980,0.49,0.05,-0.99,-16.48,7.93,-45.47
367,1747401411990,0.49,0.05,-0.99,-16.48,7.93,-45.47
368,1747401412000,0.49,0.05,-0.99,-16.48,7.93,-45.47
369,1747401412010,0.48,0.03,-1.0550000000000002,-15.84,15.865,-36.5
370,1747401412020,0.47,0.01,-1.12,-15.2,23.8,-27.53
371,1747401412030,0.47,0.01,-1.12,-15.2,23.8,-27.53
372,1747401412040,0.47,0.01,-1.12,-15.2,23.8,-27.53
373,1747401412050,0.41,0.06,-1.18,-17.94,7.69,-13.73
374,1747401412060,0.41,0.06,-1.18,-17.94,7.69,-13.73
375,1747401412070,0.41,0.06,-1.18,-17.94,7.69,-13.73
376,1747401412080,0.415,0.065,-1.1749999999999998,-19.07,6.285,-9.365
377,1747401412090,0.42,0.07,-1.17,-20.2,4.88,-5.0
378,1747401412100,0.42,0.07,-1.17,-20.2,4.88,-5.0
379,1747401412110,0.42,0.07,-1.17,-20.2,4.88,-5.0
380,1747401412120,0.42,0.07,-1.17,-20.2,4.88,-5.0
381,1747401412130,0.41,0.13,-1.21,-14.65,-6.96,0.85
382,1747401412140,0.41,0.13,-1.21,-14.65,-6.96,0.85
383,1747401412150,0.41,0.13,-1.21,-14.65,-6.96,0.85
384,1747401412160,0.435,0.13,-1.18,-7.63,-4.855,0.425
385,1747401412170,0.46,0.13,-1.15,-0.61,-2.75,0.0
386,1747401412180,0.46,0.13,-1.15,-0.61,-2.75,0.0
387,1747401412190,0.46,0.13,-1.15,-0.61,-2.75,0.0
388,1747401412200,0.45,0.13,-1.13,10.375,1.98,0.765
389,1747401412210,0.44,0.13,-1.11,21.36,6.71,1.53
390,1747401412220,0.44,0.13,-1.11,21.36,6.71,1.53
391,1747401412230,0.44,0.13,-1.11,21.36,6.71,1.53
392,1747401412240,0.4649999999999999,0.13,-1.11,9.245,3.02,2.26
393,1747401412250,0.49,0.13,-1.11,-2.87,-0.67,2.99
394,1747401412260,0.49,0.13,-1.11,-2.87,-0.67,2.99
395,1747401412270,0.49,0.13,-1.11,-2.87,-0.67,2.99
396,1747401412280,0.47,0.1,-1.07,-1.95,-5.25,4.39
397,1747401412290,0.47,0.1,-1.07,-1.95,-5.25,4.39
398,1747401412300,0.47,0.1,-1.07,-1.95,-5.25,4.39
399,1747401412310,0.47,0.11,-1.03,-2.32,-8.21,3.81
400,1747401412320,0.47,0.11,-1.03,-2.69,-11.17,3.23
401,1747401412330,0.47,0.11,-1.03,-2.69,-11.17,3.23
402,1747401412340,0.4449999999999999,0.05,-0.98,-2.69,-11.17,3.23
403,1747401412350,0.42,-0.01,-0.93,57.68,20.45,-6.77
404,1747401412360,0.42,-0.01,-0.93,57.68,20.45,-6.77
405,1747401412370,0.42,-0.01,-0.93,57.68,20.45,-6.77
406,1747401412380,0.34,0.14,-0.9,47.0,14.805,2.84
407,1747401412390,0.34,0.14,-0.9,36.32,9.16,12.45
408,1747401412400,0.34,0.14,-0.9,36.32,9.16,12.45
409,1747401412410,0.34,0.14,-0.9,36.32,9.16,12.45
410,1747401412420,0.41,-0.02,-0.9,-21.3,-11.78,15.08
411,1747401412430,0.41,-0.02,-0.9,-21.3,-11.78,15.08
412,1747401412440,0.41,-0.02,-0.9,-21.3,-11.78,15.08
413,1747401412450,0.23,-0.05,-0.91,14.89,6.65,33.87
414,1747401412460,0.23,-0.05,-0.91,14.89,6.65,33.87
415,1747401412470,0.23,-0.05,-0.91,14.89,6.65,33.87
416,1747401412480,0.23,-0.05,-0.91,14.89,6.65,33.87
417,1747401412490,0.24,0.08,-0.99,-16.33,-7.935,33.08
418,1747401412500,0.24,0.08,-0.99,-47.55,-22.52,32.29
419,1747401412510,0.24,0.08,-0.99,-47.55,-22.52,32.29
420,1747401412520,0.24,0.08,-0.99,-47.55,-22.52,32.29
421,1747401412530,0.11,-0.14,-1.02,-3.97,-3.23,30.94
422,1747401412540,0.11,-0.14,-1.02,-3.97,-3.23,30.94
423,1747401412550,0.11,-0.14,-1.02,-3.97,-3.23,30.94
424,1747401412560,0.11,-0.025,-1.025,1.83,-6.07,27.4
425,1747401412570,0.11,0.09,-1.03,7.63,-8.91,23.86
426,1747401412580,0.11,0.09,-1.03,7.63,-8.91,23.86
427,1747401412590,0.11,0.09,-1.03,7.63,-8.91,23.86
428,1747401412600,0.09,-0.01,-0.96,-2.87,-19.53,6.35
429,1747401412610,0.09,-0.01,-0.96,-2.87,-19.53,6.35
430,1747401412620,0.09,-0.01,-0.96,-2.87,-19.53,6.35
431,1747401412630,0.0849999999999999,-0.0499999999999999,-0.91,11.565,-12.055,-1.6150000000000002
432,1747401412640,0.08,-0.09,-0.86,26.0,-4.58,-9.58
433,1747401412650,0.08,-0.09,-0.86,26.0,-4.58,-9.58
434,1747401412660,0.08,-0.09,-0.86,26.0,-4.58,-9.58
435,1747401412670,0.08,-0.09,-0.86,26.0,-4.58,-9.58
436,1747401412680,0.1,-0.02,-0.84,7.57,0.31,-12.7
437,1747401412690,0.1,-0.02,-0.84,7.57,0.31,-12.7
438,1747401412700,0.1,-0.02,-0.84,7.57,0.31,-12.7
439,1747401412710,0.1,-0.02,-0.84,7.57,0.31,-12.7
440,1747401412720,,,,,,
441,1747401412730,0.05,-0.06,-0.91,9.77,24.29,-6.41
442,1747401412740,0.05,-0.06,-0.91,9.77,24.29,-6.41
443,1747401412750,0.01,-0.08,-0.98,10.07,15.44,-11.05
444,1747401412760,0.01,-0.08,-0.98,10.07,15.44,-11.05
445,1747401412770,0.01,-0.08,-0.98,10.07,15.44,-11.05
446,1747401412780,0.01,-0.08,-0.98,10.07,15.44,-11.05
447,1747401412790,0.0,-0.1,-0.96,-1.65,1.22,-13.43
448,1747401412800,0.0,-0.1,-0.96,-1.65,1.22,-13.43
449,1747401412810,0.0,-0.1,-0.96,-1.65,1.22,-13.43
450,1747401412820,0.02,-0.16,-0.99,-1.65,1.22,-13.43
451,1747401412830,0.02,-0.16,-0.99,-6.41,7.93,-16.66
452,1747401412840,0.02,-0.16,-0.99,-6.41,7.93,-16.66
453,1747401412850,0.02,-0.16,-0.99,-6.41,7.93,-16.66
454,1747401412860,0.025,-0.145,-1.005,4.76,18.155,-11.84
455,1747401412870,0.03,-0.13,-1.02,15.93,28.38,-7.02
456,1747401412880,0.03,-0.13,-1.02,15.93,28.38,-7.02
457,1747401412890,0.03,-0.13,-1.02,15.93,28.38,-7.02
458,1747401412900,0.01,-0.18,-1.02,0.43,14.16,-8.12
459,1747401412910,0.01,-0.18,-1.02,0.43,14.16,-8.12
460,1747401412920,0.01,-0.18,-1.02,0.43,14.16,-8.12
461,1747401412930,0.01,-0.18,-1.02,0.43,14.16,-8.12
462,1747401412940,0.04,-0.23,-0.99,19.9,10.68,-13.37
463,1747401412950,0.04,-0.23,-0.99,19.9,10.68,-13.37
464,1747401412960,0.04,-0.23,-0.99,19.9,10.68,-13.37
465,1747401412970,0.04,-0.23,-0.99,19.9,10.68,-13.37
466,1747401412980,-0.11,-0.43,-1.02,11.2,4.3,-9.31
467,1747401412990,-0.11,-0.43,-1.02,2.5,-2.08,-5.25
468,1747401413000,-0.11,-0.43,-1.02,2.5,-2.08,-5.25
469,1747401413010,-0.11,-0.43,-1.02,2.5,-2.08,-5.25
470,1747401413020,-0.18,-0.29,-1.14,19.1,50.29,-0.43
471,1747401413030,-0.18,-0.29,-1.14,19.1,50.29,-0.43
472,1747401413040,-0.18,-0.29,-1.14,19.1,50.29,-0.43
473,1747401413050,-0.18,-0.29,-1.14,19.1,50.29,-0.43
474,1747401413060,-0.25,-0.37,-1.38,-2.5,39.61,6.65
475,1747401413070,-0.25,-0.37,-1.38,-2.5,39.61,6.65
476,1747401413080,-0.25,-0.37,-1.38,-2.5,39.61,6.65
477,1747401413090,-0.18,-0.35,-1.47,-2.5,39.61,6.65
478,1747401413100,-0.18,-0.35,-1.47,1.71,10.93,0.49
479,1747401413110,-0.18,-0.35,-1.47,1.71,10.93,0.49
480,1747401413120,-0.18,-0.35,-1.47,1.71,10.93,0.49
481,1747401413130,-0.16,-0.35,-1.465,4.914999999999999,1.6199999999999997,4.915
482,1747401413140,-0.14,-0.35,-1.46,8.12,-7.69,9.34
483,1747401413150,-0.14,-0.35,-1.46,8.12,-7.69,9.34
484,1747401413160,-0.14,-0.35,-1.46,8.12,-7.69,9.34
485,1747401413170,-0.155,-0.3349999999999999,-1.405,16.33,-16.355,8.7
486,1747401413180,-0.17,-0.32,-1.35,24.54,-25.02,8.06
487,1747401413190,-0.17,-0.32,-1.35,24.54,-25.02,8.06
488,1747401413200,-0.17,-0.32,-1.35,24.54,-25.02,8.06
489,1747401413210,-0.14,-0.32,-1.2,19.29,-40.22,5.25
490,1747401413220,-0.14,-0.32,-1.2,19.29,-40.22,5.25
491,1747401413230,-0.14,-0.32,-1.2,19.29,-40.22,5.25
492,1747401413240,-0.14,-0.32,-1.2,19.29,-40.22,5.25
493,1747401413250,-0.2,-0.41,-1.1,16.6,-28.93,7.45
494,1747401413260,-0.2,-0.41,-1.1,16.6,-28.93,7.45
495,1747401413270,-0.2,-0.41,-1.1,16.6,-28.93,7.45
496,1747401413280,-0.21,-0.405,-1.045,22.46,-30.885,9.735
497,1747401413290,-0.22,-0.4,-0.99,28.32,-32.84,12.02
498,1747401413300,-0.22,-0.4,-0.99,28.32,-32.84,12.02
499,1747401413310,-0.22,-0.4,-0.99,28.32,-32.84,12.02
500,1747401413320,-0.22,-0.375,-0.93,20.995,-34.150000000000006,6.285
501,1747401413330,-0.22,-0.35,-0.87,13.67,-35.46,0.55
502,1747401413340,-0.22,-0.35,-0.87,13.67,-35.46,0.55
503,1747401413350,-0.22,-0.35,-0.87,13.67,-35.46,0.55
504,1747401413360,-0.18,-0.4,-0.84,1.65,-13.43,3.97
505,1747401413370,-0.18,-0.4,-0.84,1.65,-13.43,3.97
506,1747401413380,-0.18,-0.4,-0.84,1.65,-13.43,3.97
507,1747401413390,-0.18,-0.4,-0.84,1.65,-13.43,3.97
508,1747401413400,-0.1,-0.28,-0.87,5.13,-4.52,1.04
509,1747401413410,-0.1,-0.28,-0.87,5.13,-4.52,1.04
510,1747401413420,-0.1,-0.28,-0.87,5.13,-4.52,1.04
511,1747401413430,-0.1,-0.28,-0.87,5.13,-4.52,1.04
512,1747401413440,0.03,-0.27,-0.86,-14.59,-0.43,-8.24
513,1747401413450,0.03,-0.27,-0.86,-14.59,-0.43,-8.24
514,1747401413460,0.03,-0.27,-0.86,-14.59,-0.43,-8.24
515,1747401413470,0.03,-0.27,-0.86,-14.59,-0.43,-8.24
516,1747401413480,0.03,-0.28,-0.88,-23.86,-0.85,21.12
517,1747401413490,0.03,-0.28,-0.88,-23.86,-0.85,21.12
518,1747401413500,0.03,-0.28,-0.88,-23.86,-0.85,21.12
519,1747401413510,0.05,-0.175,-0.905,-23.86,-0.85,21.12
520,1747401413520,0.07,-0.07,-0.93,-41.81,8.3,-14.59
521,1747401413530,0.07,-0.07,-0.93,-41.81,8.3,-14.59
522,1747401413540,0.07,-0.07,-0.93,-41.81,8.3,-14.59
523,1747401413550,0.09,-0.125,-0.96,-44.68,2.5000000000000004,-14.925
524,1747401413560,0.11,-0.18,-0.99,-47.55,-3.3,-15.26
525,1747401413570,0.11,-0.18,-0.99,-47.55,-3.3,-15.26
526,1747401413580,0.11,-0.18,-0.99,-47.55,-3.3,-15.26
527,1747401413590,0.18,-0.04,-0.95,-46.325,7.504999999999999,0.6399999999999997
528,1747401413600,0.18,-0.04,-0.95,-45.1,18.31,16.54
529,1747401413610,0.18,-0.04,-0.95,-45.1,18.31,16.54
530,1747401413620,0.18,-0.04,-0.95,-45.1,18.31,16.54
531,1747401413630,0.14,-0.09,-1.0,-10.25,26.73,-35.22
532,1747401413640,0.14,-0.09,-1.0,-10.25,26.73,-35.22
533,1747401413650,0.14,-0.09,-1.0,-10.25,26.73,-35.22
534,1747401413660,0.14,-0.09,-1.0,-10.25,26.73,-35.22
535,1747401413670,0.22,-0.11,-0.86,-20.32,-1.46,9.4
536,1747401413680,0.22,-0.11,-0.86,-20.32,-1.46,9.4
537,1747401413690,0.22,-0.11,-0.86,-20.32,-1.46,9.4
538,1747401413700,0.22,-0.11,-0.86,-20.32,-1.46,9.4
539,1747401413710,0.23,0.0,-0.88,-13.79,32.78,0.37
540,1747401413720,0.23,0.0,-0.88,-13.79,32.78,0.37
541,1747401413730,0.23,0.0,-0.88,-13.79,32.78,0.37
542,1747401413740,0.235,-0.005,-0.905,-14.22,21.915,-3.57
543,1747401413750,0.24,-0.01,-0.93,-14.65,11.05,-7.51
544,1747401413760,0.24,-0.01,-0.93,-14.65,11.05,-7.51
545,1747401413770,0.24,-0.01,-0.93,-14.65,11.05,-7.51
546,1747401413780,0.33,0.06,-0.95,-18.43,7.75,-20.87
547,1747401413790,0.33,0.06,-0.95,-18.43,7.75,-20.87
548,1747401413800,0.33,0.06,-0.95,-18.43,7.75,-20.87
549,1747401413810,0.33,0.06,-0.95,-18.43,7.75,-20.87
550,1747401413820,0.4,0.07,-1.0,-16.24,-9.89,-48.52
551,1747401413830,0.4,0.07,-1.0,-16.24,-9.89,-48.52
552,1747401413840,0.4,0.07,-1.0,-16.24,-9.89,-48.52
553,1747401413850,0.4,0.07,-1.0,-16.24,-9.89,-48.52
554,1747401413860,0.49,0.01,-0.97,-20.45,-14.95,-30.64
555,1747401413870,0.49,0.01,-0.97,-20.45,-14.95,-30.64
556,1747401413880,0.49,0.01,-0.97,-20.45,-14.95,-30.64
557,1747401413890,0.485,0.0349999999999999,-1.015,-8.515,-5.98,-30.395
558,1747401413900,0.48,0.06,-1.06,3.42,2.99,-30.15
559,1747401413910,0.48,0.06,-1.06,3.42,2.99,-30.15
560,1747401413920,0.48,0.06,-1.06,3.42,2.99,-30.15
561,1747401413930,0.47,0.07,-1.0750000000000002,-9.95,-4.305,-24.81
562,1747401413940,0.46,0.08,-1.09,-23.32,-11.6,-19.47
563,1747401413950,0.46,0.08,-1.09,-23.32,-11.6,-19.47
564,1747401413960,0.46,0.08,-1.09,-23.32,-11.6,-19.47
565,1747401413970,0.455,0.06,-1.125,-18.495,-4.52,-14.925
566,1747401413980,0.45,0.04,-1.16,-13.67,2.56,-10.38
567,1747401413990,0.45,0.04,-1.16,-13.67,2.56,-10.38
568,1747401414000,0.45,0.04,-1.16,-13.67,2.56,-10.38
569,1747401414010,0.44,0.085,-1.16,-11.505,7.32,-9.005
570,1747401414020,0.43,0.13,-1.16,-9.34,12.08,-7.63
571,1747401414030,0.43,0.13,-1.16,-9.34,12.08,-7.63
572,1747401414040,0.43,0.13,-1.16,-9.34,12.08,-7.63
573,1747401414050,0.44,0.12,-1.1749999999999998,-7.324999999999999,12.08,-4.945
574,1747401414060,0.45,0.11,-1.19,-5.31,12.08,-2.26
575,1747401414070,0.45,0.11,-1.19,-5.31,12.08,-2.26
576,1747401414080,0.45,0.11,-1.19,-5.31,12.08,-2.26
577,1747401414090,0.45,0.11,-1.19,-5.31,12.08,-2.26
578,1747401414100,0.45,0.17,-1.18,8.79,8.42,4.94
579,1747401414110,0.45,0.17,-1.18,8.79,8.42,4.94
580,1747401414120,0.45,0.17,-1.18,8.79,8.42,4.94
581,1747401414130,0.45,0.16,-1.16,-13.0,-4.03,11.35
582,1747401414140,0.45,0.16,-1.16,-13.0,-4.03,11.35
583,1747401414150,0.45,0.16,-1.16,-13.0,-4.03,11.35
584,1747401414160,0.45,0.125,-1.17,-9.245,-4.825,14.435
585,1747401414170,0.45,0.09,-1.18,-5.49,-5.62,17.52
586,1747401414180,0.45,0.09,-1.18,-5.49,-5.62,17.52
587,1747401414190,0.45,0.09,-1.18,-5.49,-5.62,17.52
588,1747401414200,0.4599999999999999,0.11,-1.135,3.845,-5.71,18.16
589,1747401414210,0.47,0.13,-1.09,13.18,-5.8,18.8
590,1747401414220,0.47,0.13,-1.09,13.18,-5.8,18.8
591,1747401414230,0.47,0.13,-1.09,13.18,-5.8,18.8
592,1747401414240,0.4399999999999999,0.09,-1.05,4.605,-1.16,20.66
593,1747401414250,0.41,0.05,-1.01,-3.97,3.48,22.52
594,1747401414260,0.41,0.05,-1.01,-3.97,3.48,22.52
595,1747401414270,0.41,0.05,-1.01,-3.97,3.48,22.52
596,1747401414280,0.42,0.08,-1.08,-10.07,-14.1,38.57
597,1747401414290,0.42,0.08,-1.08,-10.07,-14.1,38.57
598,1747401414300,0.42,0.08,-1.08,-10.07,-14.1,38.57
599,1747401414310,0.42,0.08,-1.08,-10.07,-14.1,38.57
600,1747401414320,0.42,0.08,-1.08,-10.07,-14.1,38.57
601,1747401414330,0.29,0.0,-0.99,16.11,4.94,21.91
602,1747401414340,0.29,0.0,-0.99,16.11,4.94,21.91
603,1747401414350,0.29,0.0,-0.99,16.11,4.94,21.91
604,1747401414360,0.29,-0.01,-1.0,12.08,-4.33,30.7
605,1747401414370,0.29,-0.01,-1.0,12.08,-4.33,30.7
606,1747401414380,0.29,-0.01,-1.0,12.08,-4.33,30.7
607,1747401414390,0.24,-0.025,-0.975,12.08,-4.33,30.7
608,1747401414400,0.19,-0.04,-0.95,29.54,-0.98,16.72
609,1747401414410,0.19,-0.04,-0.95,29.54,-0.98,16.72
610,1747401414420,0.19,-0.04,-0.95,29.54,-0.98,16.72
611,1747401414430,0.22,-0.04,-0.915,12.51,-14.53,18.31
612,1747401414440,0.25,-0.04,-0.88,-4.52,-28.08,19.9
613,1747401414450,0.25,-0.04,-0.88,-4.52,-28.08,19.9
614,1747401414460,0.25,-0.04,-0.88,-4.52,-28.08,19.9
615,1747401414470,0.205,-0.085,-0.88,2.745,-9.86,16.785
616,1747401414480,0.16,-0.13,-0.88,10.01,8.36,13.67
617,1747401414490,0.16,-0.13,-0.88,10.01,8.36,13.67
618,1747401414500,0.16,-0.13,-0.88,10.01,8.36,13.67
619,1747401414510,0.12,-0.08,-0.96,11.84,11.72,21.06
620,1747401414520,0.12,-0.08,-0.96,11.84,11.72,21.06
621,1747401414530,0.12,-0.08,-0.96,11.84,11.72,21.06
622,1747401414540,0.12,-0.08,-0.96,11.84,11.72,21.06
623,1747401414550,0.05,-0.1,-0.97,1.83,10.01,9.95
624,1747401414560,0.05,-0.1,-0.97,1.83,10.01,9.95
625,1747401414570,0.05,-0.1,-0.97,1.83,10.01,9.95
626,1747401414580,0.05,-0.1,-0.97,1.83,10.01,9.95
627,1747401414590,0.07,-0.16,-0.96,2.5,-11.78,14.59
628,1747401414600,0.07,-0.16,-0.96,2.5,-11.78,14.59
629,1747401414610,0.07,-0.16,-0.96,2.5,-11.78,14.59
630,1747401414620,0.07,-0.16,-0.96,2.5,-11.78,14.59
631,1747401414630,0.08,-0.07,-0.9,29.97,-10.93,10.74
632,1747401414640,0.08,-0.07,-0.9,29.97,-10.93,10.74
633,1747401414650,0.08,-0.07,-0.9,29.97,-10.93,10.74
634,1747401414660,0.08,-0.07,-0.9,29.97,-10.93,10.74
635,1747401414670,0.03,-0.16,-0.87,6.16,-11.41,10.25
636,1747401414680,0.03,-0.16,-0.87,6.16,-11.410000000000002,10.25
637,1747401414690,0.03,-0.16,-0.87,6.16,-11.41,10.25
638,1747401414700,0.0,-0.17,-0.91,9.55,-4.425,14.465
639,1747401414710,0.0,-0.17,-0.91,12.94,2.56,18.68
640,1747401414720,0.0,-0.17,-0.91,12.94,2.56,18.68
641,1747401414730,0.0,-0.17,-0.91,12.94,2.56,18.68
642,1747401414740,-0.07,-0.1,-0.93,23.99,5.68,6.1
643,1747401414750,-0.07,-0.1,-0.93,23.99,5.68,6.1
644,1747401414760,-0.07,-0.1,-0.93,23.99,5.68,6.1
645,1747401414770,-0.045,-0.135,-0.915,23.99,5.68,6.1
646,1747401414780,-0.02,-0.17,-0.9,7.75,-12.63,2.44
647,1747401414790,-0.02,-0.17,-0.9,7.75,-12.63,2.44
648,1747401414800,-0.02,-0.17,-0.9,7.75,-12.63,2.44
649,1747401414810,-0.02,-0.17,-0.9,7.75,-12.63,2.44
650,1747401414820,-0.04,-0.25,-0.92,19.29,11.23,5.13
651,1747401414830,-0.04,-0.25,-0.92,19.29,11.23,5.13
652,1747401414840,-0.04,-0.25,-0.92,19.29,11.23,5.13
653,1747401414850,-0.15,-0.2,-0.96,9.58,19.17,0.73
654,1747401414860,-0.15,-0.2,-0.96,9.58,19.17,0.73
655,1747401414870,-0.15,-0.2,-0.96,9.58,19.17,0.73
656,1747401414880,-0.15,-0.2,-0.96,9.58,19.17,0.73
657,1747401414890,-0.17,-0.29,-1.01,9.58,19.17,0.73
658,1747401414900,-0.17,-0.29,-1.01,-6.16,12.88,-10.99
659,1747401414910,-0.17,-0.29,-1.01,-6.16,12.88,-10.99
660,1747401414920,-0.17,-0.29,-1.01,-6.16,12.88,-10.99
661,1747401414930,-0.17,-0.29,-1.01,-6.16,12.88,-10.99
662,1747401414940,-0.15,-0.37,-1.06,10.74,30.52,-22.52
663,1747401414950,-0.15,-0.37,-1.06,10.74,30.52,-22.52
664,1747401414960,-0.15,-0.37,-1.06,10.74,30.52,-22.52
665,1747401414970,-0.13,-0.42,-1.14,5.37,36.01,-12.51
666,1747401414980,-0.13,-0.42,-1.14,5.37,36.01,-12.51
667,1747401414990,-0.13,-0.42,-1.14,5.37,36.01,-12.51
668,1747401415000,-0.13,-0.42,-1.14,5.37,36.01,-12.51
669,1747401415010,-0.15,-0.44,-1.28,2.2,46.75,-7.08
670,1747401415020,-0.15,-0.44,-1.28,2.2,46.75,-7.08
671,1747401415030,-0.15,-0.44,-1.28,2.2,46.75,-7.08
672,1747401415040,-0.13,-0.48,-1.32,-3.265,30.335,-4.67
673,1747401415050,-0.11,-0.52,-1.36,-8.73,13.92,-2.26
674,1747401415060,-0.11,-0.52,-1.36,-8.73,13.92,-2.26
675,1747401415070,-0.11,-0.52,-1.36,-8.73,13.92,-2.26
676,1747401415080,-0.11,-0.52,-1.36,-8.73,13.92,-2.26
677,1747401415090,-0.12,-0.51,-1.29,7.39,2.2,8.61
678,1747401415100,-0.12,-0.51,-1.29,7.39,2.2,8.61
679,1747401415110,-0.12,-0.51,-1.29,7.39,2.2,8.61
680,1747401415120,-0.14,-0.47,-1.235,2.535,-10.465,8.18
681,1747401415130,-0.16,-0.43,-1.18,-2.32,-23.13,7.75
682,1747401415140,-0.16,-0.43,-1.18,-2.32,-23.13,7.75
683,1747401415150,-0.16,-0.43,-1.18,-2.32,-23.13,7.75
684,1747401415160,-0.16,-0.44,-1.1749999999999998,-7.265000000000001,-22.0,8.82
685,1747401415170,-0.16,-0.45,-1.17,-12.21,-20.87,9.89
686,1747401415180,-0.16,-0.45,-1.17,-12.21,-20.87,9.89
687,1747401415190,-0.16,-0.45,-1.17,-12.21,-20.87,9.89
688,1747401415200,-0.185,-0.42,-1.145,-1.5900000000000007,-20.87,10.165
689,1747401415210,-0.21,-0.39,-1.12,9.03,-20.87,10.44
690,1747401415220,-0.21,-0.3899999999999999,-1.12,9.03,-20.87,10.44
691,1747401415230,-0.21,-0.39,-1.12,9.03,-20.87,10.44
692,1747401415240,-0.17,-0.33,-1.04,-8.42,-33.57,5.98
693,1747401415250,-0.17,-0.33,-1.04,-8.42,-33.57,5.98
694,1747401415260,-0.17,-0.33,-1.04,-8.42,-33.57,5.98
695,1747401415270,-0.17,-0.33,-1.04,-8.42,-33.57,5.98
696,1747401415280,-0.15,-0.37,-1.03,-19.41,-34.06,15.01
697,1747401415290,-0.15,-0.37,-1.03,-19.41,-34.06,15.01
698,1747401415300,-0.15,-0.37,-1.03,-19.41,-34.06,15.01
699,1747401415310,-0.15,-0.37,-1.03,-19.41,-34.06,15.01
700,1747401415320,-0.14,-0.345,-1.015,-11.84,-33.935,14.86
701,1747401415330,-0.13,-0.32,-1.0,-4.27,-33.81,14.71
702,1747401415340,-0.13,-0.32,-1.0,-4.27,-33.81,14.71
703,1747401415350,-0.115,-0.285,-0.975,-5.765,-32.410000000000004,8.635
704,1747401415360,-0.1,-0.25,-0.95,-7.26,-31.01,2.56
705,1747401415370,-0.1,-0.25,-0.95,-7.26,-31.01,2.56
706,1747401415380,-0.1,-0.25,-0.95,-7.26,-31.01,2.56
707,1747401415390,-0.055,-0.3,-0.915,-8.879999999999999,-23.895000000000003,15.655
708,1747401415400,-0.01,-0.35,-0.88,-10.5,-16.78,28.75
709,1747401415410,-0.01,-0.35,-0.88,-10.5,-16.78,28.75
710,1747401415420,-0.01,-0.35,-0.88,-10.5,-16.78,28.75
711,1747401415430,-0.0499999999999999,-0.235,-0.9,-16.939999999999998,-11.505,20.935
712,1747401415440,,,,,,
713,1747401415450,-0.09,-0.12,-0.92,-23.38,-6.23,13.12
714,1747401415460,-0.0349999999999999,-0.145,-0.925,-27.62,-9.525,-2.595
715,1747401415470,0.02,-0.17,-0.93,-31.86,-12.82,-18.31
716,1747401415480,0.02,-0.17,-0.93,-31.86,-12.82,-18.31
717,1747401415490,0.02,-0.17,-0.93,-31.86,-12.82,-18.31
718,1747401415500,0.025,-0.135,-0.925,-31.86,-12.82,-18.31
719,1747401415510,0.03,-0.1,-0.92,-33.81,7.75,1.77
720,1747401415520,0.03,-0.1,-0.92,-33.81,7.75,1.77
721,1747401415530,0.03,-0.1,-0.92,-33.81,7.75,1.77
722,1747401415540,0.03,-0.1,-0.92,-33.81,7.75,1.77
723,1747401415550,0.02,-0.07,-0.99,-22.58,3.23,-28.38
724,1747401415560,0.02,-0.07,-0.99,-22.58,3.23,-28.38
725,1747401415570,0.02,-0.07,-0.99,-22.58,3.23,-28.38
726,1747401415580,0.12,-0.05,-0.9,-12.114999999999998,-0.3700000000000001,-24.2
727,1747401415590,0.12,-0.05,-0.9,-1.65,-3.97,-20.02
728,1747401415600,0.12,-0.05,-0.9,-1.65,-3.97,-20.02
729,1747401415610,0.12,-0.05,-0.9,-1.65,-3.97,-20.02
730,1747401415620,0.19,-0.05,-0.88,-4.09,26.79,-9.09
731,1747401415630,0.19,-0.05,-0.88,-4.09,26.79,-9.09
732,1747401415640,0.19,-0.05,-0.88,-4.09,26.79,-9.09
733,1747401415650,0.19,-0.05,-0.88,-4.09,26.79,-9.09
734,1747401415660,0.2,-0.01,-0.91,-19.71,10.13,10.38
735,1747401415670,0.2,-0.01,-0.91,-19.71,10.13,10.38
736,1747401415680,0.2,-0.01,-0.91,-19.71,10.13,10.38
737,1747401415690,0.2,-0.01,-0.91,-19.71,10.13,10.38
738,1747401415700,0.26,-0.02,-0.9,-20.14,27.83,12.63
739,1747401415710,0.26,-0.02,-0.9,-20.14,27.83,12.63
740,1747401415720,0.26,-0.02,-0.9,-20.14,27.83,12.63
741,1747401415730,0.26,-0.02,-0.9,-20.14,27.83,12.63
742,1747401415740,0.27,0.0,-0.99,-15.93,31.13,19.53
743,1747401415750,0.27,0.0,-0.99,-15.93,31.13,19.53
744,1747401415760,0.27,0.0,-0.99,-15.93,31.13,19.53
745,1747401415770,0.285,0.035,-0.98,-12.815,14.315,8.97
746,1747401415780,0.3,0.07,-0.97,-9.7,-2.5,-1.59
747,1747401415790,0.3,0.07,-0.97,-9.7,-2.5,-1.59
748,1747401415800,0.3,0.07,-0.97,-9.7,-2.5,-1.59
749,1747401415810,0.355,0.02,-0.97,-15.35,-8.175,-10.65
750,1747401415820,0.41,-0.03,-0.97,-21.0,-13.85,-19.71
751,1747401415830,0.41,-0.03,-0.97,-21.0,-13.85,-19.71
752,1747401415840,0.41,-0.03,-0.97,-21.0,-13.85,-19.71
753,1747401415850,0.42,0.0,-1.08,-17.58,-9.52,-20.630000000000003
754,1747401415860,0.42,0.0,-1.08,-14.16,-5.19,-21.55
755,1747401415870,0.42,0.0,-1.08,-14.16,-5.19,-21.55
756,1747401415880,0.42,0.0,-1.08,-14.16,-5.19,-21.55
757,1747401415890,0.43,-0.04,-1.08,4.7,3.72,-31.68
758,1747401415900,0.43,-0.04,-1.08,4.7,3.72,-31.68
759,1747401415910,0.43,-0.04,-1.08,4.7,3.72,-31.68
760,1747401415920,0.43,-0.04,-1.08,4.7,3.72,-31.68
761,1747401415930,0.39,0.0,-1.12,-7.2,9.58,-21.18
762,1747401415940,0.39,0.0,-1.12,-7.2,9.58,-21.18
763,1747401415950,0.39,0.0,-1.12,-7.2,9.58,-21.18
764,1747401415960,0.39,0.0,-1.12,-7.2,9.58,-21.18
765,1747401415970,0.39,0.0,-1.12,-7.2,9.58,-21.18
766,1747401415980,0.37,0.0,-1.24,-6.195,11.14,-17.455
767,1747401415990,0.37,0.0,-1.24,-5.19,12.7,-13.73
768,1747401416000,0.37,0.0,-1.24,-5.19,12.7,-13.73
769,1747401416010,0.41,0.03,-1.22,0.43,6.35,-14.89
770,1747401416020,0.41,0.03,-1.22,0.43,6.35,-14.89
771,1747401416030,0.41,0.03,-1.22,0.43,6.35,-14.89
772,1747401416040,0.49,0.03,-1.23,8.97,20.51,-22.03
773,1747401416050,0.49,0.03,-1.23,8.97,20.51,-22.03
774,1747401416060,0.49,0.03,-1.23,8.97,20.51,-22.03
775,1747401416070,0.49,0.03,-1.23,8.97,20.51,-22.03
776,1747401416080,0.4549999999999999,0.03,-1.22,8.695,11.965,-20.905
777,1747401416090,0.42,0.03,-1.21,8.42,3.42,-19.78
778,1747401416100,0.42,0.03,-1.21,8.42,3.42,-19.78
779,1747401416110,0.42,0.03,-1.21,8.42,3.42,-19.78
780,1747401416120,0.59,-0.01,-1.13,-8.36,0.43,-14.22
781,1747401416130,0.59,-0.01,-1.13,-8.36,0.43,-14.22
782,1747401416140,0.59,-0.01,-1.13,-8.36,0.43,-14.22
783,1747401416150,0.59,-0.01,-1.13,-8.36,0.43,-14.22
784,1747401416160,0.48,-0.09,-1.04,35.95,-1.59,11.29
785,1747401416170,0.48,-0.09,-1.04,35.95,-1.59,11.29
786,1747401416180,0.48,-0.09,-1.04,35.95,-1.59,11.29
787,1747401416190,0.48,-0.09,-1.04,35.95,-1.59,11.29
788,1747401416200,0.41,0.09,-1.04,2.38,-34.36,38.21
789,1747401416210,0.41,0.09,-1.04,2.38,-34.36,38.21
790,1747401416220,0.41,0.09,-1.04,2.38,-34.36,38.21
791,1747401416230,0.41,0.09,-1.04,2.38,-34.36,38.21
792,1747401416240,0.38,-0.09,-0.99,12.33,-28.87,24.54
793,1747401416250,0.38,-0.09,-0.99,12.33,-28.87,24.54
794,1747401416260,0.38,-0.09,-0.99,12.33,-28.87,24.54
795,1747401416270,0.29,-0.045,-0.945,15.565,-27.130000000000003,26.855
796,1747401416280,0.2,0.0,-0.9,18.8,-25.39,29.17
797,1747401416290,0.2,0.0,-0.9,18.8,-25.39,29.17
798,1747401416300,0.2,0.0,-0.9,18.8,-25.39,29.17
799,1747401416310,0.24,0.0,-0.96,-50.42,-39.37,25.88
800,1747401416320,0.24,0.0,-0.96,-50.42,-39.37,25.88
801,1747401416330,0.24,0.0,-0.96,-50.42,-39.37,25.88
802,1747401416340,0.24,0.0,-0.96,-50.42,-39.37,25.88
803,1747401416350,0.05,-0.19,-0.96,10.74,-11.66,25.27
804,1747401416360,0.05,-0.19,-0.96,10.74,-11.66,25.27
805,1747401416370,0.05,-0.19,-0.96,10.74,-11.66,25.27
806,1747401416380,0.05,-0.19,-0.96,10.74,-11.66,25.27
807,1747401416390,0.07,0.01,-0.96,-6.77,-2.69,26.31
808,1747401416400,0.07,0.01,-0.96,-6.77,-2.69,26.31
809,1747401416410,0.07,0.01,-0.96,-6.77,-2.69,26.31
810,1747401416420,0.07,0.01,-0.96,-6.77,-2.69,26.31
811,1747401416430,-0.03,-0.2,-1.0,2.87,-9.64,25.39
812,1747401416440,-0.03,-0.2,-1.0,2.87,-9.64,25.39
813,1747401416450,-0.03,-0.2,-1.0,2.87,-9.64,25.39
814,1747401416460,-0.0099999999999999,-0.145,-0.965,2.87,-9.64,25.39
815,1747401416470,0.01,-0.09,-0.93,35.64,-15.14,27.16
816,1747401416480,0.01,-0.09,-0.93,35.64,-15.14,27.16
817,1747401416490,0.01,-0.09,-0.93,35.64,-15.14,27.16
818,1747401416500,-0.0099999999999999,-0.055,-0.93,24.9,-10.955,19.255
819,1747401416510,-0.03,-0.02,-0.93,14.16,-6.77,11.35
820,1747401416520,-0.03,-0.02,-0.93,14.16,-6.77,11.35
821,1747401416530,,,,,,
822,1747401416540,-0.035,-0.09,-0.925,10.04,-9.155,12.295
823,1747401416550,-0.04,-0.16,-0.92,5.92,-11.54,13.24
824,1747401416560,-0.04,-0.16,-0.92,5.92,-11.54,13.24
825,1747401416570,-0.04,-0.16,-0.92,5.92,-11.54,13.24
826,1747401416580,-0.06,-0.13,-0.915,16.54,1.1900000000000004,13.855
827,1747401416590,-0.08,-0.1,-0.91,27.16,13.92,14.47
828,1747401416600,-0.08,-0.1,-0.91,27.16,13.92,14.47
829,1747401416610,-0.08,-0.1,-0.91,27.16,13.92,14.47
830,1747401416620,-0.12,-0.08,-0.9,-3.23,0.85,10.68
831,1747401416630,-0.12,-0.08,-0.9,-3.23,0.85,10.68
832,1747401416640,-0.12,-0.08,-0.9,-3.23,0.85,10.68
833,1747401416650,-0.12,-0.08,-0.9,-3.23,0.85,10.68
834,1747401416660,-0.11,-0.11,-0.89,22.34,13.24,-5.0
835,1747401416670,-0.11,-0.11,-0.89,22.34,13.24,-5.0
836,1747401416680,-0.11,-0.11,-0.89,22.34,13.24,-5.0
837,1747401416690,-0.1166666666666666,-0.1166666666666666,-0.8933333333333334,16.54,13.506666666666666,-7.056666666666668
838,1747401416700,-0.13,-0.13,-0.9,4.94,14.04,-11.17
839,1747401416710,-0.13,-0.13,-0.9,4.94,14.04,-11.17
840,1747401416720,-0.13,-0.13,-0.9,4.94,14.04,-11.17
841,1747401416730,-0.125,-0.145,-0.945,-0.8249999999999997,15.87,-16.235
842,1747401416740,-0.12,-0.16,-0.99,-6.59,17.7,-21.3
843,1747401416750,-0.12,-0.16,-0.99,-6.59,17.7,-21.3
844,1747401416760,-0.12,-0.16,-0.99,-6.59,17.7,-21.3
845,1747401416770,-0.12,-0.16,-0.99,-6.59,17.7,-21.3
846,1747401416780,-0.12,-0.25,-1.03,-9.52,24.17,-28.99
847,1747401416790,-0.12,-0.25,-1.03,-9.52,24.17,-28.99
848,1747401416800,-0.12,-0.25,-1.03,-9.52,24.17,-28.99
849,1747401416810,-0.155,-0.285,-1.015,-5.25,31.465,-27.13
850,1747401416820,-0.19,-0.32,-1.0,-0.98,38.76,-25.27
851,1747401416830,-0.19,-0.32,-1.0,-0.98,38.76,-25.27
852,1747401416840,-0.19,-0.32,-1.0,-0.98,38.76,-25.27
853,1747401416850,-0.19,-0.33,-1.05,-9.675,38.635,-27.435
854,1747401416860,-0.19,-0.33,-1.05,-18.37,38.51,-29.6
855,1747401416870,-0.19,-0.33,-1.05,-18.37,38.51,-29.6
856,1747401416880,-0.19,-0.33,-1.05,-18.37,38.51,-29.6
857,1747401416890,-0.25,-0.51,-1.13,-19.655,31.43,-27.07
858,1747401416900,-0.25,-0.51,-1.13,-20.94,24.35,-24.54
859,1747401416910,-0.25,-0.51,-1.13,-20.94,24.35,-24.54
860,1747401416920,-0.25,-0.51,-1.13,-20.94,24.35,-24.54
861,1747401416930,-0.28,-0.47,-1.24,-2.14,27.1,-4.76
862,1747401416940,-0.28,-0.47,-1.24,-2.14,27.1,-4.76
863,1747401416950,-0.28,-0.47,-1.24,-2.14,27.1,-4.76
864,1747401416960,-0.28,-0.47,-1.24,-2.14,27.1,-4.76
865,1747401416970,-0.3,-0.52,-1.3,-4.27,3.17,-4.58
866,1747401416980,-0.3,-0.52,-1.3,-4.27,3.17,-4.58
867,1747401416990,-0.3,-0.52,-1.3,-4.27,3.17,-4.58
868,1747401417000,-0.3,-0.52,-1.3,-4.27,3.17,-4.58
869,1747401417010,-0.29,-0.53,-1.19,15.56,-13.61,10.01
870,1747401417020,-0.29,-0.53,-1.19,15.56,-13.61,10.01
871,1747401417030,-0.29,-0.53,-1.19,15.56,-13.61,10.01
872,1747401417040,-0.28,-0.455,-1.17,17.055,-14.31,11.475
873,1747401417050,-0.27,-0.38,-1.15,18.55,-15.01,12.94
874,1747401417060,-0.27,-0.38,-1.15,18.55,-15.01,12.94
875,1747401417070,-0.27,-0.38,-1.15,18.55,-15.01,12.94
876,1747401417080,-0.24,-0.41,-1.13,8.94,-21.025,13.43
877,1747401417090,-0.21,-0.44,-1.11,-0.67,-27.04,13.92
878,1747401417100,-0.21,-0.44,-1.11,-0.67,-27.04,13.92
879,1747401417110,-0.21,-0.44,-1.11,-0.67,-27.04,13.92
880,1747401417120,-0.255,-0.44,-1.08,9.95,-16.845,17.885
881,1747401417130,-0.3,-0.44,-1.05,20.57,-6.65,21.85
882,1747401417140,-0.3,-0.44,-1.05,20.57,-6.65,21.85
883,1747401417150,-0.3,-0.44,-1.05,20.57,-6.65,21.85
884,1747401417160,-0.27,-0.33,-1.03,23.74,0.61,18.55
885,1747401417170,-0.27,-0.33,-1.03,23.74,0.61,18.55
886,1747401417180,-0.27,-0.33,-1.03,23.74,0.61,18.55
887,1747401417190,-0.27,-0.33,-1.03,23.74,0.61,18.55
888,1747401417200,-0.22,-0.39,-0.98,-1.77,-16.3,9.89
889,1747401417210,-0.22,-0.39,-0.98,-1.77,-16.3,9.89
890,1747401417220,-0.22,-0.39,-0.98,-1.77,-16.3,9.89
891,1747401417230,-0.22,-0.39,-0.98,-1.77,-16.3,9.89
892,1747401417240,-0.17,-0.35,-0.97,13.92,4.39,21.18
893,1747401417250,-0.17,-0.35,-0.97,13.92,4.39,21.18
894,1747401417260,-0.17,-0.35,-0.97,13.92,4.39,21.18
895,1747401417270,-0.115,-0.3,-0.97,7.385,7.689999999999999,12.725
896,1747401417280,-0.06,-0.25,-0.97,0.85,10.99,4.27
897,1747401417290,-0.06,-0.25,-0.97,0.85,10.99,4.27
898,1747401417300,-0.06,-0.25,-0.97,0.85,10.99,4.27
899,1747401417310,-0.075,-0.29,-0.975,-16.665,5.495,13.67
900,1747401417320,-0.09,-0.33,-0.98,-34.18,0.0,23.07
901,1747401417330,-0.09,-0.33,-0.98,-34.18,0.0,23.07
902,1747401417340,-0.09,-0.33,-0.98,-34.18,0.0,23.07
903,1747401417350,-0.04,-0.275,-1.005,-25.025,5.92,19.315
904,1747401417360,0.01,-0.22,-1.03,-15.87,11.839999999999998,15.56
905,1747401417370,0.01,-0.22,-1.03,-15.87,11.84,15.56
906,1747401417380,0.01,-0.22,-1.03,-15.87,11.84,15.56
907,1747401417390,0.01,-0.2,-1.0,-21.79,3.965,10.465
908,1747401417400,0.01,-0.2,-1.0,-27.71,-3.91,5.37
909,1747401417410,0.01,-0.2,-1.0,-27.71,-3.91,5.37
910,1747401417420,0.01,-0.2,-1.0,-27.71,-3.91,5.37
911,1747401417430,0.03,-0.15,-0.94,-31.525,0.5150000000000001,16.935
912,1747401417440,0.03,-0.15,-0.94,-35.34,4.94,28.5
913,1747401417450,0.03,-0.15,-0.94,-35.34,4.94,28.5
914,1747401417460,0.03,-0.15,-0.94,-35.34,4.94,28.5
915,1747401417470,0.03,-0.15,-0.94,-35.34,4.94,28.5
916,1747401417480,0.015,-0.125,-0.975,-21.485000000000003,15.745,7.84
917,1747401417490,0.0,-0.1,-1.01,-7.63,26.55,-12.82
918,1747401417500,0.02,-0.105,-0.97,-2.47,20.51,-12.97
919,1747401417510,0.04,-0.11,-0.93,2.69,14.47,-13.12
920,1747401417520,0.04,-0.11,-0.93,2.69,14.47,-13.12
921,1747401417530,0.04,-0.11,-0.93,2.69,14.47,-13.12
922,1747401417540,0.08,-0.105,-0.925,4.03,15.505,-19.955
923,1747401417550,0.12,-0.1,-0.92,5.37,16.54,-26.79
924,1747401417560,0.12,-0.1,-0.92,5.37,16.54,-26.79
925,1747401417570,0.12,-0.1,-0.92,5.37,16.54,-26.79
926,1747401417580,0.1699999999999999,-0.085,-0.915,5.37,16.54,-26.79
927,1747401417590,0.22,-0.07,-0.91,5.37,16.54,-26.79
928,1747401417600,0.22,-0.07,-0.91,10.31,-2.01,-35.64
929,1747401417610,0.22,-0.07,-0.91,10.31,-2.01,-35.64
930,1747401417620,0.29,-0.12,-0.86,-4.03,-12.45,-28.38
931,1747401417630,0.29,-0.12,-0.86,-4.03,-12.45,-28.38
932,1747401417640,0.29,-0.12,-0.86,-4.03,-12.45,-28.38
933,1747401417650,0.29,-0.12,-0.86,-4.03,-12.45,-28.38
934,1747401417660,0.33,-0.09,-0.85,-0.85,6.1,-13.0
935,1747401417670,0.33,-0.09,-0.85,-0.85,6.1,-13.0
936,1747401417680,0.33,-0.09,-0.85,-0.85,6.1,-13.0
937,1747401417690,0.33,-0.09,-0.85,-0.85,6.1,-13.0
938,1747401417700,0.315,-0.07,-0.88,-7.08,7.444999999999999,-6.165
939,1747401417710,0.3,-0.05,-0.91,-13.31,8.79,0.67
940,1747401417720,0.3,-0.05,-0.91,-13.31,8.79,0.67
941,1747401417730,0.3,-0.05,-0.91,-13.31,8.79,0.67
942,1747401417740,0.35,0.0,-0.97,-5.19,12.15,-30.4
943,1747401417750,0.35,0.0,-0.97,-5.19,12.15,-30.4
944,1747401417760,0.35,0.0,-0.97,-5.19,12.15,-30.4
945,1747401417770,0.415,-0.015,-0.975,-7.630000000000001,7.63,-38.575
946,1747401417780,0.48,-0.03,-0.98,-10.07,3.11,-46.75
947,1747401417790,0.48,-0.03,-0.98,-10.07,3.11,-46.75
948,1747401417800,0.48,-0.03,-0.98,-10.07,3.11,-46.75
949,1747401417810,0.5349999999999999,-0.06,-1.015,-8.88,10.345,-43.09
950,1747401417820,0.59,-0.09,-1.05,-7.69,17.58,-39.43
951,1747401417830,0.59,-0.09,-1.05,-7.69,17.58,-39.43
952,1747401417840,0.59,-0.09,-1.05,-7.69,17.58,-39.43
953,1747401417850,0.54,-0.08,-1.16,2.44,26.43,-28.02
954,1747401417860,0.54,-0.08,-1.16,2.44,26.43,-28.02
955,1747401417870,0.54,-0.08,-1.16,2.44,26.43,-28.02
956,1747401417880,0.54,-0.08,-1.16,2.44,26.43,-28.02
957,1747401417890,0.58,-0.07,-1.19,-9.34,8.67,-9.4
958,1747401417900,0.58,-0.07,-1.19,-9.34,8.67,-9.4
959,1747401417910,0.58,-0.07,-1.19,-9.34,8.67,-9.4
960,1747401417920,0.58,-0.07,-1.19,-9.34,8.67,-9.4
961,1747401417930,0.54,-0.06,-1.21,-5.0,2.93,4.52
962,1747401417940,0.54,-0.06,-1.21,-5.0,2.93,4.52
963,1747401417950,0.54,-0.06,-1.21,-5.0,2.93,4.52
964,1747401417960,0.5366666666666667,-0.04,-1.1833333333333331,-3.843333333333333,-0.61,9.726666666666668
965,1747401417970,0.53,0.0,-1.13,-1.53,-7.69,20.14
966,1747401417980,0.53,0.0,-1.13,-1.53,-7.69,20.14
967,1747401417990,0.53,0.0,-1.13,-1.53,-7.69,20.14
968,1747401418000,0.53,0.0,-1.13,-1.53,-7.69,20.14
969,1747401418010,0.47,-0.02,-1.07,9.46,6.96,10.93
970,1747401418020,0.47,-0.02,-1.07,9.46,6.96,10.93
971,1747401418030,0.47,-0.02,-1.07,9.46,6.96,10.93
972,1747401418040,0.46,-0.02,-1.08,-3.1149999999999998,2.23,15.87
973,1747401418050,0.46,-0.02,-1.08,-15.69,-2.5,20.81
974,1747401418060,0.46,-0.02,-1.08,-15.69,-2.5,20.81
975,1747401418070,0.46,-0.02,-1.08,-15.69,-2.5,20.81
976,1747401418080,0.44,-0.075,-1.1,-8.82,0.3999999999999999,24.075
977,1747401418090,0.42,-0.13,-1.12,-1.95,3.3,27.34
978,1747401418100,0.42,-0.13,-1.12,-1.95,3.3,27.34
979,1747401418110,0.42,-0.13,-1.12,-1.95,3.3,27.34
980,1747401418120,0.35,-0.01,-1.07,18.07,5.07,19.47
981,1747401418130,0.35,-0.01,-1.07,18.07,5.07,19.47
982,1747401418140,0.35,-0.01,-1.07,18.07,5.07,19.47
983,1747401418150,0.35,-0.01,-1.07,18.07,5.07,19.47
984,1747401418160,0.44,-0.06,-1.15,-30.58,-18.13,27.89
985,1747401418170,,,,,,
986,1747401418180,0.44,-0.06,-1.15,-30.58,-18.13,27.89
987,1747401418190,0.44,-0.06,-1.15,-30.58,-18.13,27.89
988,1747401418200,0.26,-0.17,-1.01,38.7,4.94,7.2
989,1747401418210,0.26,-0.17,-1.01,38.7,4.94,7.2
990,1747401418220,0.26,-0.17,-1.01,38.7,4.94,7.2
991,1747401418230,0.325,-0.125,-0.965,21.975,-10.195,10.895
992,1747401418240,0.39,-0.08,-0.92,5.25,-25.33,14.59
993,1747401418250,0.39,-0.08,-0.92,5.25,-25.33,14.59
994,1747401418260,0.39,-0.08,-0.92,5.25,-25.33,14.59
995,1747401418270,0.32,-0.16,-0.905,5.25,-25.33,14.59
996,1747401418280,0.25,-0.24,-0.89,-9.03,-1.83,13.12
997,1747401418290,0.25,-0.24,-0.89,-9.03,-1.83,13.12
998,1747401418300,0.25,-0.24,-0.89,-9.03,-1.83,13.12
999,1747401418310,0.25,-0.24,-0.89,-9.03,-1.83,13.12
1000,1747401418320,0.25,-0.18,-0.92,-8.67,-10.62,30.52
