id,timestamp,acc_x,acc_y,acc_z,gyro_x,gyro_y,gyro_z
0,1747401604850,0.57,-0.1,-1.03,33.2,9.09,-9.64
1,1747401604860,0.57,-0.1,-1.03,33.2,9.09,-9.64
2,1747401604870,0.73,-0.33,-1.07,96.31,7.69,-12.63
3,1747401604880,0.73,-0.33,-1.07,96.31,7.69,-12.63
4,1747401604890,0.73,-0.33,-1.07,96.31,7.69,-12.63
5,1747401604900,0.73,-0.33,-1.07,96.31,7.69,-12.63
6,1747401604910,0.74,-0.2,-0.93,89.97,-32.04,5.43
7,1747401604920,0.74,-0.2,-0.93,89.97,-32.04,5.43
8,1747401604930,0.74,-0.2,-0.93,89.97,-32.04,5.43
9,1747401604940,0.74,-0.2,-0.93,89.97,-32.04,5.43
10,1747401604950,0.78,-0.18,-0.87,-30.7,-39.43,21.06
11,1747401604960,0.78,-0.18,-0.87,-30.7,-39.43,21.06
12,1747401604970,0.78,-0.18,-0.87,-30.7,-39.43,21.06
13,1747401604980,0.57,-0.22,-0.82,-21.425,-7.355,26.645
14,1747401604990,0.57,-0.22,-0.82,-12.15,24.72,32.23
15,1747401605000,0.57,-0.22,-0.82,-12.15,24.72,32.23
16,1747401605010,0.57,-0.22,-0.82,-12.15,24.72,32.23
17,1747401605020,0.61,-0.31,-0.77,-30.82,3.78,26.55
18,1747401605030,0.61,-0.31,-0.77,-30.82,3.78,26.55
19,1747401605040,0.61,-0.31,-0.77,-30.82,3.78,26.55
20,1747401605050,0.525,-0.25,-0.78,-32.075,10.59,42.39
21,1747401605060,0.44,-0.19,-0.79,-33.33,17.4,58.23
22,1747401605070,0.44,-0.19,-0.79,-33.33,17.4,58.23
23,1747401605080,0.44,-0.19,-0.79,-33.33,17.4,58.23
24,1747401605090,0.44,-0.19,-0.79,-33.33,17.4,58.23
25,1747401605100,0.44,-0.19,-0.79,-33.33,17.4,58.23
26,1747401605110,0.24,-0.24,-0.97,-58.35,-116.39,40.28
27,1747401605120,0.24,-0.24,-0.97,-58.35,-116.39,40.28
28,1747401605130,0.24,-0.24,-0.97,-58.35,-116.39,40.28
29,1747401605140,0.295,-0.275,-0.8200000000000001,-44.955,-48.155,35.155
30,1747401605150,0.35,-0.31,-0.67,-31.56,20.08,30.03
31,1747401605160,0.35,-0.31,-0.67,-31.56,20.08,30.03
32,1747401605170,0.23,-0.38,-0.71,10.38,55.3,-6.23
33,1747401605180,0.23,-0.38,-0.71,10.38,55.3,-6.23
34,1747401605190,0.23,-0.38,-0.71,10.38,55.3,-6.23
35,1747401605200,0.23,-0.38,-0.71,10.38,55.3,-6.23
36,1747401605210,0.26,-0.34,-0.97,-21.18,-16.11,49.19
37,1747401605220,0.26,-0.34,-0.97,-21.18,-16.11,49.19
38,1747401605230,0.26,-0.34,-0.97,-21.18,-16.11,49.19
39,1747401605240,0.26,-0.34,-0.97,-21.18,-16.11,49.19
40,1747401605250,0.04,-0.39,-0.86,35.4,-130.31,7.51
41,1747401605260,0.04,-0.39,-0.86,35.4,-130.31,7.51
42,1747401605270,0.04,-0.39,-0.86,35.4,-130.31,7.51
43,1747401605280,0.065,-0.36,-0.8,24.23,-122.71,12.760000000000002
44,1747401605290,0.09,-0.33,-0.74,13.06,-115.11,18.01
45,1747401605300,0.09,-0.33,-0.74,13.06,-115.11,18.01
46,1747401605310,0.09,-0.33,-0.74,13.06,-115.11,18.01
47,1747401605320,0.09,-0.33,-0.74,13.06,-115.11,18.01
48,1747401605330,-0.11,-0.53,-0.82,-16.42,-52.12,55.6
49,1747401605340,-0.11,-0.53,-0.82,-16.42,-52.12,55.6
50,1747401605350,-0.11,-0.53,-0.82,-16.42,-52.12,55.6
51,1747401605360,-0.1149999999999999,-0.41,-0.815,-19.5,4.460000000000001,19.285
52,1747401605370,-0.12,-0.29,-0.81,-22.58,61.04,-17.03
53,1747401605380,-0.12,-0.29,-0.81,-22.58,61.04,-17.03
54,1747401605390,-0.12,-0.29,-0.81,-22.58,61.04,-17.03
55,1747401605400,-0.12,-0.29,-0.81,-22.58,61.04,-17.03
56,1747401605410,-0.12,-0.29,-0.81,-22.58,61.04,-17.03
57,1747401605420,-0.135,-0.365,-0.8600000000000001,-50.32,67.08,-1.7700000000000005
58,1747401605430,-0.15,-0.44,-0.91,-78.06,73.12,13.49
59,1747401605440,-0.29,-0.55,-1.08,-15.56,71.04,-5.86
60,1747401605450,-0.29,-0.55,-1.08,-15.56,71.04,-5.86
61,1747401605460,-0.29,-0.55,-1.08,-15.56,71.04,-5.86
62,1747401605470,-0.29,-0.55,-1.08,-15.56,71.04,-5.86
63,1747401605480,-0.25,-0.47,-1.12,-41.2,45.23,-13.55
64,1747401605490,-0.25,-0.47,-1.12,-41.2,45.23,-13.55
65,1747401605500,-0.25,-0.47,-1.12,-41.2,45.23,-13.55
66,1747401605510,-0.25,-0.47,-1.12,-41.2,45.23,-13.55
67,1747401605520,-0.28,-0.65,-1.31,-9.03,46.45,-22.64
68,1747401605530,-0.28,-0.65,-1.31,-9.03,46.45,-22.64
69,1747401605540,-0.28,-0.65,-1.31,-9.03,46.45,-22.64
70,1747401605550,-0.33,-0.52,-1.29,-1.71,36.99,-21.12
71,1747401605560,-0.33,-0.52,-1.29,-1.71,36.99,-21.12
72,1747401605570,-0.33,-0.52,-1.29,-1.71,36.99,-21.12
73,1747401605580,-0.33,-0.52,-1.29,-1.71,36.99,-21.12
74,1747401605590,-0.33,-0.52,-1.29,-1.71,36.99,-21.12
75,1747401605600,-0.26,-0.64,-1.3,-27.28,6.29,-15.5
76,1747401605610,-0.26,-0.64,-1.3,-27.28,6.29,-15.5
77,1747401605620,-0.26,-0.64,-1.3,-27.28,6.29,-15.5
78,1747401605630,-0.27,-0.67,-1.25,7.14,10.68,0.61
79,1747401605640,-0.27,-0.67,-1.25,7.14,10.68,0.61
80,1747401605650,-0.27,-0.67,-1.25,7.14,10.68,0.61
81,1747401605660,-0.27,-0.67,-1.25,7.14,10.68,0.61
82,1747401605670,-0.21,-0.51,-1.15,2.99,-20.14,2.62
83,1747401605680,-0.21,-0.51,-1.15,2.99,-20.14,2.62
84,1747401605690,-0.21,-0.51,-1.15,2.99,-20.14,2.62
85,1747401605700,-0.21,-0.51,-1.15,2.99,-20.14,2.62
86,1747401605710,-0.28,-0.61,-1.04,-0.79,49.74,-4.76
87,1747401605720,-0.28,-0.61,-1.04,-0.79,49.74,-4.76
88,1747401605730,-0.28,-0.61,-1.04,-0.79,49.74,-4.76
89,1747401605740,-0.28,-0.61,-1.04,-0.79,49.74,-4.76
90,1747401605750,-0.19,-0.54,-1.0,-0.79,49.74,-4.76
91,1747401605760,-0.19,-0.54,-1.0,-1.98,32.805,7.265
92,1747401605770,-0.19,-0.54,-1.0,-3.17,15.87,19.29
93,1747401605780,0.07,-0.55,-0.88,-3.17,15.87,19.29
94,1747401605790,0.07,-0.55,-0.88,-8.85,-16.24,3.91
95,1747401605800,0.07,-0.55,-0.88,-8.85,-16.24,3.91
96,1747401605810,0.07,-0.55,-0.88,-8.85,-16.24,3.91
97,1747401605820,0.02,-0.35,-1.15,-8.85,-16.24,3.91
98,1747401605830,0.02,-0.35,-1.15,-2.14,-35.64,8.79
99,1747401605840,0.02,-0.35,-1.15,-2.14,-35.64,8.79
100,1747401605850,0.02,-0.35,-1.15,-2.14,-35.64,8.79
101,1747401605860,0.08,-0.41,-0.77,-5.680000000000001,-52.795,2.505
102,1747401605870,0.08,-0.41,-0.77,-9.22,-69.95,-3.78
103,1747401605880,0.08,-0.41,-0.77,-9.22,-69.95,-3.78
104,1747401605890,0.08,-0.41,-0.77,-9.22,-69.95,-3.78
105,1747401605900,0.08,-0.39,-0.8400000000000001,3.265,-42.39,-3.935
106,1747401605910,0.08,-0.37,-0.91,15.75,-14.83,-4.09
107,1747401605920,0.08,-0.37,-0.91,15.75,-14.83,-4.09
108,1747401605930,0.09,-0.29,-0.875,12.79,-19.075,-6.195
109,1747401605940,0.1,-0.21,-0.84,9.83,-23.32,-8.3
110,1747401605950,0.1,-0.21,-0.84,9.83,-23.32,-8.3
111,1747401605960,0.1,-0.21,-0.84,9.83,-23.32,-8.3
112,1747401605970,0.135,-0.22,-0.835,-12.845000000000002,-19.9,4.549999999999999
113,1747401605980,0.17,-0.23,-0.83,-35.52,-16.48,17.4
114,1747401605990,0.17,-0.23,-0.83,-35.52,-16.48,17.4
115,1747401606000,0.17,-0.23,-0.83,-35.52,-16.48,17.4
116,1747401606010,0.17,-0.23,-0.83,-35.52,-16.48,17.4
117,1747401606020,0.16,-0.22,-0.86,-11.6,-3.66,2.69
118,1747401606030,0.16,-0.22,-0.86,-11.6,-3.66,2.69
119,1747401606040,0.16,-0.22,-0.86,-11.6,-3.66,2.69
120,1747401606050,0.17,-0.15,-0.82,-29.91,-12.33,30.095
121,1747401606060,0.17,-0.15,-0.82,-48.22,-21.0,57.5
122,1747401606070,0.17,-0.15,-0.82,-48.22,-21.0,57.5
123,1747401606080,0.17,-0.15,-0.82,-48.22,-21.0,57.5
124,1747401606090,0.2,-0.04,-0.86,-34.36,-14.83,-50.23
125,1747401606100,0.2,-0.04,-0.86,-34.36,-14.83,-50.23
126,1747401606110,0.2,-0.04,-0.86,-34.36,-14.83,-50.23
127,1747401606120,0.2,-0.04,-0.86,-34.36,-14.83,-50.23
128,1747401606130,0.24,0.01,-0.89,-67.69,-58.29,-26.06
129,1747401606140,0.24,0.01,-0.89,-67.69,-58.29,-26.06
130,1747401606150,0.24,0.01,-0.89,-67.69,-58.29,-26.06
131,1747401606160,0.4,-0.055,-0.88,-71.595,-32.84,-5.43
132,1747401606170,,,,,,
133,1747401606180,0.56,-0.12,-0.87,-75.5,-7.39,15.2
134,1747401606190,,,,,,
135,1747401606200,0.56,-0.12,-0.87,-75.5,-7.39,15.2
136,1747401606210,0.33,-0.01,-1.09,4.21,28.38,-27.71
137,1747401606220,0.33,-0.01,-1.09,4.21,28.38,-27.71
138,1747401606230,0.33,-0.01,-1.09,4.21,28.38,-27.71
139,1747401606240,0.48,0.02,-1.0,-29.66,-17.46,-16.78
140,1747401606250,0.48,0.02,-1.0,-29.66,-17.46,-16.78
141,1747401606260,0.48,0.02,-1.0,-29.66,-17.46,-16.78
142,1747401606270,0.48,0.02,-1.0,-29.66,-17.46,-16.78
143,1747401606280,0.41,-0.09,-0.96,-3.54,22.28,-22.89
144,1747401606290,0.41,-0.09,-0.96,-3.54,22.28,-22.89
145,1747401606300,0.41,-0.09,-0.96,-3.54,22.28,-22.89
146,1747401606310,0.41,-0.09,-0.96,-3.54,22.28,-22.89
147,1747401606320,0.41,0.06,-1.05,-3.54,22.28,-22.89
148,1747401606330,0.41,0.06,-1.05,-10.62,-10.99,-6.04
149,1747401606340,0.41,0.06,-1.05,-10.62,-10.99,-6.04
150,1747401606350,0.41,0.06,-1.05,-10.62,-10.99,-6.04
151,1747401606360,0.42,-0.04,-1.07,-14.4,20.45,-21.12
152,1747401606370,,,,,,
153,1747401606380,0.42,-0.04,-1.07,-14.4,20.45,-21.12
154,1747401606390,0.4,-0.02,-1.19,-14.4,20.45,-21.12
155,1747401606400,0.4,-0.02,-1.19,-25.15,8.91,-16.3
156,1747401606410,0.4,-0.02,-1.19,-25.15,8.91,-16.3
157,1747401606420,0.4,-0.02,-1.19,-25.15,8.91,-16.3
158,1747401606430,0.4,-0.02,-1.19,-25.15,8.91,-16.3
159,1747401606440,0.43,-0.03,-1.23,-19.59,11.66,-3.11
160,1747401606450,0.43,-0.03,-1.23,-19.59,11.66,-3.11
161,1747401606460,0.43,-0.03,-1.23,-19.59,11.66,-3.11
162,1747401606470,0.48,0.02,-1.22,-19.59,11.66,-3.11
163,1747401606480,0.48,0.02,-1.22,-4.94,1.89,4.03
164,1747401606490,0.48,0.02,-1.22,-4.94,1.89,4.03
165,1747401606500,0.48,0.02,-1.22,-4.94,1.89,4.03
166,1747401606510,0.48,0.05,-1.19,-4.94,1.89,4.03
167,1747401606520,0.48,0.05,-1.19,12.08,3.85,-4.94
168,1747401606530,0.48,0.05,-1.19,12.08,3.85,-4.94
169,1747401606540,0.48,0.05,-1.19,12.08,3.85,-4.94
170,1747401606550,0.48,0.095,-1.15,5.92,3.085,-10.555
171,1747401606560,0.48,0.14,-1.11,-0.24,2.32,-16.17
172,1747401606570,0.48,0.14,-1.11,-0.24,2.32,-16.17
173,1747401606580,0.48,0.14,-1.11,-0.24,2.32,-16.17
174,1747401606590,0.51,-0.04,-1.08,-10.955,0.3649999999999999,0.7349999999999994
175,1747401606600,0.51,-0.04,-1.08,-21.67,-1.59,17.64
176,1747401606610,0.51,-0.04,-1.08,-21.67,-1.59,17.64
177,1747401606620,0.51,-0.04,-1.08,-21.67,-1.59,17.64
178,1747401606630,0.39,0.03,-1.05,23.01,-7.2,12.57
179,1747401606640,0.39,0.03,-1.05,23.01,-7.2,12.57
180,1747401606650,0.39,0.03,-1.05,23.01,-7.2,12.57
181,1747401606660,0.39,0.03,-1.05,23.01,-7.2,12.57
182,1747401606670,0.44,-0.02,-0.98,61.16,9.58,12.15
183,1747401606680,0.44,-0.02,-0.98,61.16,9.58,12.15
184,1747401606690,0.44,-0.02,-0.98,61.16,9.58,12.15
185,1747401606700,0.44,-0.02,-0.98,61.16,9.58,12.15
186,1747401606710,0.24,0.04,-0.92,49.87,-18.68,19.78
187,1747401606720,0.24,0.04,-0.92,49.87,-18.68,19.78
188,1747401606730,0.24,0.04,-0.92,49.87,-18.68,19.78
189,1747401606740,0.305,-0.03,-0.96,18.1,-21.64,24.325000000000003
190,1747401606750,0.37,-0.1,-1.0,-13.67,-24.6,28.87
191,1747401606760,0.37,-0.1,-1.0,-13.67,-24.6,28.87
192,1747401606770,0.37,-0.1,-1.0,-13.67,-24.6,28.87
193,1747401606780,0.09,-0.11,-0.95,43.46,-4.64,11.6
194,1747401606790,0.09,-0.11,-0.95,43.46,-4.64,11.6
195,1747401606800,0.09,-0.11,-0.95,43.46,-4.64,11.6
196,1747401606810,0.09,-0.11,-0.95,43.46,-4.64,11.6
197,1747401606820,0.21,-0.06,-0.95,-21.42,-39.25,27.89
198,1747401606830,0.21,-0.06,-0.95,-21.42,-39.25,27.89
199,1747401606840,0.21,-0.06,-0.95,-21.42,-39.25,27.89
200,1747401606850,0.21,-0.06,-0.95,-21.42,-39.25,27.89
201,1747401606860,0.15,-0.14,-0.94,-5.155000000000001,-22.86,11.625
202,1747401606870,0.09,-0.22,-0.93,11.11,-6.47,-4.64
203,1747401606880,0.09,-0.22,-0.93,11.11,-6.47,-4.64
204,1747401606890,0.09,-0.22,-0.93,11.11,-6.47,-4.64
205,1747401606900,0.1,-0.2,-0.88,1.71,-30.27,5.98
206,1747401606910,0.1,-0.2,-0.88,1.71,-30.27,5.98
207,1747401606920,0.1,-0.2,-0.88,1.71,-30.27,5.98
208,1747401606930,0.1,-0.2,-0.88,1.71,-30.27,5.98
209,1747401606940,0.1,-0.12,-0.92,1.4,-5.19,-5.13
210,1747401606950,0.1,-0.12,-0.92,1.4,-5.19,-5.13
211,1747401606960,0.1,-0.12,-0.92,1.4,-5.19,-5.13
212,1747401606970,0.1,-0.12,-0.92,1.4,-5.19,-5.13
213,1747401606980,0.02,-0.27,-0.8,-25.27,-14.34,17.27
214,1747401606990,0.02,-0.27,-0.8,-25.27,-14.34,17.27
215,1747401607000,0.02,-0.27,-0.8,-25.27,-14.34,17.27
216,1747401607010,0.03,-0.205,-0.815,-7.14,2.1999999999999997,3.6
217,1747401607020,0.04,-0.14,-0.83,10.99,18.74,-10.07
218,1747401607030,0.04,-0.14,-0.83,10.99,18.74,-10.07
219,1747401607040,0.04,-0.14,-0.83,10.99,18.74,-10.07
220,1747401607050,0.04,-0.14,-0.83,10.99,18.74,-10.07
221,1747401607060,-0.08,-0.25,-0.92,-32.71,14.89,1.53
222,1747401607070,-0.08,-0.25,-0.92,-32.71,14.89,1.53
223,1747401607080,-0.08,-0.25,-0.92,-32.71,14.89,1.53
224,1747401607090,-0.035,-0.215,-0.925,-1.7350000000000012,18.28,-5.765000000000001
225,1747401607100,0.01,-0.18,-0.93,29.24,21.67,-13.06
226,1747401607110,0.01,-0.18,-0.93,29.24,21.67,-13.06
227,1747401607120,0.01,-0.18,-0.93,29.24,21.67,-13.06
228,1747401607130,-0.03,-0.2,-0.965,20.145,14.77,-20.385
229,1747401607140,-0.07,-0.22,-1.0,11.05,7.87,-27.71
230,1747401607150,-0.07,-0.22,-1.0,11.05,7.87,-27.71
231,1747401607160,-0.065,-0.295,-1.045,7.175000000000001,-8.03,-10.68
232,1747401607170,-0.06,-0.37,-1.09,3.3,-23.93,6.35
233,1747401607180,-0.06,-0.37,-1.09,3.3,-23.93,6.35
234,1747401607190,-0.06,-0.37,-1.09,3.3,-23.93,6.35
235,1747401607200,-0.125,-0.365,-1.045,31.315,-3.33,-16.05
236,1747401607210,-0.19,-0.36,-1.0,59.33,17.27,-38.45
237,1747401607220,-0.19,-0.36,-1.0,59.33,17.27,-38.45
238,1747401607230,-0.19,-0.36,-1.0,59.33,17.27,-38.45
239,1747401607240,-0.19,-0.36,-1.0,59.33,17.27,-38.45
240,1747401607250,-0.3,-0.57,-1.07,12.88,20.51,-8.91
241,1747401607260,-0.3,-0.57,-1.07,12.88,20.51,-8.91
242,1747401607270,-0.3,-0.57,-1.07,12.88,20.51,-8.91
243,1747401607280,-0.36,-0.56,-1.11,33.905,26.305,-9.0
244,1747401607290,-0.42,-0.55,-1.15,54.93,32.1,-9.09
245,1747401607300,-0.42,-0.55,-1.15,54.93,32.1,-9.09
246,1747401607310,-0.42,-0.55,-1.15,54.93,32.1,-9.09
247,1747401607320,-0.34,-0.48,-1.11,30.27,-7.2,-8.0
248,1747401607330,-0.34,-0.48,-1.11,30.27,-7.2,-8.0
249,1747401607340,-0.34,-0.48,-1.11,30.27,-7.2,-8.0
250,1747401607350,-0.34,-0.48,-1.11,30.27,-7.2,-8.0
251,1747401607360,-0.33,-0.55,-1.21,24.23,14.53,6.16
252,1747401607370,-0.33,-0.55,-1.21,24.23,14.53,6.16
253,1747401607380,-0.33,-0.55,-1.21,24.23,14.53,6.16
254,1747401607390,-0.33,-0.55,-1.21,24.23,14.53,6.16
255,1747401607400,-0.42,-0.51,-1.14,22.09,5.92,12.88
256,1747401607410,-0.42,-0.51,-1.14,22.09,5.92,12.88
257,1747401607420,-0.42,-0.51,-1.14,22.09,5.92,12.88
258,1747401607430,-0.42,-0.51,-1.14,22.09,5.92,12.88
259,1747401607440,-0.37,-0.48,-1.11,-11.11,-4.39,11.54
260,1747401607450,-0.37,-0.48,-1.11,-11.11,-4.39,11.54
261,1747401607460,-0.37,-0.48,-1.11,-11.11,-4.39,11.54
262,1747401607470,-0.37,-0.48,-1.11,-11.11,-4.39,11.54
263,1747401607480,-0.42,-0.6,-1.11,-19.23,1.22,16.97
264,1747401607490,-0.42,-0.6,-1.11,-19.23,1.22,16.97
265,1747401607500,-0.42,-0.6,-1.11,-19.23,1.22,16.97
266,1747401607510,-0.37,-0.48,-0.99,-5.8,-20.94,21.06
267,1747401607520,-0.37,-0.48,-0.99,-5.8,-20.94,21.06
268,1747401607530,-0.37,-0.48,-0.99,-5.8,-20.94,21.06
269,1747401607540,-0.37,-0.48,-0.99,-5.8,-20.94,21.06
270,1747401607550,-0.22,-0.44,-0.9,-43.4,-12.27,18.92
271,1747401607560,-0.22,-0.44,-0.9,-43.4,-12.27,18.92
272,1747401607570,-0.22,-0.44,-0.9,-43.4,-12.27,18.92
273,1747401607580,-0.22,-0.44,-0.9,-43.4,-12.27,18.92
274,1747401607590,-0.24,-0.58,-0.98,-29.48,-4.15,48.03
275,1747401607600,-0.24,-0.58,-0.98,-29.48,-4.15,48.03
276,1747401607610,-0.24,-0.58,-0.98,-29.48,-4.15,48.03
277,1747401607620,-0.24,-0.58,-0.98,-29.48,-4.15,48.03
278,1747401607630,-0.26,-0.26,-0.92,3.3,-7.02,36.62
279,1747401607640,-0.26,-0.26,-0.92,3.3,-7.02,36.62
280,1747401607650,-0.26,-0.26,-0.92,3.3,-7.02,36.62
281,1747401607660,-0.26,-0.26,-0.92,3.3,-7.02,36.62
282,1747401607670,-0.21,-0.3,-0.93,-23.38,2.14,1.46
283,1747401607680,-0.21,-0.3,-0.93,-23.38,2.14,1.46
284,1747401607690,-0.21,-0.3,-0.93,-23.38,2.14,1.46
285,1747401607700,-0.21,-0.3,-0.93,-23.38,2.14,1.46
286,1747401607710,-0.21,-0.3,-0.93,-23.38,2.14,1.46
287,1747401607720,-0.14,-0.42,-0.94,9.46,-10.01,16.78
288,1747401607730,-0.14,-0.42,-0.94,9.46,-10.01,16.78
289,1747401607740,0.02,-0.17,-0.9,16.05,11.11,-19.17
290,1747401607750,0.02,-0.17,-0.9,16.05,11.11,-19.17
291,1747401607760,0.02,-0.17,-0.9,16.05,11.11,-19.17
292,1747401607770,0.02,-0.17,-0.9,16.05,11.11,-19.17
293,1747401607780,0.02,-0.17,-0.9,16.05,11.11,-19.17
294,1747401607790,0.02,-0.33,-0.98,-48.52,-21.18,-13.06
295,1747401607800,0.02,-0.33,-0.98,-48.52,-21.18,-13.06
296,1747401607810,0.02,-0.33,-0.98,-48.52,-21.18,-13.06
297,1747401607820,0.2,-0.43,-0.93,-3.6,-11.9,7.14
298,1747401607830,0.2,-0.43,-0.93,-3.6,-11.9,7.14
299,1747401607840,0.2,-0.43,-0.93,-3.6,-11.9,7.14
300,1747401607850,0.2,-0.43,-0.93,-3.6,-11.9,7.14
301,1747401607860,0.1,-0.15,-0.85,15.26,28.63,-33.75
302,1747401607870,0.1,-0.15,-0.85,15.26,28.63,-33.75
303,1747401607880,0.1,-0.15,-0.85,15.26,28.63,-33.75
304,1747401607890,0.13,-0.21,-0.875,-16.785,8.03,-20.75
305,1747401607900,0.16,-0.27,-0.9,-48.83,-12.57,-7.75
306,1747401607910,0.16,-0.27,-0.9,-48.83,-12.57,-7.75
307,1747401607920,0.16,-0.27,-0.9,-48.83,-12.57,-7.75
308,1747401607930,0.16,-0.27,-0.9,-48.83,-12.57,-7.75
309,1747401607940,0.31,-0.19,-0.89,-10.25,2.14,-13.85
310,1747401607950,0.31,-0.19,-0.89,-10.25,2.14,-13.85
311,1747401607960,0.31,-0.19,-0.89,-10.25,2.14,-13.85
312,1747401607970,0.27,-0.09,-0.92,-35.52,2.78,-17.665
313,1747401607980,0.23,0.01,-0.95,-60.79,3.42,-21.48
314,1747401607990,0.23,0.01,-0.95,-60.79,3.42,-21.48
315,1747401608000,0.23,0.01,-0.95,-60.79,3.42,-21.48
316,1747401608010,0.38,-0.15,-1.06,-62.74,-35.28,2.2
317,1747401608020,0.38,-0.15,-1.06,-62.74,-35.28,2.2
318,1747401608030,0.38,-0.15,-1.06,-62.74,-35.28,2.2
319,1747401608040,0.38,-0.15,-1.06,-62.74,-35.28,2.2
320,1747401608050,0.41,0.01,-1.03,-34.42,-6.16,-31.25
321,1747401608060,0.41,0.01,-1.03,-34.42,-6.16,-31.25
322,1747401608070,0.41,0.01,-1.03,-34.42,-6.16,-31.25
323,1747401608080,0.41,0.01,-1.03,-34.42,-6.16,-31.25
324,1747401608090,0.36,-0.1,-1.11,-30.21,-5.31,-18.92
325,1747401608100,0.36,-0.1,-1.11,-30.21,-5.31,-18.92
326,1747401608110,0.36,-0.1,-1.11,-30.21,-5.31,-18.92
327,1747401608120,0.36,-0.1,-1.11,-30.21,-5.31,-18.92
328,1747401608130,0.35,-0.035,-1.11,-20.875,-4.67,-17.700000000000003
329,1747401608140,0.34,0.03,-1.11,-11.54,-4.03,-16.48
330,1747401608150,0.34,0.03,-1.11,-11.54,-4.03,-16.48
331,1747401608160,0.305,0.05,-1.12,-21.15,-1.525,-18.585
332,1747401608170,0.27,0.07,-1.13,-30.76,0.98,-20.69
333,1747401608180,0.27,0.07,-1.13,-30.76,0.98,-20.69
334,1747401608190,0.27,0.07,-1.13,-30.76,0.98,-20.69
335,1747401608200,0.27,-0.06,-1.04,-41.32,3.91,-12.02
336,1747401608210,0.27,-0.06,-1.04,-41.32,3.91,-12.02
337,1747401608220,0.27,-0.06,-1.04,-41.32,3.91,-12.02
338,1747401608230,0.27,-0.06,-1.04,-41.32,3.91,-12.02
339,1747401608240,0.285,0.04,-1.13,-22.825,11.845,-21.3
340,1747401608250,0.3,0.14,-1.22,-4.33,19.78,-30.58
341,1747401608260,0.3,0.14,-1.22,-4.33,19.78,-30.58
342,1747401608270,0.3,0.14,-1.22,-4.33,19.78,-30.58
343,1747401608280,0.32,0.03,-1.15,-7.63,7.45,-18.86
344,1747401608290,0.32,0.03,-1.15,-7.63,7.45,-18.86
345,1747401608300,,,,,,
346,1747401608310,0.32,0.03,-1.15,-7.63,7.45,-18.86
347,1747401608320,0.345,0.02,-1.125,6.105,10.38,-16.205
348,1747401608330,0.37,0.01,-1.1,19.84,13.31,-13.55
349,1747401608340,0.37,0.01,-1.1,19.84,13.31,-13.55
350,1747401608350,0.37,0.01,-1.1,19.84,13.31,-13.55
351,1747401608360,0.4,0.11,-1.13,9.22,8.24,2.32
352,1747401608370,0.4,0.11,-1.13,9.22,8.24,2.32
353,1747401608380,0.4,0.11,-1.13,9.22,8.24,2.32
354,1747401608390,0.4,0.11,-1.13,9.22,8.24,2.32
355,1747401608400,0.5,0.04,-1.17,-5.68,30.33,-1.28
356,1747401608410,0.5,0.04,-1.17,-5.68,30.33,-1.28
357,1747401608420,0.5,0.04,-1.17,-5.68,30.33,-1.28
358,1747401608430,0.45,0.09,-1.09,-5.68,30.33,-1.28
359,1747401608440,0.45,0.09,-1.09,-2.93,10.8,22.03
360,1747401608450,0.45,0.09,-1.09,-2.93,10.8,22.03
361,1747401608460,0.45,0.09,-1.09,-2.93,10.8,22.03
362,1747401608470,0.45,0.09,-1.09,-2.93,10.8,22.03
363,1747401608480,0.47,0.06,-1.04,-7.51,14.4,23.32
364,1747401608490,0.47,0.06,-1.04,-7.51,14.4,23.32
365,1747401608500,0.47,0.06,-1.04,-7.51,14.4,23.32
366,1747401608510,0.32,-0.06,-1.01,33.33,-6.84,24.9
367,1747401608520,0.32,-0.06,-1.01,33.33,-6.84,24.9
368,1747401608530,0.32,-0.06,-1.01,33.33,-6.84,24.9
369,1747401608540,0.32,-0.06,-1.01,33.33,-6.84,24.9
370,1747401608550,0.44,0.04,-1.0,30.46,1.65,22.58
371,1747401608560,0.44,0.04,-1.0,30.46,1.65,22.58
372,1747401608570,0.44,0.04,-1.0,30.46,1.65,22.58
373,1747401608580,0.44,0.04,-1.0,30.46,1.65,22.58
374,1747401608590,0.21,-0.13,-0.99,36.32,16.11,18.01
375,1747401608600,0.21,-0.13,-0.99,36.32,16.11,18.01
376,1747401608610,0.21,-0.13,-0.99,36.32,16.11,18.01
377,1747401608620,0.21,-0.13,-0.99,36.32,16.11,18.01
378,1747401608630,0.14,-0.04,-1.0,3.85,-13.06,18.49
379,1747401608640,0.14,-0.04,-1.0,3.85,-13.06,18.49
380,1747401608650,0.14,-0.04,-1.0,3.85,-13.06,18.49
381,1747401608660,0.16,-0.105,-1.025,-8.45,-12.39,21.21
382,1747401608670,0.18,-0.17,-1.05,-20.75,-11.72,23.93
383,1747401608680,0.18,-0.17,-1.05,-20.75,-11.72,23.93
384,1747401608690,0.18,-0.17,-1.05,-20.75,-11.72,23.93
385,1747401608700,0.02,-0.21,-0.96,-20.75,-11.72,23.93
386,1747401608710,0.02,-0.21,-0.96,14.65,-4.09,4.33
387,1747401608720,0.02,-0.21,-0.96,14.65,-4.09,4.33
388,1747401608730,0.02,-0.21,-0.96,14.65,-4.09,4.33
389,1747401608740,0.09,-0.13,-1.08,-28.69,-4.7,23.32
390,1747401608750,0.09,-0.13,-1.08,-28.69,-4.7,23.32
391,1747401608760,0.09,-0.13,-1.08,-28.69,-4.7,23.32
392,1747401608770,0.09,-0.13,-1.08,-28.69,-4.7,23.32
393,1747401608780,-0.1,-0.2,-1.06,13.92,12.76,-0.06
394,1747401608790,-0.1,-0.2,-1.06,13.92,12.76,-0.06
395,1747401608800,-0.1,-0.2,-1.06,13.92,12.76,-0.06
396,1747401608810,-0.1,-0.2,-1.06,13.92,12.76,-0.06
397,1747401608820,0.01,-0.16,-1.0,-5.55,-37.05,21.61
398,1747401608830,0.01,-0.16,-1.0,-5.55,-37.05,21.61
399,1747401608840,0.01,-0.16,-1.0,-5.55,-37.05,21.61
400,1747401608850,0.01,-0.16,-1.0,-5.55,-37.05,21.61
401,1747401608860,-0.06,-0.15,-0.9,19.9,-13.61,-3.85
402,1747401608870,-0.06,-0.15,-0.9,19.9,-13.61,-3.85
403,1747401608880,-0.06,-0.15,-0.9,19.9,-13.61,-3.85
404,1747401608890,-0.02,-0.16,-0.84,19.9,-13.61,-3.85
405,1747401608900,-0.02,-0.16,-0.84,25.45,-19.1,7.14
406,1747401608910,-0.02,-0.16,-0.84,25.45,-19.1,7.14
407,1747401608920,-0.02,-0.16,-0.84,25.45,-19.1,7.14
408,1747401608930,-0.06,-0.14,-0.78,43.58,-3.54,-15.87
409,1747401608940,-0.06,-0.14,-0.78,43.58,-3.54,-15.87
410,1747401608950,-0.06,-0.14,-0.78,43.58,-3.54,-15.87
411,1747401608960,-0.06,-0.14,-0.78,43.58,-3.54,-15.87
412,1747401608970,-0.06,-0.26,-0.8,-9.46,-11.66,5.68
413,1747401608980,-0.06,-0.26,-0.8,-9.46,-11.66,5.68
414,1747401608990,-0.06,-0.26,-0.8,-9.46,-11.66,5.68
415,1747401609000,-0.06,-0.26,-0.8,-9.46,-11.66,5.68
416,1747401609010,-0.13,-0.27,-0.83,51.27,42.72,-24.96
417,1747401609020,-0.13,-0.27,-0.83,51.27,42.72,-24.96
418,1747401609030,-0.13,-0.27,-0.83,51.27,42.72,-24.96
419,1747401609040,-0.165,-0.32,-0.885,24.595,30.3,-10.1
420,1747401609050,-0.2,-0.37,-0.94,-2.08,17.88,4.76
421,1747401609060,-0.2,-0.37,-0.94,-2.08,17.88,4.76
422,1747401609070,-0.2,-0.37,-0.94,-2.08,17.88,4.76
423,1747401609080,-0.2,-0.37,-0.94,-2.08,17.88,4.76
424,1747401609090,-0.2,-0.37,-0.94,-2.08,17.88,4.76
425,1747401609100,-0.23,-0.38,-1.0,46.26,56.95,-33.69
426,1747401609110,-0.23,-0.38,-1.0,46.26,56.95,-33.69
427,1747401609120,-0.24,-0.385,-1.005,35.55,46.115,-32.41
428,1747401609130,-0.25,-0.39,-1.01,24.84,35.28,-31.13
429,1747401609140,-0.25,-0.39,-1.01,24.84,35.28,-31.13
430,1747401609150,-0.25,-0.39,-1.01,24.84,35.28,-31.13
431,1747401609160,-0.13,-0.45,-1.09,15.625,33.995000000000005,-30.7
432,1747401609170,-0.13,-0.45,-1.09,6.41,32.71,-30.27
433,1747401609180,-0.13,-0.45,-1.09,6.41,32.71,-30.27
434,1747401609190,-0.13,-0.45,-1.09,6.41,32.71,-30.27
435,1747401609200,-0.15,-0.53,-1.19,10.44,56.15,-17.15
436,1747401609210,-0.15,-0.53,-1.19,10.44,56.15,-17.15
437,1747401609220,-0.15,-0.53,-1.19,10.44,56.15,-17.15
438,1747401609230,-0.205,-0.54,-1.245,10.44,56.15,-17.15
439,1747401609240,-0.26,-0.55,-1.3,-19.1,27.04,-1.77
440,1747401609250,-0.26,-0.55,-1.3,-19.1,27.04,-1.77
441,1747401609260,-0.26,-0.55,-1.3,-19.1,27.04,-1.77
442,1747401609270,-0.26,-0.55,-1.3,-19.1,27.04,-1.77
443,1747401609280,-0.23,-0.68,-1.34,-8.0,4.27,6.65
444,1747401609290,-0.23,-0.68,-1.34,-8.0,4.27,6.65
445,1747401609300,-0.23,-0.68,-1.34,-8.0,4.27,6.65
446,1747401609310,-0.2,-0.59,-1.26,-8.0,4.27,6.65
447,1747401609320,-0.2,-0.59,-1.26,-2.99,-3.48,11.47
448,1747401609330,-0.2,-0.59,-1.26,-2.99,-3.48,11.47
449,1747401609340,-0.2,-0.59,-1.26,-2.99,-3.48,11.47
450,1747401609350,-0.2,-0.59,-1.26,-2.99,-3.48,11.47
451,1747401609360,-0.2,-0.59,-1.26,-2.99,-3.48,11.47
452,1747401609370,-0.24,-0.62,-1.21,-31.25,-29.17,26.61
453,1747401609380,-0.24,-0.62,-1.21,-31.25,-29.17,26.61
454,1747401609390,-0.25,-0.58,-1.11,-31.25,-29.17,26.61
455,1747401609400,-0.25,-0.58,-1.11,-22.92,-35.46,35.489999999999995
456,1747401609410,-0.25,-0.58,-1.11,-14.59,-41.75,44.37
457,1747401609420,-0.25,-0.58,-1.11,-14.59,-41.75,44.37
458,1747401609430,-0.21,-0.3,-0.95,-9.28,-27.925,35.43
459,1747401609440,-0.21,-0.3,-0.95,-3.97,-14.1,26.49
460,1747401609450,-0.21,-0.3,-0.95,-3.97,-14.1,26.49
461,1747401609460,-0.21,-0.3,-0.95,-3.97,-14.1,26.49
462,1747401609470,-0.21,-0.5,-0.98,-60.79,-43.03,47.61
463,1747401609480,-0.21,-0.5,-0.98,-60.79,-43.03,47.61
464,1747401609490,-0.21,-0.5,-0.98,-60.79,-43.03,47.61
465,1747401609500,-0.18,-0.4649999999999999,-0.93,-60.79,-43.03,47.61
466,1747401609510,-0.15,-0.43,-0.88,-9.77,-18.62,52.31
467,1747401609520,-0.15,-0.43,-0.88,-9.77,-18.62,52.31
468,1747401609530,-0.15,-0.43,-0.88,-9.77,-18.62,52.31
469,1747401609540,-0.15,-0.43,-0.88,-9.77,-18.62,52.31
470,1747401609550,-0.21,-0.17,-0.87,-15.5,0.43,19.96
471,1747401609560,-0.21,-0.17,-0.87,-15.5,0.43,19.96
472,1747401609570,-0.21,-0.17,-0.87,-15.5,0.43,19.96
473,1747401609580,-0.185,-0.25,-0.9,-27.555,-14.13,29.3
474,1747401609590,-0.16,-0.33,-0.93,-39.61,-28.69,38.64
475,1747401609600,-0.16,-0.33,-0.93,-39.61,-28.69,38.64
476,1747401609610,-0.16,-0.33,-0.93,-39.61,-28.69,38.64
477,1747401609620,-0.07,-0.18,-0.9,23.74,-10.86,-6.35
478,1747401609630,-0.07,-0.18,-0.9,23.74,-10.86,-6.35
479,1747401609640,-0.07,-0.18,-0.9,23.74,-10.86,-6.35
480,1747401609650,-0.07,-0.18,-0.9,23.74,-10.86,-6.35
481,1747401609660,-0.02,-0.1,-0.87,2.81,-12.21,-34.97
482,1747401609670,-0.02,-0.1,-0.87,2.81,-12.21,-34.97
483,1747401609680,-0.02,-0.1,-0.87,2.81,-12.21,-34.97
484,1747401609690,-0.02,-0.1,-0.87,2.81,-12.21,-34.97
485,1747401609700,0.16,-0.16,-0.89,-8.025,-21.365,-25.42
486,1747401609710,0.16,-0.16,-0.89,-18.86,-30.52,-15.87
487,1747401609720,0.16,-0.16,-0.89,-18.86,-30.52,-15.87
488,1747401609730,0.175,-0.14,-0.895,-18.86,-30.52,-15.87
489,1747401609740,0.19,-0.12,-0.9,1.28,13.18,-45.1
490,1747401609750,0.19,-0.12,-0.9,1.28,13.18,-45.1
491,1747401609760,0.19,-0.12,-0.9,1.28,13.18,-45.1
492,1747401609770,0.19,-0.12,-0.9,1.28,13.18,-45.1
493,1747401609780,0.13,-0.08,-0.93,-19.41,-8.67,-23.19
494,1747401609790,0.13,-0.08,-0.93,-19.41,-8.67,-23.19
495,1747401609800,0.13,-0.08,-0.93,-19.41,-8.67,-23.19
496,1747401609810,0.3,-0.03,-0.92,-37.41,-9.89,-28.75
497,1747401609820,0.3,-0.03,-0.92,-37.41,-9.89,-28.75
498,1747401609830,0.3,-0.03,-0.92,-37.41,-9.89,-28.75
499,1747401609840,0.3,-0.03,-0.92,-37.41,-9.89,-28.75
500,1747401609850,0.29,-0.04,-0.96,-41.565,-4.855,-27.130000000000003
501,1747401609860,0.28,-0.05,-1.0,-45.72,0.18,-25.51
502,1747401609870,0.28,-0.05,-1.0,-45.72,0.18,-25.51
503,1747401609880,0.28,-0.05,-1.0,-45.72,0.18,-25.51
504,1747401609890,0.305,-0.045,-1.01,-35.86,-4.9750000000000005,-27.035
505,1747401609900,0.33,-0.04,-1.02,-26.0,-10.13,-28.56
506,1747401609910,0.33,-0.04,-1.02,-26.0,-10.13,-28.56
507,1747401609920,0.33,-0.04,-1.02,-26.0,-10.13,-28.56
508,1747401609930,0.33,-0.04,-1.02,-26.0,-10.13,-28.56
509,1747401609940,0.43,0.03,-1.0,-23.13,8.91,-26.98
510,1747401609950,0.43,0.03,-1.0,-23.13,8.91,-26.98
511,1747401609960,0.38,0.0099999999999999,-1.05,-23.13,8.91,-26.98
512,1747401609970,0.33,-0.01,-1.1,-34.91,0.0,-29.05
513,1747401609980,0.33,-0.01,-1.1,-34.91,0.0,-29.05
514,1747401609990,0.33,-0.01,-1.1,-34.91,0.0,-29.05
515,1747401610000,0.33,-0.01,-1.1,-34.91,0.0,-29.05
516,1747401610010,0.37,-0.04,-1.07,-7.02,4.03,-31.8
517,1747401610020,0.37,-0.04,-1.07,-7.02,4.03,-31.8
518,1747401610030,0.37,-0.04,-1.07,-7.02,4.03,-31.8
519,1747401610040,0.3399999999999999,0.0099999999999999,-1.08,-5.4,12.88,-33.05
520,1747401610050,0.31,0.06,-1.09,-3.78,21.73,-34.3
521,1747401610060,0.31,0.06,-1.09,-3.78,21.73,-34.3
522,1747401610070,0.31,0.06,-1.09,-3.78,21.73,-34.3
523,1747401610080,0.29,0.02,-1.21,-16.415,11.05,-22.37
524,1747401610090,0.29,0.02,-1.21,-29.05,0.37,-10.44
525,1747401610100,0.29,0.02,-1.21,-29.05,0.37,-10.44
526,1747401610110,0.29,0.02,-1.21,-29.05,0.37,-10.44
527,1747401610120,0.37,0.04,-1.22,-7.45,4.21,-10.13
528,1747401610130,0.37,0.04,-1.22,-7.45,4.21,-10.13
529,1747401610140,0.37,0.04,-1.22,-7.45,4.21,-10.13
530,1747401610150,0.37,0.04,-1.22,-7.45,4.21,-10.13
531,1747401610160,0.41,0.01,-1.24,14.95,26.18,-16.11
532,1747401610170,0.41,0.01,-1.24,14.95,26.18,-16.11
533,1747401610180,0.41,0.01,-1.24,14.95,26.18,-16.11
534,1747401610190,0.405,0.025,-1.24,14.95,26.18,-16.11
535,1747401610200,0.4,0.04,-1.24,25.45,13.0,1.16
536,1747401610210,0.4,0.04,-1.24,25.45,13.0,1.16
537,1747401610220,0.4,0.04,-1.24,25.45,13.0,1.16
538,1747401610230,0.4,0.04,-1.24,25.45,13.0,1.16
539,1747401610240,0.49,-0.02,-1.17,13.12,3.3,3.97
540,1747401610250,0.49,-0.02,-1.17,13.12,3.3,3.97
541,1747401610260,0.49,-0.02,-1.17,13.12,3.3,3.97
542,1747401610270,0.4549999999999999,-0.04,-1.125,22.245,6.44,14.74
543,1747401610280,0.42,-0.06,-1.08,31.37,9.58,25.51
544,1747401610290,0.42,-0.06,-1.08,31.37,9.58,25.51
545,1747401610300,0.42,-0.06,-1.08,31.37,9.58,25.51
546,1747401610310,0.42,-0.03,-1.0950000000000002,31.92,5.555,24.17
547,1747401610320,0.42,0.0,-1.11,32.47,1.53,22.83
548,1747401610330,0.42,0.0,-1.11,32.47,1.53,22.83
549,1747401610340,0.42,0.0,-1.11,32.47,1.53,22.83
550,1747401610350,0.35,-0.16,-1.07,42.11,-5.0,32.9
551,1747401610360,0.35,-0.16,-1.07,42.11,-5.0,32.9
552,1747401610370,0.35,-0.16,-1.07,42.11,-5.0,32.9
553,1747401610380,0.35,-0.16,-1.07,42.11,-5.0,32.9
554,1747401610390,0.3,0.01,-1.01,24.99,-10.1,34.305
555,1747401610400,0.3,0.01,-1.01,7.87,-15.2,35.71
556,1747401610410,0.3,0.01,-1.01,7.87,-15.2,35.71
557,1747401610420,0.3,0.01,-1.01,7.87,-15.2,35.71
558,1747401610430,0.26,-0.15,-1.04,-13.43,-9.03,32.65
559,1747401610440,0.26,-0.15,-1.04,-13.43,-9.03,32.65
560,1747401610450,0.26,-0.15,-1.04,-13.43,-9.03,32.65
561,1747401610460,0.26,-0.15,-1.04,-13.43,-9.03,32.65
562,1747401610470,0.07,-0.16,-0.9,29.85,4.82,9.22
563,1747401610480,0.07,-0.16,-0.9,29.85,4.82,9.22
564,1747401610490,0.07,-0.16,-0.9,29.85,4.82,9.22
565,1747401610500,0.07,-0.16,-0.9,29.85,4.82,9.22
566,1747401610510,0.2,-0.08,-0.99,-39.31,-19.1,34.42
567,1747401610520,0.2,-0.08,-0.99,-39.31,-19.1,34.42
568,1747401610530,0.2,-0.08,-0.99,-39.31,-19.1,34.42
569,1747401610540,0.125,-0.165,-0.96,-8.670000000000002,-6.5600000000000005,22.855
570,1747401610550,0.05,-0.25,-0.93,21.97,5.98,11.29
571,1747401610560,0.05,-0.25,-0.93,21.97,5.98,11.29
572,1747401610570,0.05,-0.25,-0.93,21.97,5.98,11.29
573,1747401610580,0.05,-0.1,-0.85,9.09,-8.12,23.86
574,1747401610590,0.05,-0.1,-0.85,9.09,-8.12,23.86
575,1747401610600,0.05,-0.1,-0.85,9.09,-8.12,23.86
576,1747401610610,0.05,-0.1,-0.85,9.09,-8.12,23.86
577,1747401610620,0.02,-0.16,-0.85,-6.23,13.55,16.54
578,1747401610630,0.02,-0.16,-0.85,-6.23,13.55,16.54
579,1747401610640,0.02,-0.16,-0.85,-6.23,13.55,16.54
580,1747401610650,-0.045,-0.1699999999999999,-0.84,-6.23,13.55,16.54
581,1747401610660,-0.11,-0.18,-0.83,1.28,21.85,6.47
582,1747401610670,-0.11,-0.18,-0.83,1.28,21.85,6.47
583,1747401610680,-0.11,-0.18,-0.83,1.28,21.85,6.47
584,1747401610690,-0.08,-0.21,-0.86,-11.23,10.805,9.155
585,1747401610700,-0.05,-0.24,-0.89,-23.74,-0.24,11.84
586,1747401610710,-0.05,-0.24,-0.89,-23.74,-0.24,11.84
587,1747401610720,-0.05,-0.24,-0.89,-23.74,-0.24,11.84
588,1747401610730,-0.06,-0.275,-0.89,-19.315,10.04,5.035
589,1747401610740,-0.07,-0.31,-0.89,-14.89,20.32,-1.77
590,1747401610750,-0.07,-0.31,-0.89,-14.89,20.32,-1.77
591,1747401610760,-0.07,-0.31,-0.89,-14.89,20.32,-1.77
592,1747401610770,-0.06,-0.285,-0.95,-16.66,23.435,1.8
593,1747401610780,-0.05,-0.26,-1.01,-18.43,26.55,5.37
594,1747401610790,-0.05,-0.26,-1.01,-18.43,26.55,5.37
595,1747401610800,-0.05,-0.26,-1.01,-18.43,26.55,5.37
596,1747401610810,-0.09,-0.29,-1.07,-7.229999999999999,34.055,-2.41
597,1747401610820,-0.09,-0.29,-1.07,3.97,41.56,-10.19
598,1747401610830,-0.09,-0.29,-1.07,3.97,41.56,-10.19
599,1747401610840,-0.09,-0.29,-1.07,3.97,41.56,-10.19
600,1747401610850,-0.12,-0.29,-1.03,27.34,22.34,-19.23
601,1747401610860,-0.12,-0.29,-1.03,27.34,22.34,-19.23
602,1747401610870,-0.12,-0.29,-1.03,27.34,22.34,-19.23
603,1747401610880,-0.12,-0.29,-1.03,27.34,22.34,-19.23
604,1747401610890,-0.11,-0.26,-1.0,48.52,3.97,-47.97
605,1747401610900,-0.11,-0.26,-1.0,48.52,3.97,-47.97
606,1747401610910,-0.11,-0.26,-1.0,48.52,3.97,-47.97
607,1747401610920,-0.08,-0.31,-0.98,48.52,3.97,-47.97
608,1747401610930,-0.05,-0.36,-0.96,22.89,-31.25,-33.63
609,1747401610940,-0.05,-0.36,-0.96,22.89,-31.25,-33.63
610,1747401610950,-0.05,-0.36,-0.96,22.89,-31.25,-33.63
611,1747401610960,-0.05,-0.36,-0.96,22.89,-31.25,-33.63
612,1747401610970,-0.09,-0.36,-0.92,61.4,23.07,-58.96
613,1747401610980,-0.09,-0.36,-0.92,61.4,23.07,-58.96
614,1747401610990,-0.09,-0.36,-0.92,61.4,23.07,-58.96
615,1747401611000,-0.15,-0.47,-0.95,29.17,33.81,-37.54
616,1747401611010,-0.15,-0.47,-0.95,29.17,33.81,-37.54
617,1747401611020,-0.15,-0.47,-0.95,29.17,33.81,-37.54
618,1747401611030,-0.15,-0.47,-0.95,29.17,33.81,-37.54
619,1747401611040,-0.19,-0.51,-1.09,12.45,32.315,-34.06
620,1747401611050,-0.19,-0.51,-1.09,-4.27,30.82,-30.58
621,1747401611060,-0.19,-0.51,-1.09,-4.27,30.82,-30.58
622,1747401611070,-0.19,-0.51,-1.09,-4.27,30.82,-30.58
623,1747401611080,-0.19,-0.65,-1.25,-15.81,18.8,-15.56
624,1747401611090,-0.19,-0.65,-1.25,-15.81,18.8,-15.56
625,1747401611100,-0.19,-0.65,-1.25,-15.81,18.8,-15.56
626,1747401611110,-0.19,-0.65,-1.25,-15.81,18.8,-15.56
627,1747401611120,-0.19,-0.65,-1.3,-8.3,0.67,6.04
628,1747401611130,-0.19,-0.65,-1.3,-8.3,0.67,6.04
629,1747401611140,-0.19,-0.65,-1.3,-8.3,0.67,6.04
630,1747401611150,-0.19,-0.64,-1.285,-8.545,-6.625,10.925
631,1747401611160,-0.19,-0.63,-1.27,-8.79,-13.92,15.81
632,1747401611170,-0.19,-0.63,-1.27,-8.79,-13.92,15.81
633,1747401611180,-0.19,-0.63,-1.27,-8.79,-13.92,15.81
634,1747401611190,-0.22,-0.61,-1.18,-10.62,-28.99,31.13
635,1747401611200,-0.22,-0.61,-1.18,-10.62,-28.99,31.13
636,1747401611210,-0.22,-0.61,-1.18,-10.62,-28.99,31.13
637,1747401611220,-0.22,-0.61,-1.18,-10.62,-28.99,31.13
638,1747401611230,-0.2299999999999999,-0.575,-1.11,-6.715,-32.225,35.645
639,1747401611240,-0.24,-0.54,-1.04,-2.81,-35.46,40.16
640,1747401611250,-0.24,-0.54,-1.04,-2.81,-35.46,40.16
641,1747401611260,-0.24,-0.54,-1.04,-2.81,-35.46,40.16
642,1747401611270,-0.25,-0.44,-0.94,-17.4,-21.24,40.47
643,1747401611280,-0.25,-0.44,-0.94,-17.4,-21.24,40.47
644,1747401611290,-0.25,-0.44,-0.94,-17.4,-21.24,40.47
645,1747401611300,-0.25,-0.44,-0.94,-17.4,-21.24,40.47
646,1747401611310,-0.28,-0.51,-0.92,-20.26,-15.2,52.25
647,1747401611320,-0.28,-0.51,-0.92,-20.26,-15.2,52.25
648,1747401611330,-0.28,-0.51,-0.92,-20.26,-15.2,52.25
649,1747401611340,-0.28,-0.51,-0.92,-20.26,-15.2,52.25
650,1747401611350,-0.23,-0.42,-0.88,-8.3,-1.89,33.63
651,1747401611360,-0.23,-0.42,-0.88,-8.3,-1.89,33.63
652,1747401611370,-0.23,-0.42,-0.88,-8.3,-1.89,33.63
653,1747401611380,-0.23,-0.42,-0.88,-8.3,-1.89,33.63
654,1747401611390,-0.14,-0.41,-0.93,-29.17,-2.69,26.55
655,1747401611400,-0.14,-0.41,-0.93,-29.17,-2.69,26.55
656,1747401611410,-0.14,-0.41,-0.93,-29.17,-2.69,26.55
657,1747401611420,-0.09,-0.43,-0.925,-26.885,-19.35,34.395
658,1747401611430,-0.04,-0.45,-0.92,-24.6,-36.01,42.24
659,1747401611440,-0.04,-0.45,-0.92,-24.6,-36.01,42.24
660,1747401611450,-0.04,-0.45,-0.92,-24.6,-36.01,42.24
661,1747401611460,-0.04,-0.45,-0.92,-24.6,-36.01,42.24
662,1747401611470,-0.04,-0.345,-0.9,-17.975,-17.09,24.630000000000003
663,1747401611480,-0.04,-0.24,-0.88,-11.35,1.83,7.02
664,1747401611490,-0.04,-0.24,-0.88,-11.35,1.83,7.02
665,1747401611500,-0.04,-0.29,-0.96,-25.94,-15.08,11.72
666,1747401611510,-0.04,-0.29,-0.96,-25.94,-15.08,11.72
667,1747401611520,-0.04,-0.29,-0.96,-25.94,-15.08,11.72
668,1747401611530,-0.04,-0.29,-0.96,-25.94,-15.08,11.72
669,1747401611540,0.09,-0.19,-0.91,9.52,-17.94,-0.85
670,1747401611550,0.09,-0.19,-0.91,9.52,-17.94,-0.85
671,1747401611560,0.09,-0.19,-0.91,9.52,-17.94,-0.85
672,1747401611570,0.09,-0.19,-0.91,9.52,-17.94,-0.85
673,1747401611580,0.09,-0.19,-0.91,9.52,-17.94,-0.85
674,1747401611590,0.1,-0.15,-0.88,-15.14,-4.7,-10.99
675,1747401611600,0.1,-0.15,-0.88,-15.14,-4.7,-10.99
676,1747401611610,0.1,-0.15,-0.88,-15.14,-4.7,-10.99
677,1747401611620,0.14,-0.17,-0.92,-21.61,-22.22,0.92
678,1747401611630,0.14,-0.17,-0.92,-21.61,-22.22,0.92
679,1747401611640,0.14,-0.17,-0.92,-21.61,-22.22,0.92
680,1747401611650,0.23,-0.06,-0.88,-2.26,7.39,-18.31
681,1747401611660,0.23,-0.06,-0.88,-2.26,7.39,-18.31
682,1747401611670,0.23,-0.06,-0.88,-2.26,7.39,-18.31
683,1747401611680,0.23,-0.06,-0.88,-2.26,7.39,-18.31
684,1747401611690,0.23,-0.06,-0.88,-2.26,7.39,-18.31
685,1747401611700,0.17,-0.02,-0.92,-24.9,-5.19,-15.81
686,1747401611710,0.17,-0.02,-0.92,-24.9,-5.19,-15.81
687,1747401611720,0.17,-0.02,-0.92,-24.9,-5.19,-15.81
688,1747401611730,0.27,-0.04,-0.9,-29.85,-22.22,-11.29
689,1747401611740,0.27,-0.04,-0.9,-29.85,-22.22,-11.29
690,1747401611750,0.27,-0.04,-0.9,-29.85,-22.22,-11.29
691,1747401611760,0.31,-0.015,-0.92,-29.85,-22.22,-11.29
692,1747401611770,0.35,0.01,-0.94,-41.87,-7.32,-16.48
693,1747401611780,0.35,0.01,-0.94,-41.87,-7.32,-16.48
694,1747401611790,0.35,0.01,-0.94,-41.87,-7.32,-16.48
695,1747401611800,,,,,,
696,1747401611810,0.35,0.01,-0.94,-41.87,-7.32,-16.48
697,1747401611820,0.3399999999999999,-0.005,-0.985,-35.28,0.1549999999999998,-17.12
698,1747401611830,0.33,-0.02,-1.03,-28.69,7.63,-17.76
699,1747401611840,0.31,0.0,-1.12,-28.69,7.63,-17.76
700,1747401611850,0.31,0.0,-1.12,-28.69,7.63,-17.76
701,1747401611860,0.31,0.0,-1.12,-30.27,3.42,-9.83
702,1747401611870,0.37,0.01,-1.13,-30.27,3.42,-9.83
703,1747401611880,0.37,0.01,-1.13,-40.22,8.61,-12.45
704,1747401611890,0.37,0.01,-1.13,-40.22,8.61,-12.45
705,1747401611900,0.37,0.01,-1.13,-40.22,8.61,-12.45
706,1747401611910,0.34,-0.03,-1.21,-32.84,20.02,-18.31
707,1747401611920,0.34,-0.03,-1.21,-32.84,20.02,-18.31
708,1747401611930,0.34,-0.03,-1.21,-32.84,20.02,-18.31
709,1747401611940,0.34,-0.03,-1.21,-32.84,20.02,-18.31
710,1747401611950,0.355,-0.03,-1.235,-19.32,19.805,-19.865
711,1747401611960,0.37,-0.03,-1.26,-5.8,19.59,-21.42
712,1747401611970,0.37,-0.03,-1.26,-5.8,19.59,-21.42
713,1747401611980,0.37,-0.03,-1.26,-5.8,19.59,-21.42
714,1747401611990,0.4,0.02,-1.26,5.4,17.485,-17.67
715,1747401612000,0.4,0.02,-1.26,16.6,15.38,-13.92
716,1747401612010,0.4,0.02,-1.26,16.6,15.38,-13.92
717,1747401612020,0.4,0.02,-1.26,16.6,15.38,-13.92
718,1747401612030,0.36,0.01,-1.25,12.88,-0.31,-5.74
719,1747401612040,0.36,0.01,-1.25,12.88,-0.31,-5.74
720,1747401612050,0.36,0.01,-1.25,12.88,-0.31,-5.74
721,1747401612060,0.36,0.01,-1.25,12.88,-0.31,-5.74
722,1747401612070,0.4,0.0,-1.2,13.85,-9.77,-0.43
723,1747401612080,0.4,0.0,-1.2,13.85,-9.77,-0.43
724,1747401612090,0.4,0.0,-1.2,13.85,-9.77,-0.43
725,1747401612100,0.44,-0.01,-1.11,13.85,-9.77,-0.43
726,1747401612110,0.44,-0.01,-1.11,12.94,-9.03,-3.97
727,1747401612120,0.44,-0.01,-1.11,12.94,-9.03,-3.97
728,1747401612130,0.44,-0.01,-1.11,12.94,-9.03,-3.97
729,1747401612140,0.44,-0.01,-1.11,12.94,-9.03,-3.97
730,1747401612150,0.4,-0.1,-1.06,14.28,7.69,2.87
731,1747401612160,0.4,-0.1,-1.06,14.28,7.69,2.87
732,1747401612170,0.38,-0.06,-1.06,14.28,7.69,2.87
733,1747401612180,0.38,-0.06,-1.06,9.28,9.03,16.17
734,1747401612190,0.38,-0.06,-1.06,9.28,9.03,16.17
735,1747401612200,0.38,-0.06,-1.06,9.28,9.03,16.17
736,1747401612210,0.33,-0.15,-1.09,22.83,20.81,15.56
737,1747401612220,0.33,-0.15,-1.09,22.83,20.81,15.56
738,1747401612230,0.33,-0.15,-1.09,22.83,20.81,15.56
739,1747401612240,0.33,-0.15,-1.09,22.83,20.81,15.56
740,1747401612250,0.19,-0.08,-1.07,25.7,-1.95,26.92
741,1747401612260,0.19,-0.08,-1.07,25.7,-1.95,26.92
742,1747401612270,0.19,-0.08,-1.07,25.7,-1.95,26.92
743,1747401612280,0.19,-0.08,-1.07,25.7,-1.95,26.92
744,1747401612290,0.29,-0.1,-1.06,-7.51,-20.39,20.63
745,1747401612300,0.29,-0.1,-1.06,-7.51,-20.39,20.63
746,1747401612310,0.29,-0.1,-1.06,-7.51,-20.39,20.63
747,1747401612320,0.1999999999999999,-0.175,-1.025,-7.51,-20.39,20.63
748,1747401612330,0.11,-0.25,-0.99,44.19,5.8,5.68
749,1747401612340,0.11,-0.25,-0.99,44.19,5.8,5.68
750,1747401612350,0.11,-0.25,-0.99,44.19,5.8,5.68
751,1747401612360,0.11,-0.165,-0.96,31.92,-4.365,9.155
752,1747401612370,0.11,-0.08,-0.93,19.65,-14.53,12.63
753,1747401612380,0.11,-0.08,-0.93,19.65,-14.53,12.63
754,1747401612390,0.11,-0.08,-0.93,19.65,-14.53,12.63
755,1747401612400,0.07,-0.14,-0.915,-2.99,-8.06,12.295000000000002
756,1747401612410,0.03,-0.2,-0.9,-25.63,-1.59,11.96
757,1747401612420,0.03,-0.2,-0.9,-25.63,-1.59,11.96
758,1747401612430,0.03,-0.2,-0.9,-25.63,-1.59,11.96
759,1747401612440,-0.06,-0.23,-0.92,1.59,2.32,11.35
760,1747401612450,-0.06,-0.23,-0.92,1.59,2.32,11.35
761,1747401612460,-0.06,-0.23,-0.92,1.59,2.32,11.35
762,1747401612470,-0.06,-0.23,-0.92,1.59,2.32,11.35
763,1747401612480,-0.05,-0.11,-0.94,-6.77,-10.8,12.94
764,1747401612490,-0.05,-0.11,-0.94,-6.77,-10.8,12.94
765,1747401612500,-0.05,-0.11,-0.94,-6.77,-10.8,12.94
766,1747401612510,-0.09,-0.16,-0.93,-11.655,-11.565,8.025
767,1747401612520,-0.13,-0.21,-0.92,-16.54,-12.33,3.11
768,1747401612530,-0.13,-0.21,-0.92,-16.54,-12.33,3.11
769,1747401612540,-0.13,-0.21,-0.92,-16.54,-12.33,3.11
770,1747401612550,-0.11,-0.21,-0.935,-8.24,-14.8,6.345
771,1747401612560,-0.09,-0.21,-0.95,0.06,-17.27,9.58
772,1747401612570,-0.09,-0.21,-0.95,0.06,-17.27,9.58
773,1747401612580,-0.09,-0.21,-0.95,0.06,-17.27,9.58
774,1747401612590,-0.13,-0.2,-0.935,-0.155,-15.9,3.1100000000000003
775,1747401612600,-0.17,-0.19,-0.92,-0.37,-14.53,-3.36
776,1747401612610,-0.17,-0.19,-0.92,-0.37,-14.53,-3.36
777,1747401612620,-0.17,-0.19,-0.92,-0.37,-14.53,-3.36
778,1747401612630,-0.11,-0.26,-0.89,-2.87,-24.23,0.67
779,1747401612640,-0.11,-0.26,-0.89,-2.87,-24.23,0.67
780,1747401612650,-0.11,-0.26,-0.89,-2.87,-24.23,0.67
781,1747401612660,-0.11,-0.26,-0.89,-2.87,-24.23,0.67
782,1747401612670,-0.14,-0.27,-0.89,8.97,-9.58,-8.18
783,1747401612680,-0.14,-0.27,-0.89,8.97,-9.58,-8.18
784,1747401612690,-0.14,-0.27,-0.89,8.97,-9.58,-8.18
785,1747401612700,-0.14,-0.27,-0.89,8.97,-9.58,-8.18
786,1747401612710,-0.15,-0.31,-0.9,1.65,-4.76,-6.65
787,1747401612720,-0.15,-0.31,-0.9,1.65,-4.76,-6.65
788,1747401612730,-0.15,-0.31,-0.9,1.65,-4.76,-6.65
789,1747401612740,-0.155,-0.3299999999999999,-0.905,5.495,5.465,-7.355
790,1747401612750,-0.16,-0.35,-0.91,9.34,15.69,-8.06
791,1747401612760,-0.16,-0.35,-0.91,9.34,15.69,-8.06
792,1747401612770,-0.16,-0.35,-0.91,9.34,15.69,-8.06
793,1747401612780,-0.205,-0.3349999999999999,-0.92,8.395,21.365,-9.43
794,1747401612790,-0.25,-0.32,-0.93,7.45,27.04,-10.8
795,1747401612800,-0.25,-0.32,-0.93,7.45,27.04,-10.8
796,1747401612810,-0.25,-0.32,-0.93,7.45,27.04,-10.8
797,1747401612820,-0.265,-0.355,-0.95,0.6750000000000003,24.535,-6.65
798,1747401612830,-0.28,-0.39,-0.97,-6.1,22.03,-2.5
799,1747401612840,-0.28,-0.39,-0.97,-6.1,22.03,-2.5
800,1747401612850,-0.28,-0.39,-0.97,-6.1,22.03,-2.5
801,1747401612860,-0.36,-0.44,-1.08,6.77,39.25,-11.9
802,1747401612870,-0.36,-0.44,-1.08,6.77,39.25,-11.9
803,1747401612880,-0.36,-0.44,-1.08,6.77,39.25,-11.9
804,1747401612890,-0.36,-0.44,-1.08,6.77,39.25,-11.9
805,1747401612900,-0.45,-0.44,-1.09,23.56,25.94,-7.39
806,1747401612910,-0.45,-0.44,-1.09,23.56,25.94,-7.39
807,1747401612920,-0.45,-0.44,-1.09,23.56,25.94,-7.39
808,1747401612930,-0.45,-0.44,-1.09,23.56,25.94,-7.39
809,1747401612940,-0.44,-0.41,-1.13,-0.73,22.58,-8.3
810,1747401612950,-0.44,-0.41,-1.13,-0.73,22.58,-8.3
811,1747401612960,-0.44,-0.41,-1.13,-0.73,22.58,-8.3
812,1747401612970,-0.44,-0.51,-1.19,-0.73,22.58,-8.3
813,1747401612980,-0.44,-0.61,-1.25,-25.15,10.19,6.41
814,1747401612990,-0.44,-0.61,-1.25,-25.15,10.19,6.41
815,1747401613000,-0.44,-0.61,-1.25,-25.15,10.19,6.41
816,1747401613010,-0.48,-0.625,-1.23,-9.645,2.56,16.785
817,1747401613020,-0.52,-0.64,-1.21,5.86,-5.07,27.16
818,1747401613030,-0.52,-0.64,-1.21,5.86,-5.07,27.16
819,1747401613040,-0.52,-0.64,-1.21,5.86,-5.07,27.16
820,1747401613050,-0.48,-0.49,-1.05,12.76,-28.75,29.36
821,1747401613060,-0.48,-0.49,-1.05,12.76,-28.75,29.36
822,1747401613070,-0.48,-0.49,-1.05,12.76,-28.75,29.36
823,1747401613080,-0.48,-0.49,-1.05,12.76,-28.75,29.36
824,1747401613090,-0.41,-0.43,-0.95,-8.18,-13.85,29.85
825,1747401613100,-0.41,-0.43,-0.95,-8.18,-13.85,29.85
826,1747401613110,-0.41,-0.43,-0.95,-8.18,-13.85,29.85
827,1747401613120,-0.47,-0.45,-1.02,-5.13,-0.98,35.52
828,1747401613130,-0.47,-0.45,-1.02,-5.13,-0.98,35.52
829,1747401613140,-0.47,-0.45,-1.02,-5.13,-0.98,35.52
830,1747401613150,-0.47,-0.45,-1.02,-5.13,-0.98,35.52
831,1747401613160,-0.47,-0.45,-1.02,-5.13,-0.98,35.52
832,1747401613170,-0.4,-0.32,-0.97,-6.71,-24.84,31.31
833,1747401613180,-0.4,-0.32,-0.97,-6.71,-24.84,31.31
834,1747401613190,-0.4,-0.32,-0.97,-6.71,-24.84,31.31
835,1747401613200,-0.22,-0.23,-0.89,-29.91,-16.91,8.73
836,1747401613210,-0.22,-0.23,-0.89,-29.91,-16.91,8.73
837,1747401613220,-0.22,-0.23,-0.89,-29.91,-16.91,8.73
838,1747401613230,-0.22,-0.23,-0.89,-29.91,-16.91,8.73
839,1747401613240,-0.28,-0.33,-0.93,-17.52,-19.23,25.27
840,1747401613250,-0.28,-0.33,-0.93,-17.52,-19.23,25.27
841,1747401613260,-0.28,-0.33,-0.93,-17.52,-19.23,25.27
842,1747401613270,-0.28,-0.33,-0.93,-17.52,-19.23,25.27
843,1747401613280,-0.09,-0.12,-0.88,13.73,-18.19,15.44
844,1747401613290,-0.09,-0.12,-0.88,13.73,-18.19,15.44
845,1747401613300,-0.09,-0.12,-0.88,13.73,-18.19,15.44
846,1747401613310,-0.095,-0.1,-0.88,13.73,-18.19,15.44
847,1747401613320,-0.1,-0.08,-0.88,-19.53,9.52,-19.41
848,1747401613330,-0.1,-0.08,-0.88,-19.53,9.52,-19.41
849,1747401613340,-0.1,-0.08,-0.88,-19.53,9.52,-19.41
850,1747401613350,-0.07,-0.12,-0.91,-19.925,0.4249999999999998,-17.67
851,1747401613360,-0.04,-0.16,-0.94,-20.32,-8.67,-15.93
852,1747401613370,-0.04,-0.16,-0.94,-20.32,-8.67,-15.93
853,1747401613380,-0.04,-0.16,-0.94,-20.32,-8.67,-15.93
854,1747401613390,0.08,-0.05,-0.91,-20.32,-8.67,-15.93
855,1747401613400,0.08,-0.05,-0.91,-15.01,21.3,-46.2
856,1747401613410,0.08,-0.05,-0.91,-15.01,21.3,-46.2
857,1747401613420,0.08,-0.05,-0.91,-15.01,21.3,-46.2
858,1747401613430,0.07,-0.18,-0.96,-15.01,21.3,-46.2
859,1747401613440,0.07,-0.18,-0.96,-45.53,12.27,-33.2
860,1747401613450,0.07,-0.18,-0.96,-45.53,12.27,-33.2
861,1747401613460,0.07,-0.18,-0.96,-45.53,12.27,-33.2
862,1747401613470,0.1,-0.18,-0.95,-30.545,14.465,-31.065
863,1747401613480,0.1,-0.18,-0.95,-15.56,16.66,-28.93
864,1747401613490,0.1,-0.18,-0.95,-15.56,16.66,-28.93
865,1747401613500,0.1,-0.18,-0.95,-15.56,16.66,-28.93
866,1747401613510,0.12,-0.01,-0.94,-29.66,23.38,-37.41
867,1747401613520,0.12,-0.01,-0.94,-29.66,23.38,-37.41
868,1747401613530,0.12,-0.01,-0.94,-29.66,23.38,-37.41
869,1747401613540,0.12,-0.01,-0.94,-29.66,23.38,-37.41
870,1747401613550,0.13,-0.07,-0.97,-62.32,7.75,-18.92
871,1747401613560,0.13,-0.07,-0.97,-62.32,7.75,-18.92
872,1747401613570,0.13,-0.07,-0.97,-62.32,7.75,-18.92
873,1747401613580,0.13,-0.07,-0.97,-62.32,7.75,-18.92
874,1747401613590,0.26,-0.03,-1.02,-44.86,8.85,-22.035
875,1747401613600,0.26,-0.03,-1.02,-27.4,9.95,-25.15
876,1747401613610,0.26,-0.03,-1.02,-27.4,9.95,-25.15
877,1747401613620,0.26,-0.03,-1.02,-27.4,9.95,-25.15
878,1747401613630,0.26,-0.03,-1.02,-27.4,9.95,-25.15
879,1747401613640,0.25,0.03,-1.04,-18.25,19.71,-37.72
880,1747401613650,0.25,0.03,-1.04,-18.25,19.71,-37.72
881,1747401613660,0.27,-0.02,-1.04,-30.58,3.23,-30.27
882,1747401613670,0.27,-0.02,-1.04,-30.58,3.23,-30.27
883,1747401613680,0.27,-0.02,-1.04,-30.58,3.23,-30.27
884,1747401613690,0.27,-0.02,-1.04,-30.58,3.23,-30.27
885,1747401613700,0.295,-0.005,-1.06,-19.745,4.97,-32.99
886,1747401613710,0.32,0.01,-1.08,-8.91,6.71,-35.71
887,1747401613720,0.32,0.01,-1.08,-8.91,6.71,-35.71
888,1747401613730,0.32,0.01,-1.08,-8.91,6.71,-35.71
889,1747401613740,0.33,0.05,-1.09,-4.82,6.16,-34.67
890,1747401613750,0.33,0.05,-1.09,-4.82,6.16,-34.67
891,1747401613760,0.33,0.05,-1.09,-4.82,6.16,-34.67
892,1747401613770,0.36,0.045,-1.09,-4.82,6.16,-34.67
893,1747401613780,0.39,0.04,-1.09,-14.53,2.26,-22.16
894,1747401613790,0.39,0.04,-1.09,-14.53,2.26,-22.16
895,1747401613800,0.39,0.04,-1.09,-14.53,2.26,-22.16
896,1747401613810,0.395,0.06,-1.125,-16.97,6.075,-20.97
897,1747401613820,0.4,0.08,-1.16,-19.41,9.89,-19.78
898,1747401613830,0.4,0.08,-1.16,-19.41,9.89,-19.78
899,1747401613840,0.4,0.08,-1.16,-19.41,9.89,-19.78
900,1747401613850,0.38,0.065,-1.21,-21.575,8.67,-13.035
901,1747401613860,0.36,0.05,-1.26,-23.74,7.45,-6.29
902,1747401613870,0.36,0.05,-1.26,-23.74,7.45,-6.29
903,1747401613880,0.36,0.05,-1.26,-23.74,7.45,-6.29
904,1747401613890,0.41,0.04,-1.3,-23.74,7.45,-6.29
905,1747401613900,0.41,0.04,-1.3,4.82,-2.81,-0.43
906,1747401613910,0.41,0.04,-1.3,4.82,-2.81,-0.43
907,1747401613920,0.41,0.04,-1.3,4.82,-2.81,-0.43
908,1747401613930,0.395,0.06,-1.265,15.135,2.135,-7.295
909,1747401613940,0.38,0.08,-1.23,25.45,7.08,-14.16
910,1747401613950,0.38,0.08,-1.23,25.45,7.08,-14.16
911,1747401613960,0.38,0.08,-1.23,25.45,7.08,-14.16
912,1747401613970,0.42,0.05,-1.2,4.7,-5.74,-8.42
913,1747401613980,0.42,0.05,-1.2,4.7,-5.74,-8.42
914,1747401613990,0.42,0.05,-1.2,4.7,-5.74,-8.42
915,1747401614000,0.42,0.05,-1.2,4.7,-5.74,-8.42
916,1747401614010,0.46,-0.03,-1.09,10.25,3.42,-3.17
917,1747401614020,0.46,-0.03,-1.09,10.25,3.42,-3.17
918,1747401614030,0.46,-0.03,-1.09,10.25,3.42,-3.17
919,1747401614040,0.46,-0.03,-1.09,10.25,3.42,-3.17
920,1747401614050,0.46,0.02,-1.06,24.72,-3.85,12.02
921,1747401614060,0.46,0.02,-1.06,24.72,-3.85,12.02
922,1747401614070,0.46,0.02,-1.06,24.72,-3.85,12.02
923,1747401614080,0.44,0.04,-1.0550000000000002,24.72,-3.85,12.02
924,1747401614090,0.42,0.06,-1.05,11.35,-6.29,25.45
925,1747401614100,0.42,0.06,-1.05,11.35,-6.29,25.45
926,1747401614110,0.42,0.06,-1.05,11.35,-6.29,25.45
927,1747401614120,0.315,0.0099999999999999,-1.015,13.61,-10.96,32.5
928,1747401614130,0.21,-0.04,-0.98,15.87,-15.63,39.55
929,1747401614140,0.21,-0.04,-0.98,15.87,-15.63,39.55
930,1747401614150,0.21,-0.04,-0.98,15.87,-15.63,39.55
931,1747401614160,0.29,0.04,-1.01,15.87,-15.63,39.55
932,1747401614170,0.29,0.04,-1.01,-11.9,-34.0,46.88
933,1747401614180,0.29,0.04,-1.01,-11.9,-34.0,46.88
934,1747401614190,0.29,0.04,-1.01,-11.9,-34.0,46.88
935,1747401614200,0.15,-0.12,-0.98,5.13,-2.93,38.51
936,1747401614210,0.15,-0.12,-0.98,5.13,-2.93,38.51
937,1747401614220,0.15,-0.12,-0.98,5.13,-2.93,38.51
938,1747401614230,0.15,-0.12,-0.98,5.13,-2.93,38.51
939,1747401614240,0.1,-0.02,-0.97,3.6,-8.3,44.13
940,1747401614250,0.1,-0.02,-0.97,3.6,-8.3,44.13
941,1747401614260,0.1,-0.02,-0.97,3.6,-8.3,44.13
942,1747401614270,0.1,-0.02,-0.97,3.6,-8.3,44.13
943,1747401614280,0.09,-0.08,-0.91,7.57,0.49,33.39
944,1747401614290,0.09,-0.08,-0.91,7.57,0.49,33.39
945,1747401614300,0.09,-0.08,-0.91,7.57,0.49,33.39
946,1747401614310,0.09,-0.08,-0.91,7.57,0.49,33.39
947,1747401614320,0.05,-0.04,-0.84,7.45,6.77,33.51
948,1747401614330,0.05,-0.04,-0.84,7.45,6.77,33.51
949,1747401614340,0.05,-0.04,-0.84,7.45,6.77,33.51
950,1747401614350,0.05,-0.04,-0.84,7.45,6.77,33.51
951,1747401614360,0.01,-0.07,-0.91,-10.68,12.08,54.08
952,1747401614370,0.01,-0.07,-0.91,-10.68,12.08,54.08
953,1747401614380,0.01,-0.07,-0.91,-10.68,12.08,54.08
954,1747401614390,-0.05,-0.1,-0.97,-6.56,14.43,51.24
955,1747401614400,-0.05,-0.1,-0.97,-2.44,16.78,48.4
956,1747401614410,-0.05,-0.1,-0.97,-2.44,16.78,48.4
957,1747401614420,-0.05,-0.1,-0.97,-2.44,16.78,48.4
958,1747401614430,-0.1,-0.08,-0.95,17.33,3.54,23.07
959,1747401614440,-0.1,-0.08,-0.95,17.33,3.54,23.07
960,1747401614450,-0.1,-0.08,-0.95,17.33,3.54,23.07
961,1747401614460,-0.1,-0.08,-0.95,17.33,3.54,23.07
962,1747401614470,-0.09,-0.12,-0.88,12.935,-5.92,24.2
963,1747401614480,-0.09,-0.12,-0.88,8.54,-15.38,25.33
964,1747401614490,-0.09,-0.12,-0.88,8.54,-15.38,25.33
965,1747401614500,-0.09,-0.12,-0.88,8.54,-15.38,25.33
966,1747401614510,-0.08,-0.1,-0.9,22.16,6.53,15.69
967,1747401614520,-0.08,-0.1,-0.9,22.16,6.53,15.69
968,1747401614530,-0.1,-0.095,-0.92,22.615,11.35,9.615
969,1747401614540,-0.12,-0.09,-0.94,23.07,16.17,3.54
970,1747401614550,-0.12,-0.09,-0.94,23.07,16.17,3.54
971,1747401614560,-0.12,-0.09,-0.94,23.07,16.17,3.54
972,1747401614570,-0.12,-0.09,-0.94,23.07,16.17,3.54
973,1747401614580,-0.14,-0.14,-0.96,27.1,14.83,-21.67
974,1747401614590,-0.14,-0.14,-0.96,27.1,14.83,-21.67
975,1747401614600,-0.14,-0.14,-0.96,27.1,14.83,-21.67
976,1747401614610,-0.16,-0.25,-0.97,20.14,2.75,-34.73
977,1747401614620,-0.16,-0.25,-0.97,20.14,2.75,-34.73
978,1747401614630,-0.16,-0.25,-0.97,20.14,2.75,-34.73
979,1747401614640,-0.16,-0.25,-0.97,20.14,2.75,-34.73
980,1747401614650,-0.185,-0.3,-0.995,34.425,15.11,-37.66
981,1747401614660,-0.21,-0.35,-1.02,48.71,27.47,-40.59
982,1747401614670,-0.21,-0.35,-1.02,48.71,27.47,-40.59
983,1747401614680,-0.21,-0.35,-1.02,48.71,27.47,-40.59
984,1747401614690,-0.41,-0.3,-1.02,48.71,27.47,-40.59
985,1747401614700,-0.41,-0.3,-1.02,62.07,36.32,-66.41
986,1747401614710,-0.41,-0.3,-1.02,62.07,36.32,-66.41
987,1747401614720,-0.41,-0.3,-1.02,62.07,36.32,-66.41
988,1747401614730,-0.35,-0.52,-1.02,6.41,3.6,-66.89
989,1747401614740,-0.35,-0.52,-1.02,6.41,3.6,-66.89
990,1747401614750,-0.35,-0.52,-1.02,6.41,3.6,-66.89
991,1747401614760,-0.34,-0.63,-1.11,6.41,3.6,-66.89
992,1747401614770,-0.34,-0.63,-1.11,1.65,18.01,-52.31
993,1747401614780,-0.34,-0.63,-1.11,1.65,18.01,-52.31
994,1747401614790,-0.34,-0.63,-1.11,1.65,18.01,-52.31
995,1747401614800,-0.28,-0.58,-1.23,-38.82,1.1,-27.4
996,1747401614810,-0.28,-0.58,-1.23,-38.82,1.1,-27.4
997,1747401614820,-0.28,-0.58,-1.23,-38.82,1.1,-27.4
998,1747401614830,-0.28,-0.58,-1.23,-38.82,1.1,-27.4
999,1747401614840,-0.29,-0.64,-1.27,-38.82,1.1,-27.4
1000,1747401614850,-0.29,-0.64,-1.27,-38.82,1.1,-27.4
