id,timestamp,acc_x,acc_y,acc_z,gyro_x,gyro_y,gyro_z
0,1747402681990,1.03,-0.11,0.26,19.78,5.49,-0.37
1,1747402682000,1.03,-0.11,0.26,19.78,5.49,-0.37
2,1747402682010,1.02,-0.06,0.31,5.19,-0.79,4.09
3,1747402682020,1.02,-0.06,0.31,5.19,-0.79,4.09
4,1747402682030,1.02,-0.06,0.31,5.19,-0.79,4.09
5,1747402682040,1.24,-0.09,0.39,7.87,-10.74,5.19
6,1747402682050,1.24,-0.09,0.39,7.87,-10.74,5.19
7,1747402682060,1.24,-0.09,0.39,7.87,-10.74,5.19
8,1747402682070,1.24,-0.09,0.39,7.87,-10.74,5.19
9,1747402682080,1.27,-0.06,0.38,14.77,6.23,8.3
10,1747402682090,1.27,-0.06,0.38,14.77,6.23,8.3
11,1747402682100,1.27,-0.06,0.38,14.77,6.23,8.3
12,1747402682110,1.27,-0.06,0.38,14.77,6.23,8.3
13,1747402682120,1.31,-0.1,0.33,-10.44,-19.78,45.84
14,1747402682130,1.31,-0.1,0.33,-10.44,-19.78,45.84
15,1747402682140,1.31,-0.1,0.33,-10.44,-19.78,45.84
16,1747402682150,1.31,-0.1,0.33,-10.44,-19.78,45.84
17,1747402682160,1.3,-0.12,0.27,-12.94,-10.01,78.55
18,1747402682170,1.3,-0.12,0.27,-12.94,-10.01,78.55
19,1747402682180,1.3,-0.12,0.27,-12.94,-10.01,78.55
20,1747402682190,1.25,-0.16,0.27,-22.95,-0.8250000000000002,90.79
21,1747402682200,1.2,-0.2,0.27,-32.96,8.36,103.03
22,1747402682210,1.2,-0.2,0.27,-32.96,8.36,103.03
23,1747402682220,1.2,-0.2,0.27,-32.96,8.36,103.03
24,1747402682230,1.14,-0.23,0.28,-32.96,8.36,103.03
25,1747402682240,1.08,-0.26,0.29,-28.26,31.8,103.33
26,1747402682250,1.08,-0.26,0.29,-28.26,31.8,103.33
27,1747402682260,1.08,-0.26,0.29,-28.26,31.8,103.33
28,1747402682270,1.08,-0.26,0.29,-28.26,31.8,103.33
29,1747402682280,1.04,-0.25,0.29,-42.85,7.32,118.35
30,1747402682290,1.04,-0.25,0.29,-42.85,7.32,118.35
31,1747402682300,,,,,,
32,1747402682310,0.96,-0.33,0.28,-42.85,7.32,118.35
33,1747402682320,0.96,-0.33,0.28,-41.26,-4.21,139.77
34,1747402682330,0.96,-0.33,0.28,-41.26,-4.21,139.77
35,1747402682340,0.96,-0.33,0.28,-41.26,-4.21,139.77
36,1747402682350,0.87,-0.3,0.2,-37.29,25.94,144.1
37,1747402682360,0.87,-0.3,0.2,-37.29,25.94,144.1
38,1747402682370,0.87,-0.3,0.2,-37.29,25.94,144.1
39,1747402682380,0.87,-0.3,0.2,-37.29,25.94,144.1
40,1747402682390,0.65,-0.44,0.18,-60.3,7.87,140.14
41,1747402682400,0.65,-0.44,0.18,-60.3,7.87,140.14
42,1747402682410,,,,,,
43,1747402682420,0.65,-0.44,0.18,-60.3,7.87,140.14
44,1747402682430,0.59,-0.57,0.1,-50.9,2.26,141.3
45,1747402682440,0.59,-0.57,0.1,-50.9,2.26,141.3
46,1747402682450,0.59,-0.57,0.1,-50.9,2.26,141.3
47,1747402682460,0.59,-0.57,0.1,-50.9,2.26,141.3
48,1747402682470,0.51,-0.61,0.09,-35.77,22.46,121.83
49,1747402682480,0.51,-0.61,0.09,-35.77,22.46,121.83
50,1747402682490,0.51,-0.61,0.09,-35.77,22.46,121.83
51,1747402682500,0.45,-0.68,0.11,-31.49,7.51,121.03
52,1747402682510,0.45,-0.68,0.11,-31.49,7.51,121.03
53,1747402682520,0.45,-0.68,0.11,-31.49,7.51,121.03
54,1747402682530,0.45,-0.68,0.11,-31.49,7.51,121.03
55,1747402682540,0.45,-0.68,0.11,-31.49,7.51,121.03
56,1747402682550,0.39,-0.72,0.11,-21.73,11.23,106.93
57,1747402682560,0.39,-0.72,0.11,-21.73,11.23,106.93
58,1747402682570,0.39,-0.72,0.11,-21.73,11.23,106.93
59,1747402682580,0.31,-0.74,0.1,-16.3,-3.48,91.67
60,1747402682590,0.31,-0.74,0.1,-16.3,-3.48,91.67
61,1747402682600,0.31,-0.74,0.1,-16.3,-3.48,91.67
62,1747402682610,0.31,-0.74,0.1,-16.3,-3.48,91.67
63,1747402682620,0.3,-0.82,0.11,-25.09,-9.83,89.23
64,1747402682630,0.3,-0.82,0.11,-25.09,-9.83,89.23
65,1747402682640,0.3,-0.82,0.11,-25.09,-9.83,89.23
66,1747402682650,0.28,-0.91,0.08,-15.69,3.66,81.85
67,1747402682660,0.28,-0.91,0.08,-15.69,3.66,81.85
68,1747402682670,0.28,-0.91,0.08,-15.69,3.66,81.85
69,1747402682680,0.28,-0.91,0.08,-15.69,3.66,81.85
70,1747402682690,0.22,-0.89,0.09,-15.69,3.66,81.85
71,1747402682700,0.22,-0.89,0.09,-16.54,-1.53,69.03
72,1747402682710,0.22,-0.89,0.09,-16.54,-1.53,69.03
73,1747402682720,0.22,-0.89,0.09,-16.54,-1.53,69.03
74,1747402682730,0.22,-0.89,0.09,-16.54,-1.53,69.03
75,1747402682740,0.22,-0.95,0.13,-18.62,-19.04,74.4
76,1747402682750,0.22,-0.95,0.13,-18.62,-19.04,74.4
77,1747402682760,0.22,-0.95,0.13,-18.62,-19.04,74.4
78,1747402682770,0.23,-0.94,0.12,-18.62,-19.04,74.4
79,1747402682780,0.23,-0.94,0.12,-11.96,-33.63,59.14
80,1747402682790,0.23,-0.94,0.12,-11.96,-33.63,59.14
81,1747402682800,0.23,-0.94,0.12,-11.96,-33.63,59.14
82,1747402682810,0.18,-0.98,0.12,-17.09,-15.44,59.51
83,1747402682820,0.18,-0.98,0.12,-17.09,-15.44,59.51
84,1747402682830,0.18,-0.98,0.12,-17.09,-15.44,59.51
85,1747402682840,0.18,-0.98,0.12,-17.09,-15.44,59.51
86,1747402682850,0.06,-0.94,0.07,-18.43,-8.12,37.17
87,1747402682860,0.06,-0.94,0.07,-18.43,-8.12,37.17
88,1747402682870,0.06,-0.94,0.07,-18.43,-8.12,37.17
89,1747402682880,,,,,,
90,1747402682890,0.08,-0.98,0.04,-18.92,-21.91,22.34
91,1747402682900,0.08,-0.98,0.04,-18.92,-21.91,22.34
92,1747402682910,0.08,-0.98,0.04,-18.92,-21.91,22.34
93,1747402682920,0.08,-0.98,0.04,-18.92,-21.91,22.34
94,1747402682930,0.01,-0.98,0.0,-8.24,-1.65,24.17
95,1747402682940,0.01,-0.98,0.0,-8.24,-1.65,24.17
96,1747402682950,0.01,-0.98,0.0,-8.24,-1.65,24.17
97,1747402682960,,,,,,
98,1747402682970,0.0,-0.95,0.07,1.89,0.67,-2.38
99,1747402682980,,,,,,
100,1747402682990,0.0,-0.95,0.07,1.89,0.67,-2.38
101,1747402683000,,,,,,
102,1747402683010,0.1,-0.98,0.09,-4.7,-18.25,3.11
103,1747402683020,0.1,-0.98,0.09,-4.7,-18.25,3.11
104,1747402683030,0.1,-0.98,0.09,-4.7,-18.25,3.11
105,1747402683040,0.11,-0.99,0.09,0.61,5.98,-2.2
106,1747402683050,0.11,-0.99,0.09,0.61,5.98,-2.2
107,1747402683060,0.11,-0.99,0.09,0.61,5.98,-2.2
108,1747402683070,0.11,-0.99,0.09,0.61,5.98,-2.2
109,1747402683080,0.11,-0.98,0.1,-9.95,-4.7,-7.08
110,1747402683090,0.11,-0.98,0.1,-9.95,-4.7,-7.08
111,1747402683100,0.11,-0.98,0.1,-9.95,-4.7,-7.08
112,1747402683110,0.11,-0.98,0.1,-9.95,-4.7,-7.08
113,1747402683120,0.14,-1.01,0.05,-6.59,-3.72,-1.4
114,1747402683130,0.14,-1.01,0.05,-6.59,-3.72,-1.4
115,1747402683140,0.14,-1.01,0.05,-6.59,-3.72,-1.4
116,1747402683150,0.14,-1.01,0.05,-6.59,-3.72,-1.4
117,1747402683160,0.1,-1.0,0.03,-2.75,-1.46,-1.77
118,1747402683170,0.1,-1.0,0.03,-2.75,-1.46,-1.77
119,1747402683180,0.1,-1.0,0.03,-2.75,-1.46,-1.77
120,1747402683190,0.13,-1.0,0.05,-3.875,-3.995,-2.075
121,1747402683200,0.16,-1.0,0.07,-5.0,-6.53,-2.38
122,1747402683210,0.16,-1.0,0.07,-5.0,-6.53,-2.38
123,1747402683220,0.16,-1.0,0.07,-5.0,-6.53,-2.38
124,1747402683230,0.13,-0.99,0.06,-5.0,-6.53,-2.38
125,1747402683240,0.13,-0.99,0.06,-1.34,3.91,2.08
126,1747402683250,0.13,-0.99,0.06,-1.34,3.91,2.08
127,1747402683260,0.13,-0.99,0.06,-1.34,3.91,2.08
128,1747402683270,0.11,-0.98,0.06,-3.66,1.83,-0.61
129,1747402683280,0.11,-0.98,0.06,-3.66,1.83,-0.61
130,1747402683290,0.11,-0.98,0.06,-3.66,1.83,-0.61
131,1747402683300,0.11,-0.98,0.06,-3.66,1.83,-0.61
132,1747402683310,0.12,-0.99,0.05,-2.62,0.06,-0.37
133,1747402683320,0.12,-0.99,0.05,-2.62,0.06,-0.37
134,1747402683330,0.12,-0.99,0.05,-2.62,0.06,-0.37
135,1747402683340,0.1149999999999999,-0.99,0.055,-0.03,1.28,-1.375
136,1747402683350,0.11,-0.99,0.06,2.56,2.5,-2.38
137,1747402683360,0.11,-0.99,0.06,2.56,2.5,-2.38
138,1747402683370,0.11,-0.99,0.06,2.56,2.5,-2.38
139,1747402683380,0.125,-0.99,0.07,0.09,-1.77,-2.775
140,1747402683390,0.14,-0.99,0.08,-2.38,-6.04,-3.17
141,1747402683400,0.14,-0.99,0.08,-2.38,-6.04,-3.17
142,1747402683410,0.14,-0.99,0.08,-2.38,-6.04,-3.17
143,1747402683420,0.15,-1.0,0.06,-5.55,0.67,-1.65
144,1747402683430,0.15,-1.0,0.06,-5.55,0.67,-1.65
145,1747402683440,0.15,-1.0,0.06,-5.55,0.67,-1.65
146,1747402683450,0.15,-1.0,0.06,-5.55,0.67,-1.65
147,1747402683460,0.14,-0.98,0.07,-5.55,0.67,-1.65
148,1747402683470,0.14,-0.98,0.07,-3.91,4.64,-3.23
149,1747402683480,0.14,-0.98,0.07,-3.91,4.64,-3.23
150,1747402683490,0.14,-0.98,0.07,-3.91,4.64,-3.23
151,1747402683500,0.12,-0.99,0.04,-3.91,4.64,-3.23
152,1747402683510,0.12,-0.99,0.04,-5.55,1.34,-3.85
153,1747402683520,0.12,-0.99,0.04,-5.55,1.34,-3.85
154,1747402683530,0.12,-0.99,0.04,-5.55,1.34,-3.85
155,1747402683540,0.07,-0.98,0.03,0.06,9.77,-8.0
156,1747402683550,0.07,-0.98,0.03,0.06,9.77,-8.0
157,1747402683560,0.07,-0.98,0.03,0.06,9.77,-8.0
158,1747402683570,0.07,-0.98,0.03,0.06,9.77,-8.0
159,1747402683580,0.01,-0.95,0.02,5.74,22.34,-16.72
160,1747402683590,0.01,-0.95,0.02,5.74,22.34,-16.72
161,1747402683600,0.01,-0.95,0.02,5.74,22.34,-16.72
162,1747402683610,0.01,-0.95,0.02,5.74,22.34,-16.72
163,1747402683620,-0.04,-0.95,0.02,8.06,24.05,-36.01
164,1747402683630,-0.04,-0.95,0.02,8.06,24.05,-36.01
165,1747402683640,-0.04,-0.95,0.02,8.06,24.05,-36.01
166,1747402683650,-0.04,-0.95,0.02,8.06,24.05,-36.01
167,1747402683660,0.05,-0.93,0.1,10.8,-21.61,-43.4
168,1747402683670,0.05,-0.93,0.1,10.8,-21.61,-43.4
169,1747402683680,0.05,-0.93,0.1,10.8,-21.61,-43.4
170,1747402683690,0.18,-0.9,0.15,10.8,-21.61,-43.4
171,1747402683700,0.18,-0.9,0.15,7.32,-26.31,-52.55
172,1747402683710,0.18,-0.9,0.15,7.32,-26.31,-52.55
173,1747402683720,0.18,-0.9,0.15,7.32,-26.31,-52.55
174,1747402683730,0.2,-0.88,0.18,4.7,-18.65,-58.255
175,1747402683740,0.2,-0.88,0.18,2.08,-10.99,-63.96
176,1747402683750,0.2,-0.88,0.18,2.08,-10.99,-63.96
177,1747402683760,0.2,-0.88,0.18,2.08,-10.99,-63.96
178,1747402683770,0.2,-0.85,0.11,2.08,-10.99,-63.96
179,1747402683780,0.2,-0.85,0.11,-16.36,-45.29,-67.44
180,1747402683790,0.2,-0.85,0.11,-16.36,-45.29,-67.44
181,1747402683800,0.265,-0.85,0.07,-14.62,-43.855,-70.065
182,1747402683810,0.33,-0.85,0.03,-12.88,-42.42,-72.69
183,1747402683820,0.33,-0.85,0.03,-12.88,-42.42,-72.69
184,1747402683830,0.33,-0.85,0.03,-12.88,-42.42,-72.69
185,1747402683840,0.4,-0.83,-0.01,-12.88,-42.42,-72.69
186,1747402683850,0.4,-0.83,-0.01,5.55,29.79,-94.85
187,1747402683860,0.4,-0.83,-0.01,5.55,29.79,-94.85
188,1747402683870,0.4,-0.83,-0.01,5.55,29.79,-94.85
189,1747402683880,0.365,-0.8049999999999999,0.005,10.83,25.515,-95.03
190,1747402683890,0.33,-0.78,0.02,16.11,21.24,-95.21
191,1747402683900,0.33,-0.78,0.02,16.11,21.24,-95.21
192,1747402683910,0.33,-0.78,0.02,16.11,21.24,-95.21
193,1747402683920,0.44,-0.74,0.03,16.42,-13.18,-99.98
194,1747402683930,0.44,-0.74,0.03,16.42,-13.18,-99.98
195,1747402683940,0.44,-0.74,0.03,16.42,-13.18,-99.98
196,1747402683950,0.535,-0.725,0.055,16.695,0.6100000000000003,-109.255
197,1747402683960,0.63,-0.71,0.08,16.97,14.4,-118.53
198,1747402683970,0.63,-0.71,0.08,16.97,14.4,-118.53
199,1747402683980,0.63,-0.71,0.08,16.97,14.4,-118.53
200,1747402683990,0.6599999999999999,-0.71,0.0849999999999999,14.59,6.01,-111.48
201,1747402684000,0.69,-0.71,0.09,12.21,-2.38,-104.43
202,1747402684010,0.69,-0.71,0.09,12.21,-2.38,-104.43
203,1747402684020,0.69,-0.71,0.09,12.21,-2.38,-104.43
204,1747402684030,0.77,-0.68,0.08,12.21,-2.38,-104.43
205,1747402684040,0.77,-0.68,0.08,7.51,7.02,-108.15
206,1747402684050,0.77,-0.68,0.08,7.51,7.02,-108.15
207,1747402684060,0.77,-0.68,0.08,7.51,7.02,-108.15
208,1747402684070,0.76,-0.625,0.0849999999999999,15.32,17.64,-112.61
209,1747402684080,0.75,-0.57,0.09,23.13,28.26,-117.07
210,1747402684090,0.75,-0.57,0.09,23.13,28.26,-117.07
211,1747402684100,0.75,-0.57,0.09,23.13,28.26,-117.07
212,1747402684110,0.8,-0.56,0.095,20.14,9.245,-105.105
213,1747402684120,0.85,-0.55,0.1,17.15,-9.77,-93.14
214,1747402684130,0.85,-0.55,0.1,17.15,-9.77,-93.14
215,1747402684140,0.85,-0.55,0.1,17.15,-9.77,-93.14
216,1747402684150,0.83,-0.44,0.13,26.55,5.98,-101.26
217,1747402684160,0.83,-0.44,0.13,26.55,5.98,-101.26
218,1747402684170,0.83,-0.44,0.13,26.55,5.98,-101.26
219,1747402684180,0.83,-0.44,0.13,26.55,5.98,-101.26
220,1747402684190,,,,,,
221,1747402684200,1.05,-0.39,0.19,16.36,-19.04,-90.03
222,1747402684210,1.05,-0.39,0.19,16.36,-19.04,-90.03
223,1747402684220,1.05,-0.39,0.19,16.36,-19.04,-90.03
224,1747402684230,1.07,-0.39,0.19,16.85,0.73,-77.64
225,1747402684240,1.07,-0.39,0.19,16.85,0.73,-77.64
226,1747402684250,1.07,-0.39,0.19,16.85,0.73,-77.64
227,1747402684260,1.08,-0.29,0.23,16.85,0.73,-77.64
228,1747402684270,1.08,-0.29,0.23,14.28,1.83,-86.73
229,1747402684280,1.08,-0.29,0.23,14.28,1.83,-86.73
230,1747402684290,1.08,-0.29,0.23,14.28,1.83,-86.73
231,1747402684300,1.26,-0.36,0.24,6.96,-26.92,-53.59
232,1747402684310,1.26,-0.36,0.24,6.96,-26.92,-53.59
233,1747402684320,1.26,-0.36,0.24,6.96,-26.92,-53.59
234,1747402684330,1.26,-0.36,0.24,6.96,-26.92,-53.59
235,1747402684340,1.13,-0.34,0.2,6.35,-1.2550000000000008,-48.705
236,1747402684350,1.13,-0.34,0.2,5.74,24.41,-43.82
237,1747402684360,1.13,-0.34,0.2,5.74,24.41,-43.82
238,1747402684370,1.13,-0.34,0.2,5.74,24.41,-43.82
239,1747402684380,1.04,-0.35,0.16,-2.2,9.95,-34.42
240,1747402684390,1.04,-0.35,0.16,-2.2,9.95,-34.42
241,1747402684400,1.04,-0.35,0.16,-2.2,9.95,-34.42
242,1747402684410,1.04,-0.35,0.16,-2.2,9.95,-34.42
243,1747402684420,1.02,-0.3,0.15,2.87,-6.16,-25.39
244,1747402684430,1.02,-0.3,0.15,2.87,-6.16,-25.39
245,1747402684440,1.02,-0.3,0.15,2.87,-6.16,-25.39
246,1747402684450,1.02,-0.3,0.15,2.87,-6.16,-25.39
247,1747402684460,0.96,-0.29,0.13,0.79,-15.56,-21.97
248,1747402684470,0.96,-0.29,0.13,0.79,-15.56,-21.97
249,1747402684480,0.96,-0.29,0.13,0.79,-15.56,-21.97
250,1747402684490,0.96,-0.29,0.13,0.79,-15.56,-21.97
251,1747402684500,1.06,-0.23,0.16,2.99,-1.46,-26.98
252,1747402684510,1.06,-0.23,0.16,2.99,-1.46,-26.98
253,1747402684520,1.06,-0.23,0.16,2.99,-1.46,-26.98
254,1747402684530,1.0550000000000002,-0.22,0.1699999999999999,1.495,-6.5,-21.575000000000003
255,1747402684540,1.05,-0.21,0.18,0.0,-11.54,-16.17
256,1747402684550,1.05,-0.21,0.18,0.0,-11.54,-16.17
257,1747402684560,1.05,-0.21,0.18,0.0,-11.54,-16.17
258,1747402684570,1.02,-0.2,0.16,1.59,-0.73,-15.99
259,1747402684580,1.02,-0.2,0.16,1.59,-0.73,-15.99
260,1747402684590,1.02,-0.2,0.16,1.59,-0.73,-15.99
261,1747402684600,1.02,-0.2,0.16,1.59,-0.73,-15.99
262,1747402684610,1.04,-0.19,0.17,0.43,0.6399999999999999,-16.205000000000002
263,1747402684620,1.04,-0.19,0.17,-0.73,2.01,-16.42
264,1747402684630,1.04,-0.19,0.17,-0.73,2.01,-16.42
265,1747402684640,1.04,-0.19,0.17,-0.73,2.01,-16.42
266,1747402684650,1.09,-0.2,0.18,-1.53,-7.45,-6.23
267,1747402684660,1.09,-0.2,0.18,-1.53,-7.45,-6.23
268,1747402684670,1.09,-0.2,0.18,-1.53,-7.45,-6.23
269,1747402684680,1.09,-0.2,0.18,-1.53,-7.45,-6.23
270,1747402684690,1.07,-0.19,0.18,0.06,15.44,-3.85
271,1747402684700,1.07,-0.19,0.18,0.06,15.44,-3.85
272,1747402684710,1.07,-0.19,0.18,0.06,15.44,-3.85
273,1747402684720,1.02,-0.2,0.17,-6.29,8.3,-1.53
274,1747402684730,1.02,-0.2,0.17,-6.29,8.3,-1.53
275,1747402684740,1.02,-0.2,0.17,-6.29,8.3,-1.53
276,1747402684750,1.02,-0.2,0.17,-6.29,8.3,-1.53
277,1747402684760,1.0,-0.21,0.15,-7.39,-3.17,3.3
278,1747402684770,1.0,-0.21,0.15,-7.39,-3.17,3.3
279,1747402684780,1.0,-0.21,0.15,-7.39,-3.17,3.3
280,1747402684790,0.98,-0.21,0.14,-4.82,1.1,2.08
281,1747402684800,0.98,-0.21,0.14,-4.82,1.1,2.08
282,1747402684810,0.98,-0.21,0.14,-4.82,1.1,2.08
283,1747402684820,0.98,-0.21,0.14,-4.82,1.1,2.08
284,1747402684830,0.98,-0.19,0.14,0.12,-2.81,3.97
285,1747402684840,0.98,-0.19,0.14,0.12,-2.81,3.97
286,1747402684850,0.98,-0.19,0.14,0.12,-2.81,3.97
287,1747402684860,0.98,-0.19,0.14,0.12,-2.81,3.97
288,1747402684870,1.0,-0.19,0.14,0.67,-7.32,1.83
289,1747402684880,1.0,-0.19,0.14,0.67,-7.32,1.83
290,1747402684890,1.0,-0.19,0.14,0.67,-7.32,1.83
291,1747402684900,1.0,-0.19,0.14,0.67,-7.32,1.83
292,1747402684910,1.0,-0.17,0.15,0.06,2.32,0.49
293,1747402684920,1.0,-0.17,0.15,0.06,2.32,0.49
294,1747402684930,1.0,-0.17,0.15,0.06,2.32,0.49
295,1747402684940,1.0,-0.17,0.155,-2.165,0.3949999999999999,0.975
296,1747402684950,1.0,-0.17,0.16,-4.39,-1.53,1.46
297,1747402684960,1.0,-0.17,0.16,-4.39,-1.53,1.46
298,1747402684970,1.0,-0.17,0.16,-4.39,-1.53,1.46
299,1747402684980,0.995,-0.18,0.145,-5.244999999999999,-0.49,1.645
300,1747402684990,0.99,-0.19,0.13,-6.1,0.55,1.83
301,1747402685000,0.99,-0.19,0.13,-6.1,0.55,1.83
302,1747402685010,0.99,-0.19,0.13,-6.1,0.55,1.83
303,1747402685020,0.995,-0.195,0.13,-4.515,0.12,2.655
304,1747402685030,1.0,-0.2,0.13,-2.93,-0.31,3.48
305,1747402685040,1.0,-0.2,0.13,-2.93,-0.31,3.48
306,1747402685050,1.0,-0.2,0.13,-2.93,-0.31,3.48
307,1747402685060,0.99,-0.2,0.14,-2.81,-0.52,3.02
308,1747402685070,0.99,-0.2,0.14,-2.69,-0.73,2.56
309,1747402685080,0.99,-0.2,0.14,-2.69,-0.73,2.56
310,1747402685090,0.99,-0.2,0.14,-2.69,-0.73,2.56
311,1747402685100,1.01,-0.21,0.13,-3.6,-1.89,2.69
312,1747402685110,1.01,-0.21,0.13,-3.6,-1.89,2.69
313,1747402685120,1.01,-0.21,0.13,-3.6,-1.89,2.69
314,1747402685130,1.01,-0.21,0.13,-3.6,-1.89,2.69
315,1747402685140,1.03,-0.21,0.13,-1.83,0.43,5.0
316,1747402685150,1.03,-0.21,0.13,-1.83,0.43,5.0
317,1747402685160,1.03,-0.21,0.13,-1.83,0.43,5.0
318,1747402685170,1.03,-0.21,0.13,-1.83,0.43,5.0
319,1747402685180,1.05,-0.21,0.15,-1.77,0.0,8.06
320,1747402685190,1.05,-0.21,0.15,-1.77,0.0,8.06
321,1747402685200,1.05,-0.21,0.15,-1.77,0.0,8.06
322,1747402685210,1.06,-0.215,0.15,-1.985,1.22,11.78
323,1747402685220,1.07,-0.22,0.15,-2.2,2.44,15.5
324,1747402685230,1.07,-0.22,0.15,-2.2,2.44,15.5
325,1747402685240,1.07,-0.22,0.15,-2.2,2.44,15.5
326,1747402685250,1.09,-0.22,0.15,-2.01,-0.24,21.24
327,1747402685260,1.09,-0.22,0.15,-2.01,-0.24,21.24
328,1747402685270,1.09,-0.22,0.15,-2.01,-0.24,21.24
329,1747402685280,1.09,-0.22,0.15,-2.01,-0.24,21.24
330,1747402685290,1.09,-0.22,0.15,-2.01,-0.24,21.24
331,1747402685300,1.15,-0.25,0.16,-3.05,-7.69,31.07
332,1747402685310,1.15,-0.25,0.16,-3.05,-7.69,31.07
333,1747402685320,1.15,-0.25,0.16,-3.05,-7.69,31.07
334,1747402685330,1.15,-0.27,0.17,-1.95,8.79,38.45
335,1747402685340,1.15,-0.27,0.17,-1.95,8.79,38.45
336,1747402685350,1.15,-0.27,0.17,-1.95,8.79,38.45
337,1747402685360,1.15,-0.27,0.17,-1.95,8.79,38.45
338,1747402685370,1.12,-0.31,0.17,-6.53,13.0,48.16
339,1747402685380,1.12,-0.31,0.17,-6.53,13.0,48.16
340,1747402685390,1.12,-0.31,0.17,-6.53,13.0,48.16
341,1747402685400,1.12,-0.31,0.17,-6.53,13.0,48.16
342,1747402685410,1.09,-0.33,0.17,-7.2,8.605,54.23
343,1747402685420,1.09,-0.33,0.17,-7.87,4.21,60.3
344,1747402685430,1.09,-0.33,0.17,-7.87,4.21,60.3
345,1747402685440,1.09,-0.33,0.17,-7.87,4.21,60.3
346,1747402685450,1.08,-0.36,0.18,-9.7,4.33,71.72
347,1747402685460,1.08,-0.36,0.18,-9.7,4.33,71.72
348,1747402685470,1.08,-0.36,0.18,-9.7,4.33,71.72
349,1747402685480,1.05,-0.37,0.18,-9.7,4.33,71.72
350,1747402685490,1.02,-0.38,0.18,-14.83,7.02,76.29
351,1747402685500,1.02,-0.38,0.18,-14.83,7.02,76.29
352,1747402685510,1.02,-0.38,0.18,-14.83,7.02,76.29
353,1747402685520,1.01,-0.42,0.17,-13.55,5.86,87.77
354,1747402685530,1.01,-0.42,0.17,-13.55,5.86,87.77
355,1747402685540,1.01,-0.42,0.17,-13.55,5.86,87.77
356,1747402685550,1.01,-0.42,0.17,-13.55,5.86,87.77
357,1747402685560,0.95,-0.44,0.18,-14.83,21.67,91.43
358,1747402685570,0.95,-0.44,0.18,-14.83,21.67,91.43
359,1747402685580,0.95,-0.44,0.18,-14.83,21.67,91.43
360,1747402685590,0.95,-0.44,0.18,-14.83,21.67,91.43
361,1747402685600,0.83,-0.49,0.16,-23.19,18.92,99.37
362,1747402685610,0.83,-0.49,0.16,-23.19,18.92,99.37
363,1747402685620,0.83,-0.49,0.16,-23.19,18.92,99.37
364,1747402685630,0.83,-0.49,0.16,-23.19,18.92,99.37
365,1747402685640,0.76,-0.55,0.13,-25.82,15.26,102.42
366,1747402685650,0.76,-0.55,0.13,-25.82,15.26,102.42
367,1747402685660,0.76,-0.55,0.13,-25.82,15.26,102.42
368,1747402685670,0.76,-0.55,0.13,-25.82,15.26,102.42
369,1747402685680,0.7,-0.59,0.14,-24.11,3.42,97.29
370,1747402685690,0.7,-0.59,0.14,-24.11,3.42,97.29
371,1747402685700,0.7,-0.59,0.14,-24.11,3.42,97.29
372,1747402685710,0.685,-0.615,0.125,-24.11,3.42,97.29
373,1747402685720,0.67,-0.64,0.11,-25.45,1.77,101.62
374,1747402685730,0.67,-0.64,0.11,-25.45,1.77,101.62
375,1747402685740,0.67,-0.64,0.11,-25.45,1.77,101.62
376,1747402685750,0.6,-0.69,0.12,-16.97,23.01,86.3
377,1747402685760,0.6,-0.69,0.12,-16.97,23.01,86.3
378,1747402685770,0.6,-0.69,0.12,-16.97,23.01,86.3
379,1747402685780,0.6,-0.69,0.12,-16.97,23.01,86.3
380,1747402685790,0.54,-0.73,0.11,-16.97,23.01,86.3
381,1747402685800,0.54,-0.73,0.11,-17.21,8.91,86.67
382,1747402685810,0.54,-0.73,0.11,-17.21,8.91,86.67
383,1747402685820,0.54,-0.73,0.11,-17.21,8.91,86.67
384,1747402685830,0.51,-0.76,0.11,-19.17,5.98,81.67
385,1747402685840,0.51,-0.76,0.11,-19.17,5.98,81.67
386,1747402685850,0.51,-0.76,0.11,-19.17,5.98,81.67
387,1747402685860,0.51,-0.76,0.11,-19.17,5.98,81.67
388,1747402685870,0.43,-0.79,0.12,-13.61,9.77,72.2
389,1747402685880,0.43,-0.79,0.12,-13.61,9.77,72.2
390,1747402685890,0.43,-0.79,0.12,-13.61,9.77,72.2
391,1747402685900,0.43,-0.79,0.12,-13.61,9.77,72.2
392,1747402685910,0.43,-0.83,0.11,-15.63,1.46,68.42
393,1747402685920,0.43,-0.83,0.11,-15.63,1.46,68.42
394,1747402685930,0.43,-0.83,0.11,-15.63,1.46,68.42
395,1747402685940,0.43,-0.83,0.11,-15.63,1.46,68.42
396,1747402685950,0.4,-0.86,0.11,-13.37,9.52,62.68
397,1747402685960,0.4,-0.86,0.11,-13.37,9.52,62.68
398,1747402685970,0.4,-0.86,0.11,-13.37,9.52,62.68
399,1747402685980,0.38,-0.865,0.105,-14.62,7.63,61.46
400,1747402685990,0.36,-0.87,0.1,-15.87,5.74,60.24
401,1747402686000,0.36,-0.87,0.1,-15.87,5.74,60.24
402,1747402686010,0.36,-0.87,0.1,-15.87,5.74,60.24
403,1747402686020,0.36,-0.87,0.1,-15.87,5.74,60.24
404,1747402686030,0.31,-0.9,0.1,-14.53,10.07,58.35
405,1747402686040,0.31,-0.9,0.1,-14.53,10.07,58.35
406,1747402686050,0.31,-0.9,0.1,-14.53,10.07,58.35
407,1747402686060,0.27,-0.91,0.09,-12.63,11.17,50.84
408,1747402686070,0.27,-0.91,0.09,-12.63,11.17,50.84
409,1747402686080,0.27,-0.91,0.09,-12.63,11.17,50.84
410,1747402686090,0.27,-0.91,0.09,-12.63,11.17,50.84
411,1747402686100,0.24,-0.93,0.07,-14.19,12.025,49.985
412,1747402686110,0.24,-0.93,0.07,-15.75,12.88,49.13
413,1747402686120,0.24,-0.93,0.07,-15.75,12.88,49.13
414,1747402686130,0.24,-0.93,0.07,-15.75,12.88,49.13
415,1747402686140,0.16,-0.93,0.04,-15.56,-7.57,51.7
416,1747402686150,0.16,-0.93,0.04,-15.56,-7.57,51.7
417,1747402686160,0.16,-0.93,0.04,-15.56,-7.57,51.7
418,1747402686170,0.1699999999999999,-0.94,0.045,-14.89,-14.465,45.565
419,1747402686180,0.18,-0.95,0.05,-14.22,-21.36,39.43
420,1747402686190,0.18,-0.95,0.05,-14.22,-21.36,39.43
421,1747402686200,0.18,-0.95,0.05,-14.22,-21.36,39.43
422,1747402686210,0.175,-0.955,0.055,-12.91,-23.19,39.675
423,1747402686220,0.17,-0.96,0.06,-11.6,-25.02,39.92
424,1747402686230,0.17,-0.96,0.06,-11.6,-25.02,39.92
425,1747402686240,0.17,-0.96,0.06,-11.6,-25.02,39.92
426,1747402686250,0.17,-0.96,0.06,-11.6,-25.02,39.92
427,1747402686260,0.18,-0.98,0.07,-7.02,-14.65,40.53
428,1747402686270,0.18,-0.98,0.07,-7.02,-14.65,40.53
429,1747402686280,0.18,-0.98,0.07,-7.02,-14.65,40.53
430,1747402686290,0.18,-0.98,0.07,-7.02,-14.65,40.53
431,1747402686300,0.12,-0.97,0.1,-2.44,-15.63,29.17
432,1747402686310,0.12,-0.97,0.1,-2.44,-15.63,29.17
433,1747402686320,0.12,-0.97,0.1,-2.44,-15.63,29.17
434,1747402686330,0.12,-0.98,0.06,-13.37,-8.18,31.56
435,1747402686340,0.12,-0.98,0.06,-13.37,-8.18,31.56
436,1747402686350,0.12,-0.98,0.06,-13.37,-8.18,31.56
437,1747402686360,0.065,-0.975,0.04,-11.505,3.965,27.255
438,1747402686370,0.01,-0.97,0.02,-9.64,16.11,22.95
439,1747402686380,0.01,-0.97,0.02,-9.64,16.11,22.95
440,1747402686390,0.01,-0.97,0.02,-9.64,16.11,22.95
441,1747402686400,0.01,-0.97,0.02,-9.64,16.11,22.95
442,1747402686410,0.0,-0.97,0.01,-3.72,5.31,6.29
443,1747402686420,0.0,-0.97,0.01,-3.72,5.31,6.29
444,1747402686430,0.0,-0.97,0.01,-3.72,5.31,6.29
445,1747402686440,0.06,-0.98,0.04,0.06,-9.28,2.81
446,1747402686450,0.06,-0.98,0.04,0.06,-9.28,2.81
447,1747402686460,0.06,-0.98,0.04,0.06,-9.28,2.81
448,1747402686470,0.06,-0.98,0.04,0.06,-9.28,2.81
449,1747402686480,0.09,-0.97,0.05,0.06,-9.28,2.81
450,1747402686490,0.09,-0.97,0.05,3.78,-1.22,-3.3
451,1747402686500,0.09,-0.97,0.05,3.78,-1.22,-3.3
452,1747402686510,0.09,-0.97,0.05,3.78,-1.22,-3.3
453,1747402686520,0.12,-0.98,0.09,2.32,-2.32,-4.94
454,1747402686530,0.12,-0.98,0.09,2.32,-2.32,-4.94
455,1747402686540,0.12,-0.98,0.09,2.32,-2.32,-4.94
456,1747402686550,0.12,-0.98,0.09,2.32,-2.32,-4.94
457,1747402686560,0.12,-1.0,0.07,-0.61,4.33,-1.46
458,1747402686570,0.12,-1.0,0.07,-0.61,4.33,-1.46
459,1747402686580,0.12,-1.0,0.07,-0.61,4.33,-1.46
460,1747402686590,0.1149999999999999,-1.0,0.06,-0.61,4.33,-1.46
461,1747402686600,0.11,-1.0,0.05,-0.98,6.04,-3.05
462,1747402686610,0.11,-1.0,0.05,-0.98,6.04,-3.05
463,1747402686620,0.11,-1.0,0.05,-0.98,6.04,-3.05
464,1747402686630,0.13,-1.0,0.055,-0.98,6.04,-3.05
465,1747402686640,0.15,-1.0,0.06,-4.39,-3.72,-1.34
466,1747402686650,0.15,-1.0,0.06,-4.39,-3.72,-1.34
467,1747402686660,0.15,-1.0,0.06,-4.39,-3.72,-1.34
468,1747402686670,0.15,-1.0,0.055,-4.39,-2.3200000000000003,0.1849999999999999
469,1747402686680,0.15,-1.0,0.05,-4.39,-0.92,1.71
470,1747402686690,0.15,-1.0,0.05,-4.39,-0.92,1.71
471,1747402686700,0.15,-1.0,0.05,-4.39,-0.92,1.71
472,1747402686710,0.1,-0.99,0.03,-1.4,2.5,2.56
473,1747402686720,0.1,-0.99,0.03,-1.4,2.5,2.56
474,1747402686730,0.1,-0.99,0.03,-1.4,2.5,2.56
475,1747402686740,0.1,-0.99,0.03,-1.4,2.5,2.56
476,1747402686750,0.09,-0.985,0.035,-0.6699999999999999,1.005,0.55
477,1747402686760,0.08,-0.98,0.04,0.06,-0.49,-1.46
478,1747402686770,0.08,-0.98,0.04,0.06,-0.49,-1.46
479,1747402686780,0.08,-0.98,0.04,0.06,-0.49,-1.46
480,1747402686790,0.13,-0.99,0.07,-2.01,-15.14,1.83
481,1747402686800,0.13,-0.99,0.07,-2.01,-15.14,1.83
482,1747402686810,0.13,-0.99,0.07,-2.01,-15.14,1.83
483,1747402686820,0.145,-0.995,0.07,-1.16,-10.745,1.22
484,1747402686830,0.16,-1.0,0.07,-0.31,-6.35,0.61
485,1747402686840,0.16,-1.0,0.07,-0.31,-6.35,0.61
486,1747402686850,0.16,-1.0,0.07,-0.31,-6.35,0.61
487,1747402686860,0.16,-1.0,0.07,-0.31,-6.35,0.61
488,1747402686870,0.13,-1.0,0.08,-1.1,0.73,1.65
489,1747402686880,0.13,-1.0,0.08,-1.1,0.73,1.65
490,1747402686890,0.13,-1.0,0.08,-1.1,0.73,1.65
491,1747402686900,0.13,-1.0,0.08,-1.1,0.73,1.65
492,1747402686910,0.135,-1.0,0.075,-2.3200000000000003,-1.04,2.625
493,1747402686920,0.14,-1.0,0.07,-3.54,-2.81,3.6
494,1747402686930,0.14,-1.0,0.07,-3.54,-2.81,3.6
495,1747402686940,0.11,-0.99,0.06,-3.54,-2.81,3.6
496,1747402686950,0.11,-0.99,0.06,-3.97,-0.24,4.52
497,1747402686960,0.11,-0.99,0.06,-3.97,-0.24,4.52
498,1747402686970,0.11,-0.99,0.06,-3.97,-0.24,4.52
499,1747402686980,0.09,-0.99,0.04,-5.07,3.54,-0.24
500,1747402686990,0.09,-0.99,0.04,-5.07,3.54,-0.24
501,1747402687000,0.09,-0.99,0.04,-5.07,3.54,-0.24
502,1747402687010,0.09,-0.99,0.04,-5.07,3.54,-0.24
503,1747402687020,0.08,-0.98,0.04,-1.77,1.04,-2.93
504,1747402687030,0.08,-0.98,0.04,-1.77,1.04,-2.93
505,1747402687040,0.08,-0.98,0.04,-1.77,1.04,-2.93
506,1747402687050,0.08,-0.98,0.04,-1.77,1.04,-2.93
507,1747402687060,0.06,-0.97,0.06,-0.12,4.39,-5.19
508,1747402687070,0.06,-0.97,0.06,-0.12,4.39,-5.19
509,1747402687080,0.06,-0.97,0.06,-0.12,4.39,-5.19
510,1747402687090,0.06,-0.97,0.06,-0.12,4.39,-5.19
511,1747402687100,0.01,-0.96,0.04,7.08,28.69,-16.42
512,1747402687110,0.01,-0.96,0.04,7.08,28.69,-16.42
513,1747402687120,0.01,-0.96,0.04,7.08,28.69,-16.42
514,1747402687130,-0.05,-0.95,0.025,14.71,49.32,-28.26
515,1747402687140,-0.11,-0.94,0.01,22.34,69.95,-40.1
516,1747402687150,-0.11,-0.94,0.01,22.34,69.95,-40.1
517,1747402687160,-0.11,-0.94,0.01,22.34,69.95,-40.1
518,1747402687170,-0.09,-0.925,0.055,27.04,37.295,-52.215
519,1747402687180,-0.07,-0.91,0.1,31.74,4.64,-64.33
520,1747402687190,-0.07,-0.91,0.1,31.74,4.64,-64.33
521,1747402687200,-0.07,-0.91,0.1,31.74,4.64,-64.33
522,1747402687210,0.18,-0.9,0.17,21.42,-16.24,-69.09
523,1747402687220,0.18,-0.9,0.17,21.42,-16.24,-69.09
524,1747402687230,0.18,-0.9,0.17,21.42,-16.24,-69.09
525,1747402687240,0.18,-0.9,0.17,21.42,-16.24,-69.09
526,1747402687250,0.1649999999999999,-0.885,0.15,21.42,-16.24,-69.09
527,1747402687260,0.15,-0.87,0.13,21.67,51.21,-83.56
528,1747402687270,0.15,-0.87,0.13,21.67,51.21,-83.56
529,1747402687280,0.15,-0.87,0.13,21.67,51.21,-83.56
530,1747402687290,0.16,-0.82,0.11,8.18,-10.62,-103.52
531,1747402687300,0.16,-0.82,0.11,8.18,-10.62,-103.52
532,1747402687310,0.16,-0.82,0.11,8.18,-10.62,-103.52
533,1747402687320,0.16,-0.82,0.11,8.18,-10.62,-103.52
534,1747402687330,0.39,-0.84,0.08,8.18,-56.27,-78.43
535,1747402687340,0.39,-0.84,0.08,8.18,-56.27,-78.43
536,1747402687350,0.39,-0.84,0.08,8.18,-56.27,-78.43
537,1747402687360,0.39,-0.84,0.08,8.18,-56.27,-78.43
538,1747402687370,0.44,-0.76,0.14,18.86,-11.6,-95.28
539,1747402687380,0.44,-0.76,0.14,18.86,-11.6,-95.28
540,1747402687390,0.44,-0.76,0.14,18.86,-11.6,-95.28
541,1747402687400,0.55,-0.74,0.16,10.01,-18.98,-106.81
542,1747402687410,0.55,-0.74,0.16,10.01,-18.98,-106.81
543,1747402687420,0.55,-0.74,0.16,10.01,-18.98,-106.81
544,1747402687430,0.55,-0.74,0.16,10.01,-18.98,-106.81
545,1747402687440,0.56,-0.745,0.125,10.01,-18.98,-106.81
546,1747402687450,0.57,-0.75,0.09,7.26,-36.32,-71.29
547,1747402687460,0.57,-0.75,0.09,7.26,-36.32,-71.29
548,1747402687470,0.57,-0.75,0.09,7.26,-36.32,-71.29
549,1747402687480,0.57,-0.75,0.09,7.26,-36.32,-71.29
550,1747402687490,0.63,-0.66,0.16,15.99,-3.91,-107.79
551,1747402687500,0.63,-0.66,0.16,15.99,-3.91,-107.79
552,1747402687510,0.63,-0.66,0.16,15.99,-3.91,-107.79
553,1747402687520,0.67,-0.69,0.12,8.79,-12.82,-88.56
554,1747402687530,0.67,-0.69,0.12,8.79,-12.82,-88.56
555,1747402687540,0.67,-0.69,0.12,8.79,-12.82,-88.56
556,1747402687550,0.62,-0.665,0.0849999999999999,9.795,-17.67,-88.225
557,1747402687560,0.57,-0.64,0.05,10.8,-22.52,-87.89
558,1747402687570,0.57,-0.64,0.05,10.8,-22.52,-87.89
559,1747402687580,0.57,-0.64,0.05,10.8,-22.52,-87.89
560,1747402687590,0.735,-0.5900000000000001,0.105,16.785,-17.09,-100.405
561,1747402687600,0.9,-0.54,0.16,22.77,-11.66,-112.92
562,1747402687610,0.9,-0.54,0.16,22.77,-11.66,-112.92
563,1747402687620,0.9,-0.54,0.16,22.77,-11.66,-112.92
564,1747402687630,0.97,-0.57,0.18,10.44,-27.65,-83.68
565,1747402687640,0.97,-0.57,0.18,10.44,-27.65,-83.68
566,1747402687650,0.97,-0.57,0.18,10.44,-27.65,-83.68
567,1747402687660,0.97,-0.57,0.18,10.44,-27.65,-83.68
568,1747402687670,0.91,-0.53,0.15,19.53,4.76,-80.87
569,1747402687680,0.91,-0.53,0.15,19.53,4.76,-80.87
570,1747402687690,0.91,-0.53,0.15,19.53,4.76,-80.87
571,1747402687700,0.91,-0.53,0.15,19.53,4.76,-80.87
572,1747402687710,0.94,-0.475,0.185,15.29,-9.89,-81.42
573,1747402687720,0.97,-0.42,0.22,11.05,-24.54,-81.97
574,1747402687730,0.97,-0.42,0.22,11.05,-24.54,-81.97
575,1747402687740,0.97,-0.42,0.22,11.05,-24.54,-81.97
576,1747402687750,1.12,-0.45,0.21,4.46,-35.16,-63.35
577,1747402687760,1.12,-0.45,0.21,4.46,-35.16,-63.35
578,1747402687770,1.12,-0.45,0.21,4.46,-35.16,-63.35
579,1747402687780,1.06,-0.425,0.185,4.46,-35.16,-63.35
580,1747402687790,1.0,-0.4,0.16,13.85,27.28,-67.44
581,1747402687800,1.0,-0.4,0.16,13.85,27.28,-67.44
582,1747402687810,1.0,-0.4,0.16,13.85,27.28,-67.44
583,1747402687820,1.035,-0.385,0.165,7.29,3.965,-60.91
584,1747402687830,1.07,-0.37,0.17,0.73,-19.35,-54.38
585,1747402687840,1.07,-0.37,0.17,0.73,-19.35,-54.38
586,1747402687850,1.07,-0.37,0.17,0.73,-19.35,-54.38
587,1747402687860,1.06,-0.37,0.165,0.73,-19.35,-54.38
588,1747402687870,1.05,-0.37,0.16,4.52,-7.81,-40.83
589,1747402687880,1.05,-0.37,0.16,4.52,-7.81,-40.83
590,1747402687890,1.05,-0.37,0.16,4.52,-7.81,-40.83
591,1747402687900,0.965,-0.355,0.135,3.51,5.465,-43.515
592,1747402687910,0.88,-0.34,0.11,2.5,18.74,-46.2
593,1747402687920,0.88,-0.34,0.11,2.5,18.74,-46.2
594,1747402687930,0.88,-0.34,0.11,2.5,18.74,-46.2
595,1747402687940,0.98,-0.3,0.09,0.31,-22.83,-40.83
596,1747402687950,0.98,-0.3,0.09,0.31,-22.83,-40.83
597,1747402687960,0.98,-0.3,0.09,0.31,-22.83,-40.83
598,1747402687970,0.98,-0.3,0.09,0.31,-22.83,-40.83
599,1747402687980,1.14,-0.22,0.17,9.58,-20.69,-41.69
600,1747402687990,1.14,-0.22,0.17,9.58,-20.69,-41.69
601,1747402688000,1.14,-0.22,0.17,9.58,-20.69,-41.69
602,1747402688010,1.1349999999999998,-0.2299999999999999,0.17,5.735,-11.075,-37.02
603,1747402688020,1.13,-0.24,0.17,1.89,-1.46,-32.35
604,1747402688030,1.13,-0.24,0.17,1.89,-1.46,-32.35
605,1747402688040,1.13,-0.24,0.17,1.89,-1.46,-32.35
606,1747402688050,1.11,-0.24,0.155,1.645,3.085,-27.435
607,1747402688060,1.09,-0.24,0.14,1.4,7.63,-22.52
608,1747402688070,1.09,-0.24,0.14,1.4,7.63,-22.52
609,1747402688080,1.09,-0.24,0.14,1.4,7.63,-22.52
610,1747402688090,1.07,-0.22,0.15,-4.39,-5.49,-16.54
611,1747402688100,1.07,-0.22,0.15,-4.39,-5.49,-16.54
612,1747402688110,1.07,-0.22,0.15,-4.39,-5.49,-16.54
613,1747402688120,1.07,-0.22,0.15,-4.39,-5.49,-16.54
614,1747402688130,1.1,-0.24,0.13,-6.29,-0.98,-6.77
615,1747402688140,1.1,-0.24,0.13,-6.29,-0.98,-6.77
616,1747402688150,1.1,-0.24,0.13,-6.29,-0.98,-6.77
617,1747402688160,1.1,-0.24,0.13,-6.29,-0.98,-6.77
618,1747402688170,1.06,-0.23,0.13,-5.25,1.89,-2.26
619,1747402688180,1.06,-0.23,0.13,-5.25,1.89,-2.26
620,1747402688190,1.06,-0.23,0.13,-5.25,1.89,-2.26
621,1747402688200,1.045,-0.225,0.13,-5.25,1.89,-2.26
622,1747402688210,1.03,-0.22,0.13,-5.31,-0.18,3.36
623,1747402688220,1.03,-0.22,0.13,-5.31,-0.18,3.36
624,1747402688230,1.03,-0.22,0.13,-5.31,-0.18,3.36
625,1747402688240,1.03,-0.22,0.13,-5.31,-0.18,3.36
626,1747402688250,1.0,-0.22,0.11,-4.82,-0.67,4.82
627,1747402688260,1.0,-0.22,0.11,-4.82,-0.67,4.82
628,1747402688270,1.0,-0.22,0.11,-4.82,-0.67,4.82
629,1747402688280,0.99,-0.21,0.1149999999999999,-4.82,-0.67,4.82
630,1747402688290,0.98,-0.2,0.12,-3.97,1.22,3.72
631,1747402688300,0.98,-0.2,0.12,-3.97,1.22,3.72
632,1747402688310,0.98,-0.2,0.12,-3.97,1.22,3.72
633,1747402688320,0.98,-0.2,0.11,-5.98,-1.46,3.91
634,1747402688330,0.98,-0.2,0.11,-5.98,-1.46,3.91
635,1747402688340,0.98,-0.2,0.11,-5.98,-1.46,3.91
636,1747402688350,0.98,-0.2,0.11,-5.98,-1.46,3.91
637,1747402688360,1.0,-0.21,0.11,-5.585000000000001,0.185,3.51
638,1747402688370,1.0,-0.21,0.11,-5.19,1.83,3.11
639,1747402688380,1.0,-0.21,0.11,-5.19,1.83,3.11
640,1747402688390,1.0,-0.21,0.11,-5.19,1.83,3.11
641,1747402688400,1.0,-0.2,0.12,-0.98,-1.83,4.03
642,1747402688410,1.0,-0.2,0.12,-0.98,-1.83,4.03
643,1747402688420,1.0,-0.2,0.12,-0.98,-1.83,4.03
644,1747402688430,1.0,-0.2,0.12,-0.98,-1.83,4.03
645,1747402688440,1.01,-0.2,0.12,-2.5,3.48,2.5
646,1747402688450,1.01,-0.2,0.12,-2.5,3.48,2.5
647,1747402688460,1.01,-0.2,0.12,-2.5,3.48,2.5
648,1747402688470,0.99,-0.21,0.12,-2.5,3.48,2.5
649,1747402688480,0.99,-0.21,0.12,-5.19,3.23,1.22
650,1747402688490,0.99,-0.21,0.12,-5.19,3.23,1.22
651,1747402688500,0.99,-0.21,0.12,-5.19,3.23,1.22
652,1747402688510,0.99,-0.21,0.12,-5.19,3.23,1.22
653,1747402688520,0.99,-0.22,0.1,-5.37,3.78,-0.55
654,1747402688530,0.99,-0.22,0.1,-5.37,3.78,-0.55
655,1747402688540,0.99,-0.22,0.1,-5.37,3.78,-0.55
656,1747402688550,1.0,-0.22,0.11,-4.0600000000000005,2.01,0.4249999999999999
657,1747402688560,1.01,-0.22,0.12,-2.75,0.24,1.4
658,1747402688570,1.01,-0.22,0.12,-2.75,0.24,1.4
659,1747402688580,1.01,-0.22,0.12,-2.75,0.24,1.4
660,1747402688590,1.015,-0.22,0.125,-2.105,1.25,2.44
661,1747402688600,1.02,-0.22,0.13,-1.46,2.26,3.48
662,1747402688610,1.02,-0.22,0.13,-1.46,2.26,3.48
663,1747402688620,1.02,-0.22,0.13,-1.46,2.26,3.48
664,1747402688630,1.03,-0.21,0.13,-2.32,1.1,4.82
665,1747402688640,1.03,-0.21,0.13,-2.32,1.1,4.82
666,1747402688650,1.03,-0.21,0.13,-2.32,1.1,4.82
667,1747402688660,1.03,-0.21,0.13,-2.32,1.1,4.82
668,1747402688670,1.08,-0.22,0.16,-6.9,-0.73,7.02
669,1747402688680,1.08,-0.22,0.16,-6.9,-0.73,7.02
670,1747402688690,1.08,-0.22,0.16,-6.9,-0.73,7.02
671,1747402688700,1.0950000000000002,-0.2299999999999999,0.16,-8.67,-1.555,10.775
672,1747402688710,1.11,-0.24,0.16,-10.44,-2.38,14.53
673,1747402688720,1.11,-0.24,0.16,-10.44,-2.38,14.53
674,1747402688730,1.11,-0.24,0.16,-10.44,-2.38,14.53
675,1747402688740,1.11,-0.24,0.16,-10.44,-2.38,14.53
676,1747402688750,1.11,-0.25,0.13,-14.59,-4.15,21.24
677,1747402688760,1.11,-0.25,0.13,-14.59,-4.15,21.24
678,1747402688770,1.11,-0.25,0.13,-14.59,-4.15,21.24
679,1747402688780,1.105,-0.265,0.12,-12.36,-2.1950000000000003,26.4
680,1747402688790,1.1,-0.28,0.11,-10.13,-0.24,31.56
681,1747402688800,1.1,-0.28,0.11,-10.13,-0.24,31.56
682,1747402688810,1.1,-0.28,0.11,-10.13,-0.24,31.56
683,1747402688820,1.15,-0.3,0.12,-11.84,-3.08,36.715
684,1747402688830,1.15,-0.3,0.12,-13.55,-5.92,41.87
685,1747402688840,1.15,-0.3,0.12,-13.55,-5.92,41.87
686,1747402688850,1.15,-0.3,0.12,-13.55,-5.92,41.87
687,1747402688860,1.15,-0.32,0.13,-11.72,-3.05,55.11
688,1747402688870,1.15,-0.32,0.13,-11.72,-3.05,55.11
689,1747402688880,1.15,-0.32,0.13,-11.72,-3.05,55.11
690,1747402688890,1.15,-0.32,0.13,-11.72,-3.05,55.11
691,1747402688900,1.12,-0.36,0.11,-12.515,1.4650000000000003,61.95
692,1747402688910,1.12,-0.36,0.11,-13.31,5.98,68.79
693,1747402688920,1.12,-0.36,0.11,-13.31,5.98,68.79
694,1747402688930,1.12,-0.36,0.11,-13.31,5.98,68.79
695,1747402688940,1.03,-0.38,0.11,-15.32,10.44,73.97
696,1747402688950,1.03,-0.38,0.11,-15.32,10.44,73.97
697,1747402688960,1.03,-0.38,0.11,-15.32,10.44,73.97
698,1747402688970,,,,,,
699,1747402688980,1.01,-0.41,0.11,-19.1,-11.96,85.63
700,1747402688990,1.01,-0.41,0.11,-19.1,-11.96,85.63
701,1747402689000,1.01,-0.41,0.11,-19.1,-11.96,85.63
702,1747402689010,1.0,-0.435,0.1,-19.195,-7.565,89.57
703,1747402689020,0.99,-0.46,0.09,-19.29,-3.17,93.51
704,1747402689030,0.99,-0.46,0.09,-19.29,-3.17,93.51
705,1747402689040,0.99,-0.46,0.09,-19.29,-3.17,93.51
706,1747402689050,0.92,-0.49,0.08,-18.25,8.305,95.585
707,1747402689060,0.92,-0.49,0.08,-17.21,19.78,97.66
708,1747402689070,0.92,-0.49,0.08,-17.21,19.78,97.66
709,1747402689080,0.92,-0.49,0.08,-17.21,19.78,97.66
710,1747402689090,0.81,-0.53,0.08,-18.37,13.67,100.34
711,1747402689100,0.81,-0.53,0.08,-18.37,13.67,100.34
712,1747402689110,0.81,-0.53,0.08,-18.37,13.67,100.34
713,1747402689120,0.81,-0.53,0.08,-18.37,13.67,100.34
714,1747402689130,0.73,-0.57,0.08,-21.0,7.14,100.89
715,1747402689140,0.73,-0.57,0.08,-21.0,7.14,100.89
716,1747402689150,0.73,-0.57,0.08,-21.0,7.14,100.89
717,1747402689160,0.73,-0.57,0.08,-21.0,7.14,100.89
718,1747402689170,0.66,-0.63,0.07,-21.67,11.9,91.74
719,1747402689180,0.66,-0.63,0.07,-21.67,11.9,91.74
720,1747402689190,0.66,-0.63,0.07,-21.67,11.9,91.74
721,1747402689200,0.625,-0.64,0.07,-24.535,5.705,84.505
722,1747402689210,0.59,-0.65,0.07,-27.4,-0.49,77.27
723,1747402689220,0.59,-0.65,0.07,-27.4,-0.49,77.27
724,1747402689230,0.59,-0.65,0.07,-27.4,-0.49,77.27
725,1747402689240,0.59,-0.6799999999999999,0.06,-28.5,-10.56,75.96000000000001
726,1747402689250,0.59,-0.71,0.05,-29.6,-20.63,74.65
727,1747402689260,0.59,-0.71,0.05,-29.6,-20.63,74.65
728,1747402689270,0.59,-0.71,0.05,-29.6,-20.63,74.65
729,1747402689280,0.6,-0.74,0.05,-20.08,1.71,76.11
730,1747402689290,0.6,-0.74,0.05,-20.08,1.71,76.11
731,1747402689300,0.6,-0.74,0.05,-20.08,1.71,76.11
732,1747402689310,0.6,-0.74,0.05,-20.08,1.71,76.11
733,1747402689320,0.51,-0.77,0.03,-20.325,7.689999999999999,74.22
734,1747402689330,0.51,-0.77,0.03,-20.57,13.67,72.33
735,1747402689340,0.51,-0.77,0.03,-20.57,13.67,72.33
736,1747402689350,0.51,-0.77,0.03,-20.57,13.67,72.33
737,1747402689360,0.49,-0.82,0.0,-17.09,7.93,71.53
738,1747402689370,0.49,-0.82,0.0,-17.09,7.93,71.53
739,1747402689380,0.49,-0.82,0.0,-17.09,7.93,71.53
740,1747402689390,0.4649999999999999,-0.83,-0.005,-17.61,5.645,71.225
741,1747402689400,0.44,-0.84,-0.01,-18.13,3.36,70.92
742,1747402689410,0.44,-0.84,-0.01,-18.13,3.36,70.92
743,1747402689420,0.44,-0.84,-0.01,-18.13,3.36,70.92
744,1747402689430,0.44,-0.84,-0.01,-18.13,3.36,70.92
745,1747402689440,0.36,-0.85,-0.01,-17.46,-0.61,60.61
746,1747402689450,0.36,-0.85,-0.01,-17.46,-0.61,60.61
747,1747402689460,0.36,-0.85,-0.01,-17.46,-0.61,60.61
748,1747402689470,0.37,-0.875,-0.02,-19.565,-15.165,60.73
749,1747402689480,0.38,-0.9,-0.03,-21.67,-29.72,60.85
750,1747402689490,0.38,-0.9,-0.03,-21.67,-29.72,60.85
751,1747402689500,0.38,-0.9,-0.03,-21.67,-29.72,60.85
752,1747402689510,0.38,-0.9,-0.03,-21.67,-29.72,60.85
753,1747402689520,0.38,-0.91,-0.04,-12.57,-17.76,58.9
754,1747402689530,0.38,-0.91,-0.04,-12.57,-17.76,58.9
755,1747402689540,0.38,-0.91,-0.04,-12.57,-17.76,58.9
756,1747402689550,0.31,-0.94,-0.06,-5.0,12.7,57.37
757,1747402689560,0.31,-0.94,-0.06,-5.0,12.7,57.37
758,1747402689570,0.31,-0.94,-0.06,-5.0,12.7,57.37
759,1747402689580,0.31,-0.94,-0.06,-5.0,12.7,57.37
760,1747402689590,0.24,-0.92,-0.04,-1.77,10.01,51.15
761,1747402689600,0.24,-0.92,-0.04,-1.77,10.01,51.15
762,1747402689610,0.24,-0.92,-0.04,-1.77,10.01,51.15
763,1747402689620,0.2299999999999999,-0.935,-0.035,-2.715,1.31,54.11
764,1747402689630,0.22,-0.95,-0.03,-3.66,-7.39,57.07
765,1747402689640,0.22,-0.95,-0.03,-3.66,-7.39,57.07
766,1747402689650,0.22,-0.95,-0.03,-3.66,-7.39,57.07
767,1747402689660,0.185,-0.945,-0.0049999999999999,-5.34,-7.234999999999999,52.095
768,1747402689670,0.15,-0.94,0.02,-7.02,-7.08,47.12
769,1747402689680,0.15,-0.94,0.02,-7.02,-7.08,47.12
770,1747402689690,0.15,-0.94,0.02,-7.02,-7.08,47.12
771,1747402689700,0.11,-0.95,0.04,-7.02,-7.08,47.12
772,1747402689710,0.11,-0.95,0.04,-17.4,-29.97,43.15
773,1747402689720,0.11,-0.95,0.04,-17.4,-29.97,43.15
774,1747402689730,0.11,-0.95,0.04,-17.4,-29.97,43.15
775,1747402689740,0.125,-0.96,0.005,-16.755,-18.16,41.99
776,1747402689750,0.14,-0.97,-0.03,-16.11,-6.35,40.83
777,1747402689760,0.14,-0.97,-0.03,-16.11,-6.35,40.83
778,1747402689770,0.14,-0.97,-0.03,-16.11,-6.35,40.83
779,1747402689780,0.08,-0.97,-0.05,-9.245,25.36,28.26
780,1747402689790,0.02,-0.97,-0.07,-2.38,57.07,15.69
781,1747402689800,0.02,-0.97,-0.07,-2.38,57.07,15.69
782,1747402689810,0.02,-0.97,-0.07,-2.38,57.07,15.69
783,1747402689820,-0.03,-0.96,-0.09,-0.85,25.82,1.46
784,1747402689830,-0.03,-0.96,-0.09,-0.85,25.82,1.46
785,1747402689840,-0.03,-0.96,-0.09,-0.85,25.82,1.46
786,1747402689850,-0.03,-0.96,-0.09,-0.85,25.82,1.46
787,1747402689860,0.09,-0.99,-0.08,-0.24,-14.34,-1.95
788,1747402689870,0.09,-0.99,-0.08,-0.24,-14.34,-1.95
789,1747402689880,0.09,-0.99,-0.08,-0.24,-14.34,-1.95
790,1747402689890,0.115,-0.985,-0.05,2.565,-7.689999999999999,-5.185
791,1747402689900,0.14,-0.98,-0.02,5.37,-1.04,-8.42
792,1747402689910,0.14,-0.98,-0.02,5.37,-1.04,-8.42
793,1747402689920,0.14,-0.98,-0.02,5.37,-1.04,-8.42
794,1747402689930,0.18,-0.98,-0.01,0.18,-5.86,-8.36
795,1747402689940,0.18,-0.98,-0.01,0.18,-5.86,-8.36
796,1747402689950,0.18,-0.98,-0.01,0.18,-5.86,-8.36
797,1747402689960,0.2,-0.995,-0.015,0.18,-5.86,-8.36
798,1747402689970,0.22,-1.01,-0.02,-6.71,-10.62,-4.27
799,1747402689980,0.22,-1.01,-0.02,-6.71,-10.62,-4.27
800,1747402689990,0.22,-1.01,-0.02,-6.71,-10.62,-4.27
801,1747402690000,0.22,-1.01,-0.02,-6.71,-10.62,-4.27
802,1747402690010,0.17,-1.0,-0.05,-0.55,9.22,-2.56
803,1747402690020,0.17,-1.0,-0.05,-0.55,9.22,-2.56
804,1747402690030,0.17,-1.0,-0.05,-0.55,9.22,-2.56
805,1747402690040,0.185,-1.0,-0.04,-0.55,9.22,-2.56
806,1747402690050,0.2,-1.0,-0.03,-6.1,-8.36,-1.65
807,1747402690060,0.2,-1.0,-0.03,-6.1,-8.36,-1.65
808,1747402690070,0.2,-1.0,-0.03,-6.1,-8.36,-1.65
809,1747402690080,0.19,-1.0,-0.03,-6.1,-8.36,-1.65
810,1747402690090,0.18,-1.0,-0.03,-6.47,-7.63,3.05
811,1747402690100,0.18,-1.0,-0.03,-6.47,-7.63,3.05
812,1747402690110,0.18,-1.0,-0.03,-6.47,-7.63,3.05
813,1747402690120,0.1649999999999999,-0.995,-0.035,-5.125,1.1300000000000003,2.99
814,1747402690130,0.15,-0.99,-0.04,-3.78,9.89,2.93
815,1747402690140,0.15,-0.99,-0.04,-3.78,9.89,2.93
816,1747402690150,0.15,-0.99,-0.04,-3.78,9.89,2.93
817,1747402690160,,,,,,
818,1747402690170,,,,,,
819,1747402690180,,,,,,
820,1747402690190,0.18,-0.98,-0.04,-4.76,-3.66,-0.18
821,1747402690200,0.18,-1.0,-0.05,-2.87,2.41,0.4600000000000001
822,1747402690210,0.18,-1.0,-0.05,-0.98,8.48,1.1
823,1747402690220,0.18,-1.0,-0.05,-0.98,8.48,1.1
824,1747402690230,0.18,-1.0,-0.05,-0.98,8.48,1.1
825,1747402690240,0.18,-1.0,-0.05,-0.98,8.48,1.1
826,1747402690250,0.17,-0.99,-0.04,-1.71,6.65,0.55
827,1747402690260,0.17,-0.99,-0.04,-1.71,6.65,0.55
828,1747402690270,0.17,-0.99,-0.04,-1.71,6.65,0.55
829,1747402690280,0.19,-0.99,-0.04,-3.85,-3.05,-2.14
830,1747402690290,0.19,-0.99,-0.04,-3.85,-3.05,-2.14
831,1747402690300,0.19,-0.99,-0.04,-3.85,-3.05,-2.14
832,1747402690310,0.19,-0.99,-0.045,-3.85,-3.05,-2.14
833,1747402690320,0.19,-0.99,-0.05,-3.36,7.02,1.16
834,1747402690330,0.19,-0.99,-0.05,-3.36,7.02,1.16
835,1747402690340,0.19,-0.99,-0.05,-3.36,7.02,1.16
836,1747402690350,0.18,-0.99,-0.05,-4.7,4.609999999999999,0.3349999999999999
837,1747402690360,0.17,-0.99,-0.05,-6.04,2.2,-0.49
838,1747402690370,0.17,-0.99,-0.05,-6.04,2.2,-0.49
839,1747402690380,0.17,-0.99,-0.05,-6.04,2.2,-0.49
840,1747402690390,0.2,-0.99,-0.05,-4.455,-2.015,0.09
841,1747402690400,0.2,-0.99,-0.05,-2.87,-6.23,0.67
842,1747402690410,0.2,-0.99,-0.05,-2.87,-6.23,0.67
843,1747402690420,0.2,-0.99,-0.05,-2.87,-6.23,0.67
844,1747402690430,0.175,-0.99,-0.05,-1.895,-1.9550000000000003,1.375
845,1747402690440,0.15,-0.99,-0.05,-0.92,2.32,2.08
846,1747402690450,0.15,-0.99,-0.05,-0.92,2.32,2.08
847,1747402690460,0.15,-0.99,-0.05,-0.92,2.32,2.08
848,1747402690470,0.1,-0.98,-0.02,2.56,10.74,-4.46
849,1747402690480,0.1,-0.98,-0.02,2.56,10.74,-4.46
850,1747402690490,0.1,-0.98,-0.02,2.56,10.74,-4.46
851,1747402690500,0.1,-0.98,-0.02,2.56,10.74,-4.46
852,1747402690510,0.06,-0.95,0.0,6.96,21.61,-15.32
853,1747402690520,0.06,-0.95,0.0,6.96,21.61,-15.32
854,1747402690530,0.06,-0.95,0.0,6.96,21.61,-15.32
855,1747402690540,0.03,-0.94,-0.02,6.96,21.61,-15.32
856,1747402690550,0.0,-0.93,-0.04,6.41,28.63,-32.9
857,1747402690560,0.0,-0.93,-0.04,6.41,28.63,-32.9
858,1747402690570,0.0,-0.93,-0.04,6.41,28.63,-32.9
859,1747402690580,0.01,-0.915,-0.035,7.66,21.305,-43.55
860,1747402690590,0.02,-0.9,-0.03,8.91,13.98,-54.2
861,1747402690600,0.02,-0.9,-0.03,8.91,13.98,-54.2
862,1747402690610,0.02,-0.9,-0.03,8.91,13.98,-54.2
863,1747402690620,0.08,-0.895,-0.025,10.62,6.470000000000001,-60.7
864,1747402690630,0.14,-0.89,-0.02,12.33,-1.04,-67.2
865,1747402690640,0.14,-0.89,-0.02,12.33,-1.04,-67.2
866,1747402690650,0.14,-0.89,-0.02,12.33,-1.04,-67.2
867,1747402690660,0.22,-0.87,-0.01,24.96,42.11,-78.67
868,1747402690670,0.22,-0.87,-0.01,24.96,42.11,-78.67
869,1747402690680,0.22,-0.87,-0.01,24.96,42.11,-78.67
870,1747402690690,0.22,-0.87,-0.01,24.96,42.11,-78.67
871,1747402690700,0.22,-0.86,0.01,30.03,49.19,-87.37
872,1747402690710,0.22,-0.86,0.01,35.1,56.27,-96.07
873,1747402690720,0.22,-0.86,0.01,35.1,56.27,-96.07
874,1747402690730,0.22,-0.86,0.01,35.1,56.27,-96.07
875,1747402690740,0.35,-0.81,0.08,25.94,-22.4,-95.4
876,1747402690750,0.35,-0.81,0.08,25.94,-22.4,-95.4
877,1747402690760,0.35,-0.81,0.08,25.94,-22.4,-95.4
878,1747402690770,0.48,-0.83,0.06,13.31,-45.29,-81.3
879,1747402690780,0.48,-0.83,0.06,13.31,-45.29,-81.3
880,1747402690790,0.48,-0.83,0.06,13.31,-45.29,-81.3
881,1747402690800,0.475,-0.8,0.055,19.96,-11.05,-88.96000000000001
882,1747402690810,0.47,-0.77,0.05,26.61,23.19,-96.62
883,1747402690820,0.47,-0.77,0.05,26.61,23.19,-96.62
884,1747402690830,0.47,-0.77,0.05,26.61,23.19,-96.62
885,1747402690840,0.5,-0.745,0.07,26.61,23.19,-96.62
886,1747402690850,0.53,-0.72,0.09,15.75,-23.56,-99.3
887,1747402690860,0.53,-0.72,0.09,15.75,-23.56,-99.3
888,1747402690870,0.53,-0.72,0.09,15.75,-23.56,-99.3
889,1747402690880,0.74,-0.71,0.09,13.24,-33.2,-91.37
890,1747402690890,0.74,-0.71,0.09,13.24,-33.2,-91.37
891,1747402690900,0.74,-0.71,0.09,13.24,-33.2,-91.37
892,1747402690910,0.74,-0.71,0.09,13.24,-33.2,-91.37
893,1747402690920,0.74,-0.67,0.1,12.57,-14.86,-93.08
894,1747402690930,0.74,-0.67,0.1,11.9,3.48,-94.79
895,1747402690940,0.74,-0.67,0.1,11.9,3.48,-94.79
896,1747402690950,0.74,-0.67,0.1,11.9,3.48,-94.79
897,1747402690960,0.77,-0.64,0.1,14.1,-0.61,-84.72
898,1747402690970,0.77,-0.64,0.1,14.1,-0.61,-84.72
899,1747402690980,0.77,-0.64,0.1,14.1,-0.61,-84.72
900,1747402690990,0.785,-0.605,0.115,17.275,0.09,-86.03
901,1747402691000,0.8,-0.57,0.13,20.45,0.79,-87.34
902,1747402691010,0.8,-0.57,0.13,20.45,0.79,-87.34
903,1747402691020,0.8,-0.57,0.13,20.45,0.79,-87.34
904,1747402691030,0.825,-0.5549999999999999,0.135,20.45,0.79,-87.34
905,1747402691040,0.85,-0.54,0.14,17.94,-9.22,-81.18
906,1747402691050,0.85,-0.54,0.14,17.94,-9.22,-81.18
907,1747402691060,0.85,-0.54,0.14,17.94,-9.22,-81.18
908,1747402691070,0.845,-0.545,0.105,17.055,-1.8350000000000004,-75.225
909,1747402691080,0.84,-0.55,0.07,16.17,5.55,-69.27
910,1747402691090,0.84,-0.55,0.07,16.17,5.55,-69.27
911,1747402691100,0.84,-0.55,0.07,16.17,5.55,-69.27
912,1747402691110,0.84,-0.55,0.07,16.17,5.55,-69.27
913,1747402691120,0.86,-0.42,0.12,22.83,-4.21,-83.31
914,1747402691130,0.86,-0.42,0.12,22.83,-4.21,-83.31
915,1747402691140,0.86,-0.42,0.12,22.83,-4.21,-83.31
916,1747402691150,0.955,-0.41,0.145,13.185,-29.875,-79.255
917,1747402691160,1.05,-0.4,0.17,3.54,-55.54,-75.2
918,1747402691170,1.05,-0.4,0.17,3.54,-55.54,-75.2
919,1747402691180,1.05,-0.4,0.17,3.54,-55.54,-75.2
920,1747402691190,1.11,-0.43,0.12,9.16,-12.33,-60.36
921,1747402691200,1.11,-0.43,0.12,9.16,-12.33,-60.36
922,1747402691210,1.11,-0.43,0.12,9.16,-12.33,-60.36
923,1747402691220,1.11,-0.43,0.12,9.16,-12.33,-60.36
924,1747402691230,1.03,-0.37,0.11,6.96,19.65,-62.81
925,1747402691240,1.03,-0.37,0.11,6.96,19.65,-62.81
926,1747402691250,1.03,-0.37,0.11,6.96,19.65,-62.81
927,1747402691260,1.03,-0.37,0.11,6.96,19.65,-62.81
928,1747402691270,1.06,-0.35,0.12,-0.24,-14.53,-49.32
929,1747402691280,1.06,-0.35,0.12,-0.24,-14.53,-49.32
930,1747402691290,1.06,-0.35,0.12,-0.24,-14.53,-49.32
931,1747402691300,1.02,-0.35,0.1,5.68,12.63,-44.01
932,1747402691310,1.02,-0.35,0.1,5.68,12.63,-44.01
933,1747402691320,1.02,-0.35,0.1,5.68,12.63,-44.01
934,1747402691330,1.02,-0.35,0.1,5.68,12.63,-44.01
935,1747402691340,1.045,-0.315,0.115,4.795,1.4000000000000004,-45.105
936,1747402691350,1.07,-0.28,0.13,3.91,-9.83,-46.2
937,1747402691360,1.07,-0.28,0.13,3.91,-9.83,-46.2
938,1747402691370,1.07,-0.28,0.13,3.91,-9.83,-46.2
939,1747402691380,1.11,-0.29,0.125,0.855,-16.085,-36.985
940,1747402691390,1.15,-0.3,0.12,-2.2,-22.34,-27.77
941,1747402691400,1.15,-0.3,0.12,-2.2,-22.34,-27.77
942,1747402691410,1.15,-0.3,0.12,-2.2,-22.34,-27.77
943,1747402691420,1.07,-0.26,0.1,4.52,18.01,-29.72
944,1747402691430,1.07,-0.26,0.1,4.52,18.01,-29.72
945,1747402691440,1.07,-0.26,0.1,4.52,18.01,-29.72
946,1747402691450,1.07,-0.26,0.1,4.52,18.01,-29.72
947,1747402691460,1.065,-0.26,0.105,2.78,6.350000000000001,-22.215
948,1747402691470,1.06,-0.26,0.11,1.04,-5.31,-14.71
949,1747402691480,1.06,-0.26,0.11,1.04,-5.31,-14.71
950,1747402691490,1.07,-0.255,0.1149999999999999,1.04,-5.31,-14.71
951,1747402691500,1.08,-0.25,0.12,-0.79,-2.69,-10.68
952,1747402691510,1.08,-0.25,0.12,-0.79,-2.69,-10.68
953,1747402691520,1.08,-0.25,0.12,-0.79,-2.69,-10.68
954,1747402691530,1.065,-0.2299999999999999,0.1149999999999999,-0.79,-2.69,-10.68
955,1747402691540,1.05,-0.21,0.11,-0.55,1.4,-9.16
956,1747402691550,1.05,-0.21,0.11,-0.55,1.4,-9.16
957,1747402691560,1.05,-0.21,0.11,-0.55,1.4,-9.16
958,1747402691570,1.06,-0.215,0.1149999999999999,-1.1,-1.19,-6.47
959,1747402691580,1.07,-0.22,0.12,-1.65,-3.78,-3.78
960,1747402691590,1.07,-0.22,0.12,-1.65,-3.78,-3.78
961,1747402691600,1.07,-0.22,0.12,-1.65,-3.78,-3.78
962,1747402691610,1.04,-0.22,0.11,-3.3,3.05,0.55
963,1747402691620,1.04,-0.22,0.11,-3.3,3.05,0.55
964,1747402691630,1.04,-0.22,0.11,-3.3,3.05,0.55
965,1747402691640,1.04,-0.22,0.11,-3.3,3.05,0.55
966,1747402691650,1.02,-0.23,0.1,-2.56,2.01,2.56
967,1747402691660,1.02,-0.23,0.1,-2.56,2.01,2.56
968,1747402691670,1.02,-0.23,0.1,-2.56,2.01,2.56
969,1747402691680,1.015,-0.225,0.105,-2.56,2.01,2.56
970,1747402691690,1.01,-0.22,0.11,-2.99,3.97,2.44
971,1747402691700,1.01,-0.22,0.11,-2.99,3.97,2.44
972,1747402691710,1.01,-0.22,0.11,-2.99,3.97,2.44
973,1747402691720,1.01,-0.22,0.11,-2.99,3.97,2.44
974,1747402691730,1.0,-0.22,0.11,-5.13,0.06,3.72
975,1747402691740,1.0,-0.22,0.11,-5.13,0.06,3.72
976,1747402691750,1.0,-0.22,0.11,-5.13,0.06,3.72
977,1747402691760,1.0,-0.22,0.11,-5.13,0.06,3.72
978,1747402691770,0.99,-0.22,0.1,-3.91,-0.12,3.91
979,1747402691780,0.99,-0.22,0.1,-3.91,-0.12,3.91
980,1747402691790,0.99,-0.22,0.1,-3.91,-0.12,3.91
981,1747402691800,0.99,-0.22,0.1,-3.91,-0.12,3.91
982,1747402691810,0.99,-0.22,0.1,-1.71,3.23,3.05
983,1747402691820,0.99,-0.22,0.1,-1.71,3.23,3.05
984,1747402691830,0.99,-0.22,0.1,-1.71,3.23,3.05
985,1747402691840,1.0,-0.2,0.11,-2.2,1.19,2.44
986,1747402691850,1.0,-0.2,0.11,-2.69,-0.85,1.83
987,1747402691860,1.0,-0.2,0.11,-2.69,-0.85,1.83
988,1747402691870,1.0,-0.2,0.11,-2.69,-0.85,1.83
989,1747402691880,1.0,-0.22,0.1,-3.27,-0.12,2.135
990,1747402691890,1.0,-0.22,0.1,-3.85,0.61,2.44
991,1747402691900,1.0,-0.22,0.1,-3.85,0.61,2.44
992,1747402691910,1.0,-0.22,0.1,-3.85,0.61,2.44
993,1747402691920,0.98,-0.23,0.1,-3.54,4.21,2.99
994,1747402691930,0.98,-0.23,0.1,-3.54,4.21,2.99
995,1747402691940,0.98,-0.23,0.1,-3.54,4.21,2.99
996,1747402691950,0.98,-0.225,0.1,-2.26,2.9,1.955
997,1747402691960,0.98,-0.22,0.1,-0.98,1.59,0.92
998,1747402691970,0.98,-0.22,0.1,-0.98,1.59,0.92
999,1747402691980,0.99,-0.22,0.105,-1.77,0.095,1.62
